File: Experimentelles/Rohdaten/Batteriemessungen/AlteZelle/Studenten_Batterietests/SemArbeitToph/ECLab-Export/Al_rein_01_01_GCPL_C01.mpt
EC-Lab ASCII FILE
Nb header lines : 68

Galvanostatic Cycling with Potential Limitation

Run on channel : 1 (SN 6985)
Grouped channel(s) : 1
User :
CE vs. WE compliance from -10 V to 10 V
Electrode connection : standard
Ewe ctrl range : min = -10,00 V, max = 10,00 V
Acquisition started on : 03.11.2015 14:10:58
Saved on :
	File : Al_rein_01_01_GCPL_C01.mpr
	Directory : C:\Hupfer\Studenten Batterietests\SemArbeitToph\
	Host : 192.168.0.2
Device : VMP3 (SN 0324)
Address : 192.168.0.1
EC-Lab for windows v10.33 (software)
Internet server v10.33 (firmware)
Command interpretor v10.32 (firmware)
Electrode material :
Initial state :
Electrolyte :
Comments :
Mass of active material : 0,001 mg
 at x = 0,000
Molecular weight of active material (at x = 0) : 0,001 g/mol
Atomic weight of intercalated ion : 0,001 g/mol
Acquisition started at : xo = 0,000
Number of e- transfered per intercalated ion : 1
for DX = 1, DQ = 26,801 mA.h
Battery capacity : 0,000 A.h
Electrode surface area : 0,001 cm²
Characteristic mass : 0,001 g
Ns                  0                   1
Set I/C             I                   I
Is                  0,000               100,000
unit Is             mA                  µA
vs.                 <None>              <None>
N                   1                   1
I sign              > 0                 > 0
t1 (h:m:s)          0:00:0,0000         10:00:0,0000
I Range             1 A                 1 A
Bandwidth           5                   5
dE1 (mV)            0,00                10,00
dt1 (s)             0,0000              10,0000
EM (V)              0,000               4,200
tM (h:m:s)          0:00:0,0000         1:00:0,0000
Im                  0,000               0,000
unit Im             mA                  mA
E range min (V)     -10,000             -10,000
E range max (V)     10,000              10,000
dq                  0,000               1,000
unit dq             mA.h                mA.h
dtq (s)             0,0000              120,0000
dQM                 0,000               0,000
unit dQM            mA.h                mA.h
dxM                 0,000               0,000
tR (h:m:s)          0:00:0,0000         0:15:0,0000
dER/dt (mV/h)       0,0                 0,1
dER (mV)            0,00                5,00
dtR (s)             1,0000              120,0000
EL (V)              pass                4,200
goto Ns'            0                   0
nc cycles           0                   0

mode	ox/red	error	control changes	Ns changes	counter inc.	Ns	time/s	control/V/mA	Ewe/V	dq/mA.h	<I>/mA	P/W	(Q-Qo)/mA.h	x	Capacity/mA.h
1	1	1	1	1	0	1	0,0004	0,100000001	1,32104957	0	0	0	0	0	0
1	1	0	1	0	0	1	427,1472	0,100000001	1,47665393	0,00094730650216341018	0,34103034939397894	0,000503583811	0,040283639184663699	-0,0015030367399087251	0,040283639184663699
1	1	0	1	0	0	1	663,6228	0,100000001	0,265043885	6,1585571202966912E-008	0,277135077414372	7,34529604E-005	0,06262880572204128	-0,0023367649468142189	0,06262880572204128
1	1	0	1	0	0	1	820,9706	0,100000001	1,01719236	0,0009449027345851063	0,34016499304392883	0,000346013228	0,077487038630626726	-0,0028911455937401542	0,077487411171940083
1	1	0	1	0	0	1	1174,8352	0,100000001	1,17025709	0,00095145460869537459	0,34252366778321056	0,000400840741	0,11093272376222269	-0,0041390490742019174	0,11093339154763704
1	1	0	1	0	0	1	1504,6338	0,100000001	0,189886332	2,1848688235713376E-005	0,34049904604141837	6,46561166E-005	0,14209496766422222	-0,0053017542922680538	0,14209563544963658
1	1	0	1	0	0	1	1535,4070	0,100000001	0,23113133	7,320092138316896E-007	0,3378504149186761	7,80878181E-005	0,14500331966075514	-0,0054102688155795443	0,14500430180682285
1	1	0	1	0	0	1	1692,4368	0,100000001	0,992120683	0,00094941695457862477	0,34179011228264941	0,000339097052	0,15985634538262566	-0,005964455175368009	0,1598577156192153
1	1	0	1	0	0	1	2152,4367	0,100000001	1,16697276	0,00094675909903314381	0,34083328426210477	0,000397743162	0,20329093954945011	-0,0075850582821651827	0,20329230978603974
1	1	0	1	0	0	1	2612,4367	0,100000001	1,28362358	0,00094996824518673958	0,34198857690658432	0,0004389846	0,24681799288565565	-0,00920911116488464	0,24681936312224528
1	1	0	1	0	0	1	3072,4367	0,100000001	1,37008524	0,00094428288645545638	0,33994184771161773	0,000465749297	0,2903487515287943	-0,010833302297587611	0,29035012176538394
1	1	0	1	0	0	1	3532,4367	0,100000001	1,44854629	0,00094760759163979021	0,34113874160821402	0,000494155276	0,3337531650196505	-0,012452779322786058	0,33375453525624013
1	1	0	1	0	0	1	3992,4367	0,100000001	1,50113368	0,00094466313560638157	0,3400787374094089	0,000510503654	0,37728690275114272	-0,014077081609280926	0,37728827298773235
1	1	0	1	0	0	1	4452,4367	0,100000001	1,55247986	0,00094446983066946266	0,34000914315756301	0,000527857337	0,42071819306222432	-0,015697561444778256	0,42071956329881395
1	1	0	1	0	0	1	4912,4367	0,100000001	1,5866406	0,00094229965456409587	0,3392278797501721	0,000538232736	0,46406096910747469	-0,017314738694008723	0,46406233934406432
1	1	0	1	0	0	1	5372,4367	0,100000001	1,61648595	0,00094403268537008102	0,33985177084788032	0,000549365592	0,50750902995355686	-0,018935844260715146	0,5075104001901465
1	1	0	1	0	0	1	5832,4367	0,100000001	1,64115655	0,00094257671336332954	0,33932762091910381	0,000556889747	0,55101726803211962	-0,020559195120874566	0,55101863826870925
1	1	0	1	0	0	1	6277,6221	0,100000001	1,66149271	0,00095169703509327437	0,34261093678163565	0,000569245545	0,59321431388121421	-0,022133623636035827	0,59321568411780378
1	1	0	1	0	0	1	6638,9227	0,100000001	0,115148857	0,00094909854913751283	0,34167548182623578	3,93435403E-005	0,62754792729216627	-0,023414656914432637	0,62754929752875584
1	1	0	1	0	0	1	6815,1273	0,100000001	0,592254221	3,2383047872119482E-008	0,29144743821165683	0,000172610977	0,64420789097956595	-0,024036262559168928	0,64420943537602944
1	1	0	1	0	0	1	7112,4543	0,100000001	0,966094315	0,00094494902875936691	0,34018165447201715	0,000328647555	0,67228451275944653	-0,025083839067195741	0,67228605715591002
1	1	0	1	0	0	1	7476,6133	0,100000001	1,09452665	0,00095070612582315994	0,34225420944007552	0,000374606345	0,70677602791138854	-0,026370763871850032	0,70677769814859866
1	1	0	1	0	0	1	7936,6133	0,100000001	1,2132206	0,00094629721666624154	0,34066700212436826	0,000413304224	0,75048167671307942	-0,028001480391510906	0,75048334695028966
1	1	0	1	0	0	1	8396,6132	0,100000001	1,3064611	0,0009425000273999241	0,33930001397194362	0,000443282275	0,79409344253210278	-0,02962869401086144	0,79409511276931302
1	1	0	1	0	0	1	8856,6132	0,100000001	1,3819623	0,00094348139486296294	0,33965330626291494	0,000469388062	0,8375858992162336	-0,031251456045976294	0,83758756945344384
1	1	0	1	0	0	1	9231,0580	0,100000001	0,0832603648	0,00094928195940123674	0,34174150952197581	2,84535236E-005	0,87309327375460582	-0,032576283930175776	0,87309494399181606
1	1	0	1	0	0	1	9462,5012	0,100000001	0,527885318	4,9811437726020813E-008	0,29886862665766323	0,000157768358	0,89503498752817626	-0,03339495877201561	0,8950367376652672
1	1	0	1	0	0	1	9482,1588	0,100000001	0,599090219	3,7964793839388422E-005	0,33964527702631501	0,000203478165	0,89689847077315149	-0,03346448783736551	0,89690048084867968
1	1	0	1	0	0	1	9638,6864	0,100000001	0,796951652	0,00095336009442226752	0,34320963814732179	0,000273521495	0,91178541909597504	-0,034019939895004954	0,91178759934856346
1	1	0	1	0	0	1	10098,6864	0,100000001	0,990211189	0,00094609578394558694	0,34059448634405466	0,000337260484	0,95535998694990016	-0,035645765608264474	0,95536216720248858
1	1	0	1	0	0	1	10166,4606	0,100000001	0,967068136	9,3003950185245952E-009	0,16740712674297402	0,000161894102	0,96178180396002176	-0,035885372235136909	0,96178513033227174
1	1	0	1	0	0	1	10312,4254	0,100000001	1,0571388	0,00094556817083723008	0,3404045456227465	0,000359854865	0,97554476866839744	-0,036398886952909261	0,97554874351849882
1	1	0	1	0	0	1	10692,7112	0,100000001	0,119387925	0,00094420973429332173	0,33991550846101862	4,05818064E-005	1,0114709744449002	-0,037739341993727974	1,0114749492950018
1	1	0	1	0	0	1	10814,6032	0,100000001	0,474858731	6,8266553183396646E-009	0,12287980777500176	5,83505498E-005	1,0229542124915456	-0,03816779704462608	1,0229582644143949
1	1	0	1	0	0	1	11091,2056	0,100000001	0,845509946	0,00094374113764199949	0,33974681366450022	0,000287259318	1,0491951395444237	-0,039146881314270611	1,049199191467273
1	1	0	1	0	0	1	11551,2056	0,100000001	1,0006752	0,00094986399454043968	0,34195104217462566	0,000342181942	1,0929144292511963	-0,04077810679444048	1,0929184811740456
1	1	0	1	0	0	1	11950,7432	0,100000001	0,118471369	0,00094347114688820314	0,33964961699195674	4,02387559E-005	1,1307659464391774	-0,042190397792630176	1,1307699983620267
1	1	0	1	0	0	1	12035,8688	0,100000001	0,307606429	1,3187696536382038E-008	0,23737852638000173	7,30191605E-005	1,1388127218317818	-0,042490633801532826	1,138816773754631
1	1	0	1	0	0	1	12035,9634	0,100000001	0,57762754	4,542100834349792E-006	0,34208291219000282	0,000197596513	1,1388214891872123	-0,04249096092335177	1,1388255899115125
1	1	0	1	0	0	1	12419,1256	0,100000001	0,88784337	0,0009471276862174272	0,34096597116641478	0,000302724366	1,1750052620833605	-0,043841026139707123	1,1750093628076605
1	1	0	1	0	0	1	12879,1256	0,100000001	1,0442307	0,00094058393980976602	0,33861022243113523	0,00035358718	1,2184539010783258	-0,045462153277925709	1,2184580018026259
1	1	0	1	0	0	1	13339,1256	0,100000001	1,12704527	0,0009398351042626633	0,33834064163091437	0,000381325226	1,261752112367436	-0,047077667756186637	1,2617562130917362
1	1	0	1	0	0	1	13786,5972	0,100000001	1,20735848	0,00094647037823332672	0,34072934028927366	0,000411382469	1,3039956888684694	-0,04865383239253287	1,3039997895927696
1	1	0	1	0	0	1	14055,2474	0,100000001	0,249271482	1,1474028560022514E-005	0,33747143226760826	8,41220026E-005	1,3293161754317315	-0,049598573789964435	1,329320988435265
1	1	0	1	0	0	1	14070,6538	0,100000001	0,387289464	1,0506020864678754E-005	0,3370915825583833	0,000130552013	1,330761676005473	-0,049652507359866918	1,3307665352077726
1	1	0	1	0	0	1	14071,1642	0,100000001	0,359105408	5,8887388971116813E-008	0,52998651412863674	0,000190321021	1,3308096935364138	-0,049654298958506573	1,3308145527387134
1	1	0	1	0	0	1	14071,2204	0,100000001	0,360499322	3,0150476429197523E-008	0,54270862892277837	0,000195646091	1,3308150040290726	-0,049654497100127712	1,3308199202897682
1	1	0	1	0	0	1	14073,6208	0,100000001	0,358570725	1,1599109652969574E-007	0,29826282098211981	0,000106948319	1,331040545849931	-0,049662912368708141	1,331045540821388
1	1	0	1	0	0	1	14074,8080	0,100000001	0,405658782	2,4479286786582733E-006	0,34157144792410624	0,00013856146	1,3311524754626038	-0,04966708861304793	1,3311574704340608
1	1	0	1	0	0	1	14076,6132	0,100000001	0,436592519	4,3760571214887827E-007	0,34247403882938195	0,000149521598	1,3313234960660723	-0,049673469621702976	1,3313284910375291
1	1	0	1	0	0	1	14077,5128	0,100000001	0,5200755	6,7239832546975872E-008	0,3025792541051863	0,000157364062	1,3314087479456798	-0,04967665048395351	1,3314137429171366
1	1	0	1	0	0	1	14077,6572	0,100000001	0,48495993	1,4437461727195318E-007	0,32484289411368742	0,000157535789	1,3314224631571432	-0,04967716221693351	1,3314274581286002
1	1	0	1	0	0	1	14077,8330	0,100000001	0,477512926	2,9202522503005133E-008	0,2628227091665063	0,000125501247	1,331439192038369	-0,049677786393984262	1,3314441870098259
1	1	0	1	0	0	1	14078,0054	0,100000001	0,486277461	7,354308979378807E-007	0,34836200908462298	0,000169400591	1,3314554882278997	-0,049678394426726112	1,3314604831993566
1	1	0	1	0	0	1	14078,0754	0,100000001	0,471784443	4,7578869594468013E-008	0,42820983716770246	0,00020202274	1,3314620726646509	-0,04967864010091417	1,3314670676361078
1	1	0	1	0	0	1	14078,1874	0,100000001	0,501076043	2,4480576299958758E-006	0,34696880214535661	0,000173857756	1,3314726658609694	-0,049679035347311514	1,3314776608324264
1	1	0	1	0	0	1	14082,3810	0,100000001	0,338177383	7,7333924008740326E-007	0,33143110667396262	0,000112082504	1,3318679281399022	-0,049693783114374285	1,331872923111359
1	1	0	1	0	0	1	14082,5356	0,100000001	0,446407318	6,9954739676581478E-008	0,41972844866272134	0,000187369849	1,3318824032115854	-0,04969432319876073	1,3318873981830424
1	1	0	1	0	0	1	14082,9522	0,100000001	0,469626725	2,4608440697193146E-008	0,22147597186969197	0,000104011036	1,3319215167200829	-0,049695782576351437	1,3319265116915397
1	1	0	1	0	0	1	14083,0640	0,100000001	0,424849153	1,1599109404616886E-007	0,29826281769611866	0,00012671671	1,3319322165283294	-0,049696181800583162	1,3319372492171586
1	1	0	1	0	0	1	14089,3456	0,100000001	0,938425779	0,0001007692616623309	0,33916356243091539	0,000318279839	1,3325235234062898	-0,049718244255220416	1,3325292245872794
1	1	0	1	0	0	1	14184,8188	0,100000001	0,637776494	1,0310454701383909E-005	0,3411547552953664	0,000217580484	1,3415109643402293	-0,05005357776020855	1,3415167928089866
1	1	0	1	0	0	1	14582,4832	0,100000001	0,923321724	0,00094207631145252122	0,33914747622903174	0,000313142227	1,3789963143923978	-0,051452206570244128	1,3790021428611552
1	1	0	1	0	0	1	15042,4832	0,100000001	1,05683339	0,00094702484929478835	0,34092894987381658	0,000360305101	1,4223860812283067	-0,053071137109053856	1,4223919096970642
1	1	0	1	0	0	1	15502,4832	0,100000001	1,16336381	0,00094026659481641318	0,33849597823214502	0,000393793976	1,4657735559698358	-0,054689982126740518	1,4657793844385933
1	1	0	1	0	0	1	15962,4832	0,100000001	1,24014449	0,00092689532919724774	0,33368232255096563	0,000413814298	1,5088678156139981	-0,056297886894912538	1,5088736440827555
1	1	0	1	0	0	1	16255,4611	0,100000001	1,27707398	2,2841482526726192E-008	0,20557334793375533	0,000262532383	1,5364725977937117	-0,057327858433062029	1,5364791378349299
1	1	0	1	0	0	1	16303,2461	0,100000001	0,749710798	1,1723941812912624E-009	0,02110309579635176	1,58212188E-005	1,5409787220644976	-0,057495987988153562	1,540986389815529
1	1	0	1	0	0	1	16346,2737	0,100000001	0,927293479	8,9470023910204582E-009	0,161046035389092	0,000149336935	1,54505130712428	-0,057647941612382899	1,5450593366238899
1	1	0	1	0	0	1	16567,0589	0,100000001	0,348106742	3,5846280886067283E-007	0,32261653142989619	0,000112304988	1,5658937413979613	-0,058425600858084864	1,5659017708975712
1	1	0	1	0	0	1	16567,3741	0,100000001	0,291318476	3,4391171402401395E-008	0,61904123600505587	0,000180338146	1,5659232458448256	-0,058426701708666522	1,5659316676756467
1	1	0	1	0	0	1	16620,4457	0,100000001	0,932792783	0,00094746058080593741	0,34108581321972941	0,000318162376	1,5709339375226691	-0,058613657352113472	1,5709426294113248
1	1	0	1	0	0	1	16869,6483	0,100000001	0,391700417	-1,1903080675337053E-008	-0,21425545756861504	8,3923951E-005	1,594436359191495	-0,059490564303919386	1,5944451072073101
1	1	0	1	0	0	1	16869,7247	0,100000001	0,880186319	2,474416290720304E-006	0,33742040696828038	0,000296992832	1,5944431712693888	-0,059490818471704538	1,594452179032631
1	1	0	1	0	0	1	17163,1535	0,100000001	1,05675697	0,00094888863473633933	0,34159991264089837	0,000360988081	1,6221116835927232	-0,060523167867198605	1,6221208770487766
1	1	0	1	0	0	1	17587,2289	0,100000001	1,12782824	0,00010438455604430704	0,3390943929915273	0,000382440223	1,6619146825494432	-0,062008271273975091	1,6619238760054966
1	1	0	1	0	0	1	17858,2051	0,100000001	1,24291325	0,00094004819941189555	0,33841735588556678	0,000420623401	1,6874877651103581	-0,062962437367698022	1,687497221074079
1	1	0	1	0	0	1	18318,2051	0,100000001	1,31163573	0,00094665025424212224	0,34079409565322406	0,000446997699	1,730901558311087	-0,064582264362482957	1,730911014274808
1	1	0	1	0	0	1	18778,2051	0,100000001	1,3634212	0,00095883589232630195	0,34518092541664096	0,000470626983	1,7746418493542154	-0,066214273430748851	1,7746513053179363
1	1	0	1	0	0	1	19238,2051	0,100000001	1,40611732	0,00094950565534995661	0,34182204006448998	0,000480641902	1,8185052658015824	-0,067850876473390758	1,8185147217653034
1	1	0	1	0	0	1	19698,2051	0,100000001	1,4497683	0,00095160020647529101	0,34257607847873958	0,000496655935	1,8624737779881152	-0,069491400779363674	1,8624832339518362
1	1	0	1	0	0	1	20158,2051	0,100000001	1,48643053	0,00095691132329983846	0,34448808055872563	0,000512057624	1,9063981296929485	-0,071130277398389965	1,9064075856566694
1	1	0	1	0	0	1	20618,2051	0,100000001	1,52221441	0,00095492137702802816	0,34377169989220058	0,000523294264	1,9502742049696931	-0,072767352758975936	1,9502836609334141
1	1	0	1	0	0	1	21077,6239	0,100000001	1,54934824	0,00094800409650802611	0,3412814788748503	0,000528763863	1,9940208564160374	-0,074399599142437478	1,9940303123797584
1	1	0	1	0	0	1	21537,6239	0,100000001	1,57804787	0,00095596105461153715	0,34414598382679539	0,000543078815	2,0378081301199638	-0,076033361196946586	2,0378175860836848
1	1	0	1	0	0	1	21994,8481	0,100000001	1,60606015	0,00095432449943075571	0,34355682395458099	0,000551772944	2,0813660397084307	-0,077658565367924595	2,0813754956721517
1	1	0	1	0	0	1	22113,0213	0,100000001	1,1421876	2,8083356180124813E-005	0,34434633332609779	0,000393308117	2,0926111688799014	-0,078078136256549133	2,0926214596541658
1	1	0	1	0	0	1	22236,7157	0,100000001	1,16853857	-1,6547350419892205E-009	-0,029785229341083488	3,48051908E-005	2,1044250743516426	-0,078518928953664653	2,1044361926776141
1	1	0	1	0	0	1	22527,9985	0,100000001	0,150035262	0,0009461127467155456	0,34060059294131373	5,1102099E-005	2,1321209719059069	-0,079552300128944538	2,1321320902318784
1	1	0	1	0	0	1	22728,7381	0,100000001	0,742550254	0,00096234012015743398	0,34644244745112198	0,00025725094	2,1513264580311066	-0,080268882638326464	2,1513377278998918
1	1	0	1	0	0	1	23188,7381	0,100000001	0,928114533	0,00096065373686866624	0,34583534945981536	0,000320974825	2,1953149520176042	-0,081910152492121869	2,1953262218863894
1	1	0	1	0	0	1	23646,7429	0,100000001	1,04493725	0,00094824157527089126	0,3413669712305168	0,000356707053	2,2390055887939123	-0,083540308892931853	2,2390168586626976
1	1	0	1	0	0	1	24106,7429	0,100000001	1,14207304	0,00094626647188183322	0,3406559340018473	0,000389053952	2,2825197811601453	-0,085163881915569856	2,2825310510289306
1	1	0	1	0	0	1	24566,7428	0,100000001	1,22843921	0,00095209000638044544	0,34275240644673005	0,000421050499	2,3261464311109181	-0,086791650881887898	2,3261577009797034
1	1	0	1	0	0	1	24875,2338	0,100000001	0,211845472	6,9713569349712794E-008	0,31371106999871584	6,64582694E-005	2,3554997536812845	-0,087886862812950208	2,3555110235500698
1	1	0	1	0	0	1	25047,1284	0,100000001	0,855649352	0,00094884587463322611	0,3415845190035913	0,000292276585	2,3718270803306102	-0,088496057322560704	2,3718385236859283
1	1	0	1	0	0	1	25507,1284	0,100000001	1,01224673	0,00094680963384691226	0,34085147231164307	0,000345025794	2,4157758520777869	-0,090135845086199923	2,415787295433105
1	1	0	1	0	0	1	25967,1284	0,100000001	1,12127864	0,00095514542738762163	0,34385235802263078	0,000385554304	2,4595142333944563	-0,091767782900003981	2,4595256767497741
1	1	0	1	0	0	1	26217,4604	0,100000001	0,210260585	0,0007046002931007081	0,34166120064998406	7,18378869E-005	2,4832643414254659	-0,092653931363000806	2,4832757847807837
1	1	0	1	0	0	1	26219,1110	0,100000001	0,299491107	1,1753361258241864E-007	0,42312100982842182	0,000126720974	2,4834200533071574	-0,092659741182663578	2,4834314966624755
1	1	0	1	0	0	1	26219,2906	0,100000001	0,365139395	1,4638274080223507E-007	0,37641276374683834	0,00013744313	2,4834368327351482	-0,092660367245682099	2,483448280813504
1	1	0	1	0	0	1	26220,1936	0,100000001	0,370123148	1,2482587496439616E-007	0,32098082610932941	0,000118802433	2,4835227251006403	-0,092663572005322112	2,4835341731789962
1	1	0	1	0	0	1	26221,9738	0,100000001	0,412685692	1,1877500977781085E-006	0,33935717583927373	0,00014004785	2,4836923170513354	-0,09266989970902135	2,4837037651296915
1	1	0	1	0	0	1	26222,5314	0,100000001	0,352823168	1,0021744006209904E-007	0,3607827828375353	0,000127292529	2,4837453332813469	-0,09267187781584416	2,4837567813597027
1	1	0	1	0	0	1	26223,4006	0,100000001	0,392521471	1,4214205245176954E-007	0,36550814410949114	0,000143469792	2,4838285145469482	-0,092674981420702144	2,483839962625304
1	1	0	1	0	0	1	26225,9848	0,100000001	0,377512872	8,5279066926903206E-006	0,3441756104096112	0,000129930719	2,4840750753137232	-0,092684180934414989	2,484086523392079
1	1	0	1	0	0	1	26230,2036	0,100000001	0,431265056	2,5668611956967248E-008	0,23101751344869846	9,96297822E-005	2,4844766746091107	-0,092699165144081894	2,4844881226874666
1	1	0	1	0	0	1	26232,0752	0,100000001	0,38457799	4,3529152042335936E-009	0,078352492758237632	3,01326436E-005	2,4846551858447114	-0,092705825638293069	2,4846666339230672
1	1	0	1	0	0	1	26232,8528	0,100000001	0,447171092	1,5062343577543894E-007	0,38731741606416102	0,000173197157	2,4847294438255219	-0,092708596303398029	2,4847408919038778
1	1	0	1	0	0	1	26239,4170	0,100000001	0,439934134	7,6186831626627174E-008	0,27427260477575834	0,000120661884	2,4853552801055843	-0,092731947096452979	2,4853667281839402
1	1	0	1	0	0	1	26239,5302	0,100000001	0,43745181	2,009004900852839E-007	0,32874625828453766	0,000143810641	2,4853661238228272	-0,092732351690122854	2,485377571901183
1	1	0	1	0	0	1	26239,5774	0,100000001	0,425211966	9,1623826159371264E-008	0,41230724313257786	0,000175317968	2,4853707500475574	-0,092732524300787558	2,4853821981259133
1	1	0	1	0	0	1	26239,6454	0,100000001	0,417344868	1,0021743675072989E-007	0,3607827709166064	0,000150570835	2,4853772255777517	-0,092732765911525555	2,4853886736561078
1	1	0	1	0	0	1	26239,7116	0,100000001	0,422615051	4,4044956564903251E-008	0,39640461909815226	0,000167526552	2,4853835944339578	-0,092733003542113613	2,4853950425123136
1	1	0	1	0	0	1	26240,4874	0,100000001	0,421373874	7,2428481446372134E-008	0,43457091019614918	0,000183116834	2,485457542894288	-0,092735762658593306	2,4854689909726438
1	1	0	1	0	0	1	26240,7616	0,100000001	0,447858512	1,5332161924905248E-007	0,30664324128651315	0,000137332783	2,4854838788004022	-0,09273674528665943	2,4854953268787581
1	1	0	1	0	0	1	26248,2898	0,100000001	0,539399505	9,6738276903827981E-006	0,34076105776898003	0,000183806347	2,4862016906711427	-0,092763527812665088	2,4862131387494989
1	1	0	1	0	0	1	26302,0850	0,100000001	0,648278654	0,00095047006046358093	0,34216922590959814	0,000221820999	2,491323272960177	-0,092954620933909581	2,4913347210385331
1	1	0	1	0	0	1	26630,2576	0,100000001	0,7644521	6,8300007118119142E-008	0,3073500453865161	0,000234954394	2,5224489635902646	-0,094115962300254272	2,5224604116686208
1	1	0	1	0	0	1	27031,3576	0,100000001	0,819693685	0,00095392905443658432	0,34341446375495571	0,000281494664	2,5604701462999824	-0,09553458374717769	2,5604815943783382
1	1	0	1	0	0	1	27491,3576	0,100000001	0,873923182	0,00095352972242236147	0,34327070422809498	0,000299992214	2,6043801125068909	-0,097172923623934899	2,6043915605852467
1	1	0	1	0	0	1	27948,5284	0,100000001	0,903367519	0,00095208329168707123	0,34274998915708608	0,00030962922	2,6481715007128467	-0,098806839196046758	2,6481829487912029
1	1	0	1	0	0	1	28365,6980	0,100000001	0,976902008	0,00096390140291551744	0,34700450925083706	0,000338989397	2,6881296000002083	-0,1002977296046941	2,6881410480785642
1	1	0	1	0	0	1	28825,6980	0,100000001	1,098212	0,0009593903630872567	0,34538053489300141	0,000379301055	2,7322450890275939	-0,10194373781421168	2,7322565371059501
1	1	0	1	0	0	1	29266,6514	0,100000001	1,19779193	1,5545904348293939E-005	0,34761028782143181	0,000416364812	2,7745501862387264	-0,10352219787096717	2,7745616343170822
1	1	0	1	0	0	1	29726,6514	0,100000001	1,27934623	0,00095393894910812378	0,34341802583675309	0,000439350551	2,8185127497866803	-0,10516250022523669	2,8185241978650365
1	1	0	1	0	0	1	29813,2480	0,100000001	0,866113365	0,00012093019940621322	0,34182531652788	0,000296059472	2,826804108548496	-0,10547186196849045	2,8268158785377021
1	1	0	1	0	0	1	30242,4780	0,100000001	1,09813559	0,00095961794711235494	0,34546246514302867	0,000379364617	2,8680392352595866	-0,10701039998729874	2,8680510052487923
1	1	0	1	0	0	1	30702,4780	0,100000001	1,21301055	0,00095124504774394957	0,34244822133390874	0,000415393297	2,9120655329237197	-0,10865308034713432	2,9120773029129261
1	1	0	1	0	0	1	31162,4780	0,100000001	1,29066956	0,00095071955522977651	0,34225904402651597	0,000441743323	2,9558112877475859	-0,11028529327640566	2,9558230577367917
1	1	0	1	0	0	1	31622,4780	0,100000001	1,34522367	0,00096189237371087078	0,34628125872840768	0,000465825753	2,999905617118617	-0,1119305119906952	2,9999173871078234
1	1	0	1	0	0	1	32082,4780	0,100000001	1,39135706	0,00095390855771717094	0,34340708493587757	0,000477801863	3,0439064232560115	-0,11357224122739443	3,0439181932452173
1	1	0	1	0	0	1	32270,6602	0,100000001	0,26827094	7,9255133867263795E-008	0,3566480984375936	9,56783188E-005	3,0618293418037312	-0,11424096941603014	3,0618418931124333
1	1	0	1	0	0	1	32507,0908	0,100000001	0,383814216	2,7792305747667952E-007	0,35732964692573587	0,000137148192	3,0842402665231226	-0,11507715114911938	3,0842528178318246
1	1	0	1	0	0	1	32736,6455	0,100000001	0,807262897	0,00094981805399308595	0,34193450357737818	0,000276031031	3,106006025963511	-0,11588926089821509	3,1060185772722131
1	1	0	1	0	0	1	33195,3970	0,100000001	0,955458462	0,00093945803560233779	0,33820489218688595	0,000323140732	3,1493447915568922	-0,11750628851209421	3,1493573428655942
1	1	0	1	0	0	1	33655,3970	0,100000001	1,06645715	0,00094609472313688858	0,34059409969487392	0,000363229017	3,1928824307281338	-0,11913073636655165	3,1928949820368365
1	1	0	1	0	0	1	34092,1828	0,100000001	1,16067147	0,00095816338893936742	0,34493881937567366	0,000400360645	3,2343234713897882	-0,12067695731170973	3,2343360226984902
1	1	0	1	0	0	1	34371,4906	0,100000001	1,24528098	1,0314970013168123E-005	0,34575318439822074	0,000430559856	3,2609537587679014	-0,12167056913858934	3,2609663100766035
1	1	0	1	0	0	1	34564,4878	0,100000001	1,23655462	0,00019166947611918051	0,34067844016286118	0,000421267498	3,2792884700498899	-0,12235466186780182	3,279301021358592
1	1	0	1	0	0	1	34803,8174	0,100000001	1,30220294	0,00010786119501872195	0,34356777682055898	0,000447394967	3,3020970783017696	-0,12320568170817941	3,3021096296104717
1	1	0	1	0	0	1	35070,4270	0,100000001	1,37625289	0,00095000323075056077	0,3420011624331751	0,000470680097	3,3275838980117862	-0,12415662921895368	3,3275964493204883
1	1	0	1	0	0	1	35530,4270	0,100000001	1,43569541	0,00095326785927100314	0,34317642869834522	0,000492696825	3,3711969219040256	-0,12578388977870739	3,3712094732127283
1	1	0	1	0	0	1	35990,4270	0,100000001	1,48427284	0,00095777218476600115	0,3447979858735241	0,000511774269	3,4151295889044262	-0,12742307665259134	3,4151421402131283
1	1	0	0	0	0	1	37163,6158	0,100000001	1,49210179	0,0009597741463705897	0,3455186920498336	0,000515549036	3,4413171785113856	-0,1284001708304157	3,4413297298200883
1	1	0	0	0	0	1	37623,6158	0,100000001	1,54184401	0,00095750996835612595	0,3447035879661449	0,000531479134	3,4854976805777203	-0,13004860476382742	3,4855102318864224
1	1	0	0	0	0	1	38083,6158	0,100000001	1,57827699	0,00096662710950771968	0,34798575877460512	0,000549217919	3,5296658121823744	-0,1316965771386816	3,5296783634910765
1	1	0	0	0	0	1	38543,6158	0,100000001	1,60917258	0,0009677077800598409	0,3483748001726441	0,000560595188	3,5742846134291482	-0,13336136460381504	3,5742971647378502
1	1	0	0	0	0	1	39003,6158	0,100000001	1,63649738	0,00096878491701847974	0,34876256947703174	0,000570749049	3,6188576098674221	-0,13502444302995811	3,6188701611761242
1	1	0	0	0	0	1	39463,6158	0,100000001	1,65914392	0,00097241954608509939	0,35007103593857766	0,000580818218	3,6633932860665446	-0,13668612898780088	3,6634058373752467
1	1	0	0	0	0	1	39923,6158	0,100000001	1,68039656	0,00096926552888088768	0,34893558974717638	0,000586350157	3,7079203720272314	-0,13834749443229787	3,7079329233359334
1	1	0	0	0	0	1	40383,6158	0,100000001	1,69868958	0,0009596267815877993	0,34546564072812787	0,000586838869	3,7522450732811418	-0,14000130863127594	3,7522576245898438
1	1	0	0	0	0	1	40843,6158	0,100000001	1,71849096	0,00097470775437437824	0,35089479092118368	0,000603009539	3,7967269067852525	-0,14166098564577554	3,7967394580939546
1	1	0	0	0	0	1	41303,6158	0,100000001	1,73451161	0,00096564291503032051	0,34763144876340134	0,000602970773	3,8412766419499046	-0,1433231961625247	3,8412891932586074
1	1	0	0	0	0	1	41763,6158	0,100000001	1,74696147	0,00095774815386699302	0,34478933474989734	0,00060233369	3,885551100153575	-0,14497513572574576	3,8855636514622771
1	1	0	0	0	0	1	42223,6158	0,100000001	1,76063335	0,00095742480054580506	0,3446729275544864	0,00060684263	3,9297494520142202	-0,14662423565898256	3,9297620033229229
1	1	0	0	0	0	1	42683,6158	0,100000001	1,77577567	0,0009616676163259479	0,34620034123249286	0,000614774122	3,9738251703847405	-0,14826875997182029	3,9738377216934426
1	1	0	0	0	0	1	43143,6158	0,100000001	1,78658342	0,00095615965986251827	0,34421747690935155	0,000614973251	4,0178287509969965	-0,14991059272790691	4,0178413023056992
1	1	0	0	0	0	1	43603,6158	0,100000001	1,79681826	0,00095402058295408883	0,34344740922375136	0,000617112557	4,0618212838928499	-0,15155201327884074	4,0618338352015526
1	1	0	0	0	0	1	44063,6158	0,100000001	1,80831337	0,0009588206964524256	0,34517545007993382	0,00062418537	4,1058556346382957	-0,15319499410996758	4,1058681859469984
1	1	0	0	0	0	1	44523,6158	0,100000001	1,8200568	0,00096288716996461158	0,34663938054159398	0,000630903349	4,1498849711141357	-0,15483778785195366	4,1498975224228384
1	1	0	0	0	0	1	44983,6158	0,100000001	1,82939422	0,00097426212819996813	0,35073436549869485	0,000641631428	4,1942168083983456	-0,15649186830581667	4,1942293597070483
1	1	0	0	0	0	1	45443,6158	0,100000001	1,83861697	0,00097497138462215667	0,3509896978102071	0,000645335589	4,2389709956085773	-0,1581617072032751	4,2389835469172794
1	1	0	0	0	0	1	45903,6158	0,100000001	1,84722877	0,00096884994066423834	0,34878597798946131	0,000644287502	4,2835638084590208	-0,15982552500639968	4,2835763597677235
1	1	0	0	0	0	1	46363,6158	0,100000001	1,8568145	0,00096944929230544307	0,34900174457989306	0,000648031477	4,3281488799250074	-0,16148905396806179	4,3281614312337101
1	1	0	0	0	0	1	46823,6158	0,100000001	1,86519706	0,00097414727602402368	0,35069301871543187	0,000654111616	4,3730222593011955	-0,16316334008548762	4,3730348106098982
1	1	0	0	0	0	1	47283,6158	0,100000001	1,87392354	0,00098502006523145574	0,35460722282281664	0,000664506806	4,4179173892036986	-0,16483843774429414	4,4179299405124013
1	1	0	0	0	0	1	47743,6158	0,100000001	1,8804158	0,00097938877537929357	0,3525799584798144	0,000662996899	4,4629655279856755	-0,16651924437011645	4,4629780792943776
1	1	0	0	0	0	1	48203,6158	0,100000001	1,88696527	0,00098082707780185664	0,35309774735097254	0,000666283187	4,5078710606658253	-0,16819473017054365	4,5078836119745274
1	1	0	0	0	0	1	48663,6158	0,100000001	1,89361036	0,00097587288554675046	0,35131423814245638	0,000665252272	4,5526320407649792	-0,16986482251982086	4,5526445920736813
1	1	0	0	0	0	1	49123,6158	0,100000001	1,90140104	0,00097320690184583258	0,35035448401191366	0,000666164386	4,597288661592928	-0,17153102108437693	4,5973012129016307
1	1	0	0	0	0	1	49583,6158	0,100000001	1,90625119	0,00097750696669353382	0,35190250735420262	0,000670814596	4,6419876625184192	-0,17319880090735293	4,6420002138271219
1	1	0	0	0	0	1	50043,6158	0,100000001	1,91192234	0,00097011896875086758	0,34924282809979693	0,000667725166	4,6868612874991699	-0,1748730961886152	4,6868738388078726
1	1	0	0	0	0	1	50503,6158	0,100000001	1,91509211	0,00096583480650186547	0,34770052969302886	0,000665878528	4,7313902206390803	-0,17653453055385264	4,731402771947783
1	1	0	0	0	0	1	50963,6158	0,100000001	1,91639054	0,00095627415876090522	0,34425869651269408	0,000659734127	4,7756914157205587	-0,17818746770593286	4,7757039670292614
1	1	0	0	0	0	1	51423,6158	0,100000001	1,92255819	0,00096456189086453786	0,34724228006444448	0,0006675935	4,8199473509193734	-0,17983871615093837	4,8199599022280762
1	1	0	0	0	0	1	51883,6158	0,100000001	1,92729378	0,00096625180804729459	0,34785065024910374	0,000670410402	4,8642302304354176	-0,18149096992464669	4,8642427817441203
1	1	0	0	0	0	1	52343,6158	0,100000001	1,9305017	0,00096137076821757696	0,34609347591367834	0,000668134016	4,9087164318560544	-0,18315080991198461	4,9087289831647565
1	1	0	0	0	0	1	52803,6158	0,100000001	1,93695581	0,00097433987405730624	0,35076235400728442	0,000679411169	4,9532747515992198	-0,18481334073090016	4,9532873029079226
1	1	0	0	0	0	1	53263,6158	0,100000001	1,94224501	0,00097000093667705856	0,3492003365533047	0,000678232638	4,9979363697340198	-0,18647972575169376	4,9979489210427219
1	1	0	0	0	0	1	53723,6158	0,100000001	1,94556761	0,00096114813115364979	0,34601332657081382	0,00067319232	5,0423593872685555	-0,1881372082632896	5,0423719385772576
1	1	0	0	0	0	1	54183,6158	0,100000001	1,94906199	0,00096878102964162816	0,34876117002136787	0,000679757155	5,0868137004263405	-0,18979585845666627	5,0868262517350432
1	1	0	0	0	0	1	54643,6158	0,100000001	1,95467579	0,0009742214883226487	0,3507197351428871	0,000685543404	5,1314146836865549	-0,19145998110876464	5,1314272349952576
1	1	0	0	0	0	1	55103,6158	0,100000001	1,95710087	0,00098106773731443622	0,35318438477533984	0,000691217487	5,1764435481557261	-0,1931400685840616	5,1764560994644288
1	1	0	0	0	0	1	55563,6158	0,100000001	1,97046733	0,00098442460148450394	0,35439285587431328	0,00069831952	5,221612647120553	-0,19482538839693875	5,2216251984292557
1	1	0	0	0	0	1	56023,6158	0,100000001	1,96987534	0,00097323870673278963	0,35036593377119693	0,000690177199	5,2665268527293376	-0,19650119779599421	5,2665394040380403
1	1	0	0	0	0	1	56483,6158	0,100000001	1,97434366	0,00098636896018518336	0,35509282500525408	0,000701075245	5,3115755813210688	-0,19818202642841146	5,3115881326297715
1	1	0	0	0	0	1	56943,6158	0,100000001	1,9801867	0,00098411291008856563	0,35428064697198445	0,000701541838	5,3567550848304448	-0,19986773444883478	5,3567676361391469
1	1	0	0	0	0	1	57403,6158	0,100000001	1,98054945	0,00097852650076813184	0,35226953962037434	0,000697687268	5,4018762109267949	-0,20155126432948886	5,4018887622354976
1	1	0	0	0	0	1	57863,6158	0,100000001	1,9839102	0,00098084545414894822	0,35310436283591315	0,000700527336	5,4471033346169523	-0,20323874912288317	5,447115885925655
1	1	0	0	0	0	1	58323,6158	0,100000001	1,9849031	0,00096995640876723648	0,34918430650579872	0,000693097012	5,4920435975311987	-0,20491553075503981	5,4920561488399008
1	1	0	0	0	0	1	58783,6158	0,100000001	1,99135721	0,00097135301117599014	0,3496870833720135	0,000696351868	5,5368269762757427	-0,20658645882789184	5,5368395275844448
1	1	0	0	0	0	1	59243,6158	0,100000001	1,99171996	0,00096698686228940877	0,34811526977577197	0,00069334812	5,5816046237216774	-0,20825717305828698	5,5816171750303802
1	1	0	0	0	0	1	59703,6158	0,100000001	1,99487066	0,0009716996882797943	0,34981188712915059	0,00069782947	5,6262822388185357	-0,2099241549472431	5,6262947901272378
1	1	0	0	0	0	1	60163,6158	0,100000001	1,9977349	0,00096859585292223424	0,34869450640251021	0,000696599192	5,6708756609196512	-0,21158799548232944	5,6708882122283539
1	1	0	0	0	0	1	60623,6158	0,100000001	2,00052285	0,00096246875461190938	0,34648875101490176	0,000693158654	5,7153574389406662	-0,2132476704266801	5,715369990249369
1	1	0	0	0	0	1	61032,3106	0,100000001	0,0954238176	0,00096638044224845043	0,34789695856143354	3,31976553E-005	5,7549364349420237	-0,21472441598201683	5,7549489862507264
1	1	0	0	0	0	1	61475,1332	0,100000001	0,185341731	0,00096556446229997606	0,34760320578052992	6,44253814E-005	5,7978106662648832	-0,21632411119768986	5,7978232175735859
1	1	0	0	0	0	1	61935,1332	0,100000001	0,185112596	0,00097013840540084582	0,34924982529377594	6,46505432E-005	5,8424310920529549	-0,21798895927664333	5,8424436433616576
1	1	0	0	0	0	1	62013,5356	0,100000001	0,882573187	0,00047647608147561549	0,35046459016065696	0,00030931065	5,8500570848785498	-0,21827349532222266	5,8500697858675994
1	1	0	0	0	0	1	62375,0768	0,100000001	1,03357577	5,413089361455705E-009	0,09743560387825984	0,000100707082	5,8849439856944333	-0,21957517249760032	5,8849567783742259
1	1	0	0	0	0	1	62394,1640	0,100000001	0,493476242	6,5740473160313229E-005	0,34650908189139942	0,000170993997	5,8867875837336742	-0,21964395961918832	5,8868003764134682
1	1	0	0	0	0	1	62406,3768	0,100000001	0,587174952	1,4955824613571168E-006	0,34076562298587219	0,000200089038	5,8879651007567949	-0,21968789436250941	5,8879778934365875
1	1	0	0	0	0	1	62411,7590	0,100000001	0,638979435	8,4556000100241779E-008	0,38050201006337728	0,000243132963	5,8884833068726963	-0,21970722932942922	5,888496099552489
1	1	0	0	0	0	1	62429,0632	0,100000001	0,578830481	3,4769440707233216E-006	0,34387358902595232	0,000199044516	5,8901473715535181	-0,21976931782002944	5,8901601642333107
1	1	0	0	0	0	1	62433,1002	0,100000001	0,620743811	1,6345775127410886E-007	0,36777996303740538	0,00022829714	5,8905338818702515	-0,21978373903961542	5,8905466745500442
1	1	0	0	0	0	1	62435,7932	0,100000001	0,666571617	1,257738305462731E-007	0,37732148744388608	0,000251511781	5,8907920560452454	-0,21979337186520333	5,8908048487250394
1	1	0	0	0	0	1	62477,7462	0,100000001	0,552670479	1,0481152435143787E-007	0,3773214807248681	0,000208534446	5,8948402047315366	-0,21994441373548259	5,8948530228889562
1	1	0	0	0	0	1	62479,0224	0,100000001	0,720342875	4,6518696679009338E-008	0,41866825022540915	0,000301584689	5,8949634274252186	-0,21994901133985856	5,8949763049858253
1	1	0	0	0	0	1	62479,0430	0,100000001	0,761778831	2,8030130598280163E-008	0,50454236351485517	0,000384349696	5,8949653741544922	-0,21994908397494518	5,8949782694181235
1	1	0	0	0	0	1	62479,1124	0,100000001	0,762179792	2,9443694485558406E-008	0,52998647556704448	0,000403944985	5,8949721469655283	-0,21994933667763107	5,8949850597077389
1	1	0	0	0	0	1	62481,1784	0,100000001	0,833002806	1,3187696536382038E-008	0,23737852638000173	0,000197736983	5,8951719272881805	-0,21995679075007674	5,8951848400303923
1	1	0	0	0	0	1	62481,6566	0,100000001	0,824238241	3,885717375410928E-006	0,34971456269793395	0,00028824812	5,8952181410655373	-0,21995851504824502	5,8952310538077491
1	1	0	0	0	0	1	62488,4824	0,100000001	0,924276471	1,9902131623691984E-008	0,35823835221104704	0,000331111281	5,8958801269248141	-0,21998321463070406	5,8958930396670246
1	1	0	0	0	0	1	62488,5930	0,100000001	0,984482706	2,2894734972053104E-007	0,45789467769223194	0,000450789405	5,8958908267665293	-0,21998361385618458	5,8959037428182106
1	1	0	0	0	0	1	62498,1776	0,100000001	0,781255603	6,0042864445183014E-005	0,34886105810972179	0,00027254966	5,8968223188131597	-0,22001836907684867	5,896835234864841
1	1	0	0	0	0	1	62525,6080	0,100000001	0,820247412	1,662166282451815E-005	0,34708808627463315	0,000284698093	5,899468792836672	-0,22011711258088816	5,8994817088883546
1	1	0	0	0	0	1	62640,0260	0,100000001	0,865311384	0,00096367885455820301	0,34718130115721146	0,000300419924	5,9105238214097933	-0,22052959056059526	5,9105367374614746
1	1	0	0	0	0	1	62949,1538	0,100000001	1,15906751	0,00096572242819021133	0,3476600735009088	0,000402961508	5,9403939511800448	-0,22164408526313997	5,9404068672317274
1	1	0	0	0	0	1	63327,6488	0,100000001	0,235905051	0,00097747551523480141	0,35189118482908013	8,30129065E-005	5,9772212625194112	-0,22301816176405843	5,9772341785710938
1	1	0	0	0	0	1	63787,6488	0,100000001	0,255477339	0,00098064260755976038	0,35303133806394163	9,01915046E-005	6,0220361079324838	-0,22469026390062064	6,0220490239841651
1	1	0	0	0	0	1	64247,6488	0,100000001	0,227083206	0,00097487844257056704	0,35095623867169722	7,96962704E-005	6,0667619029817331	-0,22635904344837914	6,0667748190334144
1	1	0	0	0	0	1	64707,6488	0,100000001	0,206193373	0,00097325779010355482	0,35037280378465952	7,22445475E-005	6,111385484906967	-0,22802400928705363	6,1113984009586483
1	1	0	0	0	0	1	65167,6488	0,100000001	0,184367895	0,00096114000328133504	0,34601040053678598	6,37932098E-005	6,1559468922342118	-0,22968665530788253	6,1559598082858931
1	1	0	0	0	0	1	65627,6506	0,100000001	0,170046717	0,00098006103788730176	0,35281500040115859	5,99950326E-005	6,2006318564097971	-0,23135391140084688	6,2006447724614784
1	1	0	0	0	0	1	66087,6597	0,100000001	0,164318249	0,00097993876420044237	0,35277098380341158	5,79667103E-005	6,2456894857290739	-0,23303507213137603	6,2457024017807552
1	1	0	0	0	0	1	66539,8966	0,100000001	0,238692909	0,0009777056849706505	0,35196708985161664	8,40120483E-005	6,2900210534674099	-0,23468914252812013	6,2900339695190925
1	1	0	0	0	0	1	66809,4517	0,100000001	0,345796257	0,00042710123181756998	0,35021064061777504	0,000121101526	6,3161832282483277	-0,23566528844461424	6,316196144300009
1	1	0	0	0	0	1	67086,0224	0,100000001	0,447132915	0,00096739549433191616	0,34825549587982189	0,000155716494	6,3429644622235533	-0,23666453229198195	6,3429773782752346
1	1	0	0	0	0	1	67546,0315	0,100000001	0,581732929	0,00096508890948113472	0,3474251404484183	0,00020210864	6,3872402529292454	-0,23831652157264506	6,3872531689809267
1	1	0	0	0	0	1	68006,0406	0,100000001	0,687060416	0,00096119347795181798	0,34602281300865293	0,000237738583	6,4315780581486784	-0,2399708246981952	6,4315909742003597
1	1	0	0	0	0	1	68466,0497	0,100000001	0,776310027	0,00096232998390495782	0,34643194816633824	0,000268938602	6,4759874452429568	-0,24162779863973872	6,4760003612946381
1	1	0	0	0	0	1	68926,0588	0,100000001	0,85312885	0,00095354962455812429	0,34327108043397952	0,000292854471	6,5202074552547046	-0,2432777066677128	6,5202203713063872
1	1	0	0	0	0	1	69386,0679	0,100000001	0,92221421	0,00095532152848856307	0,34390895279362701	0,000317157712	6,5642207112292544	-0,24491990042457533	6,564233627280937
1	1	0	0	0	0	1	69846,0770	0,100000001	0,983088791	0,00096960489697174899	0,34905086511240704	0,000343147985	6,6083780635555878	-0,2465674706100625	6,6083909796072704
1	1	0	0	0	0	1	70192,8113	0,100000001	0,284215182	0,00096888362520353664	0,34879121136754074	9,91317575E-005	6,6419361058937344	-0,2478195662889665	6,641949021945417
1	1	0	0	0	0	1	70636,7434	0,100000001	0,240907922	0,00096855885887808269	0,34867429884023264	8,39983986E-005	6,6850253573515341	-0,24942728419497178	6,6850382734032166
1	1	0	0	0	0	1	71096,7525	0,100000001	0,205735102	0,00096696612419601946	0,3481009253653152	7,16165814E-005	6,7296156652312346	-0,25109100853426992	6,7296285812829171
1	1	0	0	0	0	1	71556,7616	0,100000001	0,198880032	0,00097140436538308864	0,34969865964038643	6,95480776E-005	6,7741717104122445	-0,25275345448621328	6,774184626463927
1	1	0	0	0	0	1	72016,7707	0,100000001	0,192349568	0,00097032722886155059	0,3493108990677344	6,71898015E-005	6,818644969092439	-0,25441281156250362	6,8186578851441216
1	1	0	0	0	0	1	72476,7798	0,100000001	0,176328942	0,00097525102916525478	0,35108343253532058	6,19061684E-005	6,8634941689428736	-0,25608619550931382	6,8635070849945562
3	1	0	1	0	0	1	72928,0575	0	0,140212491	0	0	0	6,9046791220903898	-0,25762286148500611	6,9046920381420723
1	1	0	1	0	0	1	74150,0076	0,100000001	0,136431709	0,00098286837809036173	0,35382562264075526	4,82730356E-005	6,9388740527679821	-0,25889872032416035	6,9388869688196646
1	1	0	1	0	0	1	74610,0167	0,100000001	0,126960635	0,00098311115786350438	0,35391302204516461	4,49330219E-005	6,9839279919775475	-0,26057974337173472	6,9839409080292301
1	1	0	1	0	0	1	75070,0258	0,100000001	0,120296501	0,000981965463374224	0,35350058108798458	4,25248836E-005	7,0289165046780467	-0,26225832526828902	7,0289294207297293
1	1	0	1	0	0	1	75530,0348	0,100000001	0,113135912	0,00098249873098482701	0,35369255256358778	4,00153294E-005	7,0740848861182669	-0,26394361830935837	7,0740978021699494
1	1	0	1	0	0	1	75990,0439	0,100000001	0,110023446	0,00096962291988316506	0,34905735193605056	3,84044943E-005	7,1187062107970138	-0,26560849992713149	7,118719126848695
1	1	0	1	0	0	1	76448,3214	0,100000001	0,091864191	0,0009665151968465911	0,347938595049592	3,19630963E-005	7,1629306186366298	-0,26725857204397629	7,1629435346883123
1	1	0	1	0	0	1	76908,3305	0,100000001	0,0899165049	0,00096085704879545498	0,34590170152220467	3,11022704E-005	7,2073200154461837	-0,26891480012111952	7,207332931497865
1	1	0	1	0	0	1	77368,3396	0,100000001	0,0884461999	0,00096013895851870374	0,3456431933267001	3,05708272E-005	7,2516902277047296	-0,27057031239687075	7,2517031437564122
1	1	0	1	0	0	1	77828,3487	0,100000001	0,0868040398	0,0009712527603896128	0,34964408399602259	3,03505185E-005	7,2962485490780237	-0,27223284327660858	7,2962614651297062
1	1	0	1	0	0	1	78288,3578	0,100000001	0,0862120986	0,00096117404085480512	0,34601581688766278	2,98307496E-005	7,3405996831542259	-0,27388764371972563	7,3406125992059085
1	1	0	1	0	0	1	78748,3669	0,100000001	0,0846463144	0,00097305258229954368	0,35029200599856589	2,96509279E-005	7,3849597082032243	-0,27554277589699178	7,3849726242549069
1	1	0	1	0	0	1	79208,3760	0,100000001	0,0841116533	0,00097156197765800704	0,34975539924325869	2,94185047E-005	7,4294272408843955	-0,27720191932855987	7,4294401569360781
1	1	0	1	0	0	1	79668,3851	0,100000001	0,0830614343	0,000969444456960592	0,34899310785382822	2,89878681E-005	7,4738786310052813	-0,27886046045949974	7,4738915470569638
1	1	0	1	0	0	1	80128,3942	0,100000001	0,0840352774	0,00096629079335927962	0,34785781045310893	2,92323275E-005	7,5186974759597043	-0,2805327118243272	7,5187103920113869
1	1	0	1	0	0	1	80588,4032	0,100000001	0,0838634223	0,00097245323058548902	0,35007624365019085	2,93585927E-005	7,5632651091947456	-0,28219559014214672	7,5632780252464282
1	1	0	1	0	0	1	81048,4123	0,100000001	0,0821639746	0,0009758931409319241	0,35131458820331987	2,88654028E-005	7,6080037127753856	-0,28386484759343274	7,6080166288270682
1	1	0	1	0	0	1	81508,4214	0,100000001	0,0811901316	0,00097894573490569984	0,35241350015353472	2,86124978E-005	7,6529724009351309	-0,28554268980971709	7,6529853169868134
1	1	0	1	0	0	1	81968,4305	0,100000001	0,0798343942	0,0009750252120552791	0,35100213867463987	2,80220429E-005	7,6979380806706944	-0,28722041977765034	7,6979509967223757
1	1	0	1	0	0	1	82428,4396	0,100000001	0,0798916817	0,00097774667839209229	0,35198184794559731	2,81204211E-005	7,7430143828354842	-0,28890227721715142	7,7430272988871667
1	1	0	1	0	0	1	82888,4487	0,100000001	0,0796434507	0,00097644513811502182	0,35151330326640307	2,7995733E-005	7,7881315444494144	-0,29058565917763616	7,788144460501097
1	1	0	1	0	0	1	83348,4578	0,100000001	0,0789178386	0,00097844462624275008	0,35223310345583238	2,77974759E-005	7,8332589363867738	-0,29226942284524275	7,8332718524384563
1	1	0	1	0	0	1	83808,4669	0,100000001	0,078192234	0,00097973026386565632	0,35269592384819059	2,75780822E-005	7,8782371473790029	-0,29394762037121069	7,8782500634306854
1	1	0	1	0	0	1	84268,4760	0,100000001	0,0763018355	0,00097382050116608538	0,35056845263243744	2,67490159E-005	7,9233828389783885	-0,29563206682381171	7,923395755030071
1	1	0	1	0	0	1	84728,4851	0,100000001	0,0760154128	0,00096979184056901261	0,34911816285974298	2,65383605E-005	7,9683416191047053	-0,29730953935804736	7,9683545351563878
1	1	0	1	0	0	1	85188,4942	0,100000001	0,075748086	0,00097803433876070694	0,35208540288164237	2,66697953E-005	8,0132794756399283	-0,29898623120496723	8,0132923916916109
1	1	0	1	0	0	1	85648,5033	0,100000001	0,076607354	0,00097506655891984704	0,35101702446531571	2,6890486E-005	8,0581491824331443	-0,30066038029338451	8,0581620984848269
1	1	0	1	0	0	1	86108,5123	0,100000001	0,0750415772	0,00097073716279036467	0,34945847275620493	2,62239155E-005	8,1026999020054669	-0,30232262753970739	8,1027128180571494
1	1	0	1	0	0	1	86568,5214	0,100000001	0,0740295425	0,00096626499560723699	0,34784852308957645	2,57510674E-005	8,1472935292863872	-0,30398647573032806	8,1473064453380685
1	1	0	1	0	0	1	87028,5305	0,100000001	0,0740295425	0,00096939957655966272	0,3489769503309513	2,58346045E-005	8,1918576706606848	-0,30564922376212845	8,1918705867123674
1	1	0	1	0	0	1	87488,5396	0,100000001	0,0733230338	0,00096610384964197875	0,3477905129802423	2,55010564E-005	8,2365886579525683	-0,3073181970394407	8,2366015740042509
1	1	0	1	0	0	1	87948,5487	0,100000001	0,0730748028	0,00097405550629976717	0,35065305174739443	2,56239018E-005	8,2810812506673485	-0,30897827549455622	8,281094166719031
1	1	0	1	0	0	1	88408,5578	0,100000001	0,0717381537	0,00096981021717521882	0,34912477762850112	2,50455669E-005	8,3257205831024576	-0,31064382900593094	8,3257334991541402
1	1	0	1	0	0	1	88868,5669	0,100000001	0,0717763454	0,00097078310320526362	0,34947501097874733	2,50840385E-005	8,3702616565079296	-0,31230571634079923	8,3702745725596122
1	1	0	1	0	0	1	89328,5760	0,100000001	0,0723873824	0,00097218854047854746	0,34998095812176589	2,53342059E-005	8,4149256786245466	-0,31397219105738669	8,4149385946762291
1	1	0	1	0	0	1	89788,5851	0,100000001	0,0715472102	0,00096750504583865408	0,34829493234542086	2,49195309E-005	8,4594140182774784	-0,31563211082504634	8,459426934329161
1	1	0	1	0	0	1	90248,5942	0,100000001	0,0712798759	0,00097097428849256691	0,34954383587905139	2,49154418E-005	8,503876221818848	-0,31729105541924326	8,5038891378705306
1	1	0	1	0	0	1	90708,6033	0,100000001	0,0710316449	0,00096697177834477696	0,34810296114688435	2,47263251E-005	8,5484745386047027	-0,31895507858159821	8,5484874546563853
1	1	0	1	0	0	1	91168,6123	0,100000001	0,0709170774	0,00097066613095419277	0,349432900498792	2,47807602E-005	8,5930123798934182	-0,32061684532184467	8,5930252959451008
1	1	0	1	0	0	1	91628,6214	0,100000001	0,0715090185	0,00096772096795754291	0,3483726628570208	2,49117875E-005	8,6376553225729165	-0,32228253353629152	8,637668238624599
1	1	0	1	0	0	1	92088,6305	0,100000001	0,0710125491	0,00096935787626190323	0,3489619394182375	2,47806765E-005	8,682364198524713	-0,32395068180977613	8,6823771145763955
1	1	0	1	0	0	1	92548,6396	0,100000001	0,0711844042	0,0009715379470876521	0,34974674868577216	2,48965134E-005	8,7270195293360794	-0,32561683224207898	8,7270324453877619
1	1	0	1	0	0	1	93008,6487	0,100000001	0,0690457746	0,00096723258128431104	0,34819684704454349	2,40415211E-005	8,7717714395102656	-0,32728658618026106	8,7717843555619482
1	1	0	1	0	0	1	93468,6578	0,100000001	0,0698859468	0,00097554045688443712	0,35118762445522906	2,45430801E-005	8,8163411369015283	-0,32894954151452454	8,8163540529532109
1	1	0	1	0	0	1	93928,6669	0,100000001	0,0701532811	0,00096114046877125914	0,34600373118044691	2,42732967E-005	8,8608777992744051	-0,33061126426783597	8,8608907153260877
1	1	0	1	0	0	1	94388,6760	0,100000001	0,0708597898	0,00096598051610589018	0,34774611249326739	2,46412164E-005	8,9052944761232512	-0,33226851019992358	8,9053073921749325
1	1	0	1	0	0	1	94848,6851	0,100000001	0,0701150894	0,00097021555708431526	0,34927069764834157	2,44891453E-005	8,9500117468846515	-0,33393697169504147	8,9500246629363341
1	1	0	1	0	0	1	95308,6942	0,100000001	0,0730938911	0,00096870021520141107	0,34872518611101786	2,54896804E-005	8,9947424931629248	-0,33560593597981184	8,9947554092146061
1	1	0	1	0	0	1	95768,7033	0,100000001	0,0733421296	0,00097286987883763174	0,35022623418325696	2,56863386E-005	9,039493446353696	-0,33727565421165594	9,0395063624053786
1	1	0	1	0	0	1	96228,7124	0,100000001	0,0728074685	0,00097734840677844147	0,35183847224458803	2,56164676E-005	9,084273624294848	-0,33894646285822995	9,0842865403465306
1	1	0	1	0	0	1	96688,7214	0,100000001	0,074277781	0,00098020628169096179	0,35286728820508819	2,62101985E-005	9,1291519234470003	-0,34062093253911168	9,1291648394986829
1	1	0	1	0	0	1	97148,7305	0,100000001	0,0733230338	0,00097368267849998349	0,35051883706546803	2,57011052E-005	9,1741582887691917	-0,34230018054098438	9,1741712048208742
1	1	0	1	0	0	1	97608,7396	0,100000001	0,0728456602	0,00097515031303962074	0,3510471741429497	2,55722625E-005	9,2190055636989299	-0,34397349266641536	9,2190184797506125
1	1	0	1	0	0	1	98068,7487	0,100000001	0,0732084662	0,00097627445050660109	0,35145185661024755	2,57292522E-005	9,2639021112679066	-0,34564864322026413	9,2639150273195891
1	1	0	1	0	0	1	98528,7578	0,100000001	0,0722346231	0,00097399719675795904	0,35063206178900461	2,5327774E-005	9,3085643392172006	-0,34731505099405632	9,3085772552688832
1	1	0	1	0	0	1	98988,7669	0,100000001	0,0719291046	0,00097974121875729818	0,35269986753123354	2,53693852E-005	9,3533111146178752	-0,34898461334693498	9,3533240306695578
1	1	0	1	0	0	1	99448,7760	0,100000001	0,0729984194	0,00098481379720154739	0,35452595987186592	2,58798354E-005	9,3984963708444147	-0,35067053600897024	9,3985092868960973
1	1	0	1	0	0	1	99626,5595	0,100000001	0,071394451	0,0007627258217061559	0,35292326723596525	2,51967631E-005	9,4158987244544333	-0,35131984121987328	9,4159116405061146