File: Experimentelles/Rohdaten/Batteriemessungen/AlteZelle/Studenten_Batterietests/SemArbeitToph/ECLab-Export/Al_rein_01_PEIS_only_02_OCV_C01.mpt
EC-Lab ASCII FILE
Nb header lines : 43

Open Circuit Voltage

Run on channel : 1 (SN 6985)
Grouped channel(s) : 1
User :
CE vs. WE compliance from -10 V to 10 V
Electrode connection : standard
Ewe ctrl range : min = -10,00 V, max = 10,00 V
Acquisition started on : 03.12.2015 18:32:00
Saved on :
	File : Al_rein_01_PEIS_only_02_OCV_C01.mpr
	Directory : C:\Hupfer\Studenten Batterietests\SemArbeitToph\
	Host : 192.168.0.2
Device : VMP3 (SN 0324)
Address : 192.168.0.1
EC-Lab for windows v10.33 (software)
Internet server v10.33 (firmware)
Command interpretor v10.32 (firmware)
Electrode material :
Initial state :
Electrolyte :
Comments :
Mass of active material : 0,001 mg
 at x = 0,000
Molecular weight of active material (at x = 0) : 0,001 g/mol
Atomic weight of intercalated ion : 0,001 g/mol
Acquisition started at : xo = 0,000
Number of e- transfered per intercalated ion : 1
for DX = 1, DQ = 26,801 mA.h
Battery capacity : 0,000 A.h
Electrode surface area : 0,001 cm²
Characteristic mass : 0,001 g
tR (h:m:s)          0:10:0,0000
dER/dt (mV/h)       1,0
dER (mV)            1,00
dtR (s)             0,5000
E range min (V)     -10,000
E range max (V)     10,000

mode	error	time/s	Ewe/V
3	0	10,1544	0,0200291462
3	0	10,6544	0,0196854379
3	0	11,1544	0,0195326786
3	0	11,6544	0,0194372032
3	0	12,1544	0,0193226337
3	0	12,6544	0,0192080643
3	0	13,1544	0,0191125907
3	0	13,6544	0,0189980213
3	0	14,1544	0,0190744009
3	0	14,6544	0,019055305
3	0	15,1544	0,0189025458
3	0	15,6544	0,0189216416
3	0	16,1544	0,0189025458
3	0	16,6544	0,0188834518
3	0	17,1544	0,0188834518
3	0	17,6544	0,0188834518
3	0	18,1544	0,0188070722
3	0	18,6544	0,0188070722
3	0	19,1544	0,0187115967
3	0	19,6544	0,0187688824
3	0	20,1544	0,0186925028
3	0	20,6544	0,0187115967
3	0	21,1544	0,0185970273
3	0	21,6544	0,0186925028
3	0	22,1544	0,0187115967
3	0	22,6544	0,0185779333
3	0	23,1544	0,0185397435
3	0	23,6544	0,0185397435
3	0	24,1544	0,0186161231
3	0	24,6544	0,0185588375
3	0	25,1544	0,0185206477
3	0	25,6544	0,0185588375
3	0	26,1544	0,0185970273
3	0	26,6544	0,0184633639
3	0	27,1544	0,0184824578
3	0	27,6544	0,0184633639
3	0	28,1544	0,0184060782
3	0	28,6544	0,0184824578
3	0	29,1544	0,0184060782
3	0	29,6544	0,0183106046
3	0	30,1544	0,0184251741
3	0	30,6544	0,018444268
3	0	31,1544	0,0185206477
3	0	31,6544	0,0184633639
3	0	32,1544	0,018444268
3	0	32,6544	0,0184251741
3	0	33,1544	0,0183869842
3	0	33,6544	0,0184060782
3	0	34,1544	0,0184633639
3	0	34,6544	0,018444268
3	0	35,1544	0,0183869842
3	0	35,6544	0,018444268
3	0	36,1544	0,0184824578
3	0	36,6544	0,018253319
3	0	37,1544	0,018444268
3	0	37,6544	0,0182915088
3	0	38,1544	0,0183296986
3	0	38,6544	0,0182724148
3	0	39,1544	0,0183869842
3	0	39,6544	0,0183106046
3	0	40,1544	0,018253319
3	0	40,6544	0,0182724148
3	0	41,1544	0,018234225
3	0	41,6544	0,0182151292
3	0	42,1544	0,0182915088
3	0	42,6544	0,0181769393
3	0	43,1544	0,0182724148
3	0	43,6544	0,0182724148
3	0	44,1544	0,0181960352
3	0	44,6544	0,018234225
3	0	45,1544	0,0182915088
3	0	45,6544	0,0183106046
3	0	46,1544	0,0182151292
3	0	46,6544	0,018234225
3	0	47,1544	0,0181769393
3	0	47,6544	0,0181769393
3	0	48,1544	0,0181196555
3	0	48,6544	0,0182151292
3	0	49,1544	0,0181769393
3	0	49,6544	0,0182724148
3	0	50,1544	0,0181005597
3	0	50,6544	0,0181960352
3	0	51,1544	0,0181769393
3	0	51,6544	0,0181578454
3	0	52,1544	0,0182151292
3	0	52,6544	0,0182724148
3	0	53,1544	0,0181578454
3	0	53,6544	0,018234225
3	0	54,1544	0,0181005597
3	0	54,6544	0,0181196555
3	0	55,1544	0,0181578454
3	0	55,6544	0,0181005597
3	0	56,1544	0,0182151292
3	0	56,6544	0,0182151292
3	0	57,1544	0,0181005597
3	0	57,6544	0,0181196555
3	0	58,1544	0,0180432759
3	0	58,6544	0,0181387495
3	0	59,1544	0,0180432759
3	0	59,6544	0,0181005597
3	0	60,1544	0,0180814657
3	0	60,6544	0,0182151292
3	0	61,1544	0,0179287065
3	0	61,6544	0,0180050861
3	0	62,1544	0,0180814657
3	0	62,6544	0,0181769393
3	0	63,1544	0,0180241801
3	0	63,6544	0,0180432759
3	0	64,1544	0,0180050861
3	0	64,6544	0,0180241801
3	0	65,1544	0,0180814657
3	0	65,6544	0,0181196555
3	0	66,1544	0,0181196555
3	0	66,6544	0,0180814657
3	0	67,1544	0,0181387495
3	0	67,6544	0,0180623699
3	0	68,1544	0,0180050861
3	0	68,6544	0,0180050861
3	0	69,1544	0,0180050861
3	0	69,6544	0,0180050861
3	0	70,1544	0,0179478005
3	0	70,6544	0,0180623699
3	0	71,1544	0,0179859903
3	0	71,6544	0,0180814657
3	0	72,1544	0,0178905167
3	0	72,6544	0,0179478005
3	0	73,1544	0,0180432759
3	0	73,6544	0,0179287065
3	0	74,1544	0,0179859903
3	0	74,6544	0,0179668963
3	0	75,1544	0,0179668963
3	0	75,6544	0,0179478005
3	0	76,1544	0,0179859903
3	0	76,6544	0,0180050861
3	0	77,1544	0,0179478005
3	0	77,6544	0,0179096106
3	0	78,1544	0,0180432759
3	0	78,6544	0,0179287065
3	0	79,1544	0,017833231
3	0	79,6544	0,0179859903
3	0	80,1544	0,0178905167
3	0	80,6544	0,0178905167
3	0	81,1544	0,0179478005
3	0	81,6544	0,0179096106
3	0	82,1544	0,0179096106
3	0	82,6544	0,0178905167
3	0	83,1544	0,0179478005
3	0	83,6544	0,0179287065
3	0	84,1544	0,0180623699
3	0	84,6544	0,017833231
3	0	85,1544	0,0180241801
3	0	85,6544	0,0179859903
3	0	86,1544	0,0178523269
3	0	86,6544	0,0179287065
3	0	87,1544	0,0179096106
3	0	87,6544	0,017814137
3	0	88,1544	0,0179096106
3	0	88,6544	0,0179668963
3	0	89,1544	0,0178714208
3	0	89,6544	0,017833231
3	0	90,1544	0,0179287065
3	0	90,6544	0,0178905167
3	0	91,1544	0,0178905167
3	0	91,6544	0,0179668963
3	0	92,1544	0,017814137
3	0	92,6544	0,0177950412
3	0	93,1544	0,0179096106
3	0	93,6544	0,0179478005
3	0	94,1544	0,0177759472
3	0	94,6544	0,0179096106
3	0	95,1544	0,0178905167
3	0	95,6544	0,017814137
3	0	96,1544	0,0177377574
3	0	96,6544	0,0179096106
3	0	97,1544	0,017814137
3	0	97,6544	0,0179287065
3	0	98,1544	0,0178905167
3	0	98,6544	0,0178905167
3	0	99,1544	0,0178523269
3	0	99,6544	0,017833231
3	0	100,1544	0,0179287065
3	0	100,6544	0,0178523269
3	0	101,1544	0,0178714208
3	0	101,6544	0,0179668963
3	0	102,1544	0,0179668963
3	0	102,6544	0,0177377574
3	0	103,1544	0,0177377574
3	0	103,6544	0,0177950412
3	0	104,1544	0,0178523269
3	0	104,6544	0,0177186616
3	0	105,1544	0,0179478005
3	0	105,6544	0,0179668963
3	0	106,1544	0,0179478005
3	0	106,6544	0,0177950412
3	0	107,1544	0,017814137
3	0	107,6544	0,0177759472
3	0	108,1544	0,0177568514
3	0	108,6544	0,0179287065
3	0	109,1544	0,017833231
3	0	109,6544	0,0177186616
3	0	110,1544	0,0177377574
3	0	110,6544	0,0177568514
3	0	111,1544	0,0178905167
3	0	111,6544	0,0177377574
3	0	112,1544	0,0177759472
3	0	112,6544	0,0177950412
3	0	113,1544	0,0177950412
3	0	113,6544	0,017833231
3	0	114,1544	0,0176995676
3	0	114,6544	0,017814137
3	0	115,1544	0,0176995676
3	0	115,6544	0,0176995676
3	0	116,1544	0,0177568514
3	0	116,6544	0,017833231
3	0	117,1544	0,0177759472
3	0	117,6544	0,0177186616
3	0	118,1544	0,0177186616
3	0	118,6544	0,0177568514
3	0	119,1544	0,0176995676
3	0	119,6544	0,0177186616
3	0	120,1544	0,0176422819
3	0	120,6544	0,0177950412
3	0	121,1544	0,0177568514
3	0	121,6544	0,0177759472
3	0	122,1544	0,0177186616
3	0	122,6544	0,0177950412
3	0	123,1544	0,0177377574
3	0	123,6544	0,017623188
3	0	124,1544	0,017833231
3	0	124,6544	0,0177759472
3	0	125,1544	0,0176804718
3	0	125,6544	0,0176804718
3	0	126,1544	0,0177186616
3	0	126,6544	0,0177186616
3	0	127,1544	0,0176804718
3	0	127,6544	0,0176804718
3	0	128,1544	0,0177377574
3	0	128,6544	0,0177377574
3	0	129,1544	0,0177186616
3	0	129,6544	0,0176422819
3	0	130,1544	0,0176613778
3	0	130,6544	0,0177950412
3	0	131,1544	0,0177186616
3	0	131,6544	0,0177186616
3	0	132,1544	0,0177377574
3	0	132,6544	0,017623188
3	0	133,1544	0,0176995676
3	0	133,6544	0,0177759472
3	0	134,1544	0,0177759472
3	0	134,6544	0,0177950412
3	0	135,1544	0,017623188
3	0	135,6544	0,017623188
3	0	136,1544	0,0177377574
3	0	136,6544	0,0177759472
3	0	137,1544	0,0177377574
3	0	137,6544	0,0176422819
3	0	138,1544	0,0176040921
3	0	138,6544	0,0177568514
3	0	139,1544	0,0177377574
3	0	139,6544	0,017623188
3	0	140,1544	0,017623188
3	0	140,6544	0,0176422819
3	0	141,1544	0,0176804718
3	0	141,6544	0,0177950412
3	0	142,1544	0,0175849982
3	0	142,6544	0,0177186616
3	0	143,1544	0,017623188
3	0	143,6544	0,017623188
3	0	144,1544	0,0176613778
3	0	144,6544	0,0176040921
3	0	145,1544	0,017623188
3	0	145,6544	0,017623188
3	0	146,1544	0,017623188
3	0	146,6544	0,0176040921
3	0	147,1544	0,017623188
3	0	147,6544	0,0175277125
3	0	148,1544	0,0176613778
3	0	148,6544	0,0176804718
3	0	149,1544	0,0175277125
3	0	149,6544	0,0176995676
3	0	150,1544	0,0176040921
3	0	150,6544	0,0175468083
3	0	151,1544	0,0176613778
3	0	151,6544	0,0175277125
3	0	152,1544	0,0177186616
3	0	152,6544	0,017623188
3	0	153,1544	0,0176040921
3	0	153,6544	0,0176995676
3	0	154,1544	0,0176804718
3	0	154,6544	0,0176613778
3	0	155,1544	0,0177186616
3	0	155,6544	0,0174895227
3	0	156,1544	0,0176040921
3	0	156,6544	0,0176995676
3	0	157,1544	0,0174895227
3	0	157,6544	0,0176040921
3	0	158,1544	0,0175468083
3	0	158,6544	0,0177568514
3	0	159,1544	0,0176040921
3	0	159,6544	0,0175659023
3	0	160,1544	0,0176613778
3	0	160,6544	0,0176613778
3	0	161,1544	0,0176613778
3	0	161,6544	0,0175849982
3	0	162,1544	0,0175849982
3	0	162,6544	0,0174895227
3	0	163,1544	0,0175849982
3	0	163,6544	0,0176613778
3	0	164,1544	0,0175277125
3	0	164,6544	0,0175849982
3	0	165,1544	0,0175659023
3	0	165,6544	0,0175468083
3	0	166,1544	0,017623188
3	0	166,6544	0,0176613778
3	0	167,1544	0,0175468083
3	0	167,6544	0,0175849982
3	0	168,1544	0,0175659023
3	0	168,6544	0,0174895227
3	0	169,1544	0,0175468083
3	0	169,6544	0,0176040921
3	0	170,1544	0,0175468083
3	0	170,6544	0,0174704287
3	0	171,1544	0,0174895227
3	0	171,6544	0,0175468083
3	0	172,1544	0,0174895227
3	0	172,6544	0,0175468083
3	0	173,1544	0,0175468083
3	0	173,6544	0,0176040921
3	0	174,1544	0,0174895227
3	0	174,6544	0,0175086185
3	0	175,1544	0,0175086185
3	0	175,6544	0,0175468083
3	0	176,1544	0,0174704287
3	0	176,6544	0,0176040921
3	0	177,1544	0,0175277125
3	0	177,6544	0,0174704287
3	0	178,1544	0,0174322389
3	0	178,6544	0,0174513329
3	0	179,1544	0,0175468083
3	0	179,6544	0,0175659023
3	0	180,1544	0,0174895227
3	0	180,6544	0,0174895227
3	0	181,1544	0,0174704287
3	0	181,6544	0,0176040921
3	0	182,1544	0,0175659023
3	0	182,6544	0,0174513329
3	0	183,1544	0,0176613778
3	0	183,6544	0,0175659023
3	0	184,1544	0,0175086185
3	0	184,6544	0,0175277125
3	0	185,1544	0,0175277125
3	0	185,6544	0,0174322389
3	0	186,1544	0,0175277125
3	0	186,6544	0,0175849982
3	0	187,1544	0,0174322389
3	0	187,6544	0,0175849982
3	0	188,1544	0,0174513329
3	0	188,6544	0,0174513329
3	0	189,1544	0,0173749533
3	0	189,6544	0,0175659023
3	0	190,1544	0,0174513329
3	0	190,6544	0,0175468083
3	0	191,1544	0,0175086185
3	0	191,6544	0,0174513329
3	0	192,1544	0,0174131431
3	0	192,6544	0,0174704287
3	0	193,1544	0,0175277125
3	0	193,6544	0,0174895227
3	0	194,1544	0,0174704287
3	0	194,6544	0,0173749533
3	0	195,1544	0,0174704287
3	0	195,6544	0,0174704287
3	0	196,1544	0,0174513329
3	0	196,6544	0,0174513329
3	0	197,1544	0,0174895227
3	0	197,6544	0,0175086185
3	0	198,1544	0,0174704287
3	0	198,6544	0,0174704287
3	0	199,1544	0,0174704287
3	0	199,6544	0,0174513329
3	0	200,1544	0,0173940491
3	0	200,6544	0,0175086185
3	0	201,1544	0,0174895227
3	0	201,6544	0,0174704287
3	0	202,1544	0,0176040921
3	0	202,6544	0,0174513329
3	0	203,1544	0,0174704287
3	0	203,6544	0,0174322389
3	0	204,1544	0,0175086185
3	0	204,6544	0,0173940491
3	0	205,1544	0,0173940491
3	0	205,6544	0,0174704287
3	0	206,1544	0,0173749533
3	0	206,6544	0,0174895227
3	0	207,1544	0,0174895227
3	0	207,6544	0,0174895227
3	0	208,1544	0,0174131431
3	0	208,6544	0,0175277125
3	0	209,1544	0,0173940491
3	0	209,6544	0,0173367634
3	0	210,1544	0,0173940491
3	0	210,6544	0,0174322389
3	0	211,1544	0,0173940491
3	0	211,6544	0,0174322389
3	0	212,1544	0,0173749533
3	0	212,6544	0,0173749533
3	0	213,1544	0,0174513329
3	0	213,6544	0,0173558593
3	0	214,1544	0,0173176695
3	0	214,6544	0,0172985736
3	0	215,1544	0,0175277125
3	0	215,6544	0,0174131431
3	0	216,1544	0,0172794797
3	0	216,6544	0,0173176695
3	0	217,1544	0,0174513329
3	0	217,6544	0,0173176695
3	0	218,1544	0,0173367634
3	0	218,6544	0,0173940491
3	0	219,1544	0,0174322389
3	0	219,6544	0,0174131431
3	0	220,1544	0,0173749533
3	0	220,6544	0,0174513329
3	0	221,1544	0,0173749533
3	0	221,6544	0,0172985736
3	0	222,1544	0,0173558593
3	0	222,6544	0,0174895227
3	0	223,1544	0,0172985736
3	0	223,6544	0,0175086185
3	0	224,1544	0,0173367634
3	0	224,6544	0,0174895227
3	0	225,1544	0,0173367634
3	0	225,6544	0,0173940491
3	0	226,1544	0,0173558593
3	0	226,6544	0,0173749533
3	0	227,1544	0,0173367634
3	0	227,6544	0,0174513329
3	0	228,1544	0,0173558593
3	0	228,6544	0,0173176695
3	0	229,1544	0,0173749533
3	0	229,6544	0,0173558593
3	0	230,1544	0,0174322389
3	0	230,6544	0,0173940491
3	0	231,1544	0,0173176695
3	0	231,6544	0,017222194
3	0	232,1544	0,0173940491
3	0	232,6544	0,0173176695
3	0	233,1544	0,0173749533
3	0	233,6544	0,0173176695
3	0	234,1544	0,0174131431
3	0	234,6544	0,0174322389
3	0	235,1544	0,0174131431
3	0	235,6544	0,0173940491
3	0	236,1544	0,017222194
3	0	236,6544	0,0173176695
3	0	237,1544	0,0172603838
3	0	237,6544	0,0173558593
3	0	238,1544	0,0172985736
3	0	238,6544	0,0173176695
3	0	239,1544	0,0173558593
3	0	239,6544	0,0171840042
3	0	240,1544	0,0173558593
3	0	240,6544	0,0173558593
3	0	241,1544	0,0173176695
3	0	241,6544	0,0173749533
3	0	242,1544	0,0173940491
3	0	242,6544	0,0172794797
3	0	243,1544	0,017222194
3	0	243,6544	0,0172794797
3	0	244,1544	0,0172031
3	0	244,6544	0,0172794797
3	0	245,1544	0,0172031
3	0	245,6544	0,0172985736
3	0	246,1544	0,0173367634
3	0	246,6544	0,0172603838
3	0	247,1544	0,0172412898
3	0	247,6544	0,0172794797
3	0	248,1544	0,0172603838
3	0	248,6544	0,0173176695
3	0	249,1544	0,0173367634
3	0	249,6544	0,017222194
3	0	250,1544	0,0172603838
3	0	250,6544	0,0174131431
3	0	251,1544	0,0171840042
3	0	251,6544	0,0172603838
3	0	252,1544	0,017222194
3	0	252,6544	0,0171840042
3	0	253,1544	0,0172603838
3	0	253,6544	0,0172794797
3	0	254,1544	0,017222194
3	0	254,6544	0,0170694347
3	0	255,1544	0,0172985736
3	0	255,6544	0,0173176695
3	0	256,1544	0,0173367634
3	0	256,6544	0,0173367634
3	0	257,1544	0,0172985736
3	0	257,6544	0,0172794797
3	0	258,1544	0,0174131431
3	0	258,6544	0,0173367634
3	0	259,1544	0,0173176695
3	0	259,6544	0,017222194
3	0	260,1544	0,0172603838
3	0	260,6544	0,0172794797
3	0	261,1544	0,0172412898
3	0	261,6544	0,0171076246
3	0	262,1544	0,0171649102
3	0	262,6544	0,0173558593
3	0	263,1544	0,017222194
3	0	263,6544	0,017222194
3	0	264,1544	0,0171840042
3	0	264,6544	0,0172985736
3	0	265,1544	0,017222194
3	0	265,6544	0,0173749533
3	0	266,1544	0,0173558593
3	0	266,6544	0,017222194
3	0	267,1544	0,0171458144
3	0	267,6544	0,0171840042
3	0	268,1544	0,0171649102
3	0	268,6544	0,017222194
3	0	269,1544	0,0172412898
3	0	269,6544	0,0172603838
3	0	270,1544	0,0172412898
3	0	270,6544	0,0172603838
3	0	271,1544	0,017222194
3	0	271,6544	0,0173558593
3	0	272,1544	0,0172412898
3	0	272,6544	0,0172985736
3	0	273,1544	0,0173176695
3	0	273,6544	0,0172603838
3	0	274,1544	0,0171649102
3	0	274,6544	0,0172603838
3	0	275,1544	0,0173176695
3	0	275,6544	0,017222194
3	0	276,1544	0,0172412898
3	0	276,6544	0,0172412898
3	0	277,1544	0,0172985736
3	0	277,6544	0,0173176695
3	0	278,1544	0,0172603838
3	0	278,6544	0,0172031
3	0	279,1544	0,0172985736
3	0	279,6544	0,0171649102
3	0	280,1544	0,0170694347
3	0	280,6544	0,0171649102
3	0	281,1544	0,0171649102
3	0	281,6544	0,0171076246
3	0	282,1544	0,0172412898
3	0	282,6544	0,0173749533
3	0	283,1544	0,0173558593
3	0	283,6544	0,0172412898
3	0	284,1544	0,0171458144
3	0	284,6544	0,0173367634
3	0	285,1544	0,0172985736
3	0	285,6544	0,0172031
3	0	286,1544	0,0172985736
3	0	286,6544	0,0172603838
3	0	287,1544	0,0172603838
3	0	287,6544	0,0173176695
3	0	288,1544	0,0172794797
3	0	288,6544	0,0174131431
3	0	289,1544	0,0173176695
3	0	289,6544	0,017222194
3	0	290,1544	0,0171840042
3	0	290,6544	0,0170503408
3	0	291,1544	0,0172985736
3	0	291,6544	0,0170885306
3	0	292,1544	0,017222194
3	0	292,6544	0,0172603838
3	0	293,1544	0,0171267204
3	0	293,6544	0,0171649102
3	0	294,1544	0,0172985736
3	0	294,6544	0,0171649102
3	0	295,1544	0,0172031
3	0	295,6544	0,0171076246
3	0	296,1544	0,0170885306
3	0	296,6544	0,0171267204
3	0	297,1544	0,0171267204
3	0	297,6544	0,0172031
3	0	298,1544	0,0172603838
3	0	298,6544	0,0170885306
3	0	299,1544	0,0171267204
3	0	299,6544	0,0172603838
3	0	300,1544	0,0171458144
3	0	300,6544	0,0170694347
3	0	301,1544	0,0171649102
3	0	301,6544	0,0171840042
3	0	302,1544	0,0170885306
3	0	302,6544	0,0171458144
3	0	303,1544	0,0170694347
3	0	303,6544	0,0170503408
3	0	304,1544	0,0170885306
3	0	304,6544	0,0171458144
3	0	305,1544	0,0171458144
3	0	305,6544	0,0171649102
3	0	306,1544	0,0170694347
3	0	306,6544	0,0171267204
3	0	307,1544	0,0171458144
3	0	307,6544	0,0170885306
3	0	308,1544	0,0171458144
3	0	308,6544	0,0170694347
3	0	309,1544	0,0171649102
3	0	309,6544	0,0169930551
3	0	310,1544	0,0171267204
3	0	310,6544	0,0171267204
3	0	311,1544	0,0171840042
3	0	311,6544	0,0170694347
3	0	312,1544	0,017012151
3	0	312,6544	0,0170885306
3	0	313,1544	0,0171458144
3	0	313,6544	0,0170885306
3	0	314,1544	0,0170885306
3	0	314,6544	0,0170885306
3	0	315,1544	0,0170503408
3	0	315,6544	0,0170885306
3	0	316,1544	0,0171458144
3	0	316,6544	0,0170885306
3	0	317,1544	0,0170312449
3	0	317,6544	0,0171840042
3	0	318,1544	0,0171458144
3	0	318,6544	0,0170885306
3	0	319,1544	0,0171267204
3	0	319,6544	0,0171267204
3	0	320,1544	0,0169739611
3	0	320,6544	0,0170312449
3	0	321,1544	0,0170312449
3	0	321,6544	0,0171076246
3	0	322,1544	0,0170503408
3	0	322,6544	0,0171458144
3	0	323,1544	0,0170312449
3	0	323,6544	0,0170694347
3	0	324,1544	0,017012151
3	0	324,6544	0,0170312449
3	0	325,1544	0,0171076246
3	0	325,6544	0,0171267204
3	0	326,1544	0,017012151
3	0	326,6544	0,0171458144
3	0	327,1544	0,0171076246
3	0	327,6544	0,017012151
3	0	328,1544	0,0169548653
3	0	328,6544	0,0170503408
3	0	329,1544	0,0170312449
3	0	329,6544	0,0171267204
3	0	330,1544	0,0172412898
3	0	330,6544	0,0170312449
3	0	331,1544	0,0169930551
3	0	331,6544	0,0170885306
3	0	332,1544	0,0170503408
3	0	332,6544	0,0170503408
3	0	333,1544	0,0170694347
3	0	333,6544	0,0169930551
3	0	334,1544	0,0170312449
3	0	334,6544	0,0169930551
3	0	335,1544	0,0170503408
3	0	335,6544	0,0169739611
3	0	336,1544	0,0171458144
3	0	336,6544	0,0169739611
3	0	337,1544	0,0170312449
3	0	337,6544	0,0170312449
3	0	338,1544	0,0168975815
3	0	338,6544	0,0169357713
3	0	339,1544	0,0169166755
3	0	339,6544	0,0169739611
3	0	340,1544	0,0170312449
3	0	340,6544	0,0170312449
3	0	341,1544	0,0168593917
3	0	341,6544	0,0171076246
3	0	342,1544	0,0169357713
3	0	342,6544	0,0171267204
3	0	343,1544	0,0170312449
3	0	343,6544	0,0170503408
3	0	344,1544	0,0169548653
3	0	344,6544	0,0169357713
3	0	345,1544	0,0170312449
3	0	345,6544	0,0169548653
3	0	346,1544	0,0169357713
3	0	346,6544	0,0170885306
3	0	347,1544	0,0169739611
3	0	347,6544	0,0170885306
3	0	348,1544	0,0169357713
3	0	348,6544	0,0170503408
3	0	349,1544	0,0170885306
3	0	349,6544	0,0169930551
3	0	350,1544	0,0170312449
3	0	350,6544	0,0170312449
3	0	351,1544	0,0168975815
3	0	351,6544	0,0168975815
3	0	352,1544	0,017012151
3	0	352,6544	0,0169357713
3	0	353,1544	0,0169548653
3	0	353,6544	0,0169930551
3	0	354,1544	0,0169739611
3	0	354,6544	0,0169739611
3	0	355,1544	0,0171267204
3	0	355,6544	0,0170312449
3	0	356,1544	0,0168402959
3	0	356,6544	0,017012151
3	0	357,1544	0,0170503408
3	0	357,6544	0,0168975815
3	0	358,1544	0,0169930551
3	0	358,6544	0,0169548653
3	0	359,1544	0,0169739611
3	0	359,6544	0,0169166755
3	0	360,1544	0,0169357713
3	0	360,6544	0,0169357713
3	0	361,1544	0,017012151
3	0	361,6544	0,0170312449
3	0	362,1544	0,0171267204
3	0	362,6544	0,017012151
3	0	363,1544	0,017012151
3	0	363,6544	0,0170503408
3	0	364,1544	0,0170694347
3	0	364,6544	0,017012151
3	0	365,1544	0,0169930551
3	0	365,6544	0,0169166755
3	0	366,1544	0,0169357713
3	0	366,6544	0,0169548653
3	0	367,1544	0,0170312449
3	0	367,6544	0,0169930551
3	0	368,1544	0,017012151
3	0	368,6544	0,017012151
3	0	369,1544	0,017012151
3	0	369,6544	0,0169739611
3	0	370,1544	0,0168975815
3	0	370,6544	0,0169739611
3	0	371,1544	0,0168784857
3	0	371,6544	0,0169930551
3	0	372,1544	0,0171076246
3	0	372,6544	0,0170503408
3	0	373,1544	0,0170312449
3	0	373,6544	0,017012151
3	0	374,1544	0,0169739611
3	0	374,6544	0,0169930551
3	0	375,1544	0,0169548653
3	0	375,6544	0,0169739611
3	0	376,1544	0,0170312449
3	0	376,6544	0,0170312449
3	0	377,1544	0,0169548653
3	0	377,6544	0,0168784857
3	0	378,1544	0,0169357713
3	0	378,6544	0,0171076246
3	0	379,1544	0,0170503408
3	0	379,6544	0,0169357713
3	0	380,1544	0,0169548653
3	0	380,6544	0,0169357713
3	0	381,1544	0,0169166755
3	0	381,6544	0,0169166755
3	0	382,1544	0,017012151
3	0	382,6544	0,017012151
3	0	383,1544	0,0169739611
3	0	383,6544	0,0169739611
3	0	384,1544	0,0169930551
3	0	384,6544	0,017012151
3	0	385,1544	0,017012151
3	0	385,6544	0,0169166755
3	0	386,1544	0,0168975815
3	0	386,6544	0,0169357713
3	0	387,1544	0,0169739611
3	0	387,6544	0,0169930551
3	0	388,1544	0,0169930551
3	0	388,6544	0,0168975815
3	0	389,1544	0,0169548653
3	0	389,6544	0,0169930551
3	0	390,1544	0,0169166755
3	0	390,6544	0,0168593917
3	0	391,1544	0,0168593917
3	0	391,6544	0,0168975815
3	0	392,1544	0,0169166755
3	0	392,6544	0,0169930551
3	0	393,1544	0,0169166755
3	0	393,6544	0,0168975815
3	0	394,1544	0,0169548653
3	0	394,6544	0,0169739611
3	0	395,1544	0,0169166755
3	0	395,6544	0,0169166755
3	0	396,1544	0,0169166755
3	0	396,6544	0,0169739611
3	0	397,1544	0,0169166755
3	0	397,6544	0,0169739611
3	0	398,1544	0,0169166755
3	0	398,6544	0,0169166755
3	0	399,1544	0,0169739611
3	0	399,6544	0,0169357713
3	0	400,1544	0,0169548653
3	0	400,6544	0,0169357713
3	0	401,1544	0,0169548653
3	0	401,6544	0,0170312449
3	0	402,1544	0,0168975815
3	0	402,6544	0,0169739611
3	0	403,1544	0,0170312449
3	0	403,6544	0,0170503408
3	0	404,1544	0,0169166755
3	0	404,6544	0,017012151
3	0	405,1544	0,0169166755
3	0	405,6544	0,0169166755
3	0	406,1544	0,017012151
3	0	406,6544	0,0169930551
3	0	407,1544	0,0168975815
3	0	407,6544	0,0169357713
3	0	408,1544	0,0168402959
3	0	408,6544	0,017012151
3	0	409,1544	0,0169548653
3	0	409,6544	0,0169357713
3	0	410,1544	0,0170503408
3	0	410,6544	0,0170312449
3	0	411,1544	0,0168402959
3	0	411,6544	0,0169930551
3	0	412,1544	0,0169357713
3	0	412,6544	0,0169548653
3	0	413,1544	0,0168784857
3	0	413,6544	0,0169357713
3	0	414,1544	0,0168784857
3	0	414,6544	0,0168402959
3	0	415,1544	0,0168975815
3	0	415,6544	0,0169357713
3	0	416,1544	0,0168402959
3	0	416,6544	0,0168212019
3	0	417,1544	0,0168975815
3	0	417,6544	0,0169357713
3	0	418,1544	0,0168975815
3	0	418,6544	0,0169548653
3	0	419,1544	0,0168212019
3	0	419,6544	0,0168212019
3	0	420,1544	0,0169166755
3	0	420,6544	0,0168975815
3	0	421,1544	0,0169739611
3	0	421,6544	0,0169166755
3	0	422,1544	0,0168784857
3	0	422,6544	0,0169357713
3	0	423,1544	0,0168975815
3	0	423,6544	0,0170312449
3	0	424,1544	0,0169548653
3	0	424,6544	0,0168784857
3	0	425,1544	0,0169930551
3	0	425,6544	0,0169166755
3	0	426,1544	0,0169739611
3	0	426,6544	0,0169166755
3	0	427,1544	0,0169166755
3	0	427,6544	0,0168975815
3	0	428,1544	0,0169548653
3	0	428,6544	0,0170312449
3	0	429,1544	0,0169548653
3	0	429,6544	0,0169739611
3	0	430,1544	0,0169548653
3	0	430,6544	0,0169548653
3	0	431,1544	0,0168212019
3	0	431,6544	0,0170503408
3	0	432,1544	0,0169357713
3	0	432,6544	0,0169548653
3	0	433,1544	0,0169739611
3	0	433,6544	0,0170312449
3	0	434,1544	0,0169166755
3	0	434,6544	0,0168784857
3	0	435,1544	0,0168784857
3	0	435,6544	0,0168784857
3	0	436,1544	0,0168975815
3	0	436,6544	0,0169548653
3	0	437,1544	0,0168021061
3	0	437,6544	0,0168593917
3	0	438,1544	0,0169548653
3	0	438,6544	0,0169357713
3	0	439,1544	0,0169166755
3	0	439,6544	0,0168593917
3	0	440,1544	0,017012151
3	0	440,6544	0,0169166755
3	0	441,1544	0,0168975815
3	0	441,6544	0,0168593917
3	0	442,1544	0,0169357713
3	0	442,6544	0,0169357713
3	0	443,1544	0,0168593917
3	0	443,6544	0,0169166755
3	0	444,1544	0,0169166755
3	0	444,6544	0,0169739611
3	0	445,1544	0,0168975815
3	0	445,6544	0,0168402959
3	0	446,1544	0,0169357713
3	0	446,6544	0,0168021061
3	0	447,1544	0,0168593917
3	0	447,6544	0,0168402959
3	0	448,1544	0,0168021061
3	0	448,6544	0,0168784857
3	0	449,1544	0,0168784857
3	0	449,6544	0,0169739611
3	0	450,1544	0,0169357713
3	0	450,6544	0,0168593917
3	0	451,1544	0,0169739611
3	0	451,6544	0,0168212019
3	0	452,1544	0,0168975815
3	0	452,6544	0,0170503408
3	0	453,1544	0,0169930551
3	0	453,6544	0,0168402959
3	0	454,1544	0,0168212019
3	0	454,6544	0,0168975815
3	0	455,1544	0,0169166755
3	0	455,6544	0,0169357713
3	0	456,1544	0,0168975815
3	0	456,6544	0,0168593917
3	0	457,1544	0,0169357713
3	0	457,6544	0,0168784857
3	0	458,1544	0,0168975815
3	0	458,6544	0,0168593917
3	0	459,1544	0,0168975815
3	0	459,6544	0,0167639162
3	0	460,1544	0,0168212019
3	0	460,6544	0,0168212019
3	0	461,1544	0,0167066325
3	0	461,6544	0,0166684426
3	0	462,1544	0,0166875366
3	0	462,6544	0,0168402959
3	0	463,1544	0,0169166755
3	0	463,6544	0,0168593917
3	0	464,1544	0,0168784857
3	0	464,6544	0,0167830121
3	0	465,1544	0,0168021061
3	0	465,6544	0,0168021061
3	0	466,1544	0,0168402959
3	0	466,6544	0,0167830121
3	0	467,1544	0,0167448223
3	0	467,6544	0,0168212019
3	0	468,1544	0,0169739611
3	0	468,6544	0,0168593917
3	0	469,1544	0,0166875366
3	0	469,6544	0,0167830121
3	0	470,1544	0,0168212019
3	0	470,6544	0,0168021061
3	0	471,1544	0,0168402959
3	0	471,6544	0,0167066325
3	0	472,1544	0,0168402959
3	0	472,6544	0,0168212019
3	0	473,1544	0,0167066325
3	0	473,6544	0,0167066325
3	0	474,1544	0,0167830121
3	0	474,6544	0,0168212019
3	0	475,1544	0,0167830121
3	0	475,6544	0,0168212019
3	0	476,1544	0,0167257264
3	0	476,6544	0,0167257264
3	0	477,1544	0,0166875366
3	0	477,6544	0,0168212019
3	0	478,1544	0,0168021061
3	0	478,6544	0,0167830121
3	0	479,1544	0,0167066325
3	0	479,6544	0,0167257264
3	0	480,1544	0,0167066325
3	0	480,6544	0,0167639162
3	0	481,1544	0,0168021061
3	0	481,6544	0,0167448223
3	0	482,1544	0,0168021061
3	0	482,6544	0,0167448223
3	0	483,1544	0,0167066325
3	0	483,6544	0,0166684426
3	0	484,1544	0,0167830121
3	0	484,6544	0,0167448223
3	0	485,1544	0,0166875366
3	0	485,6544	0,0167257264
3	0	486,1544	0,0167448223
3	0	486,6544	0,0168021061
3	0	487,1544	0,0167639162
3	0	487,6544	0,0167066325
3	0	488,1544	0,0167066325
3	0	488,6544	0,0167830121
3	0	489,1544	0,0168975815
3	0	489,6544	0,0167448223
3	0	490,1544	0,0167448223
3	0	490,6544	0,0168402959
3	0	491,1544	0,0167257264
3	0	491,6544	0,0167066325
3	0	492,1544	0,0167257264
3	0	492,6544	0,0168593917
3	0	493,1544	0,0168212019
3	0	493,6544	0,0167448223
3	0	494,1544	0,0168402959
3	0	494,6544	0,0168784857
3	0	495,1544	0,0166875366
3	0	495,6544	0,0167066325
3	0	496,1544	0,0166875366
3	0	496,6544	0,0168784857
3	0	497,1544	0,0167257264
3	0	497,6544	0,0167830121
3	0	498,1544	0,0168021061
3	0	498,6544	0,0167830121
3	0	499,1544	0,0168021061
3	0	499,6544	0,0167066325
3	0	500,1544	0,0168402959
3	0	500,6544	0,0167066325
3	0	501,1544	0,0167066325
3	0	501,6544	0,0167257264
3	0	502,1544	0,0165729672
3	0	502,6544	0,0166684426
3	0	503,1544	0,0168402959
3	0	503,6544	0,0166875366
3	0	504,1544	0,0167639162
3	0	504,6544	0,0167639162
3	0	505,1544	0,0167830121
3	0	505,6544	0,0166302528
3	0	506,1544	0,016592063
3	0	506,6544	0,0167639162
3	0	507,1544	0,0168975815
3	0	507,6544	0,0167448223
3	0	508,1544	0,0168021061
3	0	508,6544	0,0166684426
3	0	509,1544	0,0167066325
3	0	509,6544	0,0168021061
3	0	510,1544	0,0167639162
3	0	510,6544	0,0167639162
3	0	511,1544	0,0167257264
3	0	511,6544	0,016611157
3	0	512,1544	0,0167639162
3	0	512,6544	0,0168402959
3	0	513,1544	0,0166684426
3	0	513,6544	0,0167448223
3	0	514,1544	0,0166875366
3	0	514,6544	0,0166493468
3	0	515,1544	0,0166684426
3	0	515,6544	0,016592063
3	0	516,1544	0,016592063
3	0	516,6544	0,0166875366
3	0	517,1544	0,0167448223
3	0	517,6544	0,0167448223
3	0	518,1544	0,0168021061
3	0	518,6544	0,0167830121
3	0	519,1544	0,0167639162
3	0	519,6544	0,0167257264
3	0	520,1544	0,0166684426
3	0	520,6544	0,0166684426
3	0	521,1544	0,0167448223
3	0	521,6544	0,0166875366
3	0	522,1544	0,0166302528
3	0	522,6544	0,0167448223
3	0	523,1544	0,0168212019
3	0	523,6544	0,0166684426
3	0	524,1544	0,0167066325
3	0	524,6544	0,0167448223
3	0	525,1544	0,0166875366
3	0	525,6544	0,0167639162
3	0	526,1544	0,0168021061
3	0	526,6544	0,0167448223
3	0	527,1544	0,0167257264
3	0	527,6544	0,0167257264
3	0	528,1544	0,0167066325
3	0	528,6544	0,0167066325
3	0	529,1544	0,0166875366
3	0	529,6544	0,0166302528
3	0	530,1544	0,0167639162
3	0	530,6544	0,0166875366
3	0	531,1544	0,016592063
3	0	531,6544	0,0166302528
3	0	532,1544	0,0167257264
3	0	532,6544	0,0167639162
3	0	533,1544	0,0167257264
3	0	533,6544	0,0167066325
3	0	534,1544	0,0166684426
3	0	534,6544	0,0168021061
3	0	535,1544	0,0167257264
3	0	535,6544	0,0166875366
3	0	536,1544	0,0167448223
3	0	536,6544	0,0166875366
3	0	537,1544	0,0168021061
3	0	537,6544	0,0168021061
3	0	538,1544	0,0167257264
3	0	538,6544	0,0166302528
3	0	539,1544	0,0167066325
3	0	539,6544	0,0166493468
3	0	540,1544	0,0166493468
3	0	540,6544	0,0167448223
3	0	541,1544	0,0167639162
3	0	541,6544	0,0166684426
3	0	542,1544	0,0166684426
3	0	542,6544	0,016592063
3	0	543,1544	0,0167066325
3	0	543,6544	0,0165538732
3	0	544,1544	0,0167830121
3	0	544,6544	0,0167066325
3	0	545,1544	0,0167257264
3	0	545,6544	0,0167257264
3	0	546,1544	0,0166684426
3	0	546,6544	0,0167257264
3	0	547,1544	0,0166875366
3	0	547,6544	0,0166302528
3	0	548,1544	0,0166684426
3	0	548,6544	0,0166493468
3	0	549,1544	0,0167257264
3	0	549,6544	0,0167639162
3	0	550,1544	0,016611157
3	0	550,6544	0,0166875366
3	0	551,1544	0,0166302528
3	0	551,6544	0,0166302528
3	0	552,1544	0,0167830121
3	0	552,6544	0,0165729672
3	0	553,1544	0,0167257264
3	0	553,6544	0,0167066325
3	0	554,1544	0,0166493468
3	0	554,6544	0,0167448223
3	0	555,1544	0,0167066325
3	0	555,6544	0,0166684426
3	0	556,1544	0,0166684426
3	0	556,6544	0,0166493468
3	0	557,1544	0,0166493468
3	0	557,6544	0,0167448223
3	0	558,1544	0,0166302528
3	0	558,6544	0,0165156834
3	0	559,1544	0,0165538732
3	0	559,6544	0,0165538732
3	0	560,1544	0,0168402959
3	0	560,6544	0,0166684426
3	0	561,1544	0,0165729672
3	0	561,6544	0,0166875366
3	0	562,1544	0,016611157
3	0	562,6544	0,0166684426
3	0	563,1544	0,0166302528
3	0	563,6544	0,0166493468
3	0	564,1544	0,016611157
3	0	564,6544	0,0166684426
3	0	565,1544	0,0166684426
3	0	565,6544	0,0165538732
3	0	566,1544	0,0166493468
3	0	566,6544	0,0166302528
3	0	567,1544	0,0165538732
3	0	567,6544	0,0165538732
3	0	568,1544	0,0166493468
3	0	568,6544	0,0166684426
3	0	569,1544	0,0165729672
3	0	569,6544	0,0165538732
3	0	570,1544	0,016611157
3	0	570,6544	0,0165729672
3	0	571,1544	0,016611157
3	0	571,6544	0,0165156834
3	0	572,1544	0,016611157
3	0	572,6544	0,0166684426
3	0	573,1544	0,016611157
3	0	573,6544	0,0166302528
3	0	574,1544	0,0167066325
3	0	574,6544	0,016611157
3	0	575,1544	0,0166302528
3	0	575,6544	0,0165538732
3	0	576,1544	0,0165347774
3	0	576,6544	0,0165729672
3	0	577,1544	0,0165538732
3	0	577,6544	0,016611157
3	0	578,1544	0,0166302528
3	0	578,6544	0,0166493468
3	0	579,1544	0,0166493468
3	0	579,6544	0,0167066325
3	0	580,1544	0,0166302528
3	0	580,6544	0,0166875366
3	0	581,1544	0,0166684426
3	0	581,6544	0,0167257264
3	0	582,1544	0,0167066325
3	0	582,6544	0,016611157
3	0	583,1544	0,0166875366
3	0	583,6544	0,016611157
3	0	584,1544	0,016611157
3	0	584,6544	0,016611157
3	0	585,1544	0,0164202079
3	0	585,6544	0,016592063
3	0	586,1544	0,0164583977
3	0	586,6544	0,0165538732
3	0	587,1544	0,0165156834
3	0	587,6544	0,016592063
3	0	588,1544	0,0165729672
3	0	588,6544	0,0165538732
3	0	589,1544	0,0165729672
3	0	589,6544	0,0165538732
3	0	590,1544	0,0165156834
3	0	590,6544	0,0166302528
3	0	591,1544	0,0166302528
3	0	591,6544	0,0164393038
3	0	592,1544	0,0164583977
3	0	592,6544	0,016592063
3	0	593,1544	0,0165729672
3	0	593,6544	0,0165347774
3	0	594,1544	0,0166875366
3	0	594,6544	0,016611157
3	0	595,1544	0,016611157
3	0	595,6544	0,0166875366
3	0	596,1544	0,016611157
3	0	596,6544	0,0165538732
3	0	597,1544	0,0164393038
3	0	597,6544	0,0165729672
3	0	598,1544	0,016592063
3	0	598,6544	0,0166302528
3	0	599,1544	0,0165156834
3	0	599,6544	0,0164583977
3	0	600,1544	0,0165347774
3	0	600,6544	0,0164583977
3	0	601,1544	0,0165347774
3	0	601,6544	0,0164774936
3	0	602,1544	0,0164011139
3	0	602,6544	0,0165538732
3	0	603,1544	0,0164583977
3	0	603,6544	0,0165729672
3	0	604,1544	0,0164965875
3	0	604,6544	0,0165156834
3	0	605,1544	0,0165538732
3	0	605,6544	0,0164202079
3	0	606,1544	0,0163820181
3	0	606,6544	0,016592063
3	0	607,1544	0,0165156834
3	0	607,6544	0,0165538732
3	0	608,1544	0,0165538732
3	0	608,6544	0,0164774936
3	0	609,1544	0,0165729672
3	0	609,6544	0,0165538732
3	0	610,1544	0,0165156834