File: Experimentelles/Rohdaten/Batteriemessungen/AlteZelle/Studenten_Batterietests/SemArbeitToph/ECLab-Export/Al_Struktur_01_Zyklieren_02_GCPL_C03.mpt
EC-Lab ASCII FILE
Nb header lines : 76

Galvanostatic Cycling with Potential Limitation

Run on channel : 3 (SN 6987)
Grouped channel(s) : 3
User :
CE vs. WE compliance from -10 V to 10 V
Electrode connection : standard
Ewe ctrl range : min = 0,00 V, max = 5,00 V
Acquisition started on : 03.16.2015 02:19:29
Saved on :
	File : Al_Struktur_01_Zyklieren_02_GCPL_C03.mpr
	Directory : C:\Hupfer\Studenten Batterietests\SemArbeitToph\
	Host : 192.168.0.2
Device : VMP3 (SN 0324)
Address : 192.168.0.1
EC-Lab for windows v10.33 (software)
Internet server v10.33 (firmware)
Command interpretor v10.32 (firmware)
Electrode material :
Initial state :
Electrolyte :
Comments :
Mass of active material : 0,001 mg
 at x = 0,000
Molecular weight of active material (at x = 0) : 0,001 g/mol
Atomic weight of intercalated ion : 0,001 g/mol
Acquisition started at : xo = 0,000
Number of e- transfered per intercalated ion : 1
for DX = 1, DQ = 26,801 mA.h
Battery capacity : 0,000 A.h
Electrode surface area : 0,001 cm²
Characteristic mass : 0,001 g
Ns                  0                   1                   2
Set I/C             I                   I                   I
Is                  0,000               100,000             -100,000
unit Is             mA                  µA                  µA
vs.                 <None>              <None>              <None>
N                   1                   1                   1
I sign              > 0                 > 0                 > 0
t1 (h:m:s)          0:00:0,0000         4:00:0,0000         4:00:0,0000
I Range             1 A                 1 A                 1 A
Bandwidth           5                   5                   5
dE1 (mV)            0,00                10,00               10,00
dt1 (s)             0,0000              10,0000             10,0000
EM (V)              0,000               4,500               2,500
tM (h:m:s)          0:00:0,0000         0:00:0,0000         0:00:0,0000
Im                  0,000               0,000               0,000
unit Im             mA                  mA                  mA
E range min (V)     0,000               0,000               0,000
E range max (V)     5,000               5,000               5,000
dq                  0,000               1,000               1,000
unit dq             mA.h                mA.h                mA.h
dtq (s)             0,0000              120,0000            120,0000
dQM                 0,000               0,000               0,000
unit dQM            mA.h                mA.h                mA.h
dxM                 0,000               0,000               0,000
tR (h:m:s)          0:00:10,0000        0:05:0,0000         0:05:0,0000
dER/dt (mV/h)       0,0                 0,1                 0,1
dER (mV)            0,00                5,00                5,00
dtR (s)             1,0000              120,0000            120,0000
EL (V)              pass                4,200               3,500
goto Ns'            0                   0                   0
nc cycles           0                   0                   0

Number of loops : 6
Loop 0 from point number 0 to 1735
Loop 1 from point number 1736 to 2846
Loop 2 from point number 2847 to 3466
Loop 3 from point number 3467 to 4003
Loop 4 from point number 4004 to 4521
Loop 5 from point number 4522 to 5036

mode	ox/red	error	control changes	Ns changes	counter inc.	Ns	time/s	control/V/mA	Ewe/V	dq/mA.h	<I>/mA	P/W	(Q-Qo)/mA.h	x	Capacity/mA.h
3	1	0	0	0	0	0	600,0006	0	4,06096649	0	0	0	0	0	0
1	1	0	0	0	0	1	610,7868	0,100000001	4,1118474	1,4682433881693418E-005	0,2215287649177303	0,000910892501	4,8250831748462387E-005	-1,800303406468384E-006	4,8250831748462387E-005
1	1	0	0	0	0	1	702,9064	0,100000001	4,23551321	0,00062062888621331917	0,22342640468102061	0,000946325483	0,0057527446071609018	-0,00021464263594055939	0,0057527446071609018
1	1	0	0	0	0	1	852,9064	0,100000001	4,30517149	0,00062839622299745677	0,22622264599394915	0,000973927265	0,01511133543457753	-0,00056382424247066528	0,01511133543457753
1	1	0	0	0	0	1	1002,9064	0,100000001	4,35315466	0,00062637844807902976	0,22549624700496502	0,000981620047	0,02448879666461961	-0,00091370992909425267	0,02448879666461961
1	1	0	0	0	0	1	1152,9064	0,100000001	4,38880348	0,0006177146760668192	0,22237728900177773	0,000975970237	0,033803253177186688	-0,0012612448249981043	0,033803253177186688
1	1	0	0	0	0	1	1302,9064	0,100000001	4,42012501	0,00062137043425564966	0,22369336198300352	0,000988752581	0,043123838336303021	-0,0016090083889447616	0,043123838336303021
1	1	0	0	0	0	1	1452,9064	0,100000001	4,44046593	0,00061833033447712666	0,22259892603508742	0,000988442916	0,052374798949440333	-0,0019541741674697437	0,052374798949440333
1	1	0	0	0	0	1	1602,9064	0,100000001	4,45813799	0,00062486140406628454	0,22495011114658022	0,00100285863	0,061725579297920486	-0,0023030643545294294	0,061725579297920486
1	1	0	0	0	0	1	1752,9064	0,100000001	4,47232151	0,00062341296288495258	0,22442867230812806	0,00100371719	0,071090493617237056	-0,0026524818990443472	0,071090493617237056
1	1	0	0	0	0	1	1902,9064	0,100000001	4,4883728	0,0006297891452213129	0,22672409800720509	0,0010176223	0,080483750494694579	-0,0030029569425104787	0,080483750494694579
3	1	0	1	0	0	1	2020,0977	0	4,48282528	0	0	0	0,087833231304280896	-0,0032771759529981869	0,087833231304280896
3	1	0	1	0	0	1	2032,6783	0	4,40744781	0	0	0	0,087833231304280896	-0,0032771759529981869	0,087833231304280896
3	1	0	1	0	0	1	2237,1359	0	4,33201313	0	0	0	0,087833231304280896	-0,0032771759529981869	0,087833231304280896
1	0	0	1	0	0	2	2330,5317	-0,100000001	4,21343756	5,1842642739098259E-006	0,0078279304829927437	3,29824979E-005	0,087855175356680218	-0,0032779947150972979	2,1944052399320451E-005
1	0	0	1	0	0	2	2454,6639	-0,100000001	4,11228561	1,5262867122888566E-005	0,0054946323030459706	2,25954973E-005	0,088096343385665715	-0,0032869930185126106	0,00026311208138479882
1	0	0	1	0	0	2	2604,6639	-0,100000001	4,07366276	2,0415159063339363E-005	0,0073494574484650829	2,99392104E-005	0,088356095117283968	-0,0032966847048592051	0,00052286381300303226
1	0	0	1	0	0	2	2754,6639	-0,100000001	4,05126333	1,9455778945119366E-005	0,0070040805971809306	2,83753743E-005	0,088648256426435968	-0,0033075856361187238	0,00081502512215501542
1	0	0	1	0	0	2	2904,6639	-0,100000001	4,03210402	1,5003307585932717E-005	0,005401190867381335	2,17781635E-005	0,088891580232924992	-0,0033166643744911667	0,0010583489286440472
1	0	0	1	0	0	2	3054,6639	-0,100000001	4,00623465	2,0319326828799802E-005	0,0073149578431593075	2,93054381E-005	0,089144514813242854	-0,0033261017037569862	0,0013112835089619213
1	0	0	1	0	0	2	3204,6639	-0,100000001	3,97579002	2,700563694978256E-005	0,0097220295475208448	3,86527463E-005	0,089500192174587264	-0,0033393725043220448	0,0016669608703063354
1	0	0	1	0	0	2	3354,6639	-0,100000001	3,93968368	1,996817882938679E-005	0,0071885445601771558	2,83205918E-005	0,08979240051472983	-0,003350275190371056	0,0019591692104489402
1	0	0	1	0	0	2	3504,6639	-0,100000001	3,90317678	1,5493429539225568E-005	0,0055776347750241107	2,17704946E-005	0,090074684416168038	-0,003360807582268457	0,0022414531118871258
1	0	0	1	0	0	2	3654,6639	-0,100000001	3,86346722	1,9321401977376403E-005	0,0069557048875713907	2,68731383E-005	0,090361374464873203	-0,0033715043734445165	0,0025281431605922848
1	0	0	1	0	0	2	3804,6639	-0,100000001	3,81769562	2,1144683867162608E-005	0,0076120863844760154	2,90606295E-005	0,090657454273757555	-0,003382551509197529	0,002824222969476624
1	0	0	1	0	0	2	3954,6639	-0,100000001	3,75974202	2,0808741774623437E-005	0,0074911472281067341	2,81647808E-005	0,090960339563024755	-0,0033938525665736902	0,0031271082587437965
1	0	0	1	0	0	2	4104,6639	-0,100000001	3,68701434	1,393147517987139E-005	0,005015331134291591	1,84915971E-005	0,091220912761178445	-0,0034035749029411955	0,0033876814568974694
1	0	0	1	0	0	2	4254,6639	-0,100000001	3,63350272	2,4573061744372054E-005	0,0088463023350778317	3,21430634E-005	0,091563884790222246	-0,0034163716504756173	0,0037306534859412851
1	0	0	1	0	0	2	4404,6639	-0,100000001	3,57238483	2,0711141613795514E-005	0,0074560110712377536	2,66357401E-005	0,091871144752976461	-0,0034278359328013907	0,0040379134486954989
1	0	0	1	0	0	2	4554,6639	-0,100000001	3,51006579	1,5707725389208966E-005	0,0056547812085787584	1,98486541E-005	0,092150144555626074	-0,003438245790557472	0,0043169132513451142
1	0	0	1	0	0	2	4704,6639	-0,100000001	3,44747996	1,7887459408260634E-005	0,0064394854649379251	2,21999962E-005	0,092440474802061056	-0,003449078402405129	0,0046072434977800954
1	0	0	1	0	0	2	4854,6639	-0,100000001	3,38266349	1,9230167150735114E-005	0,0069228602580810496	2,3417706E-005	0,092736617202184858	-0,00346012787352144	0,0049033858979038656
1	0	0	1	0	0	2	5004,6639	-0,100000001	3,32875156	2,54160999166472E-005	0,0091497960807713446	3,04573987E-005	0,093067283140103846	-0,0034724654642502797	0,0052340518358228198
1	0	0	1	0	0	2	5154,0967	-0,100000001	3,2483604	1,7638508763070499E-005	0,0063498632315844032	2,0626645E-005	0,093340107829662886	-0,0034826449202344237	0,0055068765253818502
1	0	0	1	0	0	2	5302,7675	-0,100000001	3,17058086	1,4188913291006531E-005	0,0051080088466060019	1,61953558E-005	0,09362134689686025	-0,0034931383279615046	0,0057881155925791962
1	0	0	1	0	0	2	5451,7211	-0,100000001	3,09139061	2,2329675745801072E-005	0,0080386833658142797	2,48507095E-005	0,093895590224368998	-0,0035033707152349312	0,0060623589200879462
1	0	0	1	0	0	2	5598,8771	-0,100000001	3,00102901	2,5010494077615379E-005	0,0090037779769520166	2,70205983E-005	0,094244789460718464	-0,0035163998082464966	0,0064115581564374182
1	0	0	1	0	0	2	5737,6837	-0,100000001	2,90214586	2,1867843573106154E-005	0,0078724237816311731	2,28469216E-005	0,094551597445441574	-0,0035278472266642381	0,0067183661411605222
1	0	0	1	0	0	2	5868,3393	-0,100000001	2,79022336	1,5989666332361392E-005	0,0063351895724745254	1,76765934E-005	0,094819191708339328	-0,0035378315283972666	0,0069859604040582899
1	0	0	1	0	0	2	5998,9015	-0,100000001	2,6622684	1,7976156582365443E-005	0,0080943295159426214	2,15492782E-005	0,09509006820107831	-0,0035479382945386758	0,0072568368967972685
1	0	0	1	0	0	2	6111,1545	-0,100000001	2,52297044	1,8293224591343053E-005	0,0088837999900454758	2,24135656E-005	0,095339904152125837	-0,0035572600097802682	0,0075066728478448102
3	0	0	0	0	0	2	6124,5169	0	2,56741619	0	0	0	0,095361922668611456	-0,0035580815502345568	0,0075286913643304192
3	0	0	0	0	0	2	6126,4081	0	2,6428318	0	0	0	0,095361922668611456	-0,0035580815502345568	0,0075286913643304192
3	0	0	0	0	0	2	6128,7991	0	2,71824741	0	0	0	0,095361922668611456	-0,0035580815502345568	0,0075286913643304192
3	0	0	0	0	0	2	6131,7639	0	2,79364419	0	0	0	0,095361922668611456	-0,0035580815502345568	0,0075286913643304192
3	0	0	0	0	0	2	6135,4263	0	2,8690598	0	0	0	0,095361922668611456	-0,0035580815502345568	0,0075286913643304192
3	0	0	0	0	0	2	6139,9487	0	2,94438028	0	0	0	0,095361922668611456	-0,0035580815502345568	0,0075286913643304192
3	0	0	0	0	0	2	6145,5345	0	3,01985312	0	0	0	0,095361922668611456	-0,0035580815502345568	0,0075286913643304192
3	0	0	0	0	0	2	6152,5017	0	3,09542131	0	0	0	0,095361922668611456	-0,0035580815502345568	0,0075286913643304192
3	0	0	0	0	0	2	6161,4103	0	3,17087507	0	0	0	0,095361922668611456	-0,0035580815502345568	0,0075286913643304192
3	0	0	0	0	0	2	6173,3539	0	3,24636698	0	0	0	0,095361922668611456	-0,0035580815502345568	0,0075286913643304192
3	0	0	0	0	0	2	6190,3785	0	3,32172561	0	0	0	0,095361922668611456	-0,0035580815502345568	0,0075286913643304192
3	0	0	0	0	0	2	6217,6001	0	3,3970077	0	0	0	0,095361922668611456	-0,0035580815502345568	0,0075286913643304192
3	0	0	0	0	0	2	6271,9941	0	3,47236633	0	0	0	0,095361922668611456	-0,0035580815502345568	0,0075286913643304192
3	0	0	0	0	0	2	6351,1635	0	3,54770565	0	0	0	0,095361922668611456	-0,0035580815502345568	0,0075286913643304192
1	0	0	0	0	0	2	6425,2437	-0,100000001	3,5160327	6,5521123294699162E-007	0,0068369868613194214	2,40390691E-005	0,095365309452047296	-0,0035582079156781267	0,0075320781477662451
1	0	0	0	0	0	2	6431,4727	-0,100000001	3,36461043	1,042382974500975E-006	0,0083132006062132096	2,79706819E-005	0,095381135461594355	-0,0035587984053726234	0,0075479041573132787
1	0	0	0	0	0	2	6437,4465	-0,100000001	3,21347404	7,9688863256888E-007	0,0071363161990632922	2,29323668E-005	0,095392869220330522	-0,0035592362076872762	0,0075596379160494374
1	0	0	0	0	0	2	6443,8409	-0,100000001	3,06191802	1,1878837372334802E-006	0,0094401357742791834	2,89049221E-005	0,095407041275595674	-0,0035597649861237498	0,0075738099713145651
1	0	0	0	0	0	2	6451,2787	-0,100000001	2,91102958	1,4232117869105421E-006	0,0095410847203599142	2,77743802E-005	0,095426328739868122	-0,0035604846273480262	0,0075930974355870259
1	0	0	0	0	0	2	6459,9305	-0,100000001	2,75998855	7,982661692981815E-007	0,0047002915345869542	1,29727505E-005	0,095441016190497869	-0,0035610326358785101	0,0076077848862167642
1	0	0	0	0	0	2	6471,5755	-0,100000001	2,60898542	1,324071178156171E-006	0,0050313028278509222	1,31265961E-005	0,09545797412244192	-0,0035616653591195245	0,0076247428181607987
3	0	0	1	0	0	2	6485,5263	0	2,52637219	0	0	0	0,095471095385399962	-0,003562154931082215	0,0076378640811188352
3	0	0	1	0	0	2	6487,6775	0	2,6020546	0	0	0	0,095471095385399962	-0,003562154931082215	0,0076378640811188352
3	0	0	1	0	0	2	6490,6755	0	2,67756581	0	0	0	0,095471095385399962	-0,003562154931082215	0,0076378640811188352
3	0	0	1	0	0	2	6494,5173	0	2,75305772	0	0	0	0,095471095385399962	-0,003562154931082215	0,0076378640811188352
3	0	0	1	0	0	2	6499,3133	0	2,8284924	0	0	0	0,095471095385399962	-0,003562154931082215	0,0076378640811188352
3	0	0	1	0	0	2	6505,2497	0	2,90396523	0	0	0	0,095471095385399962	-0,003562154931082215	0,0076378640811188352
3	0	0	1	0	0	2	6512,5449	0	2,97934294	0	0	0	0,095471095385399962	-0,003562154931082215	0,0076378640811188352
3	0	0	1	0	0	2	6521,5089	0	3,05477762	0	0	0	0,095471095385399962	-0,003562154931082215	0,0076378640811188352
3	0	0	1	0	0	2	6532,6923	0	3,1302886	0	0	0	0,095471095385399962	-0,003562154931082215	0,0076378640811188352
3	0	0	1	0	0	2	6547,0851	0	3,20579958	0	0	0	0,095471095385399962	-0,003562154931082215	0,0076378640811188352
3	0	0	1	0	0	2	6566,5011	0	3,28136778	0	0	0	0,095471095385399962	-0,003562154931082215	0,0076378640811188352
3	0	0	1	0	0	2	6594,4507	0	3,35676455	0	0	0	0,095471095385399962	-0,003562154931082215	0,0076378640811188352
3	0	0	1	0	0	2	6641,8451	0	3,43206573	0	0	0	0,095471095385399962	-0,003562154931082215	0,0076378640811188352
3	0	0	1	0	0	2	6714,3087	0	3,50742435	0	0	0	0,095471095385399962	-0,003562154931082215	0,0076378640811188352
1	0	0	1	0	0	2	6786,2609	-0,100000001	3,50875044	7,1941824862248422E-007	0,0078816364163228006	2,76546943E-005	0,095473455178908339	-0,0035622429781507885	0,0076402238746272141
1	0	0	1	0	0	2	6791,7753	-0,100000001	3,35719466	7,4600830081908506E-007	0,0066377407697499021	2,22841882E-005	0,09548422036187296	-0,0035626446416011405	0,0076509890575918387
1	0	0	1	0	0	2	6797,3119	-0,100000001	3,2063632	7,8867974063096986E-007	0,0078562454361182848	2,51899764E-005	0,095496498862353638	-0,0035631027689626944	0,0076632675580724928
1	0	0	1	0	0	2	6803,0017	-0,100000001	3,05486465	9,8996696391744384E-007	0,0088653759037413722	2,7082524E-005	0,095509949616572954	-0,0035636046346873485	0,0076767183122917952
1	0	0	1	0	0	2	6809,0545	-0,100000001	2,90287042	4,9819873644608179E-007	0,004254068958558249	1,23490108E-005	0,095520751993233792	-0,0035640076858845139	0,0076875206889526374
1	0	0	1	0	0	2	6816,0523	-0,100000001	2,75116205	6,8696447792818714E-007	0,0049880438695001734	1,37229172E-005	0,095530497430001331	-0,0035643713012331898	0,0076972661257202061
1	0	0	1	0	0	2	6825,1671	-0,100000001	2,59975863	1,2978114948944291E-006	0,0064764644277792422	1,68372444E-005	0,09554596772580855	-0,0035649485187697914	0,0077127364215274317
3	0	0	0	0	0	2	6834,8285	0	2,53001332	0	0	0	0,095564568667927782	-0,0035656425449294925	0,0077313373636466867
3	0	0	0	0	0	2	6837,4965	0	2,60573387	0	0	0	0,095564568667927782	-0,0035656425449294925	0,0077313373636466867
3	0	0	0	0	0	2	6841,2993	0	2,68113065	0	0	0	0,095564568667927782	-0,0035656425449294925	0,0077313373636466867
3	0	0	0	0	0	2	6846,2525	0	2,75664163	0	0	0	0,095564568667927782	-0,0035656425449294925	0,0077313373636466867
3	0	0	0	0	0	2	6852,5175	0	2,83213353	0	0	0	0,095564568667927782	-0,0035656425449294925	0,0077313373636466867
3	0	0	0	0	0	2	6860,3679	0	2,90768266	0	0	0	0,095564568667927782	-0,0035656425449294925	0,0077313373636466867
3	0	0	0	0	0	2	6870,0739	0	2,98298407	0	0	0	0,095564568667927782	-0,0035656425449294925	0,0077313373636466867
3	0	0	0	0	0	2	6882,1011	0	3,05841875	0	0	0	0,095564568667927782	-0,0035656425449294925	0,0077313373636466867
3	0	0	0	0	0	2	6897,1427	0	3,13377738	0	0	0	0,095564568667927782	-0,0035656425449294925	0,0077313373636466867
3	0	0	0	0	0	2	6916,5747	0	3,20915484	0	0	0	0,095564568667927782	-0,0035656425449294925	0,0077313373636466867
3	0	0	0	0	0	2	6942,7151	0	3,2846086	0	0	0	0,095564568667927782	-0,0035656425449294925	0,0077313373636466867
3	0	0	0	0	0	2	6980,1433	0	3,35989094	0	0	0	0,095564568667927782	-0,0035656425449294925	0,0077313373636466867
3	0	0	0	0	0	2	7042,9315	0	3,43545914	0	0	0	0,095564568667927782	-0,0035656425449294925	0,0077313373636466867
3	0	0	0	0	0	2	7134,4231	-0,100000001	3,52100372	0	0	0	0,095564568667927782	-0,0035656425449294925	0,0077313373636466867
1	0	0	0	0	0	2	7138,4923	-0,100000001	3,37471414	8,4141690365504474E-007	0,0076997989064337011	2,59846202E-005	0,095573010098684787	-0,0035659575060606605	0,0077397787944036979
1	0	0	0	0	0	2	7143,7513	-0,100000001	3,22348237	9,7870869982418509E-007	0,0099417363489830438	3,20470135E-005	0,095587750263891418	-0,0035665074814428832	0,0077545189596103194
1	0	0	0	0	0	2	7149,0625	-0,100000001	3,07223153	1,0175658352155653E-006	0,01041283982698032	3,1990654E-005	0,095603846317900467	-0,003567108046859335	0,00777061501361936
1	0	0	0	0	0	2	7154,5103	-0,100000001	2,92115235	9,7718670512969971E-007	0,0092139135177533133	2,69152461E-005	0,095618726125660237	-0,0035676632324929664	0,0077854948213791539
1	0	0	0	0	0	2	7160,5125	-0,100000001	2,76980615	5,2646044566709958E-007	0,0045890015190588755	1,2710645E-005	0,095630445511909568	-0,0035681004985508115	0,0077972142076285069
1	0	0	0	0	0	2	7167,3437	-0,100000001	2,61832666	4,6497421103574899E-007	0,0034217235894460608	8,95919038E-006	0,095638829700500429	-0,0035684133238997984	0,0078055983962193549
3	0	0	1	0	0	2	7174,4811	0	2,5208056	0	0	0	0,095643273394128333	-0,0035685791240836646	0,0078100420898472512
3	0	0	1	0	0	2	7177,2555	0	2,5962975	0	0	0	0,095643273394128333	-0,0035685791240836646	0,0078100420898472512
3	0	0	1	0	0	2	7181,5385	0	2,67180848	0	0	0	0,095643273394128333	-0,0035685791240836646	0,0078100420898472512
3	0	0	1	0	0	2	7187,2767	0	2,74730039	0	0	0	0,095643273394128333	-0,0035685791240836646	0,0078100420898472512
3	0	0	1	0	0	2	7194,6537	0	2,82279229	0	0	0	0,095643273394128333	-0,0035685791240836646	0,0078100420898472512
3	0	0	1	0	0	2	7204,0025	0	2,89822721	0	0	0	0,095643273394128333	-0,0035685791240836646	0,0078100420898472512
3	0	0	1	0	0	2	7215,7305	0	2,97364283	0	0	0	0,095643273394128333	-0,0035685791240836646	0,0078100420898472512
3	0	0	1	0	0	2	7230,3345	0	3,04903936	0	0	0	0,095643273394128333	-0,0035685791240836646	0,0078100420898472512
3	0	0	1	0	0	2	7248,6647	0	3,12443614	0	0	0	0,095643273394128333	-0,0035685791240836646	0,0078100420898472512
3	0	0	1	0	0	2	7272,2127	0	3,19985175	0	0	0	0,095643273394128333	-0,0035685791240836646	0,0078100420898472512
3	0	0	1	0	0	2	7303,5889	0	3,27524853	0	0	0	0,095643273394128333	-0,0035685791240836646	0,0078100420898472512
3	0	0	1	0	0	2	7347,7855	0	3,35053062	0	0	0	0,095643273394128333	-0,0035685791240836646	0,0078100420898472512
3	0	0	1	0	0	2	7418,3483	0	3,42588925	0	0	0	0,095643273394128333	-0,0035685791240836646	0,0078100420898472512
3	0	0	0	0	0	0	7478,3145	0	3,46904922	0	0	0	0,095643273394128333	-0,0035685791240836646	0,0078100420898472512
1	1	0	0	0	0	1	7486,0405	0,100000001	3,56679916	1,5339741025533939E-005	0,22800606259433808	0,000813251827	0,095751443535309517	-0,0035726150974874362	0,00010817014118118419
1	1	0	0	0	0	1	7491,1607	0,100000001	3,71787834	3,0200933548725318E-005	0,22407947669107466	0,000833100232	0,096070599334127181	-0,0035845232294508589	0,0004273259399988585
1	1	0	0	0	0	1	7510,6929	0,100000001	3,86876702	0,00021477371415495875	0,22626284101587453	0,000875358237	0,097296355974306048	-0,0036302578577432634	0,0016530825801777347
1	1	0	0	0	0	1	7647,1515	0,100000001	3,96757364	0,0006272352775467767	0,2258047026507008	0,00089589681	0,10582784203414022	-0,0039485790733406803	0,010184568640011882
1	1	0	0	0	0	1	7797,1515	0,100000001	4,01420355	0,00062407211657116813	0,22466596468569482	0,000901854888	0,11521288990003021	-0,0042987478275480928	0,01956961650590185
1	1	0	0	0	0	1	7947,1514	0,100000001	4,0507865	0,00062722360798716544	0,22580050160918992	0,000914669596	0,12459840384164518	-0,0046489339716674522	0,028955130447516845
1	1	0	0	0	0	1	8097,1514	0,100000001	4,08237505	0,00062519345630332826	0,22506964699415994	0,000918818696	0,13394170081362155	-0,0049975449438882746	0,03829842741949319
1	1	0	0	0	0	1	8247,1514	0,100000001	4,11516428	0,00062671863381150694	0,22561871090375187	0,000928458059	0,1433574269183347	-0,0053488583444335104	0,047714153524206349
1	1	0	0	0	0	1	8397,1514	0,100000001	4,14925003	0,00062575890009394944	0,2252732067612481	0,000934714859	0,15283589818132614	-0,0057025128511958726	0,05719262478719776
1	1	0	0	0	0	1	8547,1514	0,100000001	4,19004631	0,00063085708759642304	0,22710855428435949	0,000951595372	0,16227371937956442	-0,0060546506493876992	0,066630445985436032
1	1	0	0	0	0	1	8697,1514	0,100000001	4,23499823	0,0006257939087313911	0,22528580987087965	0,00095408503	0,17171627877716915	-0,0064069652361684685	0,076073005383040781
1	1	0	0	0	0	1	8847,1514	0,100000001	4,27955008	0,0006219765447825193	0,22391155883264752	0,000958240707	0,18121685715648192	-0,0067614445891641114	0,08557358376235351
1	1	0	0	0	0	1	8997,1514	0,100000001	4,31765842	0,00062274178562313318	0,22418704553860387	0,000967963075	0,19061442187442288	-0,007112080363950633	0,094971148480294528
1	1	0	0	0	0	1	9147,1514	0,100000001	4,3547368	0,00062911796819791206	0,22648247129331542	0,000986271538	0,20002480084030237	-0,007463194255556681	0,10438152744617403
1	1	0	0	0	0	1	9297,1514	0,100000001	4,38830805	0,0006319586244072352	0,22750510754105302	0,00099836255	0,20949447041843904	-0,0078165203596231219	0,11385119702431072
1	1	0	0	0	0	1	9447,1514	0,100000001	4,41379595	0,00062794040211828211	0,22605854749951616	0,000997776282	0,21895570819969757	-0,0081695318620113638	0,12331243480556923
1	1	0	0	0	0	1	9597,1514	0,100000001	4,4356432	0,00062345787311179763	0,22444483703764422	0,000995557173	0,2284134811799032	-0,0085224140880138522	0,13277020778577486
1	1	0	0	0	0	1	9747,1514	0,100000001	4,45705128	0,00062930043795208141	0,22654816040561168	0,00100973679	0,2378649642626497	-0,00887506162948528	0,14222169086852134
1	1	0	0	0	0	1	9897,1514	0,100000001	4,47664881	0,00062698031505321459	0,2257129161519072	0,0010104375	0,2473102260496408	-0,0092274770460474534	0,15166695265551245
1	1	0	0	0	0	1	10047,1514	0,100000001	4,49456882	0,00062472384449632627	0,22490058674159238	0,00101083121	0,25673264412339923	-0,0095790401329552179	0,16108937072927091
3	1	0	1	0	0	1	10094,3590	0	4,44584179	0	0	0	0,25949197035008531	-0,0096819943044264448	0,16384869695595693
3	1	0	1	0	0	1	10121,5262	0	4,37038803	0	0	0	0,25949197035008531	-0,0096819943044264448	0,16384869695595693
3	1	0	1	0	0	1	10266,3868	0	4,29502964	0	0	0	0,25949197035008531	-0,0096819943044264448	0,16384869695595693
1	0	0	1	0	0	2	10396,8772	-0,100000001	4,1868248	2,2842145216224406E-006	0,0068515017308768627	2,86860377E-005	0,2595035304720897	-0,0096824256281211763	1,1560122004370594E-005
1	0	0	1	0	0	2	10477,6834	-0,100000001	4,03902435	1,1859817538979568E-005	0,0045907984405933056	1,85423469E-005	0,25959443366239466	-0,0096858173483720947	0,00010246331230928869
1	0	0	1	0	0	2	10627,6834	-0,100000001	3,95525861	1,8398091563877338E-005	0,0066233130431855744	2,61969162E-005	0,25981133720864896	-0,0096939103113127616	0,00031936685856355738
1	0	0	1	0	0	2	10777,6834	-0,100000001	3,89984059	2,006542532143552E-005	0,0072235532031737434	2,81707053E-005	0,26010152565340762	-0,0097047376323492211	0,0006095553033221335
1	0	0	1	0	0	2	10927,6834	-0,100000001	3,84173465	1,8861691743036822E-005	0,0067902091097036314	2,60861816E-005	0,26043135032138374	-0,0097170438341653926	0,0009393799712982871
1	0	0	1	0	0	2	11077,6834	-0,100000001	3,75711131	2,7086616390148669E-005	0,0097511820185129677	3,66362765E-005	0,26087635187151341	-0,0097336474403116787	0,0013843815214279634
1	0	0	1	0	0	2	11206,8454	-0,100000001	3,61398172	1,9389849888406592E-005	0,008437910746720233	3,04944551E-005	0,26117704215496189	-0,0097448665990695283	0,0016850718048765626
1	0	0	1	0	0	2	11351,9160	-0,100000001	3,50154448	2,0968013384183805E-005	0,0089803046893806426	3,14449353E-005	0,26154808050371715	-0,0097587105387279514	0,002056110153631776
1	0	0	1	0	0	2	11498,8256	-0,100000001	3,40757966	2,3797919571068227E-005	0,008567251149309929	2,91935903E-005	0,26192755826580538	-0,0097728693642447398	0,0024355879157199846
1	0	0	1	0	0	2	11648,8256	-0,100000001	3,31210923	1,8565709166485856E-005	0,0066836553808552179	2,21369974E-005	0,26221857737186333	-0,0097837276783711117	0,0027266070217779702
1	0	0	1	0	0	2	11797,2830	-0,100000001	3,22117567	2,0155245906450243E-005	0,0072558886141705344	2,33724913E-005	0,26253670835599558	-0,0097955975731207437	0,003044738005910288
1	0	0	1	0	0	2	11941,7312	-0,100000001	3,13146234	1,8141948123708266E-005	0,0077004992142928806	2,41138241E-005	0,26281190854109648	-0,0098058656620374426	0,0033199381910111936
1	0	0	1	0	0	2	12088,3986	-0,100000001	3,05457854	3,0564855532439347E-005	0,011003348124897829	3,36105913E-005	0,26314276919388698	-0,0098182105178399347	0,003650798843801696
1	0	0	1	0	0	2	12232,2534	-0,100000001	2,95104408	2,063405178335961E-005	0,0074282587319448256	2,19211197E-005	0,26344757207005693	-0,0098295831229616614	0,0039556017199715699
1	0	0	1	0	0	2	12372,8196	-0,100000001	2,8566792	2,7081312094157005E-005	0,0097492724719328499	2,78505431E-005	0,26377934922304662	-0,0098419621746188339	0,0042873788729612794
1	0	0	1	0	0	2	12508,2054	-0,100000001	2,73768401	2,573931156828217E-005	0,009266152276768681	2,53677972E-005	0,26406274012207731	-0,0098525358700847846	0,0045707697719919501
1	0	0	1	0	0	2	12623,0038	-0,100000001	2,60309482	1,3170526759192904E-005	0,0056920810712228832	1,48170266E-005	0,26431216363380378	-0,009861842196660777	0,0048201932837184557
3	0	0	0	0	0	2	12706,3494	0	2,52869797	0	0	0	0,26444652867818458	-0,0098668555371223488	0,0049545583280992563
3	0	0	0	0	0	2	12708,0148	0	2,60415173	0	0	0	0,26444652867818458	-0,0098668555371223488	0,0049545583280992563
3	0	0	0	0	0	2	12710,1354	0	2,67971992	0	0	0	0,26444652867818458	-0,0098668555371223488	0,0049545583280992563
3	0	0	0	0	0	2	12712,7276	0	2,75538349	0	0	0	0,26444652867818458	-0,0098668555371223488	0,0049545583280992563
3	0	0	0	0	0	2	12715,8978	0	2,83093262	0	0	0	0,26444652867818458	-0,0098668555371223488	0,0049545583280992563
3	0	0	0	0	0	2	12719,8326	0	2,90629101	0	0	0	0,26444652867818458	-0,0098668555371223488	0,0049545583280992563
3	0	0	0	0	0	2	12724,8414	0	2,98166871	0	0	0	0,26444652867818458	-0,0098668555371223488	0,0049545583280992563
3	0	0	0	0	0	2	12731,3588	0	3,05700803	0	0	0	0,26444652867818458	-0,0098668555371223488	0,0049545583280992563
3	0	0	0	0	0	2	12740,2202	0	3,1325953	0	0	0	0,26444652867818458	-0,0098668555371223488	0,0049545583280992563
3	0	0	0	0	0	2	12752,9588	0	3,20802999	0	0	0	0,26444652867818458	-0,0098668555371223488	0,0049545583280992563
3	0	0	0	0	0	2	12772,9246	0	3,28352213	0	0	0	0,26444652867818458	-0,0098668555371223488	0,0049545583280992563
3	0	0	0	0	0	2	12807,7398	0	3,35901403	0	0	0	0,26444652867818458	-0,0098668555371223488	0,0049545583280992563
3	0	0	0	0	0	2	12881,5716	0	3,4343152	0	0	0	0,26444652867818458	-0,0098668555371223488	0,0049545583280992563
3	0	0	0	0	0	2	13006,1148	-0,100000001	3,52052331	0	0	0	0,26444652867818458	-0,0098668555371223488	0,0049545583280992563
1	0	0	0	0	0	2	13010,7580	-0,100000001	3,37343693	1,120612416332329E-006	0,0090089431615578995	3,0391102E-005	0,26445685212456445	-0,0098672407187868019	0,0049648817744792326
1	0	0	0	0	0	2	13016,5280	-0,100000001	3,22193813	7,5724446463249869E-007	0,007674775072335113	2,47276512E-005	0,26447165116205011	-0,0098677928907729101	0,0049796808119647994
1	0	0	0	0	0	2	13022,4030	-0,100000001	3,0699439	9,7109643944066995E-007	0,0090709580286287821	2,78473326E-005	0,26448570877385936	-0,0098683173991701722	0,0049937384237740493
1	0	0	0	0	0	2	13029,0888	-0,100000001	2,91857886	1,2280435927807253E-006	0,0094263475213916851	2,75115381E-005	0,26450206765386074	-0,0098689277709777728	0,0050100973037754266
1	0	0	0	0	0	2	13037,2564	-0,100000001	2,76757574	1,0994331715790192E-006	0,0064630298262043328	1,7886925E-005	0,26452116104486262	-0,0098696401710673907	0,0050291906947773606
1	0	0	0	0	0	2	13048,8246	-0,100000001	2,61581039	1,7823003365936326E-006	0,0071931404590344806	1,8815892E-005	0,26455175189064528	-0,0098707815566533709	0,0050597815405600736
3	0	0	1	0	0	2	13062,8156	0	2,52223539	0	0	0	0,26458907141795978	-0,0098721739983941133	0,0050971010678745613
3	0	0	1	0	0	2	13064,9486	0	2,59801316	0	0	0	0,26458907141795978	-0,0098721739983941133	0,0050971010678745613
3	0	0	1	0	0	2	13067,8816	0	2,67360044	0	0	0	0,26458907141795978	-0,0098721739983941133	0,0050971010678745613
3	0	0	1	0	0	2	13071,5564	0	2,74888277	0	0	0	0,26458907141795978	-0,0098721739983941133	0,0050971010678745613
3	0	0	1	0	0	2	13076,1282	0	2,82433653	0	0	0	0,26458907141795978	-0,0098721739983941133	0,0050971010678745613
3	0	0	1	0	0	2	13081,8640	0	2,89975214	0	0	0	0,26458907141795978	-0,0098721739983941133	0,0050971010678745613
3	0	0	1	0	0	2	13089,1370	0	2,97511077	0	0	0	0,26458907141795978	-0,0098721739983941133	0,0050971010678745613
3	0	0	1	0	0	2	13098,5602	0	3,0505836	0	0	0	0,26458907141795978	-0,0098721739983941133	0,0050971010678745613
3	0	0	1	0	0	2	13111,0994	0	3,12603736	0	0	0	0,26458907141795978	-0,0098721739983941133	0,0050971010678745613
3	0	0	1	0	0	2	13128,5724	0	3,20145321	0	0	0	0,26458907141795978	-0,0098721739983941133	0,0050971010678745613
3	0	0	1	0	0	2	13154,4302	0	3,2768116	0	0	0	0,26458907141795978	-0,0098721739983941133	0,0050971010678745613
3	0	0	1	0	0	2	13196,0594	0	3,35209394	0	0	0	0,26458907141795978	-0,0098721739983941133	0,0050971010678745613
3	0	0	1	0	0	2	13274,4642	0	3,42762399	0	0	0	0,26458907141795978	-0,0098721739983941133	0,0050971010678745613
3	0	0	0	0	0	0	13365,6586	0	3,47717023	0	0	0	0,26458907141795978	-0,0098721739983941133	0,0050971010678745613
1	1	0	0	0	0	1	13374,2474	0,100000001	3,56597948	1,5189152136445046E-005	0,22898219576837107	0,000816545798	0,26468979339876003	-0,0098759320709199142	0,0001007219808002313
1	1	0	0	0	0	1	13379,1090	0,100000001	3,71648669	2,6481513852874438E-005	0,22994078876964288	0,000854571874	0,26499937513281386	-0,0098874829816545293	0,00041030371485402182
1	1	0	0	0	0	1	13386,3002	0,100000001	3,86714649	3,4546982890201939E-005	0,22988750445601168	0,000889008632	0,26545914987534176	-0,0099046377954719616	0,00087007845738199014
1	1	0	0	0	0	1	13397,3076	0,100000001	4,01915979	6,228787963589033E-005	0,22586257998487053	0,000907777809	0,26615837788649216	-0,0099307269326900442	0,0015693064685323171
1	1	0	0	0	0	1	13453,7308	0,100000001	4,16709375	0,00062815752707504563	0,22613671248489738	0,000942332903	0,26971377930645296	-0,01006338373995683	0,0051247078884931072
1	1	0	0	0	0	1	13599,8420	0,100000001	4,25095463	0,00062925163787313626	0,22653059237697878	0,000962971244	0,27894095786821994	-0,010407662178169878	0,014351886450260053
1	1	0	0	0	0	1	13749,8420	0,100000001	4,30557203	0,00063076267033980954	0,2270745640715671	0,000977685908	0,28842112440135078	-0,010761379937740456	0,023832052983390995
1	1	0	0	0	0	1	13899,8420	0,100000001	4,34787416	0,00063358670660811994	0,22809121714046768	0,000991711859	0,29788333606290899	-0,011114427776912078	0,033294264644949178
1	1	0	0	0	0	1	14049,8420	0,100000001	4,37978649	0,00063090518064962483	0,22712586778372179	0,000994762755	0,30737718392905171	-0,011468656005412075	0,042788112511091974
1	1	0	0	0	0	1	14199,8420	0,100000001	4,40668535	0,00062781026905650893	0,22601169959671059	0,000995962415	0,31675754840784941	-0,011818650016150195	0,05216847698988953
1	1	0	0	0	0	1	14349,8420	0,100000001	4,43114376	0,00063445379087370317	0,22840336747985686	0,00101208815	0,32619229661986157	-0,012170673157094254	0,061603225201901683
1	1	0	0	0	0	1	14499,8420	0,100000001	4,45188522	0,00062846730089477363	0,2262482310613496	0,00100723119	0,3356538431147991	-0,012523696178004931	0,071064771696839309
1	1	0	0	0	0	1	14649,8420	0,100000001	4,47634363	0,00062790327188910707	0,22604518061685126	0,0010118559	0,34507523956945216	-0,012875221146930291	0,080486168151492275
1	1	0	0	0	0	1	14799,8420	0,100000001	4,4970088	0,00062751287190036646	0,22590463661920304	0,00101589516	0,35449111207462982	-0,013226540009873694	0,089902040656669914
3	1	0	1	0	0	1	14820,9608	0	4,43135357	0	0	0	0,35550403935609894	-0,013264333688640522	0,090914967938139021
3	1	0	1	0	0	1	14862,7368	0	4,35589981	0	0	0	0,35550403935609894	-0,013264333688640522	0,090914967938139021
3	1	0	1	0	0	1	15032,6604	0	4,28056049	0	0	0	0,35550403935609894	-0,013264333688640522	0,090914967938139021
1	0	0	1	0	0	2	15120,7050	-0,100000001	4,17410898	2,5677713976894867E-006	0,0089764780961955776	3,74687988E-005	0,35551370259928019	-0,013264694237235984	9,6632431813033894E-006
1	0	0	1	0	0	2	15156,8360	-0,100000001	4,02350664	9,7851017666835098E-006	0,0089598043510465894	3,60498307E-005	0,3555999454044953	-0,013267912072253245	9,5906048396489088E-005
1	0	0	1	0	0	2	15277,3660	-0,100000001	3,8848567	3,0372484511228525E-005	0,010934094556423469	4,24773898E-005	0,35594149230368525	-0,013280655646276714	0,0004374529475865113
1	0	0	1	0	0	2	15416,9436	-0,100000001	3,75240254	2,3627689720939901E-005	0,011736255315602339	4,40391559E-005	0,35632649354624928	-0,013295020560276451	0,00082245419015057101
1	0	0	1	0	0	2	15454,5698	-0,100000001	3,60130429	5,2621417640507898E-006	0,011541190800582838	4,15633403E-005	0,35645163678550067	-0,013299689822789795	0,00094759742940196531
1	0	0	1	0	0	2	15481,2614	-0,100000001	3,45028234	5,6027008430295002E-006	0,0097381823479898803	3,35994773E-005	0,35653491632261958	-0,013302797094290232	0,0010308769665208994
1	0	0	1	0	0	2	15526,3564	-0,100000001	3,29922223	9,9108231093867085E-006	0,010117099650022997	3,33785611E-005	0,3566700642279792	-0,01330783964434749	0,0011660248718805795
1	0	0	1	0	0	2	15594,5188	-0,100000001	3,14816189	2,4676132284208304E-005	0,010217860282808509	3,21674779E-005	0,35681450223044467	-0,013313228820418437	0,0013104628743461379
1	0	0	1	0	0	2	15685,6858	-0,100000001	2,99632025	1,1248035231742608E-005	0,0077593468218460032	2,32494876E-005	0,3570383419252503	-0,013321580580387306	0,0015343025691516589
1	0	0	1	0	0	2	15791,0582	-0,100000001	2,84974003	1,0244490420072301E-005	0,0067042657623643379	1,9105415E-005	0,35729496015874074	-0,013331155351705718	0,0017909208026419562
1	0	0	1	0	0	2	15894,4102	-0,100000001	2,70458961	1,6240939649843818E-005	0,0081843533479985715	2,21353166E-005	0,35747550342500858	-0,013337891663713174	0,0019714640689097178
1	0	0	1	0	0	2	15988,3808	-0,100000001	2,56252742	9,3197301637685286E-006	0,0072149647317862656	1,84885448E-005	0,35768264820991174	-0,013345620514147037	0,002178608853812912
3	0	0	0	0	0	2	16031,3730	0	2,54848599	0	0	0	0,35776557027610048	-0,013348714447926442	0,0022615309200015814
3	0	0	0	0	0	2	16033,3362	0	2,62403512	0	0	0	0,35776557027610048	-0,013348714447926442	0,0022615309200015814
3	0	0	0	0	0	2	16035,8598	0	2,69977474	0	0	0	0,35776557027610048	-0,013348714447926442	0,0022615309200015814
3	0	0	0	0	0	2	16039,0332	0	2,77530479	0	0	0	0,35776557027610048	-0,013348714447926442	0,0022615309200015814
3	0	0	0	0	0	2	16043,1158	0	2,85093021	0	0	0	0,35776557027610048	-0,013348714447926442	0,0022615309200015814
3	0	0	0	0	0	2	16048,5100	0	2,92636514	0	0	0	0,35776557027610048	-0,013348714447926442	0,0022615309200015814
3	0	0	0	0	0	2	16056,0152	0	3,00179982	0	0	0	0,35776557027610048	-0,013348714447926442	0,0022615309200015814
3	0	0	0	0	0	2	16067,0932	0	3,07717729	0	0	0	0,35776557027610048	-0,013348714447926442	0,0022615309200015814
3	0	0	0	0	0	2	16085,1282	0	3,15265036	0	0	0	0,35776557027610048	-0,013348714447926442	0,0022615309200015814
3	0	0	0	0	0	2	16118,2146	0	3,2279706	0	0	0	0,35776557027610048	-0,013348714447926442	0,0022615309200015814
3	0	0	0	0	0	2	16186,3238	0	3,30338645	0	0	0	0,35776557027610048	-0,013348714447926442	0,0022615309200015814
3	0	0	0	0	0	2	16330,6599	0	3,3766098	0	0	0	0,35776557027610048	-0,013348714447926442	0,0022615309200015814
1	1	0	0	0	0	1	16341,0847	0,100000001	3,4173975	1,2328761464191808E-005	0,22529716654182307	0,00076992996	0,35778898254536326	-0,013349587991170768	2,3412269262803926E-005
1	1	0	0	0	0	1	16346,8771	0,100000001	3,5683434	2,3206580590870646E-005	0,2236180169727081	0,00079794589	0,35814718039237894	-0,013362952834445051	0,00038161011627854573
1	1	0	0	0	0	1	16353,1505	0,100000001	3,71970844	2,855299485392041E-005	0,22531955878989181	0,000838123087	0,35853767701717459	-0,01337752278854447	0,00077210674107405875
1	1	0	0	0	0	1	16360,8789	0,100000001	3,87097836	3,1816088017490176E-005	0,22440814703711453	0,000868679082	0,35901800915209203	-0,013395444626311664	0,0012524388759914373
1	1	0	0	0	0	1	16368,6765	0,100000001	4,02201939	3,2912909307413632E-005	0,22271893785901203	0,000895779871	0,35950268183753722	-0,013413528415854981	0,0017371115614366202
1	1	0	0	0	0	1	16377,6265	0,100000001	4,17311764	4,1883339485360518E-005	0,22410824015087626	0,000935230055	0,36005594708430931	-0,013434171486085085	0,0022903768082087238
1	1	0	0	0	0	1	16401,1693	0,100000001	4,32436848	0,00022866989273660714	0,22492120869417014	0,000972642156	0,36151638837800749	-0,013488662514337165	0,0037508181019069414
1	1	0	0	0	0	1	16539,5975	0,100000001	4,4149971	0,00061935230586015514	0,22296683280915843	0,00098439795	0,37012082487877158	-0,013809705608968589	0,012355254602671083
1	1	0	0	0	0	1	16689,5975	0,100000001	4,45325756	0,00061845374910036723	0,22264335237171834	0,000991488225	0,3794238614791559	-0,014156814412594667	0,02165829120305553
1	1	0	0	0	0	1	16839,5975	0,100000001	4,49090862	0,00061789785312612851	0,22244322981856947	0,000998972217	0,38878948658291386	-0,014506258477432752	0,031023916306813562
3	1	0	1	0	0	1	16881,0261	0	4,44080925	0	0	0	0,39110520150286803	-0,014592660914608067	0,03333963122676768
3	1	0	1	0	0	1	16918,8833	0	4,36541271	0	0	0	0,39110520150286803	-0,014592660914608067	0,03333963122676768
3	1	0	1	0	0	1	17095,3749	0	4,29001617	0	0	0	0,39110520150286803	-0,014592660914608067	0,03333963122676768
1	0	0	1	0	0	2	17182,1439	-0,100000001	4,18245888	2,5580222277704803E-006	0,0079114090476777446	3,30891417E-005	0,39111598327754938	-0,014593063197117677	1,0781774681218342E-005
1	0	0	1	0	0	2	17214,7211	-0,100000001	4,03099871	3,7834815722857862E-006	0,0046585039418833914	1,87784226E-005	0,39118674542209472	-0,014595703427871379	8,1543919226447322E-005
1	0	0	1	0	0	2	17318,0575	-0,100000001	3,88375092	2,0349400709355706E-005	0,0074913430248822912	2,909451E-005	0,39139037191031942	-0,01460330100592577	0,00028517040745139171
1	0	0	1	0	0	2	17442,0419	-0,100000001	3,74231791	6,9542907580099482E-006	0,0054945674286067494	2,05624183E-005	0,39163844131822266	-0,014612556809067504	0,0005332398153544928
1	0	0	1	0	0	2	17468,8205	-0,100000001	3,59160089	1,7361088600219872E-006	0,0062325408573060416	2,23848001E-005	0,39169228576562144	-0,014614565817794579	0,00058708426275320781
1	0	0	1	0	0	2	17483,0801	-0,100000001	3,43970203	1,8264815195774035E-006	0,0065871904930106432	2,26579723E-005	0,39171717199559283	-0,014615494356494707	0,00061197049272463322
1	0	0	1	0	0	2	17497,0479	-0,100000001	3,28892779	1,5481009420942022E-006	0,0069786669911211968	2,29523321E-005	0,39174490704498317	-0,014616529188477629	0,00063970554211500301
1	0	0	1	0	0	2	17509,9399	-0,100000001	3,13773417	2,6319640393905702E-006	0,0098045019210152627	3,07639202E-005	0,39177218425879514	-0,014617546937999558	0,00066698275592692902
1	0	0	1	0	0	2	17527,1313	-0,100000001	2,98663592	1,9581900895055795E-006	0,0061299864413338061	1,83080374E-005	0,3918151584875273	-0,014619150364253021	0,00070995698465910528
1	0	0	1	0	0	2	17553,2777	-0,100000001	2,83515644	5,3226516123346899E-006	0,009440115300288919	2,67642044E-005	0,39187841804021894	-0,014621510663217322	0,00077321653735075635
1	0	0	1	0	0	2	17588,6473	-0,100000001	2,68426776	5,6889769293354925E-006	0,0070651018330412262	1,89646253E-005	0,39195271245865792	-0,014624282687859187	0,00084751095578969549
1	0	0	1	0	0	2	17633,0209	-0,100000001	2,53301692	3,5123193441670285E-006	0,0052193303856051974	1,32206524E-005	0,39204471901240115	-0,014627715576083472	0,0009395175095328288
3	0	0	0	0	0	2	17643,2961	0	2,56533813	0	0	0	0,3920597166999337	-0,01462827515996992	0,00095451519706542771
3	0	0	0	0	0	2	17645,6775	0	2,64075375	0	0	0	0,3920597166999337	-0,01462827515996992	0,00095451519706542771
3	0	0	0	0	0	2	17648,9159	0	2,71630287	0	0	0	0,3920597166999337	-0,01462827515996992	0,00095451519706542771
3	0	0	0	0	0	2	17653,2833	0	2,79168057	0	0	0	0,3920597166999337	-0,01462827515996992	0,00095451519706542771
3	0	0	0	0	0	2	17659,3131	0	2,86707711	0	0	0	0,3920597166999337	-0,01462827515996992	0,00095451519706542771
3	0	0	0	0	0	2	17668,0065	0	2,94245481	0	0	0	0,3920597166999337	-0,01462827515996992	0,00095451519706542771
3	0	0	0	0	0	2	17681,3053	0	3,01796579	0	0	0	0,3920597166999337	-0,01462827515996992	0,00095451519706542771
3	0	0	0	0	0	2	17703,1723	0	3,09334326	0	0	0	0,3920597166999337	-0,01462827515996992	0,00095451519706542771
3	0	0	0	0	0	2	17742,8575	0	3,16872096	0	0	0	0,3920597166999337	-0,01462827515996992	0,00095451519706542771
3	0	0	0	0	0	2	17821,6823	0	3,24409842	0	0	0	0,3920597166999337	-0,01462827515996992	0,00095451519706542771
3	0	0	0	0	0	0	17943,2231	0	3,30416799	0	0	0	0,3920597166999337	-0,01462827515996992	0,00095451519706542771
1	1	0	0	0	0	1	17953,3251	0,100000001	3,37793589	1,5021641482495597E-005	0,22181259222029574	0,000749268744	0,39212805042524454	-0,014630824783136938	6,8333725310862067E-005
1	1	0	0	0	0	1	17959,8523	0,100000001	3,52895784	2,7149191280619965E-005	0,22172661022835686	0,000782463874	0,39253219932213338	-0,014645904121863827	0,00047248262219958822
1	1	0	0	0	0	1	17966,5653	0,100000001	3,68001795	2,9997181102219552E-005	0,2236740954233705	0,000823124661	0,3929476719132329	-0,014661405962846592	0,00088795521329922778
1	1	0	0	0	0	1	17974,3241	0,100000001	3,83096385	3,3589047921200595E-005	0,22484301594337542	0,000861365465	0,39342832360948198	-0,014679339723876726	0,0013686069095482424
1	1	0	0	0	0	1	17981,8863	0,100000001	3,98232889	3,2539035800430515E-005	0,22483787005708362	0,000895378354	0,39389757511111846	-0,014696848128318138	0,001837858411184615
1	1	0	0	0	0	1	17989,9551	0,100000001	4,13394213	3,5279067781236442E-005	0,22407312200314666	0,000926305307	0,39439688918539674	-0,014715478207764371	0,0023371724854629066
1	1	0	0	0	0	1	18001,9205	0,100000001	4,28502131	8,2904455673363469E-005	0,22216468962498755	0,000951980415	0,3951355386651904	-0,014743038212980262	0,0030758219652564973
1	1	0	0	0	0	1	18089,4065	0,100000001	4,41819954	0,00062257664354021338	0,22412759438803299	0,000990240485	0,40056873947820512	-0,014945758240330026	0,0085090227782711795
1	1	0	0	0	0	1	18239,4065	0,100000001	4,473351	0,00062517365348214899	0,22506251797844909	0,00100678368	0,40982519186077786	-0,015291128924156406	0,017765475160844003
3	1	0	1	0	0	1	18327,7723	0	4,46622086	0	0	0	0,4152544189039744	-0,015493700684811466	0,023194702204040563
3	1	0	1	0	0	1	18354,0633	0	4,39070988	0	0	0	0,4152544189039744	-0,015493700684811466	0,023194702204040563
3	1	0	1	0	0	1	18556,0243	0	4,31535149	0	0	0	0,4152544189039744	-0,015493700684811466	0,023194702204040563
1	0	0	1	0	0	2	18632,8829	-0,100000001	4,20327663	2,5731420796736429E-006	0,0077001758927041882	3,23659697E-005	0,41526745423018835	-0,015494187050358688	1,303532621392353E-005
1	0	0	1	0	0	2	18661,9851	-0,100000001	4,05175877	5,1572989903927213E-006	0,0060745571881732877	2,46126401E-005	0,4153168157920224	-0,015496028796598045	6,2396888048011341E-005
1	0	0	1	0	0	2	18748,8467	-0,100000001	3,90035534	2,1948009836843187E-005	0,0080258447474258112	3,13036471E-005	0,4155090358878391	-0,015503200786815632	0,00025461698386469414
1	0	0	1	0	0	2	18876,5507	-0,100000001	3,75966573	1,0471745474637525E-005	0,0069710943757501325	2,62089852E-005	0,41581620281127405	-0,015514661597719312	0,00056178390729978202
1	0	0	1	0	0	2	18909,1021	-0,100000001	3,6079576	2,4883185409449245E-006	0,0091519685900782131	3,30199146E-005	0,41588580993758995	-0,015517258733189933	0,00063139103361552896
1	0	0	1	0	0	2	18921,8137	-0,100000001	3,45689726	1,3548894541955734E-006	0,0060546202760147328	2,09301998E-005	0,41591280469721114	-0,01551826594396624	0,00065838579323676173
1	0	0	1	0	0	2	18934,4713	-0,100000001	3,30591345	1,4158599747994838E-006	0,0079344582364164211	2,6230633E-005	0,41594326755946733	-0,015519402554314771	0,00068884865549292096
1	0	0	1	0	0	2	18944,9739	-0,100000001	3,15502477	2,4311322131753613E-006	0,011650793495178778	3,67585417E-005	0,41597556033716166	-0,015520607441268653	0,00072114143318722355
1	0	0	1	0	0	2	18957,0493	-0,100000001	3,00325942	2,7711530349689485E-006	0,010943561920103845	3,28663555E-005	0,41601210222984608	-0,015521970868415802	0,00075768332587167501
1	0	0	1	0	0	2	18971,7761	-0,100000001	2,8521421	2,7852171748414144E-006	0,0088716881531211763	2,53033159E-005	0,41605250486977869	-0,015523478345233616	0,00079808596580430963
1	0	0	1	0	0	2	18991,0633	-0,100000001	2,70068145	3,4108706822832269E-006	0,0083977120809344486	2,26795455E-005	0,41609634736570842	-0,015525114167703616	0,00084192846173406182
1	0	0	1	0	0	2	19020,1439	-0,100000001	2,54925919	5,6181392237873901E-006	0,009100657600182345	2,31999347E-005	0,41616569123889632	-0,015527701480846086	0,00091127233492197939
3	0	0	0	0	0	2	19032,7633	0	2,56015277	0	0	0	0,41619718708970445	-0,015528876633386362	0,00094276818573006515
3	0	0	0	0	0	2	19035,4999	0	2,63560677	0	0	0	0,41619718708970445	-0,015528876633386362	0,00094276818573006515
3	0	0	0	0	0	2	19039,3979	0	2,71106052	0	0	0	0,41619718708970445	-0,015528876633386362	0,00094276818573006515
3	0	0	0	0	0	2	19044,8707	0	2,78651428	0	0	0	0,41619718708970445	-0,015528876633386362	0,00094276818573006515
3	0	0	0	0	0	2	19052,7213	0	2,86192989	0	0	0	0,41619718708970445	-0,015528876633386362	0,00094276818573006515
3	0	0	0	0	0	2	19064,4459	0	2,93736482	0	0	0	0,41619718708970445	-0,015528876633386362	0,00094276818573006515
3	0	0	0	0	0	2	19082,8759	0	3,01270413	0	0	0	0,41619718708970445	-0,015528876633386362	0,00094276818573006515
3	0	0	0	0	0	2	19113,8199	0	3,08811998	0	0	0	0,41619718708970445	-0,015528876633386362	0,00094276818573006515
3	0	0	0	0	0	2	19169,8967	0	3,1634593	0	0	0	0,41619718708970445	-0,015528876633386362	0,00094276818573006515
3	0	0	0	0	0	2	19279,1589	0	3,23881793	0	0	0	0,41619718708970445	-0,015528876633386362	0,00094276818573006515
3	0	0	0	0	0	0	19339,7179	0	3,26510668	0	0	0	0,41619718708970445	-0,015528876633386362	0,00094276818573006515
1	1	0	0	0	0	1	19344,6025	0,100000001	3,40796113	1,8385818740973869E-005	0,22855299814069776	0,000778899761	0,41638059787387987	-0,015535719936342368	0,00018341078417541254
1	1	0	0	0	0	1	19351,6353	0,100000001	3,55905938	2,6229675211426288E-005	0,23075960875879562	0,000821287162	0,4168318410244855	-0,015552556424994333	0,00063465393478092237
1	1	0	0	0	0	1	19358,3825	0,100000001	3,71004319	2,898264721698231E-005	0,2287100640999344	0,000848524214	0,41726386721465709	-0,015568675903015021	0,0010666801249525616
1	1	0	0	0	0	1	19366,1005	0,100000001	3,86127496	3,0136373636623226E-005	0,23122537597163699	0,000892824726	0,41775766056384704	-0,01558709999678552	0,0015604734741424528
1	1	0	0	0	0	1	19373,6007	0,100000001	4,01260233	3,4194575302716762E-005	0,2256240333288032	0,000905339548	0,4182337762670615	-0,015604864513816822	0,0020365891773568269
1	1	0	0	0	0	1	19381,7205	0,100000001	4,16368151	3,7279119259367392E-005	0,22494943171791546	0,000936617784	0,41874150575713101	-0,015623808583740874	0,0025443186674262928
1	1	0	0	0	0	1	19396,0235	0,100000001	4,31443644	0,00012303516235492296	0,22419851682203261	0,000967290252	0,41963689957164499	-0,015657216930830182	0,0034397124819403738
1	1	0	0	0	0	1	19504,2895	0,100000001	4,43346977	0,00062558951444509952	0,22521222792692387	0,000998471631	0,42643789135723014	-0,015910971078381069	0,010240704267525424
1	1	0	0	0	0	1	19654,2895	0,100000001	4,49073696	0,00062792059968287744	0,22605141862268416	0,00101513742	0,43583711881115891	-0,01626166889208287	0,019639931721454282
3	1	0	1	0	0	1	19688,9413	0	4,43476629	0	0	0	0,43761172105914586	-0,01632788168793336	0,021414533969441226
3	1	0	1	0	0	1	19777,7095	0	4,35936928	0	0	0	0,43761172105914586	-0,01632788168793336	0,021414533969441226
1	0	0	1	0	0	2	19983,2415	-0,100000001	4,28683233	6,7362542288740058E-007	0,0066367037539400461	2,84504367E-005	0,43761263327502547	-0,016327915723934314	9,1221587959605837E-007
1	0	0	1	0	0	2	20000,7901	-0,100000001	4,13565779	4,8681408964799219E-006	0,0096835603048956672	4,0047893E-005	0,43764960994890854	-0,016329295373352557	3,788888976274272E-005
1	0	0	1	0	0	2	20044,7479	-0,100000001	3,98442602	8,5003039142191283E-006	0,007239778191938368	2,88463598E-005	0,43773592075938464	-0,016332515745737539	0,00012419970023885902
1	0	0	1	0	0	2	20168,3347	-0,100000001	3,83996177	1,7018606770060918E-005	0,0061266985113990554	2,35262887E-005	0,43801669360869267	-0,016342991758248333	0,00040497254954691098
1	0	0	1	0	0	2	20253,6137	-0,100000001	3,68905425	4,0134114521545901E-006	0,009058483637954249	3,34172364E-005	0,43822803425630291	-0,016350877161961194	0,0006163131971571159
1	0	0	1	0	0	2	20269,1883	-0,100000001	3,53797483	2,207192829391311E-006	0,0083185660405682266	2,94308775E-005	0,4382702368803968	-0,01635245179860817	0,00065851582125107366
1	0	0	1	0	0	2	20283,1607	-0,100000001	3,38699102	2,572566567588688E-006	0,0087568454571254438	2,96593571E-005	0,43830441722280422	-0,01635372711313935	0,00069269616365853901
1	0	0	1	0	0	2	20293,4163	-0,100000001	3,23583555	1,9233749376160429E-006	0,010738445811224814	3,47478453E-005	0,43832942177874432	-0,016354660066740461	0,00071770071959869171
1	0	0	1	0	0	2	20303,2519	-0,100000001	3,08488989	9,7276924169596493E-007	0,0051896403565226182	1,60094696E-005	0,43834960489846426	-0,016355413126073702	0,00073788383931850099
1	0	0	1	0	0	2	20314,4867	-0,100000001	2,93333387	9,498723700315977E-007	0,0041338740008487501	1,21260327E-005	0,43836707250358266	-0,016356064865906115	0,00075535144443691789
1	0	0	1	0	0	2	20327,9641	-0,100000001	2,7820642	1,5904065091502467E-006	0,0061418831821635994	1,70871135E-005	0,43838716452274669	-0,01635681452615513	0,00077544346360080166
1	0	0	1	0	0	2	20347,7739	-0,100000001	2,63098502	2,9731874051552346E-006	0,0067906831543832422	1,78661849E-005	0,4384161642257664	-0,016357896544065315	0,00080444316662049088
3	0	0	0	0	0	2	20372,0305	0	2,49954128	0	0	0	0,43845729147571789	-0,016359431057057178	0,000845570416571904
3	0	0	0	0	0	2	20374,1493	0	2,59084535	0	0	0	0,43845729147571789	-0,016359431057057178	0,000845570416571904
3	0	0	0	0	0	2	20377,5975	0	2,66631818	0	0	0	0,43845729147571789	-0,016359431057057178	0,000845570416571904
3	0	0	0	0	0	2	20382,5705	0	2,74175286	0	0	0	0,43845729147571789	-0,016359431057057178	0,000845570416571904
3	0	0	0	0	0	2	20389,7463	0	2,81714964	0	0	0	0,43845729147571789	-0,016359431057057178	0,000845570416571904
3	0	0	0	0	0	2	20400,4251	0	2,89254618	0	0	0	0,43845729147571789	-0,016359431057057178	0,000845570416571904
3	0	0	0	0	0	2	20416,9705	0	2,96788573	0	0	0	0,43845729147571789	-0,016359431057057178	0,000845570416571904
3	0	0	0	0	0	2	20443,9827	0	3,04324412	0	0	0	0,43845729147571789	-0,016359431057057178	0,000845570416571904
3	0	0	0	0	0	2	20491,0155	0	3,11867881	0	0	0	0,43845729147571789	-0,016359431057057178	0,000845570416571904
3	0	0	0	0	0	2	20578,2419	0	3,19396114	0	0	0	0,43845729147571789	-0,016359431057057178	0,000845570416571904
3	0	0	0	0	0	2	20672,0303	0	3,24125791	0	0	0	0,43845729147571789	-0,016359431057057178	0,000845570416571904