File: Experimentelles/Rohdaten/Batteriemessungen/AlteZelle/Studenten_Batterietests/SemArbeitToph/ECLab-Export/Al_Struktur_01_02_OCV_C03.mpt
EC-Lab ASCII FILE
Nb header lines : 43

Open Circuit Voltage

Run on channel : 3 (SN 6987)
Grouped channel(s) : 3
User :
CE vs. WE compliance from -10 V to 10 V
Electrode connection : standard
Ewe ctrl range : min = -10,00 V, max = 10,00 V
Acquisition started on : 03.11.2015 16:50:59
Saved on :
	File : Al_Struktur_01_02_OCV_C03.mpr
	Directory : C:\Hupfer\Studenten Batterietests\SemArbeitToph\
	Host : 192.168.0.2
Device : VMP3 (SN 0324)
Address : 192.168.0.1
EC-Lab for windows v10.33 (software)
Internet server v10.33 (firmware)
Command interpretor v10.32 (firmware)
Electrode material :
Initial state :
Electrolyte :
Comments :
Mass of active material : 0,001 mg
 at x = 0,000
Molecular weight of active material (at x = 0) : 0,001 g/mol
Atomic weight of intercalated ion : 0,001 g/mol
Acquisition started at : xo = 0,000
Number of e- transfered per intercalated ion : 1
for DX = 1, DQ = 26,801 mA.h
Battery capacity : 0,000 A.h
Electrode surface area : 0,001 cm²
Characteristic mass : 0,001 g
tR (h:m:s)          0:10:0,0000
dER/dt (mV/h)       1,0
dER (mV)            1,00
dtR (s)             0,5000
E range min (V)     -10,000
E range max (V)     10,000

mode	error	time/s	Ewe/V
3	0	21749,9215	4,20330667
3	0	21750,4215	4,20321131
3	0	21750,9215	4,20324945
3	0	21751,4215	4,20324945
3	0	21751,9215	4,20338249
3	0	21752,4215	4,20323038
3	0	21752,9215	4,20324945
3	0	21753,4215	4,2032876
3	0	21753,9215	4,20321131
3	0	21754,4215	4,20326853
3	0	21754,9215	4,20332575
3	0	21755,4215	4,20324945
3	0	21755,9215	4,20323038
3	0	21756,4215	4,20324945
3	0	21756,9215	4,20323038
3	0	21757,4215	4,20336342
3	0	21757,9215	4,20338249
3	0	21758,4215	4,20332575
3	0	21758,9215	4,20317316
3	0	21759,4215	4,20326853
3	0	21759,9215	4,20330667
3	0	21760,4215	4,20324945
3	0	21760,9215	4,20326853
3	0	21761,4215	4,20326853
3	0	21761,9215	4,20324945
3	0	21762,4215	4,20324945
3	0	21762,9215	4,20326853
3	0	21763,4215	4,20326853
3	0	21763,9215	4,20324945
3	0	21764,4215	4,20332575
3	0	21764,9215	4,20324945
3	0	21765,4215	4,2032876
3	0	21765,9215	4,20336342
3	0	21766,4215	4,20324945
3	0	21766,9215	4,20334435
3	0	21767,4215	4,20332575
3	0	21767,9215	4,20332575
3	0	21768,4215	4,20313501
3	0	21768,9215	4,20332575
3	0	21769,4215	4,20324945
3	0	21769,9215	4,20319223
3	0	21770,4215	4,2032876
3	0	21770,9215	4,20323038
3	0	21771,4215	4,20332575
3	0	21771,9215	4,20332575
3	0	21772,4215	4,2032876
3	0	21772,9215	4,20319223
3	0	21773,4215	4,20326853
3	0	21773,9215	4,20324945
3	0	21774,4215	4,20336342
3	0	21774,9215	4,20321131
3	0	21775,4215	4,20326853
3	0	21775,9215	4,20332575
3	0	21776,4215	4,20338249
3	0	21776,9215	4,20332575
3	0	21777,4215	4,20332575
3	0	21777,9215	4,20326853
3	0	21778,4215	4,20336342
3	0	21778,9215	4,20324945
3	0	21779,4215	4,2032876
3	0	21779,9215	4,20323038
3	0	21780,4215	4,20319223
3	0	21780,9215	4,2032876
3	0	21781,4215	4,20323038
3	0	21781,9215	4,2032876
3	0	21782,4215	4,20326853
3	0	21782,9215	4,20321131
3	0	21783,4215	4,20323038
3	0	21783,9215	4,20323038
3	0	21784,4215	4,20326853
3	0	21784,9215	4,2032876
3	0	21785,4215	4,20319223
3	0	21785,9215	4,20330667
3	0	21786,4215	4,2032876
3	0	21786,9215	4,20342064
3	0	21787,4215	4,20340157
3	0	21787,9215	4,20330667
3	0	21788,4215	4,20336342
3	0	21788,9215	4,20330667
3	0	21789,4215	4,20332575
3	0	21789,9215	4,20323038
3	0	21790,4215	4,20319223
3	0	21790,9215	4,2032876
3	0	21791,4215	4,20330667
3	0	21791,9215	4,20334435
3	0	21792,4215	4,20326853
3	0	21792,9215	4,20324945
3	0	21793,4215	4,20323038
3	0	21793,9215	4,20334435
3	0	21794,4215	4,20332575
3	0	21794,9215	4,20332575
3	0	21795,4215	4,20330667
3	0	21795,9215	4,20330667
3	0	21796,4215	4,20323038
3	0	21796,9215	4,20338249
3	0	21797,4215	4,20332575
3	0	21797,9215	4,20332575
3	0	21798,4215	4,20336342
3	0	21798,9215	4,2032876
3	0	21799,4215	4,20338249
3	0	21799,9215	4,20330667
3	0	21800,4215	4,20332575
3	0	21800,9215	4,20334435
3	0	21801,4215	4,20336342
3	0	21801,9215	4,20332575
3	0	21802,4215	4,20323038
3	0	21802,9215	4,2032876
3	0	21803,4215	4,20345879
3	0	21803,9215	4,20330667
3	0	21804,4215	4,20336342
3	0	21804,9215	4,20324945
3	0	21805,4215	4,20345879
3	0	21805,9215	4,20330667
3	0	21806,4215	4,20326853
3	0	21806,9215	4,20326853
3	0	21807,4215	4,20330667
3	0	21807,9215	4,20330667
3	0	21808,4215	4,20321131
3	0	21808,9215	4,20323038
3	0	21809,4215	4,20343971
3	0	21809,9215	4,20330667
3	0	21810,4215	4,2032876
3	0	21810,9215	4,20338249
3	0	21811,4215	4,20334435
3	0	21811,9215	4,20340157
3	0	21812,4215	4,20340157
3	0	21812,9215	4,20338249
3	0	21813,4215	4,20324945
3	0	21813,9215	4,2032876
3	0	21814,4215	4,20340157
3	0	21814,9215	4,20332575
3	0	21815,4215	4,20330667
3	0	21815,9215	4,20332575
3	0	21816,4215	4,20336342
3	0	21816,9215	4,20330667
3	0	21817,4215	4,20326853
3	0	21817,9215	4,20345879
3	0	21818,4215	4,20330667
3	0	21818,9215	4,2032876
3	0	21819,4215	4,20330667
3	0	21819,9215	4,20338249
3	0	21820,4215	4,20332575
3	0	21820,9215	4,20338249
3	0	21821,4215	4,20332575
3	0	21821,9215	4,20338249
3	0	21822,4215	4,20338249
3	0	21822,9215	4,20336342
3	0	21823,4215	4,20338249
3	0	21823,9215	4,20342064
3	0	21824,4215	4,20340157
3	0	21824,9215	4,20342064
3	0	21825,4215	4,20330667
3	0	21825,9215	4,20332575
3	0	21826,4215	4,20334435
3	0	21826,9215	4,20332575
3	0	21827,4215	4,20336342
3	0	21827,9215	4,20338249
3	0	21828,4215	4,20330667
3	0	21828,9215	4,20342064
3	0	21829,4215	4,20334435
3	0	21829,9215	4,20343971
3	0	21830,4215	4,20334435
3	0	21830,9215	4,20326853
3	0	21831,4215	4,20336342
3	0	21831,9215	4,20340157
3	0	21832,4215	4,20330667
3	0	21832,9215	4,20336342
3	0	21833,4215	4,20351601
3	0	21833,9215	4,20343971
3	0	21834,4215	4,20342064
3	0	21834,9215	4,20338249
3	0	21835,4215	4,20342064
3	0	21835,9215	4,20340157
3	0	21836,4215	4,20340157
3	0	21836,9215	4,20336342
3	0	21837,4215	4,20338249
3	0	21837,9215	4,20330667
3	0	21838,4215	4,20340157
3	0	21838,9215	4,20334435
3	0	21839,4215	4,20347786
3	0	21839,9215	4,20347786
3	0	21840,4215	4,20334435
3	0	21840,9215	4,20345879
3	0	21841,4215	4,20336342
3	0	21841,9215	4,20332575
3	0	21842,4215	4,20334435
3	0	21842,9215	4,20342064
3	0	21843,4215	4,20338249
3	0	21843,9215	4,20336342
3	0	21844,4215	4,20334435
3	0	21844,9215	4,20338249
3	0	21845,4215	4,20332575
3	0	21845,9215	4,20347786
3	0	21846,4215	4,20336342
3	0	21846,9215	4,20323038
3	0	21847,4215	4,20336342
3	0	21847,9215	4,20336342
3	0	21848,4215	4,20338249
3	0	21848,9215	4,20343971
3	0	21849,4215	4,20340157
3	0	21849,9215	4,20338249
3	0	21850,4215	4,20338249
3	0	21850,9215	4,20340157
3	0	21851,4215	4,20351601
3	0	21851,9215	4,20338249
3	0	21852,4215	4,20345879
3	0	21852,9215	4,20336342
3	0	21853,4215	4,20342064
3	0	21853,9215	4,20336342
3	0	21854,4215	4,20342064
3	0	21854,9215	4,20343971
3	0	21855,4215	4,20343971
3	0	21855,9215	4,20332575
3	0	21856,4215	4,20342064
3	0	21856,9215	4,20334435
3	0	21857,4215	4,20343971
3	0	21857,9215	4,20332575
3	0	21858,4215	4,20342064
3	0	21858,9215	4,20345879
3	0	21859,4215	4,20326853
3	0	21859,9215	4,20336342
3	0	21860,4215	4,20343971
3	0	21860,9215	4,20340157
3	0	21861,4215	4,20338249
3	0	21861,9215	4,20343971
3	0	21862,4215	4,2032876
3	0	21862,9215	4,20342064
3	0	21863,4215	4,20349693
3	0	21863,9215	4,20349693
3	0	21864,4215	4,20343971
3	0	21864,9215	4,20347786
3	0	21865,4215	4,20342064
3	0	21865,9215	4,20342064
3	0	21866,4215	4,20345879
3	0	21866,9215	4,20340157
3	0	21867,4215	4,20338249
3	0	21867,9215	4,20349693
3	0	21868,4215	4,20345879
3	0	21868,9215	4,20345879
3	0	21869,4215	4,20347786
3	0	21869,9215	4,20347786
3	0	21870,4215	4,20351601
3	0	21870,9215	4,20345879
3	0	21871,4215	4,20349693
3	0	21871,9215	4,20351601
3	0	21872,4215	4,20347786
3	0	21872,9215	4,20351601
3	0	21873,4215	4,20340157
3	0	21873,9215	4,20351601
3	0	21874,4215	4,20349693
3	0	21874,9215	4,20342064
3	0	21875,4215	4,20342064
3	0	21875,9215	4,20351601
3	0	21876,4215	4,20343971
3	0	21876,9215	4,20345879
3	0	21877,4215	4,20347786
3	0	21877,9215	4,2035923
3	0	21878,4215	4,20340157
3	0	21878,9215	4,20334435
3	0	21879,4215	4,20342064
3	0	21879,9215	4,20355415
3	0	21880,4215	4,20353508
3	0	21880,9215	4,20343971
3	0	21881,4215	4,20353508
3	0	21881,9215	4,20342064
3	0	21882,4215	4,20347786
3	0	21882,9215	4,20342064
3	0	21883,4215	4,20347786
3	0	21883,9215	4,20355415
3	0	21884,4215	4,20353508
3	0	21884,9215	4,20336342
3	0	21885,4215	4,20351601
3	0	21885,9215	4,20342064
3	0	21886,4215	4,20351601
3	0	21886,9215	4,20349693
3	0	21887,4215	4,20345879
3	0	21887,9215	4,20343971
3	0	21888,4215	4,20343971
3	0	21888,9215	4,20355415
3	0	21889,4215	4,20353508
3	0	21889,9215	4,20355415
3	0	21890,4215	4,20355415
3	0	21890,9215	4,20357323
3	0	21891,4215	4,20351601
3	0	21891,9215	4,20343971
3	0	21892,4215	4,20355415
3	0	21892,9215	4,20349693
3	0	21893,4215	4,20349693
3	0	21893,9215	4,20347786
3	0	21894,4215	4,20349693
3	0	21894,9215	4,2035923
3	0	21895,4215	4,20345879
3	0	21895,9215	4,20340157
3	0	21896,4215	4,20343971
3	0	21896,9215	4,2035923
3	0	21897,4215	4,20347786
3	0	21897,9215	4,20351601
3	0	21898,4215	4,20342064
3	0	21898,9215	4,20353508
3	0	21899,4215	4,20343971
3	0	21899,9215	4,20357323
3	0	21900,4215	4,20351601
3	0	21900,9215	4,20345879
3	0	21901,4215	4,20349693
3	0	21901,9215	4,20351601
3	0	21902,4215	4,20345879
3	0	21902,9215	4,20345879
3	0	21903,4215	4,20361137
3	0	21903,9215	4,20345879
3	0	21904,4215	4,20342064
3	0	21904,9215	4,20355415
3	0	21905,4215	4,20343971
3	0	21905,9215	4,20332575
3	0	21906,4215	4,20342064
3	0	21906,9215	4,20357323
3	0	21907,4215	4,20343971
3	0	21907,9215	4,20355415
3	0	21908,4215	4,20349693
3	0	21908,9215	4,20353508
3	0	21909,4215	4,20355415
3	0	21909,9215	4,20349693
3	0	21910,4215	4,20342064
3	0	21910,9215	4,20345879
3	0	21911,4215	4,20349693
3	0	21911,9215	4,20357323
3	0	21912,4215	4,20340157
3	0	21912,9215	4,2035923
3	0	21913,4215	4,20347786
3	0	21913,9215	4,20355415
3	0	21914,4215	4,20349693
3	0	21914,9215	4,20357323
3	0	21915,4215	4,20357323
3	0	21915,9215	4,20355415
3	0	21916,4215	4,20355415
3	0	21916,9215	4,20353508
3	0	21917,4215	4,20363045
3	0	21917,9215	4,20345879
3	0	21918,4215	4,20343971
3	0	21918,9215	4,2035923
3	0	21919,4215	4,20342064
3	0	21919,9215	4,20355415
3	0	21920,4215	4,20347786
3	0	21920,9215	4,20351601
3	0	21921,4215	4,20345879
3	0	21921,9215	4,20357323
3	0	21922,4215	4,20364952
3	0	21922,9215	4,20357323
3	0	21923,4215	4,20355415
3	0	21923,9215	4,20361137
3	0	21924,4215	4,20357323
3	0	21924,9215	4,20349693
3	0	21925,4215	4,20342064
3	0	21925,9215	4,20363045
3	0	21926,4215	4,20351601
3	0	21926,9215	4,20363045
3	0	21927,4215	4,2035923
3	0	21927,9215	4,2035923
3	0	21928,4215	4,2035923
3	0	21928,9215	4,20368767
3	0	21929,4215	4,20363045
3	0	21929,9215	4,20347786
3	0	21930,4215	4,20351601
3	0	21930,9215	4,20366859
3	0	21931,4215	4,20363045
3	0	21931,9215	4,20347786
3	0	21932,4215	4,20355415
3	0	21932,9215	4,20357323
3	0	21933,4215	4,20353508
3	0	21933,9215	4,20355415
3	0	21934,4215	4,2035923
3	0	21934,9215	4,20366859
3	0	21935,4215	4,20361137
3	0	21935,9215	4,20347786
3	0	21936,4215	4,20366859
3	0	21936,9215	4,20351601
3	0	21937,4215	4,20355415
3	0	21937,9215	4,20357323
3	0	21938,4215	4,2035923
3	0	21938,9215	4,20361137
3	0	21939,4215	4,20364952
3	0	21939,9215	4,20357323
3	0	21940,4215	4,20357323
3	0	21940,9215	4,20363045
3	0	21941,4215	4,20357323
3	0	21941,9215	4,20363045
3	0	21942,4215	4,20357323
3	0	21942,9215	4,20355415
3	0	21943,4215	4,20353508
3	0	21943,9215	4,20363045
3	0	21944,4215	4,20351601
3	0	21944,9215	4,20351601
3	0	21945,4215	4,20355415
3	0	21945,9215	4,20351601
3	0	21946,4215	4,20370674
3	0	21946,9215	4,20363045
3	0	21947,4215	4,20361137
3	0	21947,9215	4,20355415
3	0	21948,4215	4,20349693
3	0	21948,9215	4,2035923
3	0	21949,4215	4,20355415
3	0	21949,9215	4,20361137
3	0	21950,4215	4,20366859
3	0	21950,9215	4,20361137
3	0	21951,4215	4,20357323
3	0	21951,9215	4,20343971
3	0	21952,4215	4,20366859
3	0	21952,9215	4,20351601
3	0	21953,4215	4,20363045
3	0	21953,9215	4,20355415
3	0	21954,4215	4,20364952
3	0	21954,9215	4,20363045
3	0	21955,4215	4,20355415
3	0	21955,9215	4,20361137
3	0	21956,4215	4,20366859
3	0	21956,9215	4,20357323
3	0	21957,4215	4,20345879
3	0	21957,9215	4,20364952
3	0	21958,4215	4,20361137
3	0	21958,9215	4,20357323
3	0	21959,4215	4,2035923
3	0	21959,9215	4,20347786
3	0	21960,4215	4,20353508
3	0	21960,9215	4,20363045
3	0	21961,4215	4,20370674
3	0	21961,9215	4,20364952
3	0	21962,4215	4,20363045
3	0	21962,9215	4,20353508
3	0	21963,4215	4,20347786
3	0	21963,9215	4,20355415
3	0	21964,4215	4,20366859
3	0	21964,9215	4,20361137
3	0	21965,4215	4,20355415
3	0	21965,9215	4,20361137
3	0	21966,4215	4,20351601
3	0	21966,9215	4,20361137
3	0	21967,4215	4,20364952
3	0	21967,9215	4,20361137
3	0	21968,4215	4,20361137
3	0	21968,9215	4,20347786
3	0	21969,4215	4,20364952
3	0	21969,9215	4,20351601
3	0	21970,4215	4,20355415
3	0	21970,9215	4,20355415
3	0	21971,4215	4,20355415
3	0	21971,9215	4,2035923
3	0	21972,4215	4,20349693
3	0	21972,9215	4,20355415
3	0	21973,4215	4,20353508
3	0	21973,9215	4,20351601
3	0	21974,4215	4,20361137
3	0	21974,9215	4,20363045
3	0	21975,4215	4,20355415
3	0	21975,9215	4,20345879
3	0	21976,4215	4,20357323
3	0	21976,9215	4,20351601
3	0	21977,4215	4,20357323
3	0	21977,9215	4,2035923
3	0	21978,4215	4,20347786
3	0	21978,9215	4,20353508
3	0	21979,4215	4,20347786
3	0	21979,9215	4,20361137
3	0	21980,4215	4,20351601
3	0	21980,9215	4,20355415
3	0	21981,4215	4,20357323
3	0	21981,9215	4,20357323
3	0	21982,4215	4,20364952
3	0	21982,9215	4,2035923
3	0	21983,4215	4,2035923
3	0	21983,9215	4,20363045
3	0	21984,4215	4,20355415
3	0	21984,9215	4,2035923
3	0	21985,4215	4,20357323
3	0	21985,9215	4,20349693
3	0	21986,4215	4,20357323
3	0	21986,9215	4,20364952
3	0	21987,4215	4,20355415
3	0	21987,9215	4,20363045
3	0	21988,4215	4,20361137
3	0	21988,9215	4,20364952
3	0	21989,4215	4,20364952
3	0	21989,9215	4,2035923
3	0	21990,4215	4,20368767
3	0	21990,9215	4,20357323
3	0	21991,4215	4,20363045
3	0	21991,9215	4,20355415
3	0	21992,4215	4,2035923
3	0	21992,9215	4,20366859
3	0	21993,4215	4,20374489
3	0	21993,9215	4,20349693
3	0	21994,4215	4,20364952
3	0	21994,9215	4,20361137
3	0	21995,4215	4,20366859
3	0	21995,9215	4,20364952
3	0	21996,4215	4,20342064
3	0	21996,9215	4,20364952
3	0	21997,4215	4,20351601
3	0	21997,9215	4,2035923
3	0	21998,4215	4,20363045
3	0	21998,9215	4,2035923
3	0	21999,4215	4,20364952
3	0	21999,9215	4,20353508
3	0	22000,4215	4,20355415
3	0	22000,9215	4,20361137
3	0	22001,4215	4,20340157
3	0	22001,9215	4,20364952
3	0	22002,4215	4,20351601
3	0	22002,9215	4,20357323
3	0	22003,4215	4,2035923
3	0	22003,9215	4,20361137
3	0	22004,4215	4,20355415
3	0	22004,9215	4,20347786
3	0	22005,4215	4,20357323
3	0	22005,9215	4,20366859
3	0	22006,4215	4,2035923
3	0	22006,9215	4,20351601
3	0	22007,4215	4,20355415
3	0	22007,9215	4,20357323
3	0	22008,4215	4,20353508
3	0	22008,9215	4,20355415
3	0	22009,4215	4,20357323
3	0	22009,9215	4,20366859
3	0	22010,4215	4,20363045
3	0	22010,9215	4,2035923
3	0	22011,4215	4,20349693
3	0	22011,9215	4,20355415
3	0	22012,4215	4,20353508
3	0	22012,9215	4,20361137
3	0	22013,4215	4,20363045
3	0	22013,9215	4,2035923
3	0	22014,4215	4,20351601
3	0	22014,9215	4,20368767
3	0	22015,4215	4,20363045
3	0	22015,9215	4,20363045
3	0	22016,4215	4,20345879
3	0	22016,9215	4,20366859
3	0	22017,4215	4,20355415
3	0	22017,9215	4,20363045
3	0	22018,4215	4,20361137
3	0	22018,9215	4,2035923
3	0	22019,4215	4,20357323
3	0	22019,9215	4,20357323
3	0	22020,4215	4,20361137
3	0	22020,9215	4,20357323
3	0	22021,4215	4,20355415
3	0	22021,9215	4,20364952
3	0	22022,4215	4,20349693
3	0	22022,9215	4,20357323
3	0	22023,4215	4,20364952
3	0	22023,9215	4,20355415
3	0	22024,4215	4,20357323
3	0	22024,9215	4,20361137
3	0	22025,4215	4,20376396
3	0	22025,9215	4,20355415
3	0	22026,4215	4,20357323
3	0	22026,9215	4,20357323
3	0	22027,4215	4,20357323
3	0	22027,9215	4,20368767
3	0	22028,4215	4,20376396
3	0	22028,9215	4,20366859
3	0	22029,4215	4,20349693
3	0	22029,9215	4,20370674
3	0	22030,4215	4,20363045
3	0	22030,9215	4,20361137
3	0	22031,4215	4,20364952
3	0	22031,9215	4,20363045
3	0	22032,4215	4,20355415
3	0	22032,9215	4,20366859
3	0	22033,4215	4,20364952
3	0	22033,9215	4,20364952
3	0	22034,4215	4,20357323
3	0	22034,9215	4,2035923
3	0	22035,4215	4,20363045
3	0	22035,9215	4,20372581
3	0	22036,4215	4,20355415
3	0	22036,9215	4,20374489
3	0	22037,4215	4,20361137
3	0	22037,9215	4,20366859
3	0	22038,4215	4,20361137
3	0	22038,9215	4,20364952
3	0	22039,4215	4,20366859
3	0	22039,9215	4,20347786
3	0	22040,4215	4,20370674
3	0	22040,9215	4,20363045
3	0	22041,4215	4,2035923
3	0	22041,9215	4,2035923
3	0	22042,4215	4,20355415
3	0	22042,9215	4,20363045
3	0	22043,4215	4,20370674
3	0	22043,9215	4,20366859
3	0	22044,4215	4,20353508
3	0	22044,9215	4,2035923
3	0	22045,4215	4,20353508
3	0	22045,9215	4,20361137
3	0	22046,4215	4,20363045
3	0	22046,9215	4,20361137
3	0	22047,4215	4,20351601
3	0	22047,9215	4,20357323
3	0	22048,4215	4,20355415
3	0	22048,9215	4,20361137
3	0	22049,4215	4,20363045
3	0	22049,9215	4,20357323
3	0	22050,4215	4,2035923
3	0	22050,9215	4,20368767
3	0	22051,4215	4,20357323
3	0	22051,9215	4,20353508
3	0	22052,4215	4,20357323
3	0	22052,9215	4,20366859
3	0	22053,4215	4,20349693
3	0	22053,9215	4,20364952
3	0	22054,4215	4,20351601
3	0	22054,9215	4,20364952
3	0	22055,4215	4,20361137
3	0	22055,9215	4,20372581
3	0	22056,4215	4,20368767
3	0	22056,9215	4,20370674
3	0	22057,4215	4,20357323
3	0	22057,9215	4,20378304
3	0	22058,4215	4,20357323
3	0	22058,9215	4,20355415
3	0	22059,4215	4,20364952
3	0	22059,9215	4,20366859
3	0	22060,4215	4,20366859
3	0	22060,9215	4,20364952
3	0	22061,4215	4,20357323
3	0	22061,9215	4,20361137
3	0	22062,4215	4,20357323
3	0	22062,9215	4,20370674
3	0	22063,4215	4,20364952
3	0	22063,9215	4,20368767
3	0	22064,4215	4,2035923
3	0	22064,9215	4,20355415
3	0	22065,4215	4,20378304
3	0	22065,9215	4,20364952
3	0	22066,4215	4,20368767
3	0	22066,9215	4,20372581
3	0	22067,4215	4,20368767
3	0	22067,9215	4,20355415
3	0	22068,4215	4,20364952
3	0	22068,9215	4,20364952
3	0	22069,4215	4,20363045
3	0	22069,9215	4,20372581
3	0	22070,4215	4,20376396
3	0	22070,9215	4,20366859
3	0	22071,4215	4,20363045
3	0	22071,9215	4,20364952
3	0	22072,4215	4,20376396
3	0	22072,9215	4,20372581
3	0	22073,4215	4,20374489
3	0	22073,9215	4,20380211
3	0	22074,4215	4,20385933
3	0	22074,9215	4,20368767
3	0	22075,4215	4,20368767
3	0	22075,9215	4,20376396
3	0	22076,4215	4,20370674
3	0	22076,9215	4,20364952
3	0	22077,4215	4,20366859
3	0	22077,9215	4,20374489
3	0	22078,4215	4,20361137
3	0	22078,9215	4,20361137
3	0	22079,4215	4,20380211
3	0	22079,9215	4,20368767
3	0	22080,4215	4,20361137
3	0	22080,9215	4,20370674
3	0	22081,4215	4,2035923
3	0	22081,9215	4,20366859
3	0	22082,4215	4,20364952
3	0	22082,9215	4,20374489
3	0	22083,4215	4,20368767
3	0	22083,9215	4,20378304
3	0	22084,4215	4,20370674
3	0	22084,9215	4,20380211
3	0	22085,4215	4,20372581
3	0	22085,9215	4,2035923
3	0	22086,4215	4,20368767
3	0	22086,9215	4,20376396
3	0	22087,4215	4,20382118
3	0	22087,9215	4,20366859
3	0	22088,4215	4,20376396
3	0	22088,9215	4,20374489
3	0	22089,4215	4,20372581
3	0	22089,9215	4,20380211
3	0	22090,4215	4,20372581
3	0	22090,9215	4,20372581
3	0	22091,4215	4,20374489
3	0	22091,9215	4,20372581
3	0	22092,4215	4,20366859
3	0	22092,9215	4,20368767
3	0	22093,4215	4,20368767
3	0	22093,9215	4,20380211
3	0	22094,4215	4,20364952
3	0	22094,9215	4,20372581
3	0	22095,4215	4,20374489
3	0	22095,9215	4,20364952
3	0	22096,4215	4,20374489
3	0	22096,9215	4,20364952
3	0	22097,4215	4,20380211
3	0	22097,9215	4,20374489
3	0	22098,4215	4,20368767
3	0	22098,9215	4,20372581
3	0	22099,4215	4,20378304
3	0	22099,9215	4,20368767
3	0	22100,4215	4,20374489
3	0	22100,9215	4,20372581
3	0	22101,4215	4,20361137
3	0	22101,9215	4,20384026
3	0	22102,4215	4,20376396
3	0	22102,9215	4,20378304
3	0	22103,4215	4,20382118
3	0	22103,9215	4,20370674
3	0	22104,4215	4,20385933
3	0	22104,9215	4,20378304
3	0	22105,4215	4,20372581
3	0	22105,9215	4,20372581
3	0	22106,4215	4,20380211
3	0	22106,9215	4,20368767
3	0	22107,4215	4,20378304
3	0	22107,9215	4,20384026
3	0	22108,4215	4,20391655
3	0	22108,9215	4,20376396
3	0	22109,4215	4,20378304
3	0	22109,9215	4,20378304
3	0	22110,4215	4,20380211
3	0	22110,9215	4,20382118
3	0	22111,4215	4,20363045
3	0	22111,9215	4,20374489
3	0	22112,4215	4,20391655
3	0	22112,9215	4,20376396
3	0	22113,4215	4,20372581
3	0	22113,9215	4,20378304
3	0	22114,4215	4,20376396
3	0	22114,9215	4,20374489
3	0	22115,4215	4,20380211
3	0	22115,9215	4,20384026
3	0	22116,4215	4,20374489
3	0	22116,9215	4,20380211
3	0	22117,4215	4,20376396
3	0	22117,9215	4,20378304
3	0	22118,4215	4,20382118
3	0	22118,9215	4,20384026
3	0	22119,4215	4,20370674
3	0	22119,9215	4,20380211
3	0	22120,4215	4,20374489
3	0	22120,9215	4,20370674
3	0	22121,4215	4,20380211
3	0	22121,9215	4,20389748
3	0	22122,4215	4,20389748
3	0	22122,9215	4,20372581
3	0	22123,4215	4,20378304
3	0	22123,9215	4,20368767
3	0	22124,4215	4,20368767
3	0	22124,9215	4,20389748
3	0	22125,4215	4,20382118
3	0	22125,9215	4,20378304
3	0	22126,4215	4,20363045
3	0	22126,9215	4,20376396
3	0	22127,4215	4,20376396
3	0	22127,9215	4,20374489
3	0	22128,4215	4,20389748
3	0	22128,9215	4,20385933
3	0	22129,4215	4,20376396
3	0	22129,9215	4,2038784
3	0	22130,4215	4,20374489
3	0	22130,9215	4,20374489
3	0	22131,4215	4,20380211
3	0	22131,9215	4,20393562
3	0	22132,4215	4,20376396
3	0	22132,9215	4,20382118
3	0	22133,4215	4,20380211
3	0	22133,9215	4,20376396
3	0	22134,4215	4,20374489
3	0	22134,9215	4,20378304
3	0	22135,4215	4,20382118
3	0	22135,9215	4,20366859
3	0	22136,4215	4,20376396
3	0	22136,9215	4,20378304
3	0	22137,4215	4,20374489
3	0	22137,9215	4,20382118
3	0	22138,4215	4,20380211
3	0	22138,9215	4,20376396
3	0	22139,4215	4,20378304
3	0	22139,9215	4,20393562
3	0	22140,4215	4,20389748
3	0	22140,9215	4,20376396
3	0	22141,4215	4,20370674
3	0	22141,9215	4,20376396
3	0	22142,4215	4,20380211
3	0	22142,9215	4,20378304
3	0	22143,4215	4,20370674
3	0	22143,9215	4,20378304
3	0	22144,4215	4,20380211
3	0	22144,9215	4,20385933
3	0	22145,4215	4,20382118
3	0	22145,9215	4,20382118
3	0	22146,4215	4,20382118
3	0	22146,9215	4,20391655
3	0	22147,4215	4,20380211
3	0	22147,9215	4,20380211
3	0	22148,4215	4,20376396
3	0	22148,9215	4,20361137
3	0	22149,4215	4,20391655
3	0	22149,9215	4,2038784
3	0	22150,4215	4,20378304
3	0	22150,9215	4,20391655
3	0	22151,4215	4,20382118
3	0	22151,9215	4,20382118
3	0	22152,4215	4,2038784
3	0	22152,9215	4,2038784
3	0	22153,4215	4,20391655
3	0	22153,9215	4,20378304
3	0	22154,4215	4,20385933
3	0	22154,9215	4,20384026
3	0	22155,4215	4,20374489
3	0	22155,9215	4,20378304
3	0	22156,4215	4,20385933
3	0	22156,9215	4,20384026
3	0	22157,4215	4,20380211
3	0	22157,9215	4,20385933
3	0	22158,4215	4,20366859
3	0	22158,9215	4,20372581
3	0	22159,4215	4,20391655
3	0	22159,9215	4,20376396
3	0	22160,4215	4,20368767
3	0	22160,9215	4,20382118
3	0	22161,4215	4,20370674
3	0	22161,9215	4,20370674
3	0	22162,4215	4,20374489
3	0	22162,9215	4,20389748
3	0	22163,4215	4,20376396
3	0	22163,9215	4,20376396
3	0	22164,4215	4,20370674
3	0	22164,9215	4,20380211
3	0	22165,4215	4,20378304
3	0	22165,9215	4,20368767
3	0	22166,4215	4,20366859
3	0	22166,9215	4,20366859
3	0	22167,4215	4,20376396
3	0	22167,9215	4,20376396
3	0	22168,4215	4,20370674
3	0	22168,9215	4,20372581
3	0	22169,4215	4,20370674
3	0	22169,9215	4,20370674
3	0	22170,4215	4,20372581
3	0	22170,9215	4,20376396
3	0	22171,4215	4,20370674
3	0	22171,9215	4,20361137
3	0	22172,4215	4,20366859
3	0	22172,9215	4,20372581
3	0	22173,4215	4,20364952
3	0	22173,9215	4,20363045
3	0	22174,4215	4,20385933
3	0	22174,9215	4,20368767
3	0	22175,4215	4,20366859
3	0	22175,9215	4,20363045
3	0	22176,4215	4,20374489
3	0	22176,9215	4,20368767
3	0	22177,4215	4,20372581
3	0	22177,9215	4,20378304
3	0	22178,4215	4,20374489
3	0	22178,9215	4,20376396
3	0	22179,4215	4,20385933
3	0	22179,9215	4,20368767
3	0	22180,4215	4,2035923
3	0	22180,9215	4,20380211
3	0	22181,4215	4,20378304
3	0	22181,9215	4,20380211
3	0	22182,4215	4,20370674
3	0	22182,9215	4,20374489
3	0	22183,4215	4,20366859
3	0	22183,9215	4,20378304
3	0	22184,4215	4,20370674
3	0	22184,9215	4,20372581
3	0	22185,4215	4,20378304
3	0	22185,9215	4,20366859
3	0	22186,4215	4,20364952
3	0	22186,9215	4,20376396
3	0	22187,4215	4,20376396
3	0	22187,9215	4,20361137
3	0	22188,4215	4,20376396
3	0	22188,9215	4,20368767
3	0	22189,4215	4,20372581
3	0	22189,9215	4,20363045
3	0	22190,4215	4,20366859
3	0	22190,9215	4,20374489
3	0	22191,4215	4,20364952
3	0	22191,9215	4,2035923
3	0	22192,4215	4,20370674
3	0	22192,9215	4,20368767
3	0	22193,4215	4,20370674
3	0	22193,9215	4,20357323
3	0	22194,4215	4,20368767
3	0	22194,9215	4,20372581
3	0	22195,4215	4,20364952
3	0	22195,9215	4,20370674
3	0	22196,4215	4,20366859
3	0	22196,9215	4,20368767
3	0	22197,4215	4,20374489
3	0	22197,9215	4,20370674
3	0	22198,4215	4,20374489
3	0	22198,9215	4,20361137
3	0	22199,4215	4,20361137
3	0	22199,9215	4,20370674
3	0	22200,4215	4,20368767
3	0	22200,9215	4,20368767
3	0	22201,4215	4,20366859
3	0	22201,9215	4,20366859
3	0	22202,4215	4,20364952
3	0	22202,9215	4,20376396
3	0	22203,4215	4,20361137
3	0	22203,9215	4,20357323
3	0	22204,4215	4,20364952
3	0	22204,9215	4,20374489
3	0	22205,4215	4,20370674
3	0	22205,9215	4,20364952
3	0	22206,4215	4,20361137
3	0	22206,9215	4,20363045
3	0	22207,4215	4,20363045
3	0	22207,9215	4,20368767
3	0	22208,4215	4,20363045
3	0	22208,9215	4,20363045
3	0	22209,4215	4,20366859
3	0	22209,9215	4,20372581
3	0	22210,4215	4,20368767
3	0	22210,9215	4,2035923
3	0	22211,4215	4,20366859
3	0	22211,9215	4,20364952
3	0	22212,4215	4,20374489
3	0	22212,9215	4,20363045
3	0	22213,4215	4,2035923
3	0	22213,9215	4,2035923
3	0	22214,4215	4,20366859
3	0	22214,9215	4,20364952
3	0	22215,4215	4,20363045
3	0	22215,9215	4,20372581
3	0	22216,4215	4,20368767
3	0	22216,9215	4,20364952
3	0	22217,4215	4,20370674
3	0	22217,9215	4,20372581
3	0	22218,4215	4,20378304
3	0	22218,9215	4,20374489
3	0	22219,4215	4,20370674
3	0	22219,9215	4,20374489
3	0	22220,4215	4,20364952
3	0	22220,9215	4,20374489
3	0	22221,4215	4,20357323
3	0	22221,9215	4,20353508
3	0	22222,4215	4,20368767
3	0	22222,9215	4,20372581
3	0	22223,4215	4,20374489
3	0	22223,9215	4,20355415
3	0	22224,4215	4,20357323
3	0	22224,9215	4,20380211
3	0	22225,4215	4,20361137
3	0	22225,9215	4,20378304
3	0	22226,4215	4,20366859
3	0	22226,9215	4,2035923
3	0	22227,4215	4,20372581
3	0	22227,9215	4,20364952
3	0	22228,4215	4,20368767
3	0	22228,9215	4,20363045
3	0	22229,4215	4,20364952
3	0	22229,9215	4,20368767
3	0	22230,4215	4,20368767
3	0	22230,9215	4,20363045
3	0	22231,4215	4,20370674
3	0	22231,9215	4,20378304
3	0	22232,4215	4,20372581
3	0	22232,9215	4,2035923
3	0	22233,4215	4,20355415
3	0	22233,9215	4,20370674
3	0	22234,4215	4,20366859
3	0	22234,9215	4,20368767
3	0	22235,4215	4,20372581
3	0	22235,9215	4,20368767
3	0	22236,4215	4,20353508
3	0	22236,9215	4,20368767
3	0	22237,4215	4,20361137
3	0	22237,9215	4,20364952
3	0	22238,4215	4,20363045
3	0	22238,9215	4,20376396
3	0	22239,4215	4,20368767
3	0	22239,9215	4,20357323
3	0	22240,4215	4,20372581
3	0	22240,9215	4,20364952
3	0	22241,4215	4,20363045
3	0	22241,9215	4,20357323
3	0	22242,4215	4,20376396
3	0	22242,9215	4,20364952
3	0	22243,4215	4,20372581
3	0	22243,9215	4,20366859
3	0	22244,4215	4,20372581
3	0	22244,9215	4,20349693
3	0	22245,4215	4,20363045
3	0	22245,9215	4,20370674
3	0	22246,4215	4,20370674
3	0	22246,9215	4,20353508
3	0	22247,4215	4,20363045
3	0	22247,9215	4,20361137
3	0	22248,4215	4,20368767
3	0	22248,9215	4,2035923
3	0	22249,4215	4,20361137
3	0	22249,9215	4,20355415
3	0	22250,4215	4,20372581
3	0	22250,9215	4,20355415
3	0	22251,4215	4,20363045
3	0	22251,9215	4,20363045
3	0	22252,4215	4,20366859
3	0	22252,9215	4,20363045
3	0	22253,4215	4,20372581
3	0	22253,9215	4,20363045
3	0	22254,4215	4,20366859
3	0	22254,9215	4,20361137
3	0	22255,4215	4,20357323
3	0	22255,9215	4,20363045
3	0	22256,4215	4,20366859
3	0	22256,9215	4,20361137
3	0	22257,4215	4,20366859
3	0	22257,9215	4,20357323
3	0	22258,4215	4,20368767
3	0	22258,9215	4,2035923
3	0	22259,4215	4,20361137
3	0	22259,9215	4,20355415
3	0	22260,4215	4,20366859
3	0	22260,9215	4,20366859
3	0	22261,4215	4,20361137
3	0	22261,9215	4,2035923
3	0	22262,4215	4,20372581
3	0	22262,9215	4,20363045
3	0	22263,4215	4,2035923
3	0	22263,9215	4,20361137
3	0	22264,4215	4,20363045
3	0	22264,9215	4,2035923
3	0	22265,4215	4,20363045
3	0	22265,9215	4,20364952
3	0	22266,4215	4,2035923
3	0	22266,9215	4,20364952
3	0	22267,4215	4,20361137
3	0	22267,9215	4,20364952
3	0	22268,4215	4,20357323
3	0	22268,9215	4,20349693
3	0	22269,4215	4,2035923
3	0	22269,9215	4,2035923
3	0	22270,4215	4,20351601
3	0	22270,9215	4,20372581
3	0	22271,4215	4,20364952
3	0	22271,9215	4,20357323
3	0	22272,4215	4,2035923
3	0	22272,9215	4,20366859
3	0	22273,4215	4,20363045
3	0	22273,9215	4,20366859
3	0	22274,4215	4,20364952
3	0	22274,9215	4,20355415
3	0	22275,4215	4,20357323
3	0	22275,9215	4,20353508
3	0	22276,4215	4,20351601
3	0	22276,9215	4,20363045
3	0	22277,4215	4,20370674
3	0	22277,9215	4,20361137
3	0	22278,4215	4,20351601
3	0	22278,9215	4,20372581
3	0	22279,4215	4,20366859
3	0	22279,9215	4,20357323
3	0	22280,4215	4,20366859
3	0	22280,9215	4,20357323
3	0	22281,4215	4,20364952
3	0	22281,9215	4,20368767
3	0	22282,4215	4,2035923
3	0	22282,9215	4,20361137
3	0	22283,4215	4,20355415
3	0	22283,9215	4,20368767
3	0	22284,4215	4,20364952
3	0	22284,9215	4,20357323
3	0	22285,4215	4,20361137
3	0	22285,9215	4,20364952
3	0	22286,4215	4,20372581
3	0	22286,9215	4,20361137
3	0	22287,4215	4,20366859
3	0	22287,9215	4,20357323
3	0	22288,4215	4,20364952
3	0	22288,9215	4,20366859
3	0	22289,4215	4,20351601
3	0	22289,9215	4,20363045
3	0	22290,4215	4,20370674
3	0	22290,9215	4,20363045
3	0	22291,4215	4,20366859
3	0	22291,9215	4,20357323
3	0	22292,4215	4,20364952
3	0	22292,9215	4,20351601
3	0	22293,4215	4,20364952
3	0	22293,9215	4,20361137
3	0	22294,4215	4,20351601
3	0	22294,9215	4,20357323
3	0	22295,4215	4,20363045
3	0	22295,9215	4,20378304
3	0	22296,4215	4,2035923
3	0	22296,9215	4,20370674
3	0	22297,4215	4,20368767
3	0	22297,9215	4,20363045
3	0	22298,4215	4,20364952
3	0	22298,9215	4,20355415
3	0	22299,4215	4,2035923
3	0	22299,9215	4,20361137
3	0	22300,4215	4,20363045
3	0	22300,9215	4,20357323
3	0	22301,4215	4,20366859
3	0	22301,9215	4,20361137
3	0	22302,4215	4,20357323
3	0	22302,9215	4,20357323
3	0	22303,4215	4,20357323
3	0	22303,9215	4,20368767
3	0	22304,4215	4,20349693
3	0	22304,9215	4,20361137
3	0	22305,4215	4,20351601
3	0	22305,9215	4,2035923
3	0	22306,4215	4,20370674
3	0	22306,9215	4,2035923
3	0	22307,4215	4,20364952
3	0	22307,9215	4,20361137
3	0	22308,4215	4,20355415
3	0	22308,9215	4,20374489
3	0	22309,4215	4,20363045
3	0	22309,9215	4,20364952
3	0	22310,4215	4,20363045
3	0	22310,9215	4,20368767
3	0	22311,4215	4,20372581
3	0	22311,9215	4,20361137
3	0	22312,4215	4,20357323
3	0	22312,9215	4,20363045
3	0	22313,4215	4,20353508
3	0	22313,9215	4,20355415
3	0	22314,4215	4,20364952
3	0	22314,9215	4,20361137
3	0	22315,4215	4,20353508
3	0	22315,9215	4,20370674
3	0	22316,4215	4,20361137
3	0	22316,9215	4,20380211
3	0	22317,4215	4,20393562
3	0	22317,9215	4,20397377
3	0	22318,4215	4,2038784
3	0	22318,9215	4,20391655
3	0	22319,4215	4,20405006
3	0	22319,9215	4,2039547
3	0	22320,4215	4,20389748
3	0	22320,9215	4,20397377
3	0	22321,4215	4,20397377
3	0	22321,9215	4,20397377
3	0	22322,4215	4,20399284
3	0	22322,9215	4,20399284
3	0	22323,4215	4,20401192
3	0	22323,9215	4,20405006
3	0	22324,4215	4,20391655
3	0	22324,9215	4,20403099
3	0	22325,4215	4,20401192
3	0	22325,9215	4,20403099
3	0	22326,4215	4,20406914
3	0	22326,9215	4,20406914
3	0	22327,4215	4,20410728
3	0	22327,9215	4,20408821
3	0	22328,4215	4,20399284
3	0	22328,9215	4,20405006
3	0	22329,4215	4,20420265
3	0	22329,9215	4,20408821
3	0	22330,4215	4,20414543
3	0	22330,9215	4,20408821
3	0	22331,4215	4,20412636
3	0	22331,9215	4,20408821
3	0	22332,4215	4,20403099
3	0	22332,9215	4,20416451
3	0	22333,4215	4,20408821
3	0	22333,9215	4,20416451
3	0	22334,4215	4,20408821
3	0	22334,9215	4,20410728
3	0	22335,4215	4,20403099
3	0	22335,9215	4,20397377
3	0	22336,4215	4,20403099
3	0	22336,9215	4,20403099
3	0	22337,4215	4,20408821
3	0	22337,9215	4,20406914
3	0	22338,4215	4,20406914
3	0	22338,9215	4,20414543
3	0	22339,4215	4,2039547
3	0	22339,9215	4,20401192
3	0	22340,4215	4,20410728
3	0	22340,9215	4,20405006
3	0	22341,4215	4,20412636
3	0	22341,9215	4,20408821
3	0	22342,4215	4,20403099
3	0	22342,9215	4,20403099
3	0	22343,4215	4,20414543
3	0	22343,9215	4,20410728
3	0	22344,4215	4,20406914
3	0	22344,9215	4,20405006
3	0	22345,4215	4,20412636
3	0	22345,9215	4,20405006
3	0	22346,4215	4,20410728
3	0	22346,9215	4,20414543
3	0	22347,4215	4,20414543
3	0	22347,9215	4,20406914
3	0	22348,4215	4,20403099
3	0	22348,9215	4,20406914
3	0	22349,4215	4,20408821
3	0	22349,9215	4,20399284