File: Experimentelles/Rohdaten/Batteriemessungen/AlteZelle/Studenten_Batterietests/SemArbeitToph/ECLab-Export/Al_Struktur_01_Laden_IS_01_GCPL_C03.mpt
EC-Lab ASCII FILE
Nb header lines : 68

Galvanostatic Cycling with Potential Limitation

Run on channel : 3 (SN 6987)
Grouped channel(s) : 3
User :
CE vs. WE compliance from -10 V to 10 V
Electrode connection : standard
Ewe ctrl range : min = -10,00 V, max = 10,00 V
Acquisition started on : 03.16.2015 13:07:36
Saved on :
	File : Al_Struktur_01_Laden_IS_01_GCPL_C03.mpr
	Directory : C:\Hupfer\Studenten Batterietests\SemArbeitToph\
	Host : 192.168.0.2
Device : VMP3 (SN 0324)
Address : 192.168.0.1
EC-Lab for windows v10.33 (software)
Internet server v10.33 (firmware)
Command interpretor v10.32 (firmware)
Electrode material :
Initial state :
Electrolyte :
Comments :
Mass of active material : 0,001 mg
 at x = 0,000
Molecular weight of active material (at x = 0) : 0,001 g/mol
Atomic weight of intercalated ion : 0,001 g/mol
Acquisition started at : xo = 0,000
Number of e- transfered per intercalated ion : 1
for DX = 1, DQ = 26,801 mA.h
Battery capacity : 0,000 A.h
Electrode surface area : 0,001 cm²
Characteristic mass : 0,001 g
Ns                  0                   1
Set I/C             I                   I
Is                  0,000               50,000
unit Is             mA                  µA
vs.                 <None>              <None>
N                   1                   1
I sign              > 0                 > 0
t1 (h:m:s)          0:00:0,0000         4:00:0,0000
I Range             100 mA              100 mA
Bandwidth           5                   5
dE1 (mV)            0,00                10,00
dt1 (s)             0,0000              10,0000
EM (V)              0,000               4,200
tM (h:m:s)          0:00:0,0000         0:30:0,0000
Im                  0,000               0,000
unit Im             mA                  mA
E range min (V)     -10,000             -10,000
E range max (V)     10,000              10,000
dq                  0,000               1,000
unit dq             mA.h                mA.h
dtq (s)             0,0000              120,0000
dQM                 0,000               0,000
unit dQM            mA.h                mA.h
dxM                 0,000               0,000
tR (h:m:s)          0:00:0,0000         0:02:0,0000
dER/dt (mV/h)       0,0                 0,1
dER (mV)            0,00                5,00
dtR (s)             1,0000              120,0000
EL (V)              pass                4,200
goto Ns'            0                   0
nc cycles           0                   0

mode	ox/red	error	control changes	Ns changes	counter inc.	Ns	time/s	control/V/mA	Ewe/V	dq/mA.h	<I>/mA	P/W	(Q-Qo)/mA.h	x	Capacity/mA.h
1	1	0	1	1	0	1	0,0004	0,0500000007	4,11445618	0	0	0	0	0	0
1	1	0	1	0	0	1	0,1928	0,0500000007	4,12446451	2,3439529737871552E-006	0,043857749058219347	0,000180889736	2,3439529737871552E-006	-8,7456036930289562E-008	2,3439529737871552E-006
1	1	0	1	0	0	1	0,8278	0,0500000007	4,13451099	1,0394169278235901E-005	0,05892757534950071	0,000243636707	1,2738122252023056E-005	-4,7527646781049779E-007	1,2738122252023056E-005
1	1	0	1	0	0	1	1,5674	0,0500000007	4,14451933	1,2142964927065702E-005	0,059105834020770829	0,000244965282	2,4881087179088758E-005	-9,2834681562930291E-007	2,4881087179088758E-005
1	1	0	1	0	0	1	2,3468	0,0500000007	4,15452766	1,2767563553113075E-005	0,058972581411773069	0,000245003233	3,7648650732201837E-005	-1,40472177796772E-006	3,7648650732201837E-005
1	1	0	1	0	0	1	3,1558	0,0500000007	4,16455555	1,3305190506701667E-005	0,05920727692725417	0,000246571988	5,0953841238903507E-005	-1,9011563247916538E-006	5,0953841238903507E-005
1	1	0	1	0	0	1	3,9826	0,0500000007	4,17456388	1,3606712252522509E-005	0,059245483002570317	0,00024732406	6,4560553491426022E-005	-2,408841053352463E-006	6,4560553491426022E-005
1	1	0	1	0	0	1	4,8358	0,0500000007	4,18457222	1,402468061219487E-005	0,059175869056911859	0,000247625692	7,858523410362089E-005	-2,9321207433770835E-006	7,858523410362089E-005
1	1	0	1	0	0	1	5,7264	0,0500000007	4,19459963	1,4631804373736186E-005	0,059144955171929011	0,000248089404	9,3217038477357082E-005	-3,4780530372313901E-006	9,3217038477357082E-005
1	1	0	1	0	0	1	6,2260	0,0500000007	4,19997549	8,2071255068812109E-006	0,059138616035144755	0,000248380733	0,0001014241639842383	-3,7842719244907302E-006	0,0001014241639842383
2	1	0	0	0	0	1	6,2262	4,19999981	4,19980383	3,462977293464873E-009	0,062333592857046707	0,000261788868	0,00010142762696153174	-3,7844011328295718E-006	0,00010142762696153174
2	1	0	0	0	0	1	126,2264	4,2001214	4,19953728	0,00034360945646158912	0,010308266773812208	4,32899506E-005	0,00044503708342312083	-1,6604931941239146E-005	0,00044503708342312083
2	1	0	0	0	0	1	246,2266	4,2001214	4,19944191	0,00030235044680585754	0,0090704985158186483	3,80910315E-005	0,00074738753022897843	-2,7886033626064906E-005	0,00074738753022897843
2	1	0	0	0	0	1	366,2268	4,2001214	4,19944191	0,00029992804110052141	0,0089978264639427981	3,77858487E-005	0,0010473155713294998	-3,9076752097065466E-005	0,0010473155713294998
2	1	0	0	0	0	1	486,2270	4,2001214	4,19942284	0,00029913139303522381	0,0089739270612124544	3,76853131E-005	0,0013464469643647235	-5,023774655764505E-005	0,0013464469643647235
2	1	0	0	0	0	1	606,2272	4,2001214	4,19942284	0,00029611619548361498	0,0088834712831387123	3,73054536E-005	0,0016425631598483386	-6,1286239943597888E-005	0,0016425631598483386
2	1	0	0	0	0	1	726,2274	4,2001214	4,19944191	0,00029662008985920365	0,0088985880895935795	3,73691037E-005	0,0019391832497075424	-7,2353534306197133E-005	0,0019391832497075424
2	1	0	0	0	0	1	846,2276	4,2001214	4,19944191	0,0002963879802055049	0,0088916248114121728	3,73398616E-005	0,0022355712299130474	-8,3412168345542144E-005	0,0022355712299130474
2	1	0	0	0	0	1	966,2278	4,2001214	4,19942284	0,00029546367883025152	0,0088638958156690688	3,72232462E-005	0,0025310349087432992	-9,4436315457840026E-005	0,0025310349087432992
2	1	0	0	0	0	1	1086,2280	4,2001214	4,1995182	0,00028806032208585466	0,0086417954778936563	3,62913779E-005	0,0028190952308291536	-0,00010518423337608546	0,0028190952308291536
2	1	0	0	0	0	1	1206,2282	4,2001214	4,19934654	0,00028216122247379098	0,0084648227800155277	3,55467237E-005	0,0031012564533029446	-0,00011571204795638101	0,0031012564533029446
2	1	0	0	0	0	1	1326,2284	4,2001214	4,19938469	0,00028537376978221357	0,0085611990410757786	3,5951769E-005	0,0033866302230851584	-0,00012635972699606958	0,0033866302230851584
2	1	0	0	0	0	1	1446,2286	4,2001214	4,19946098	0,00028463946318392598	0,0085391698792859162	3,585991E-005	0,0036712696862690842	-0,00013698000806929034	0,0036712696862690842
2	1	0	0	0	0	1	1566,2288	4,2001214	4,19946098	0,00028258435229670102	0,0084775166538670502	3,56009987E-005	0,003953854038565785	-0,00014752361019218275	0,003953854038565785
2	1	0	0	0	0	1	1686,2290	4,2001214	4,19948006	0,00028365190106343974	0,0085095430643009152	3,57356548E-005	0,0042375059396292243	-0,00015810704399489674	0,0042375059396292243
2	1	0	0	0	0	1	1806,2262	4,2001214	4,1995182	0,00028405388558904333	0,0085218156253100365	3,57875215E-005	0,0045215598252182675	-0,00016870547638073498	0,0045215598252182675
3	1	0	1	0	0	1	1806,2264	4,2001214	4,1995182	0	0	0	0,0045215598252182675	-0,00016870547638073498	0,0045215598252182675
3	1	0	1	0	0	1	1818,7426	0	4,19450426	0	0	0	0,0045215598252182675	-0,00016870547638073498	0,0045215598252182675
3	1	0	1	0	0	1	1834,7826	0	4,1894908	0	0	0	0,0045215598252182675	-0,00016870547638073498	0,0045215598252182675
3	1	0	1	0	0	1	1852,9076	0	4,18447685	0	0	0	0,0045215598252182675	-0,00016870547638073498	0,0045215598252182675
3	1	0	1	0	0	1	1873,5370	0	4,17944384	0	0	0	0,0045215598252182675	-0,00016870547638073498	0,0045215598252182675
3	1	0	1	0	0	1	1896,4162	0	4,17439222	0	0	0	0,0045215598252182675	-0,00016870547638073498	0,0045215598252182675
3	1	0	1	0	0	1	1922,0670	0	4,16937828	0	0	0	0,0045215598252182675	-0,00016870547638073498	0,0045215598252182675
3	1	0	1	0	0	1	1926,2262	0,0500000007	4,17103195	0	0	0	0,0045215598252182675	-0,00016870547638073498	0,0045215598252182675
1	1	0	1	0	0	1	1926,2264	0,0500000007	4,17380428	2,8618400295575456E-009	0,051513121833366739	0,000215005683	0,004521562687058297	-0,00016870558315983427	0,004521562687058297
1	1	0	1	0	0	1	1926,6110	0,0500000007	4,1838479	6,2808364044047066E-006	0,058790981869628557	0,000245972537	0,0045278435234627021	-0,00016893992961075696	0,0045278435234627021
1	1	0	1	0	0	1	1927,3062	0,0500000007	4,19389439	1,1359685960743162E-005	0,058824612329929101	0,000246704207	0,0045392032094234451	-0,00016936377476721251	0,0045392032094234451
1	1	0	1	0	0	1	1927,7724	0,0500000007	4,20016623	7,619366922105353E-006	0,058836811695650624	0,000247124379	0,0045468225763455501	-0,000169648063591424	0,0045468225763455501
2	1	0	0	0	0	1	1927,7726	4,19999981	4,19991827	3,2154501726229984E-009	0,057878104569337869	0,000243083312	0,0045468257917957229	-0,00016964818356419318	0,0045468257917957229
2	1	0	0	0	0	1	2047,7727	4,2001214	4,19940376	0,00029824011941223418	0,0089471888964109107	3,75728596E-005	0,0048450659112079571	-0,0001807759234075689	0,0048450659112079571
2	1	0	0	0	0	1	2167,7729	4,2001214	4,19949913	0,00028459260983904989	0,0085377642812467878	3,5854333E-005	0,0051296585210470074	-0,00019139445631949734	0,0051296585210470074
2	1	0	0	0	0	1	2287,7731	4,2001214	4,19949913	0,00028560382847790608	0,0085681007906179904	3,59817313E-005	0,0054152623495249133	-0,00020205071915843939	0,0054152623495249133
2	1	0	0	0	0	1	2407,7733	4,2001214	4,19949913	0,00028209057123203338	0,0084627032462418138	3,55391167E-005	0,0056973529207569466	-0,00021257589764591338	0,0056973529207569466
2	1	0	0	0	0	1	2527,7735	4,2001214	4,19953728	0,00028175697553497514	0,0084526953917570035	3,54974109E-005	0,0059791098962919219	-0,00022308862922940592	0,0059791098962919219
2	1	0	0	0	0	1	2647,7737	4,2001214	4,19948006	0,00027694020559958237	0,0083081925308828659	3,48900903E-005	0,0062560501018915034	-0,0002334216406503929	0,0062560501018915034
2	1	0	0	0	0	1	2767,7739	4,2001214	4,19944191	0,00028131347782637747	0,0084393904823378112	3,54407312E-005	0,0065373635797178816	-0,00024391782473808864	0,0065373635797178816
2	1	0	0	0	0	1	2887,7741	4,2001214	4,19948006	0,0002797054714638863	0,0083911503706446118	3,52384704E-005	0,0068170690511817677	-0,00025435401194641226	0,0068170690511817677
2	1	0	0	0	0	1	3007,7743	4,2001214	4,19961357	0,00028430349837173382	0,0085290909514637491	3,58188845E-005	0,0071013725495535014	-0,00026496175772078067	0,0071013725495535014
2	1	0	0	0	0	1	3127,7745	4,2001214	4,19944191	0,00028022754136733254	0,0084068124420402061	3,53039213E-005	0,0073816000909208333	-0,00027541742405913235	0,0073816000909208333
2	1	0	0	0	0	1	3247,7747	4,2001214	4,1995182	0,00028145608873501056	0,0084436688025743501	3,54593394E-005	0,0076630561796558451	-0,00028591892915157158	0,0076630561796558451
2	1	0	0	0	0	1	3367,7749	4,2001214	4,19946098	0,00028140432018783107	0,0084421157487081562	3,54523363E-005	0,0079444604998436762	-0,000296418502689912	0,0079444604998436762
2	1	0	0	0	0	1	3487,7751	4,2001214	4,19946098	0,00028071163347785318	0,0084213351815181338	3,53650685E-005	0,0082251721333215283	-0,00030689223115577594	0,0082251721333215283
2	1	0	0	0	0	1	3607,7753	4,2001214	4,19946098	0,00027980094615736586	0,0083940146067476301	3,52503375E-005	0,0085049730794788941	-0,00031733198065328045	0,0085049730794788941
2	1	0	0	0	0	1	3727,7725	4,2001214	4,19944191	0,00027628744206786115	0,0082888168771512102	3,48084068E-005	0,0087812605215467558	-0,00032764063658924902	0,0087812605215467558
3	1	0	1	0	0	1	3727,7727	4,2001214	4,19957542	0	0	0	0,0087812605215467558	-0,00032764063658924902	0,0087812605215467558
3	1	0	1	0	0	1	3741,0177	0	4,19456148	0	0	0	0,0087812605215467558	-0,00032764063658924902	0,0087812605215467558
3	1	0	1	0	0	1	3758,6169	0	4,18954754	0	0	0	0,0087812605215467558	-0,00032764063658924902	0,0087812605215467558
3	1	0	1	0	0	1	3778,2405	0	4,18453407	0	0	0	0,0087812605215467558	-0,00032764063658924902	0,0087812605215467558
3	1	0	1	0	0	1	3800,3181	0	4,17952013	0	0	0	0,0087812605215467558	-0,00032764063658924902	0,0087812605215467558
3	1	0	1	0	0	1	3824,9307	0	4,17450666	0	0	0	0,0087812605215467558	-0,00032764063658924902	0,0087812605215467558
3	1	0	1	0	0	1	3847,7725	0,0500000007	4,17279387	0	0	0	0,0087812605215467558	-0,00032764063658924902	0,0087812605215467558
1	1	0	1	0	0	1	3847,7727	0,0500000007	4,1762867	2,897201105952263E-009	0,05214962122455097	0,000217791763	0,0087812634187478618	-0,00032764074468771763	0,0087812634187478618
1	1	0	1	0	0	1	3848,1407	0,0500000007	4,18630695	6,0611609783437517E-006	0,059293967590384832	0,000248222757	0,0087873245797262054	-0,00032786689475313722	0,0087873245797262054
1	1	0	1	0	0	1	3848,8141	0,0500000007	4,19631529	1,1076812142920163E-005	0,059216698428687744	0,000248491939	0,0087984013918691251	-0,00032828018550712186	0,0087984013918691251
1	1	0	1	0	0	1	3849,0927	0,0500000007	4,20007086	4,597015726069609E-006	0,059401496884134925	0,000249490491	0,0088029984075951949	-0,00032845170634461491	0,0088029984075951949
2	1	0	0	0	0	1	3849,0929	4,19999981	4,19984198	3,5336990323331622E-009	0,063606584188834381	0,000267137599	0,0088030019412942285	-0,00032845183819167693	0,0088030019412942285
2	1	0	0	0	0	1	3969,0931	4,2001214	4,19949913	0,00029568694883064986	0,0088705939046867456	3,72520517E-005	0,0090986888901248768	-0,00033948431580787936	0,0090986888901248768
2	1	0	0	0	0	1	4089,0933	4,2001214	4,19949913	0,0002758000960337231	0,0082739893000484262	3,47466121E-005	0,0093744889861585997	-0,00034977478820807053	0,0093744889861585997
2	1	0	0	0	0	1	4209,0933	4,2001214	4,19953728	0,00027909436497013341	0,0083728310568152666	3,51620147E-005	0,0096535833511287322	-0,00036018817421147078	0,0096535833511287322
2	1	0	0	0	0	1	4329,0933	4,2001214	4,19948006	0,00027852890722114374	0,0083558673178004134	3,50902992E-005	0,0099321122583498765	-0,00037058046222599027	0,0099321122583498765
2	1	0	0	0	0	1	4449,0933	4,2001214	4,19949913	0,00027057621727420256	0,0081172866165036365	3,40885381E-005	0,010202688475624078	-0,00038067602468608397	0,010202688475624078
2	1	0	0	0	0	1	4569,0933	4,2001214	4,19946098	0,00027562969379425501	0,0082688909139407117	3,47248861E-005	0,010478318169418333	-0,00039096013914961235	0,010478318169418333
2	1	0	0	0	0	1	4689,0933	4,2001214	4,19957542	0,00027337362636714368	0,0082012088903079334	3,44415967E-005	0,010751691795785478	-0,00040116007670412026	0,010751691795785478
2	1	0	0	0	0	1	4809,0933	4,2001214	4,19942284	0,0002768069323262753	0,0083042080703289126	3,48728827E-005	0,011028498728111754	-0,00041148811552009229	0,011028498728111754
2	1	0	0	0	0	1	4929,0933	4,2001214	4,19948006	0,00027460549766536051	0,0082381650297018739	3,45960107E-005	0,011303104225777114	-0,00042173401584900525	0,011303104225777114
2	1	0	0	0	0	1	5049,0933	4,2001214	4,19948006	0,00027579238981661104	0,008273771794670487	3,47455389E-005	0,011578896615593725	-0,00043202420071987488	0,011578896615593725
2	1	0	0	0	0	1	5169,0933	4,2001214	4,1995182	0,000276466335199728	0,0082939901564087834	3,48307622E-005	0,011855362950793454	-0,00044233953139911776	0,011855362950793454
2	1	0	0	0	0	1	5289,0933	4,2001214	4,19953728	0,00027496886734345754	0,0082490661201767654	3,46422603E-005	0,012130331818136912	-0,00045259898953927629	0,012130331818136912
2	1	0	0	0	0	1	5409,0933	4,2001214	4,19936562	0,00024589858628117914	0,0073769576777496282	3,09785428E-005	0,012376230404418091	-0,00046177379640759264	0,012376230404418091
2	1	0	0	0	0	1	5529,0933	4,2001214	4,19948006	0,00026541078812348618	0,0079623237401059789	3,343762E-005	0,012641641192541576	-0,00047167662976107974	0,012641641192541576
2	1	0	0	0	0	1	5649,0929	4,2001214	4,19955635	0,00026872899865411613	0,0080618969302195187	3,38563914E-005	0,012910370191195691	-0,00048170327001084621	0,012910370191195691
3	1	0	1	0	0	1	5649,0931	4,2001214	4,19942284	0	0	0	0,012910370191195691	-0,00048170327001084621	0,012910370191195691
3	1	0	1	0	0	1	5663,5675	0	4,19440889	0	0	0	0,012910370191195691	-0,00048170327001084621	0,012910370191195691
3	1	0	1	0	0	1	5681,7849	0	4,18939543	0	0	0	0,012910370191195691	-0,00048170327001084621	0,012910370191195691
3	1	0	1	0	0	1	5702,5043	0	4,18438148	0	0	0	0,012910370191195691	-0,00048170327001084621	0,012910370191195691
3	1	0	1	0	0	1	5725,7165	0	4,1793108	0	0	0	0,012910370191195691	-0,00048170327001084621	0,012910370191195691
3	1	0	1	0	0	1	5752,1129	0	4,17429686	0	0	0	0,012910370191195691	-0,00048170327001084621	0,012910370191195691
3	1	0	1	0	0	1	5769,0929	0,0500000007	4,17399502	0	0	0	0,012910370191195691	-0,00048170327001084621	0,012910370191195691
1	1	0	1	0	0	1	5769,0931	0,0500000007	4,17772818	2,6850350615051059E-009	0,048330632328026374	0,000201912248	0,012910372876230754	-0,00048170337019311443	0,012910372876230754
1	1	0	1	0	0	1	5769,4297	0,0500000007	4,18775558	5,5433578089707424E-006	0,059287250012341018	0,000248280499	0,012915916234039723	-0,00048191020032609094	0,012915916234039723
1	1	0	1	0	0	1	5770,0965	0,0500000007	4,1977644	1,0998460666173034E-005	0,059379812353654502	0,000249262463	0,012926914694705898	-0,0004823205676811335	0,012926914694705898
1	1	0	1	0	0	1	5770,2673	0,0500000007	4,19995642	2,8169640199177795E-006	0,059373949618455949	0,000249367993	0,012929731658725816	-0,00048242567239616506	0,012929731658725816
2	1	0	0	0	0	1	5770,2675	4,19999981	4,19988012	3,1800893031888538E-009	0,057241604738569037	0,000240407884	0,012929734838815117	-0,00048242579104957261	0,012929734838815117
2	1	0	0	0	0	1	5890,2675	4,2001214	4,19953728	0,00029938291889696685	0,0089814876756496141	3,77180913E-005	0,013229117757712085	-0,00049359617027823392	0,013229117757712085
2	1	0	0	0	0	1	6010,2675	4,2001214	4,19940376	0,00028132734171883043	0,0084398203537474509	3,54422118E-005	0,013510445099430915	-0,00050409287164639725	0,013510445099430915
2	1	0	0	0	0	1	6130,2675	4,2001214	4,19942284	0,00027830404647625014	0,0083491214953719334	3,50614901E-005	0,013788749145907165	-0,00051447676980419622	0,013788749145907165
2	1	0	0	0	0	1	6250,2675	4,2001214	4,19955635	0,00027177937546628691	0,0081533813627031731	3,42405838E-005	0,01406052852137345	-0,0005246172237141001	0,01406052852137345
2	1	0	0	0	0	1	6370,2675	4,2001214	4,19942284	0,00026955163226215357	0,0080865490657700211	3,39588405E-005	0,014330080153635605	-0,00053467455752982509	0,014330080153635605
2	1	0	0	0	0	1	6490,2675	4,2001214	4,19949913	0,00026844642405679366	0,0080533928192077952	3,38202153E-005	0,014598526577692397	-0,00054469065454143981	0,014598526577692397
2	1	0	0	0	0	1	6610,2675	4,2001214	4,1995182	0,00027303363029935606	0,0081910090081508122	3,43982902E-005	0,014871560207991754	-0,00055487790638552909	0,014871560207991754
2	1	0	0	0	0	1	6730,2675	4,2001214	4,19955635	0,00027112685882293347	0,0081338058631655654	3,41583764E-005	0,015142687066814688	-0,00056499401402215136	0,015142687066814688
2	1	0	0	0	0	1	6850,2675	4,2001214	4,1995182	0,0002762193739211183	0,0082865813179607923	3,47996502E-005	0,015418906440735805	-0,00057530013024404627	0,015418906440735805
2	1	0	0	0	0	1	6970,2675	4,2001214	4,19940376	0,00027424145617183402	0,0082272437847638528	3,45495173E-005	0,015693147896907638	-0,00058553244769537677	0,015693147896907638
2	1	0	0	0	0	1	7090,2675	4,2001214	4,1993084	0,00027401960121694074	0,0082205881360364723	3,45207845E-005	0,015967167498124579	-0,00059575648744005312	0,015967167498124579
2	1	0	0	0	0	1	7210,2675	4,2001214	4,19953728	0,00027021302453213782	0,0081063908341097754	3,40430888E-005	0,01623738052265672	-0,00060583849869062259	0,01623738052265672
2	1	0	0	0	0	1	7330,2675	4,2001214	4,19942284	0,00026940035785471264	0,008082010833491849	3,39397811E-005	0,016506780880511434	-0,00061589018825481536	0,016506780880511434
2	1	0	0	0	0	1	7450,2675	4,2001214	4,1995182	0,00027066405405560118	0,0081199217199775002	3,40997576E-005	0,016777444934567034	-0,00062598902802332096	0,016777444934567034
2	1	0	0	0	0	1	7570,2675	4,2001214	4,19944191	0,00027033374693628707	0,008110012506278103	3,4057528E-005	0,017047778681503322	-0,00063607554358910234	0,017047778681503322
3	1	0	1	0	0	1	7570,2677	4,2001214	4,19948006	0	0	0	0,017047778681503322	-0,00063607554358910234	0,017047778681503322
3	1	0	1	0	0	1	7585,1095	0	4,19446611	0	0	0	0,017047778681503322	-0,00063607554358910234	0,017047778681503322
3	1	0	1	0	0	1	7603,9597	0	4,18945265	0	0	0	0,017047778681503322	-0,00063607554358910234	0,017047778681503322
3	1	0	1	0	0	1	7625,3971	0	4,18443871	0	0	0	0,017047778681503322	-0,00063607554358910234	0,017047778681503322
3	1	0	1	0	0	1	7649,3867	0	4,17942476	0	0	0	0,017047778681503322	-0,00063607554358910234	0,017047778681503322
3	1	0	1	0	0	1	7676,1407	0	4,1744113	0	0	0	0,017047778681503322	-0,00063607554358910234	0,017047778681503322
3	1	0	1	0	0	1	7690,2675	0,0500000007	4,17439508	0	0	0	0,017047778681503322	-0,00063607554358910234	0,017047778681503322
1	1	0	1	0	0	1	7690,2677	0,0500000007	4,17788839	2,897201105952263E-009	0,05214962122455097	0,000217875291	0,017047781578704429	-0,00063607565168757094	0,017047781578704429
1	1	0	1	0	0	1	7690,5385	0,0500000007	4,18798447	4,4620657016833626E-006	0,059318451700049357	0,000248424767	0,017052243644406112	-0,00063624213735821197	0,017052243644406112
1	1	0	1	0	0	1	7691,1691	0,0500000007	4,19803095	1,0349525792938141E-005	0,05908387774456759	0,00024803594	0,01706259317019905	-0,00063662829208063181	0,01706259317019905
1	1	0	1	0	0	1	7691,3285	0,0500000007	4,200109	2,6159321243564288E-006	0,059080023599653709	0,000248142547	0,017065209102323408	-0,00063672589602534976	0,017065209102323408
2	1	0	0	0	0	1	7691,3287	4,19999981	4,20007086	3,3215331948465773E-009	0,059787599017600179	0,000251112157	0,017065212423856602	-0,00063672601995621914	0,017065212423856602
2	1	0	0	0	0	1	7811,3287	4,2001214	4,1995182	0,00029485331564990982	0,008845599576592681	3,71472561E-005	0,017360065739506512	-0,00064772739359761638	0,017360065739506512
2	1	0	0	0	0	1	7931,3287	4,2001214	4,19953728	0,0002772597300309345	0,0083177920016331507	3,49308793E-005	0,017637325469537446	-0,00065807232690474214	0,017637325469537446
2	1	0	0	0	0	1	8051,3286	4,2001214	4,19942284	0,00027895677527642688	0,0083687033596143168	3,51437229E-005	0,017916282244813872	-0,00066848057925167898	0,017916282244813872
2	1	0	0	0	0	1	8171,3286	4,2001214	4,19938469	0,0002714190114539831	0,0081425704422031706	3,41937848E-005	0,018187701256267856	-0,00067860758749576922	0,018187701256267856
2	1	0	0	0	0	1	8291,3286	4,2001214	4,19938469	0,00027462388541795373	0,0082387166622873472	3,45975423E-005	0,018462325141685808	-0,00068885417389645389	0,018462325141685808
2	1	0	0	0	0	1	8411,3286	4,2001214	4,19949913	0,00027578319589101011	0,0082734959768991194	3,47445384E-005	0,018738108337576816	-0,00069914401572959795	0,018738108337576816
2	1	0	0	0	0	1	8531,3286	4,2001214	4,19948006	0,00027235423933123011	0,0081706272788602675	3,43123866E-005	0,019010462576908048	-0,00070930591858321549	0,019010462576908048
2	1	0	0	0	0	1	8651,3286	4,2001214	4,19940376	0,00027075086540885155	0,0081225260606065421	3,41097657E-005	0,019281213442316899	-0,00071940799740002995	0,019281213442316899
2	1	0	0	0	0	1	8771,3286	4,2001214	4,19949913	0,00027136508600238042	0,0081409526786355021	3,4187924E-005	0,019552578528319283	-0,00072953299361301734	0,019552578528319283
2	1	0	0	0	0	1	8891,3286	4,2001214	4,1995182	0,00027008194128470982	0,0081024583366393254	3,40264196E-005	0,01982266046960399	-0,00073961011397138189	0,01982266046960399
2	1	0	0	0	0	1	9011,3286	4,2001214	4,19944191	0,00026924950780263722	0,0080774853318747955	3,39209291E-005	0,020091909977406627	-0,00074965617511731174	0,020091909977406627
2	1	0	0	0	0	1	9131,3286	4,2001214	4,19940376	0,00027002069601359837	0,0081006209784837363	3,40177794E-005	0,020361930673420224	-0,00075973101033226586	0,020361930673420224
2	1	0	0	0	0	1	9251,3286	4,2001214	4,1995182	0,00027155462095698752	0,0081466387273425574	3,42119565E-005	0,02063348529437721	-0,00076986307834924211	0,02063348529437721
2	1	0	0	0	0	1	9371,3286	4,2001214	4,19955635	0,00026732307570391597	0,0080196923682134477	3,36791491E-005	0,020900808370081126	-0,00077983726172345318	0,020900808370081126
2	1	0	0	0	0	1	9491,3286	4,2001214	4,19948006	0,00026545923253921824	0,0079637770725955366	3,34437245E-005	0,021166267602620346	-0,00078974190260322547	0,021166267602620346
3	1	0	1	0	0	1	9491,3288	4,2001214	4,19946098	0	0	0	0,021166267602620346	-0,00078974190260322547	0,021166267602620346
3	1	0	1	0	0	1	9506,4324	0	4,19444704	0	0	0	0,021166267602620346	-0,00078974190260322547	0,021166267602620346
3	1	0	1	0	0	1	9525,7448	0	4,18943357	0	0	0	0,021166267602620346	-0,00078974190260322547	0,021166267602620346
3	1	0	1	0	0	1	9547,6144	0	4,18441963	0	0	0	0,021166267602620346	-0,00078974190260322547	0,021166267602620346
3	1	0	1	0	0	1	9571,7672	0	4,17940569	0	0	0	0,021166267602620346	-0,00078974190260322547	0,021166267602620346
3	1	0	1	0	0	1	9599,1770	0	4,17437315	0	0	0	0,021166267602620346	-0,00078974190260322547	0,021166267602620346
3	1	0	1	0	0	1	9611,3286	0,0500000007	4,17519617	0	0	0	0,021166267602620346	-0,00078974190260322547	0,021166267602620346
1	1	0	1	0	0	1	9611,3288	0,0500000007	4,17852879	2,6850350615051059E-009	0,048330628811510221	0,000201950927	0,021166270287655408	-0,00078974200278549363	0,021166270287655408
1	1	0	1	0	0	1	9611,5788	0,0500000007	4,18857574	4,129320845214857E-006	0,059462220891014554	0,000249062025	0,021170399608500621	-0,00078989607329815949	0,021170399608500621
1	1	0	1	0	0	1	9612,1940	0,0500000007	4,19862223	1,0162615617944134E-005	0,059469142827807949	0,000249688455	0,021180562224118563	-0,00079027525415064704	0,021180562224118563
1	1	0	1	0	0	1	9612,3012	0,0500000007	4,20008993	1,7676825701362557E-006	0,05936247508016727	0,000249327742	0,021182329906688701	-0,00079034120876401331	0,021182329906688701
2	1	0	0	0	0	1	9612,3014	4,19999981	4,19986105	3,2154501726229984E-009	0,057878108780524646	0,000243080009	0,021182333122138874	-0,00079034132873678259	0,021182333122138874
2	1	0	0	0	0	1	9732,3014	4,2001214	4,19938469	0,0002902475094860921	0,0087074253900052467	3,65658307E-005	0,021472580631624966	-0,00080117085355763546	0,021472580631624966
2	1	0	0	0	0	1	9852,3014	4,2001214	4,19938469	0,00027115069221966	0,0081345208650760192	3,41599807E-005	0,021743731323844627	-0,00081128785045033408	0,021743731323844627
2	1	0	0	0	0	1	9972,3014	4,2001214	4,19953728	0,00026841081553305978	0,0080523245634828454	3,38160389E-005	0,02201214213937769	-0,00082130261886005222	0,02201214213937769
2	1	0	0	0	0	1	10092,3014	4,2001214	4,19944191	0,00026187309632080563	0,0078561929847406182	3,29916256E-005	0,022274015235698493	-0,00083107345617590426	0,022274015235698493
2	1	0	0	0	0	1	10212,3014	4,2001214	4,1995182	0,00025120153451786448	0,0075360461267763021	3,16477635E-005	0,022525216770216355	-0,00084044612317282086	0,022525216770216355
2	1	0	0	0	0	1	10332,3014	4,2001214	4,1995182	0,00024447944318124627	0,0073343833842361869	3,08008748E-005	0,022769696213397603	-0,00084956797990402061	0,022769696213397603
2	1	0	0	0	0	1	10452,3014	4,2001214	4,19948006	0,00026897549542008589	0,008069264960298729	3,38867176E-005	0,02303867170881769	-0,00085960381727954381	0,02303867170881769
2	1	0	0	0	0	1	10572,3014	4,2001214	4,19940376	0,00026698566104727798	0,0080095699283917517	3,36354169E-005	0,023305657369864966	-0,0008695654112592567	0,023305657369864966
2	1	0	0	0	0	1	10692,3014	4,2001214	4,19936562	0,00026436661288124906	0,0079309984824596032	3,33051612E-005	0,023570023982746214	-0,00087942928503054733	0,023570023982746214
2	1	0	0	0	0	1	10812,3014	4,2001214	4,19948006	0,00026171273418601613	0,0078513821206386854	3,29717222E-005	0,023831736716932227	-0,00088919413901954112	0,023831736716932227
2	1	0	0	0	0	1	10932,3014	4,2001214	4,19949913	0,00026092524462617037	0,0078277574335572838	3,28726601E-005	0,024092661961558397	-0,00089892961071426598	0,024092661961558397
2	1	0	0	0	0	1	11052,3014	4,2001214	4,19949913	0,00026821555207696253	0,0080464666597290048	3,37911297E-005	0,02436087751363536	-0,00090893709358190259	0,02436087751363536
2	1	0	0	0	0	1	11172,3014	4,2001214	4,19934654	0,00026654976589048845	0,0079964930735297421	3,35800469E-005	0,024627427279525846	-0,00091888242372724851	0,024627427279525846
2	1	0	0	0	0	1	11292,3014	4,2001214	4,19940376	0,0002642270429929696	0,0079268113857605261	3,32878808E-005	0,024891654322518816	-0,00092874108995835392	0,024891654322518816
2	1	0	0	0	0	1	11412,3014	4,2001214	4,19946098	0,0002679572752887519	0,0080387183559888755	3,37582824E-005	0,025159611597807568	-0,0009387389361717655	0,025159611597807568
3	1	0	1	0	0	1	11412,3016	4,2001214	4,19955635	0	0	0	0,025159611597807568	-0,0009387389361717655	0,025159611597807568
3	1	0	1	0	0	1	11427,0712	0	4,19454241	0	0	0	0,025159611597807568	-0,0009387389361717655	0,025159611597807568
3	1	0	1	0	0	1	11446,6900	0	4,18952894	0	0	0	0,025159611597807568	-0,0009387389361717655	0,025159611597807568
3	1	0	1	0	0	1	11468,6596	0	4,18449593	0	0	0	0,025159611597807568	-0,0009387389361717655	0,025159611597807568
3	1	0	1	0	0	1	11493,3510	0	4,17948198	0	0	0	0,025159611597807568	-0,0009387389361717655	0,025159611597807568
3	1	0	1	0	0	1	11520,8908	0	4,17446852	0	0	0	0,025159611597807568	-0,0009387389361717655	0,025159611597807568
3	1	0	1	0	0	1	11532,3014	0,0500000007	4,17599678	0	0	0	0,025159611597807568	-0,0009387389361717655	0,025159611597807568
1	1	0	1	0	0	1	11532,3016	0,0500000007	4,17860889	2,7557570073339674E-009	0,049603627385104442	0,000207274163	0,025159614353564576	-0,00093873903899276454	0,025159614353564576
1	1	0	1	0	0	1	11532,5226	0,0500000007	4,18865156	3,6467437810368006E-006	0,05940397181218263	0,000248822529	0,025163261097345613	-0,00093887510390633421	0,025163261097345613
1	1	0	1	0	0	1	11533,1202	0,0500000007	4,19867945	9,8510135755770739E-006	0,059343455993376333	0,00024916415	0,02517311211092119	-0,00093924265846766758	0,02517311211092119
1	1	0	1	0	0	1	11533,2156	0,0500000007	4,20012808	1,5793854480402336E-006	0,059599451593221274	0,000250325334	0,025174691496369229	-0,00093930158746224038	0,025174691496369229
2	1	0	0	0	0	1	11533,2158	4,19999981	4,1998992	3,3215331948465773E-009	0,059787599017600179	0,000251101883	0,025174694817902422	-0,00093930171139310963	0,025174694817902422
2	1	0	0	0	0	1	11653,2158	4,2001214	4,19953728	0,00028987650182783546	0,008696295160122793	3,65204141E-005	0,025464571319730259	-0,000950117393419408	0,025464571319730259
2	1	0	0	0	0	1	11773,2158	4,2001214	4,19949913	0,00027253755084577843	0,0081761266243632998	3,43356369E-005	0,025737108870576035	-0,0009602861358720983	0,025737108870576035
2	1	0	0	0	0	1	11893,2158	4,2001214	4,19944191	0,00027399187816926051	0,0082197564445959974	3,45183907E-005	0,026011100748745296	-0,00097050914123259149	0,026011100748745296
2	1	0	0	0	0	1	12013,2158	4,2001214	4,19934654	0,00027624115626345805	0,0082872347882388954	3,48009708E-005	0,026287341905008755	-0,00098081607018296576	0,026287341905008755
2	1	0	0	0	0	1	12133,2158	4,2001214	4,19938469	0,00027748356521174717	0,0083245070571388314	3,49578077E-005	0,026564825470220502	-0,00099116935508163738	0,026564825470220502
2	1	0	0	0	0	1	12185,5080	4,2001214	4,19953728	0,00012107007862310357	0,0083349388306504371	3,50028859E-005	0,026685895548843603	-0,00099568664249551731	0,026685895548843603