File: Experimentelles/Rohdaten/Batteriemessungen/AlteZelle/Studenten_Batterietests/SemArbeitToph/ECLab-Export/Al_Struktur_01_Zyklieren_04_OCV_C03.mpt
EC-Lab ASCII FILE
Nb header lines : 46

Open Circuit Voltage

Run on channel : 3 (SN 6987)
Grouped channel(s) : 3
User :
CE vs. WE compliance from -10 V to 10 V
Electrode connection : standard
Ewe ctrl range : min = 0,00 V, max = 5,00 V
Acquisition started on : 03.16.2015 02:19:29
Saved on :
	File : Al_Struktur_01_Zyklieren_04_OCV_C03.mpr
	Directory : C:\Hupfer\Studenten Batterietests\SemArbeitToph\
	Host : 192.168.0.2
Device : VMP3 (SN 0324)
Address : 192.168.0.1
EC-Lab for windows v10.33 (software)
Internet server v10.33 (firmware)
Command interpretor v10.32 (firmware)
Electrode material :
Initial state :
Electrolyte :
Comments :
Mass of active material : 0,001 mg
 at x = 0,000
Molecular weight of active material (at x = 0) : 0,001 g/mol
Atomic weight of intercalated ion : 0,001 g/mol
Acquisition started at : xo = 0,000
Number of e- transfered per intercalated ion : 1
for DX = 1, DQ = 26,801 mA.h
Battery capacity : 0,000 A.h
Electrode surface area : 0,001 cm²
Characteristic mass : 0,001 g
tR (h:m:s)          0:10:0,0000
dER/dt (mV/h)       1,0
dER (mV)            1,00
dtR (s)             0,5000
E range min (V)     0,000
E range max (V)     5,000

Number of loops : 1
Loop 0 from point number 0 to 1200

mode	error	time/s	Ewe/V
3	0	20672,0313	3,24127698
3	0	20672,5313	3,24142957
3	0	20673,0313	3,24156308
3	0	20673,5313	3,24182987
3	0	20674,0313	3,24198246
3	0	20674,5313	3,24215388
3	0	20675,0313	3,24242091
3	0	20675,5313	3,24261141
3	0	20676,0313	3,24285936
3	0	20676,5313	3,24299288
3	0	20677,0313	3,24318337
3	0	20677,5313	3,24325967
3	0	20678,0313	3,24356461
3	0	20678,5313	3,24379349
3	0	20679,0313	3,24406028
3	0	20679,5313	3,24430823
3	0	20680,0313	3,24438453
3	0	20680,5313	3,24455595
3	0	20681,0313	3,24489903
3	0	20681,5313	3,2450707
3	0	20682,0313	3,2452805
3	0	20682,5313	3,24545193
3	0	20683,0313	3,24560452
3	0	20683,5313	3,2457571
3	0	20684,0313	3,24592853
3	0	20684,5313	3,24611926
3	0	20685,0313	3,2463479
3	0	20685,5313	3,24650049
3	0	20686,0313	3,24680543
3	0	20686,5313	3,24691987
3	0	20687,0313	3,24724388
3	0	20687,5313	3,24741554
3	0	20688,0313	3,2475872
3	0	20688,5313	3,24772048
3	0	20689,0313	3,24794936
3	0	20689,5313	3,24819708
3	0	20690,0313	3,24827337
3	0	20690,5313	3,24852133
3	0	20691,0313	3,24871182
3	0	20691,5313	3,24886441
3	0	20692,0313	3,24909306
3	0	20692,5313	3,24926472
3	0	20693,0313	3,24951243
3	0	20693,5313	3,2496078
3	0	20694,0313	3,24985576
3	0	20694,5313	3,24998903
3	0	20695,0313	3,25027514
3	0	20695,5313	3,2503705
3	0	20696,0313	3,2504847
3	0	20696,5313	3,25077081
3	0	20697,0313	3,25098038
3	0	20697,5313	3,25120926
3	0	20698,0313	3,25130463
3	0	20698,5313	3,25157142
3	0	20699,0313	3,25166678
3	0	20699,5313	3,25187635
3	0	20700,0313	3,25216246
3	0	20700,5313	3,25229573
3	0	20701,0313	3,25244832
3	0	20701,5313	3,25261998
3	0	20702,0313	3,25277233
3	0	20702,5313	3,25294399
3	0	20703,0313	3,25309658
3	0	20703,5313	3,25342059
3	0	20704,0313	3,25359225
3	0	20704,5313	3,25368738
3	0	20705,0313	3,25399256
3	0	20705,5313	3,25406885
3	0	20706,0313	3,25431657
3	0	20706,5313	3,25448823
3	0	20707,0313	3,25467873
3	0	20707,5313	3,25481224
3	0	20708,0313	3,25490761
3	0	20708,5313	3,25515532
3	0	20709,0313	3,25528884
3	0	20709,5313	3,25540328
3	0	20710,0313	3,255651
3	0	20710,5313	3,25576544
3	0	20711,0313	3,2560513
3	0	20711,5313	3,25616574
3	0	20712,0313	3,2563374
3	0	20712,5313	3,2565279
3	0	20713,0313	3,25673771
3	0	20713,5313	3,25692821
3	0	20714,0313	3,25706172
3	0	20714,5313	3,25723338
3	0	20715,0313	3,25744295
3	0	20715,5313	3,25765276
3	0	20716,0313	3,25778604
3	0	20716,5313	3,25803399
3	0	20717,0313	3,25820565
3	0	20717,5313	3,25828171
3	0	20718,0313	3,2586441
3	0	20718,5313	3,25875831
3	0	20719,0313	3,25898719
3	0	20719,5313	3,25892997
3	0	20720,0313	3,25915885
3	0	20720,5313	3,25933027
3	0	20721,0313	3,25957823
3	0	20721,5313	3,25969243
3	0	20722,0313	3,25995946
3	0	20722,5313	3,26001668
3	0	20723,0313	3,2602644
3	0	20723,5313	3,26039791
3	0	20724,0313	3,26049328
3	0	20724,5313	3,26072192
3	0	20725,0313	3,26087451
3	0	20725,5313	3,26100802
3	0	20726,0313	3,26131296
3	0	20726,5313	3,2614274
3	0	20727,0313	3,2616179
3	0	20727,5313	3,26177049
3	0	20728,0313	3,26180863
3	0	20728,5313	3,26207542
3	0	20729,0313	3,26232338
3	0	20729,5313	3,26236153
3	0	20730,0313	3,26262832
3	0	20730,5313	3,2627809
3	0	20731,0313	3,26291418
3	0	20731,5313	3,26308584
3	0	20732,0313	3,26327658
3	0	20732,5313	3,263448
3	0	20733,0313	3,26369596
3	0	20733,5313	3,26379108
3	0	20734,0313	3,26390553
3	0	20734,5313	3,26417255
3	0	20735,0313	3,26428676
3	0	20735,5313	3,26449656
3	0	20736,0313	3,26455379
3	0	20736,5313	3,26464915
3	0	20737,0313	3,26474428
3	0	20737,5313	3,26504946
3	0	20738,0313	3,26529717
3	0	20738,5313	3,26535439
3	0	20739,0313	3,26546884
3	0	20739,5313	3,26569748
3	0	20740,0313	3,26596451
3	0	20740,5313	3,26600266
3	0	20741,0313	3,266155
3	0	20741,5313	3,26626945
3	0	20742,0313	3,26647925
3	0	20742,5313	3,26668882
3	0	20743,0313	3,26676512
3	0	20743,5313	3,26701283
3	0	20744,0313	3,26712728
3	0	20744,5313	3,26731801
3	0	20745,0313	3,26750851
3	0	20745,5313	3,26752758
3	0	20746,0313	3,26779461
3	0	20746,5313	3,26788998
3	0	20747,0313	3,2680614
3	0	20747,5313	3,26819491
3	0	20748,0313	3,26848078
3	0	20748,5313	3,26855707
3	0	20749,0313	3,26861429
3	0	20749,5313	3,2689383
3	0	20750,0313	3,26905274
3	0	20750,5313	3,26914811
3	0	20751,0313	3,26937675
3	0	20751,5313	3,26954842
3	0	20752,0313	3,26966286
3	0	20752,5313	3,26983428
3	0	20753,0313	3,26985335
3	0	20753,5313	3,27012038
3	0	20754,0313	3,27032995
3	0	20754,5313	3,27029181
3	0	20755,0313	3,27063513
3	0	20755,5313	3,27067327
3	0	20756,0313	3,2708447
3	0	20756,5313	3,27109265
3	0	20757,0313	3,2711308
3	0	20757,5313	3,2713213
3	0	20758,0313	3,27156925
3	0	20758,5313	3,27170253
3	0	20759,0313	3,27177882
3	0	20759,5313	3,27195048
3	0	20760,0313	3,27216005
3	0	20760,5313	3,27223635
3	0	20761,0313	3,27242708
3	0	20761,5313	3,27257943
3	0	20762,0313	3,27273202
3	0	20762,5313	3,27290368
3	0	20763,0313	3,27297997
3	0	20763,5313	3,2731514
3	0	20764,0313	3,27336121
3	0	20764,5313	3,27345634
3	0	20765,0313	3,27360892
3	0	20765,5313	3,27378058
3	0	20766,0313	3,27376151
3	0	20766,5313	3,27400923
3	0	20767,0313	3,27425718
3	0	20767,5313	3,27435255
3	0	20768,0313	3,27454305
3	0	20768,5313	3,274791
3	0	20769,0313	3,2749052
3	0	20769,5313	3,2749815
3	0	20770,0313	3,2749815
3	0	20770,5313	3,27519131
3	0	20771,0313	3,27547717
3	0	20771,5313	3,27547717
3	0	20772,0313	3,27572513
3	0	20772,5313	3,27578211
3	0	20773,0313	3,27601099
3	0	20773,5313	3,27618265
3	0	20774,0313	3,27627778
3	0	20774,5313	3,27646852
3	0	20775,0313	3,27660203
3	0	20775,5313	3,27675438
3	0	20776,0313	3,27684975
3	0	20776,5313	3,27704048
3	0	20777,0313	3,2772119
3	0	20777,5313	3,2772882
3	0	20778,0313	3,27744079
3	0	20778,5313	3,27759337
3	0	20779,0313	3,2777648
3	0	20779,5313	3,27799368
3	0	20780,0313	3,27808881
3	0	20780,5313	3,27822232
3	0	20781,0313	3,27837491
3	0	20781,5313	3,2784512
3	0	20782,0313	3,27862263
3	0	20782,5313	3,27869892
3	0	20783,0313	3,27885151
3	0	20783,5313	3,27894688
3	0	20784,0313	3,27915645
3	0	20784,5313	3,27930903
3	0	20785,0313	3,27934718
3	0	20785,5313	3,27965212
3	0	20786,0313	3,27974749
3	0	20786,5313	3,27986193
3	0	20787,0313	3,27993798
3	0	20787,5313	3,2800715
3	0	20788,0313	3,28024316
3	0	20788,5313	3,2803576
3	0	20789,0313	3,28060532
3	0	20789,5313	3,28064346
3	0	20790,0313	3,28083396
3	0	20790,5313	3,28089118
3	0	20791,0313	3,28113914
3	0	20791,5313	3,28127265
3	0	20792,0313	3,28125358
3	0	20792,5313	3,28146315
3	0	20793,0313	3,2817111
3	0	20793,5313	3,28193974
3	0	20794,0313	3,28197789
3	0	20794,5313	3,28207326
3	0	20795,0313	3,28216863
3	0	20795,5313	3,28241634
3	0	20796,0313	3,28245449
3	0	20796,5313	3,2826643
3	0	20797,0313	3,28274035
3	0	20797,5313	3,28283572
3	0	20798,0313	3,28308368
3	0	20798,5313	3,28310275
3	0	20799,0313	3,28331232
3	0	20799,5313	3,28352213
3	0	20800,0313	3,28359818
3	0	20800,5313	3,28369355
3	0	20801,0313	3,28384614
3	0	20801,5313	3,28399873
3	0	20802,0313	3,28424644
3	0	20802,5313	3,28422737
3	0	20803,0313	3,28441811
3	0	20803,5313	3,28447533
3	0	20804,0313	3,2846849
3	0	20804,5313	3,28481841
3	0	20805,0313	3,28491378
3	0	20805,5313	3,28495193
3	0	20806,0313	3,28519964
3	0	20806,5313	3,28529501
3	0	20807,0313	3,28550458
3	0	20807,5313	3,28554273
3	0	20808,0313	3,28582883
3	0	20808,5313	3,28586698
3	0	20809,0313	3,28601933
3	0	20809,5313	3,28607655
3	0	20810,0313	3,28624821
3	0	20810,5313	3,2864387
3	0	20811,0313	3,28657222
3	0	20811,5313	3,28670573
3	0	20812,0313	3,28678203
3	0	20812,5313	3,28678203
3	0	20813,0313	3,28706789
3	0	20813,5313	3,28714418
3	0	20814,0313	3,28725863
3	0	20814,5313	3,28744912
3	0	20815,0313	3,28758264
3	0	20815,5313	3,28773522
3	0	20816,0313	3,28779221
3	0	20816,5313	3,28792572
3	0	20817,0313	3,2881546
3	0	20817,5313	3,28817368
3	0	20818,0313	3,28842139
3	0	20818,5313	3,2883451
3	0	20819,0313	3,28857398
3	0	20819,5313	3,28870726
3	0	20820,0313	3,28885984
3	0	20820,5313	3,28899336
3	0	20821,0313	3,28912663
3	0	20821,5313	3,289222
3	0	20822,0313	3,28931737
3	0	20822,5313	3,28939366
3	0	20823,0313	3,28962231
3	0	20823,5313	3,28971767
3	0	20824,0313	3,28994656
3	0	20824,5313	3,28990841
3	0	20825,0313	3,29015613
3	0	20825,5313	3,29028964
3	0	20826,0313	3,29036593
3	0	20826,5313	3,2905755
3	0	20827,0313	3,29059458
3	0	20827,5313	3,29074717
3	0	20828,0313	3,29091883
3	0	20828,5313	3,29107118
3	0	20829,0313	3,29114747
3	0	20829,5313	3,29114747
3	0	20830,0313	3,29143333
3	0	20830,5313	3,29145241
3	0	20831,0313	3,29164314
3	0	20831,5313	3,29175758
3	0	20832,0313	3,29185295
3	0	20832,5313	3,29215789
3	0	20833,0313	3,29206252
3	0	20833,5313	3,29223418
3	0	20834,0313	3,29236746
3	0	20834,5313	3,29250097
3	0	20835,0313	3,29261541
3	0	20835,5313	3,29280615
3	0	20836,0313	3,29284406
3	0	20836,5313	3,29309201
3	0	20837,0313	3,29328251
3	0	20837,5313	3,29314923
3	0	20838,0313	3,29333973
3	0	20838,5313	3,29347324
3	0	20839,0313	3,29360676
3	0	20839,5313	3,29368305
3	0	20840,0313	3,29393077
3	0	20840,5313	3,29393077
3	0	20841,0313	3,29410243
3	0	20841,5313	3,29425478
3	0	20842,0313	3,29435015
3	0	20842,5313	3,29438829
3	0	20843,0313	3,29465508
3	0	20843,5313	3,29476953
3	0	20844,0313	3,29480767
3	0	20844,5313	3,29496026
3	0	20845,0313	3,29509377
3	0	20845,5313	3,29520798
3	0	20846,0313	3,29528427
3	0	20846,5313	3,29539871
3	0	20847,0313	3,29558921
3	0	20847,5313	3,29564643
3	0	20848,0313	3,29577994
3	0	20848,5313	3,29587531
3	0	20849,0313	3,2960279
3	0	20849,5313	3,29616117
3	0	20850,0313	3,29619932
3	0	20850,5313	3,29646635
3	0	20851,0313	3,29650426
3	0	20851,5313	3,29665685
3	0	20852,0313	3,29682851
3	0	20852,5313	3,29671407
3	0	20853,0313	3,29692388
3	0	20853,5313	3,29713345
3	0	20854,0313	3,29722881
3	0	20854,5313	3,29722881
3	0	20855,0313	3,29741931
3	0	20855,5313	3,29768634
3	0	20856,0313	3,29780078
3	0	20856,5313	3,29778171
3	0	20857,0313	3,29778171
3	0	20857,5313	3,2979722
3	0	20858,0313	3,29818201
3	0	20858,5313	3,29831553
3	0	20859,0313	3,29837251
3	0	20859,5313	3,29848695
3	0	20860,0313	3,29858232
3	0	20860,5313	3,29865861
3	0	20861,0313	3,2989254
3	0	20861,5313	3,2989254
3	0	20862,0313	3,29905891
3	0	20862,5313	3,29923058
3	0	20863,0313	3,29934478
3	0	20863,5313	3,299402
3	0	20864,0313	3,29953551
3	0	20864,5313	3,29970717
3	0	20865,0313	3,29984045
3	0	20865,5313	3,29997396
3	0	20866,0313	3,30008841
3	0	20866,5313	3,30006933
3	0	20867,0313	3,3001647
3	0	20867,5313	3,30029798
3	0	20868,0313	3,30043149
3	0	20868,5313	3,300565
3	0	20869,0313	3,30073643
3	0	20869,5313	3,30088902
3	0	20870,0313	3,30098438
3	0	20870,5313	3,30096531
3	0	20871,0313	3,30111766
3	0	20871,5313	3,30109882
3	0	20872,0313	3,30132747
3	0	20872,5313	3,30138469
3	0	20873,0313	3,30159426
3	0	20873,5313	3,30167055
3	0	20874,0313	3,30184221
3	0	20874,5313	3,30186129
3	0	20875,0313	3,30207086
3	0	20875,5313	3,30214715
3	0	20876,0313	3,30237603
3	0	20876,5313	3,30228066
3	0	20877,0313	3,3025856
3	0	20877,5313	3,30260468
3	0	20878,0313	3,30271912
3	0	20878,5313	3,30281448
3	0	20879,0313	3,30294776
3	0	20879,5313	3,30308127
3	0	20880,0313	3,30313849
3	0	20880,5313	3,30327201
3	0	20881,0313	3,30331016
3	0	20881,5313	3,30346251
3	0	20882,0313	3,30351973
3	0	20882,5313	3,30369139
3	0	20883,0313	3,30380583
3	0	20883,5313	3,30395818
3	0	20884,0313	3,30405354
3	0	20884,5313	3,30412984
3	0	20885,0313	3,30424428
3	0	20885,5313	3,3043015
3	0	20886,0313	3,30447292
3	0	20886,5313	3,30472088
3	0	20887,0313	3,30468273
3	0	20887,5313	3,30491138
3	0	20888,0313	3,30487323
3	0	20888,5313	3,30502582
3	0	20889,0313	3,30502582
3	0	20889,5313	3,30515933
3	0	20890,0313	3,30540705
3	0	20890,5313	3,30546427
3	0	20891,0313	3,30548334
3	0	20891,5313	3,305655
3	0	20892,0313	3,30578828
3	0	20892,5313	3,30594087
3	0	20893,0313	3,30582643
3	0	20893,5313	3,3061316
3	0	20894,0313	3,3061316
3	0	20894,5313	3,30630302
3	0	20895,0313	3,30641747
3	0	20895,5313	3,30647469
3	0	20896,0313	3,30664611
3	0	20896,5313	3,3067224
3	0	20897,0313	3,30685592
3	0	20897,5313	3,30691314
3	0	20898,0313	3,30716085
3	0	20898,5313	3,30712271
3	0	20899,0313	3,30725622
3	0	20899,5313	3,30740881
3	0	20900,0313	3,30752325
3	0	20900,5313	3,30759931
3	0	20901,0313	3,30765653
3	0	20901,5313	3,30786633
3	0	20902,0313	3,30786633
3	0	20902,5313	3,3079617
3	0	20903,0313	3,30805683
3	0	20903,5313	3,30828571
3	0	20904,0313	3,30841923
3	0	20904,5313	3,30836201
3	0	20905,0313	3,30845737
3	0	20905,5313	3,30859065
3	0	20906,0313	3,30864787
3	0	20906,5313	3,30878139
3	0	20907,0313	3,30889583
3	0	20907,5313	3,30906725
3	0	20908,0313	3,30916262
3	0	20908,5313	3,30925798
3	0	20909,0313	3,3093915
3	0	20909,5313	3,3095057
3	0	20910,0313	3,30956292
3	0	20910,5313	3,30969644
3	0	20911,0313	3,30990601
3	0	20911,5313	3,30977273
3	0	20912,0313	3,3099823
3	0	20912,5313	3,31017303
3	0	20913,0313	3,31015396
3	0	20913,5313	3,31028748
3	0	20914,0313	3,31036353
3	0	20914,5313	3,31053519
3	0	20915,0313	3,31053519
3	0	20915,5313	3,31068778
3	0	20916,0313	3,31068778
3	0	20916,5313	3,31087828
3	0	20917,0313	3,31099272
3	0	20917,5313	3,31108809
3	0	20918,0313	3,31118345
3	0	20918,5313	3,31145024
3	0	20919,0313	3,31135488
3	0	20919,5313	3,31152654
3	0	20920,0313	3,31156468
3	0	20920,5313	3,31166005
3	0	20921,0313	3,31179333
3	0	20921,5313	3,31188869
3	0	20922,0313	3,3120985
3	0	20922,5313	3,31221271
3	0	20923,0313	3,31217456
3	0	20923,5313	3,31226993
3	0	20924,0313	3,31261325
3	0	20924,5313	3,31251788
3	0	20925,0313	3,31259418
3	0	20925,5313	3,31272745
3	0	20926,0313	3,31282282
3	0	20926,5313	3,31291819
3	0	20927,0313	3,31307077
3	0	20927,5313	3,3130517
3	0	20928,0313	3,31322312
3	0	20928,5313	3,31322312
3	0	20929,0313	3,31349015
3	0	20929,5313	3,31347108
3	0	20930,0313	3,31354713
3	0	20930,5313	3,31375694
3	0	20931,0313	3,31375694
3	0	20931,5313	3,3139286
3	0	20932,0313	3,31396675
3	0	20932,5313	3,31417632
3	0	20933,0313	3,31415725
3	0	20933,5313	3,31429076
3	0	20934,0313	3,31444335
3	0	20934,5313	3,31461477
3	0	20935,0313	3,31453848
3	0	20935,5313	3,31455755
3	0	20936,0313	3,31480551
3	0	20936,5313	3,31490088
3	0	20937,0313	3,31495786
3	0	20937,5313	3,31509137
3	0	20938,0313	3,31518674
3	0	20938,5313	3,31532025
3	0	20939,0313	3,31539631
3	0	20939,5313	3,31551075
3	0	20940,0313	3,31556797
3	0	20940,5313	3,31579685
3	0	20941,0313	3,31573963
3	0	20941,5313	3,31587291
3	0	20942,0313	3,31598735
3	0	20942,5313	3,31617808
3	0	20943,0313	3,31619716
3	0	20943,5313	3,31634951
3	0	20944,0313	3,31640673
3	0	20944,5313	3,31652117
3	0	20945,0313	3,31655931
3	0	20945,5313	3,3167119
3	0	20946,0313	3,3167119
3	0	20946,5313	3,31686425
3	0	20947,0313	3,31701684
3	0	20947,5313	3,31705499
3	0	20948,0313	3,31701684
3	0	20948,5313	3,3171885
3	0	20949,0313	3,31735992
3	0	20949,5313	3,31747437
3	0	20950,0313	3,31756973
3	0	20950,5313	3,31768417
3	0	20951,0313	3,31772208
3	0	20951,5313	3,31791282
3	0	20952,0313	3,31804633
3	0	20952,5313	3,31795096
3	0	20953,0313	3,31810355
3	0	20953,5313	3,3181417
3	0	20954,0313	3,31819868
3	0	20954,5313	3,31837034
3	0	20955,0313	3,31850386
3	0	20955,5313	3,31858015
3	0	20956,0313	3,31863713
3	0	20956,5313	3,31878972
3	0	20957,0313	3,31882787
3	0	20957,5313	3,31888509
3	0	20958,0313	3,31899953
3	0	20958,5313	3,31907558
3	0	20959,0313	3,31917095
3	0	20959,5313	3,31945705
3	0	20960,0313	3,31941891
3	0	20960,5313	3,31947613
3	0	20961,0313	3,3196094
3	0	20961,5313	3,31972384
3	0	20962,0313	3,31980014
3	0	20962,5313	3,31983829
3	0	20963,0313	3,31987643
3	0	20963,5313	3,31999087
3	0	20964,0313	3,32018137
3	0	20964,5313	3,32029581
3	0	20965,0313	3,32029581
3	0	20965,5313	3,32050538
3	0	20966,0313	3,32052445
3	0	20966,5313	3,32058167
3	0	20967,0313	3,32071519
3	0	20967,5313	3,32075334
3	0	20968,0313	3,32090592
3	0	20968,5313	3,32100105
3	0	20969,0313	3,32100105
3	0	20969,5313	3,32113457
3	0	20970,0313	3,32117271
3	0	20970,5313	3,32130623
3	0	20971,0313	3,32130623
3	0	20971,5313	3,32153487
3	0	20972,0313	3,32174468
3	0	20972,5313	3,32170653
3	0	20973,0313	3,32176375
3	0	20973,5313	3,32185888
3	0	20974,0313	3,32195425
3	0	20974,5313	3,32197332
3	0	20975,0313	3,32220221
3	0	20975,5313	3,3222785
3	0	20976,0313	3,32231641
3	0	20976,5313	3,3223927
3	0	20977,0313	3,32254529
3	0	20977,5313	3,32265973
3	0	20978,0313	3,32265973
3	0	20978,5313	3,32279301
3	0	20979,0313	3,32290745
3	0	20979,5313	3,32298374
3	0	20980,0313	3,32302189
3	0	20980,5313	3,3231554
3	0	20981,0313	3,32323146
3	0	20981,5313	3,32332683
3	0	20982,0313	3,32332683
3	0	20982,5313	3,32347941
3	0	20983,0313	3,32346034
3	0	20983,5313	3,32370806
3	0	20984,0313	3,32376528
3	0	20984,5313	3,32395601
3	0	20985,0313	3,32401323
3	0	20985,5313	3,32407045
3	0	20986,0313	3,32412767
3	0	20986,5313	3,32424188
3	0	20987,0313	3,32428002
3	0	20987,5313	3,32437539
3	0	20988,0313	3,32447076
3	0	20988,5313	3,32450891
3	0	20989,0313	3,32460427
3	0	20989,5313	3,32479477
3	0	20990,0313	3,32485199
3	0	20990,5313	3,32483292
3	0	20991,0313	3,32490921
3	0	20991,5313	3,32511878
3	0	20992,0313	3,32511878
3	0	20992,5313	3,32529044
3	0	20993,0313	3,32534766
3	0	20993,5313	3,32532859
3	0	20994,0313	3,32555723
3	0	20994,5313	3,32567167
3	0	20995,0313	3,3256526
3	0	20995,5313	3,32574797
3	0	20996,0313	3,32582426
3	0	20996,5313	3,32609105
3	0	20997,0313	3,32607198
3	0	20997,5313	3,32620549
3	0	20998,0313	3,32614827
3	0	20998,5313	3,32630086
3	0	20999,0313	3,32647228
3	0	20999,5313	3,32649136
3	0	21000,0313	3,32670116
3	0	21000,5313	3,32662487
3	0	21001,0313	3,32673931
3	0	21001,5313	3,32687283
3	0	21002,0313	3,32692981
3	0	21002,5313	3,32696795
3	0	21003,0313	3,32706332
3	0	21003,5313	3,3273685
3	0	21004,0313	3,32717776
3	0	21004,5313	3,32733035
3	0	21005,0313	3,32750177
3	0	21005,5313	3,32759714
3	0	21006,0313	3,32755899
3	0	21006,5313	3,32774973
3	0	21007,0313	3,32784486
3	0	21007,5313	3,32786393
3	0	21008,0313	3,32797837
3	0	21008,5313	3,32803559
3	0	21009,0313	3,32803559
3	0	21009,5313	3,3282454
3	0	21010,0313	3,32828355
3	0	21010,5313	3,32847404
3	0	21011,0313	3,32845497
3	0	21011,5313	3,32855034
3	0	21012,0313	3,32855034
3	0	21012,5313	3,32875991
3	0	21013,0313	3,3288362
3	0	21013,5313	3,3289125
3	0	21014,0313	3,32887435
3	0	21014,5313	3,32914138
3	0	21015,0313	3,32906508
3	0	21015,5313	3,32917953
3	0	21016,0313	3,3293891
3	0	21016,5313	3,32942724
3	0	21017,0313	3,32944632
3	0	21017,5313	3,32954168
3	0	21018,0313	3,32963705
3	0	21018,5313	3,32982755
3	0	21019,0313	3,32986569
3	0	21019,5313	3,32996106
3	0	21020,0313	3,32994199
3	0	21020,5313	3,32996106
3	0	21021,0313	3,3301897
3	0	21021,5313	3,33028507
3	0	21022,0313	3,3301897
3	0	21022,5313	3,33038044
3	0	21023,0313	3,33041859
3	0	21023,5313	3,3306663
3	0	21024,0313	3,33062816
3	0	21024,5313	3,33087611
3	0	21025,0313	3,33070445
3	0	21025,5313	3,33093333
3	0	21026,0313	3,33104777
3	0	21026,5313	3,33108568
3	0	21027,0313	3,33110476
3	0	21027,5313	3,33120012
3	0	21028,0313	3,33123827
3	0	21028,5313	3,3315053
3	0	21029,0313	3,33160043
3	0	21029,5313	3,33154321
3	0	21030,0313	3,33158135
3	0	21030,5313	3,33175302
3	0	21031,0313	3,33177209
3	0	21031,5313	3,33184838
3	0	21032,0313	3,3319056
3	0	21032,5313	3,33201981
3	0	21033,0313	3,33213425
3	0	21033,5313	3,33215332
3	0	21034,0313	3,33222961
3	0	21034,5313	3,3323822
3	0	21035,0313	3,33243918
3	0	21035,5313	3,33251548
3	0	21036,0313	3,33259177
3	0	21036,5313	3,33253455
3	0	21037,0313	3,33278251
3	0	21037,5313	3,33287787
3	0	21038,0313	3,33289695
3	0	21038,5313	3,33301115
3	0	21039,0313	3,33303022
3	0	21039,5313	3,33318281
3	0	21040,0313	3,33316374
3	0	21040,5313	3,33337331
3	0	21041,0313	3,33335447
3	0	21041,5313	3,33343053
3	0	21042,0313	3,33356404
3	0	21042,5313	3,33369756
3	0	21043,0313	3,33377385
3	0	21043,5313	3,33383083
3	0	21044,0313	3,33384991
3	0	21044,5313	3,33402157
3	0	21045,0313	3,33417416
3	0	21045,5313	3,33417416
3	0	21046,0313	3,33428836
3	0	21046,5313	3,33423138
3	0	21047,0313	3,33438373
3	0	21047,5313	3,33438373
3	0	21048,0313	3,33461261
3	0	21048,5313	3,33466983
3	0	21049,0313	3,33466983
3	0	21049,5313	3,33482218
3	0	21050,0313	3,33482218
3	0	21050,5313	3,33497477
3	0	21051,0313	3,33497477
3	0	21051,5313	3,33505106
3	0	21052,0313	3,33510828
3	0	21052,5313	3,33537507
3	0	21053,0313	3,33539414
3	0	21053,5313	3,33533692
3	0	21054,0313	3,33556581
3	0	21054,5313	3,33558488
3	0	21055,0313	3,33569908
3	0	21055,5313	3,33571815
3	0	21056,0313	3,33577538
3	0	21056,5313	3,33588982
3	0	21057,0313	3,33590889
3	0	21057,5313	3,33606148
3	0	21058,0313	3,33606148
3	0	21058,5313	3,33617568
3	0	21059,0313	3,3362329
3	0	21059,5313	3,33629012
3	0	21060,0313	3,33638549
3	0	21060,5313	3,33663321
3	0	21061,0313	3,33665228
3	0	21061,5313	3,33667135
3	0	21062,0313	3,33682394
3	0	21062,5313	3,33680487
3	0	21063,0313	3,33690023
3	0	21063,5313	3,3369956
3	0	21064,0313	3,33701468
3	0	21064,5313	3,33724332
3	0	21065,0313	3,33712888
3	0	21065,5313	3,33728147
3	0	21066,0313	3,33739591
3	0	21066,5313	3,33756733
3	0	21067,0313	3,33741498
3	0	21067,5313	3,33756733
3	0	21068,0313	3,3376627
3	0	21068,5313	3,33775806
3	0	21069,0313	3,33773899
3	0	21069,5313	3,33773899
3	0	21070,0313	3,33798671
3	0	21070,5313	3,33804393
3	0	21071,0313	3,33802485
3	0	21071,5313	3,33810115
3	0	21072,0313	3,33833003
3	0	21072,5313	3,3383491
3	0	21073,0313	3,33848238
3	0	21073,5313	3,33850145
3	0	21074,0313	3,33852053
3	0	21074,5313	3,33861589
3	0	21075,0313	3,33871126
3	0	21075,5313	3,33880663
3	0	21076,0313	3,33876848
3	0	21076,5313	3,33890176
3	0	21077,0313	3,3390162
3	0	21077,5313	3,33909249
3	0	21078,0313	3,33924508
3	0	21078,5313	3,33924508
3	0	21079,0313	3,33924508
3	0	21079,5313	3,33932137
3	0	21080,0313	3,33943558
3	0	21080,5313	3,33958817
3	0	21081,0313	3,33966446
3	0	21081,5313	3,33968353
3	0	21082,0313	3,33968353
3	0	21082,5313	3,3397789
3	0	21083,0313	3,33993125
3	0	21083,5313	3,34002662
3	0	21084,0313	3,34004569
3	0	21084,5313	3,3401792
3	0	21085,0313	3,34021735
3	0	21085,5313	3,34035063
3	0	21086,0313	3,34033155
3	0	21086,5313	3,34042692
3	0	21087,0313	3,34048414
3	0	21087,5313	3,34067488
3	0	21088,0313	3,34067488
3	0	21088,5313	3,3406558
3	0	21089,0313	3,34082723
3	0	21089,5313	3,3407321
3	0	21090,0313	3,34088445
3	0	21090,5313	3,34107518
3	0	21091,0313	3,3411324
3	0	21091,5313	3,34111333
3	0	21092,0313	3,34122753
3	0	21092,5313	3,3413229
3	0	21093,0313	3,34141827
3	0	21093,5313	3,34143734
3	0	21094,0313	3,34136105
3	0	21094,5313	3,34166598
3	0	21095,0313	3,34168506
3	0	21095,5313	3,34176135
3	0	21096,0313	3,34181857
3	0	21096,5313	3,34193301
3	0	21097,0313	3,34189487
3	0	21097,5313	3,3420856
3	0	21098,0313	3,34216166
3	0	21098,5313	3,34221888
3	0	21099,0313	3,34225702
3	0	21099,5313	3,3422761
3	0	21100,0313	3,34229517
3	0	21100,5313	3,3425622
3	0	21101,0313	3,34254313
3	0	21101,5313	3,34273362
3	0	21102,0313	3,34273362
3	0	21102,5313	3,34282899
3	0	21103,0313	3,34280992
3	0	21103,5313	3,34292436
3	0	21104,0313	3,34301972
3	0	21104,5313	3,34307671
3	0	21105,0313	3,34319115
3	0	21105,5313	3,34322929
3	0	21106,0313	3,34330559
3	0	21106,5313	3,34340096
3	0	21107,0313	3,34340096
3	0	21107,5313	3,34349632
3	0	21108,0313	3,34359145
3	0	21108,5313	3,34366775
3	0	21109,0313	3,34368682
3	0	21109,5313	3,34380126
3	0	21110,0313	3,3439157
3	0	21110,5313	3,3439157
3	0	21111,0313	3,3440299
3	0	21111,5313	3,34412527
3	0	21112,0313	3,34425879
3	0	21112,5313	3,34423971
3	0	21113,0313	3,34427786
3	0	21113,5313	3,34423971
3	0	21114,0313	3,34444928
3	0	21114,5313	3,34454465
3	0	21115,0313	3,34464002
3	0	21115,5313	3,34462094
3	0	21116,0313	3,3447926
3	0	21116,5313	3,34492588
3	0	21117,0313	3,34483075
3	0	21117,5313	3,34492588
3	0	21118,0313	3,34496403
3	0	21118,5313	3,34509754
3	0	21119,0313	3,34505939
3	0	21119,5313	3,34519291
3	0	21120,0313	3,34536433
3	0	21120,5313	3,34542155
3	0	21121,0313	3,3454597
3	0	21121,5313	3,34551692
3	0	21122,0313	3,34555507
3	0	21122,5313	3,34559321
3	0	21123,0313	3,34570765
3	0	21123,5313	3,34576488
3	0	21124,0313	3,34576488
3	0	21124,5313	3,34591722
3	0	21125,0313	3,34601259
3	0	21125,5313	3,34612703
3	0	21126,0313	3,34616518
3	0	21126,5313	3,34616518
3	0	21127,0313	3,34624147
3	0	21127,5313	3,34626055
3	0	21128,0313	3,3463366
3	0	21128,5313	3,34652734
3	0	21129,0313	3,34660363
3	0	21129,5313	3,346699
3	0	21130,0313	3,34662271
3	0	21130,5313	3,34675598
3	0	21131,0313	3,3468895
3	0	21131,5313	3,34687042
3	0	21132,0313	3,34698486
3	0	21132,5313	3,34702301
3	0	21133,0313	3,34708023
3	0	21133,5313	3,3471756
3	0	21134,0313	3,3472898
3	0	21134,5313	3,34723258
3	0	21135,0313	3,34738517
3	0	21135,5313	3,34748054
3	0	21136,0313	3,3475759
3	0	21136,5313	3,34755683
3	0	21137,0313	3,3475759
3	0	21137,5313	3,34778547
3	0	21138,0313	3,34770918
3	0	21138,5313	3,34784269
3	0	21139,0313	3,34793806
3	0	21139,5313	3,34789991
3	0	21140,0313	3,34809065
3	0	21140,5313	3,34814763
3	0	21141,0313	3,34820485
3	0	21141,5313	3,34822392
3	0	21142,0313	3,34839559
3	0	21142,5313	3,34833837
3	0	21143,0313	3,34858608
3	0	21143,5313	3,3485291
3	0	21144,0313	3,34856725
3	0	21144,5313	3,34870052
3	0	21145,0313	3,34875774
3	0	21145,5313	3,34875774
3	0	21146,0313	3,34885311
3	0	21146,5313	3,34891033
3	0	21147,0313	3,34906268
3	0	21147,5313	3,34908175
3	0	21148,0313	3,34913898
3	0	21148,5313	3,34915805
3	0	21149,0313	3,3491962
3	0	21149,5313	3,34934878
3	0	21150,0313	3,34932971
3	0	21150,5313	3,34938693
3	0	21151,0313	3,34950113
3	0	21151,5313	3,34961557
3	0	21152,0313	3,34963465
3	0	21152,5313	3,34978724
3	0	21153,0313	3,3498826
3	0	21153,5313	3,34986353
3	0	21154,0313	3,34992075
3	0	21154,5313	3,3498826
3	0	21155,0313	3,35016847
3	0	21155,5313	3,35016847
3	0	21156,0313	3,35024476
3	0	21156,5313	3,35030198
3	0	21157,0313	3,3504734
3	0	21157,5313	3,35037827
3	0	21158,0313	3,35049248
3	0	21158,5313	3,3505497
3	0	21159,0313	3,3505497
3	0	21159,5313	3,35058784
3	0	21160,0313	3,35079765
3	0	21160,5313	3,35091186
3	0	21161,0313	3,35091186
3	0	21161,5313	3,35091186
3	0	21162,0313	3,35093093
3	0	21162,5313	3,35100722
3	0	21163,0313	3,35108352
3	0	21163,5313	3,35133147
3	0	21164,0313	3,35133147
3	0	21164,5313	3,3512361
3	0	21165,0313	3,35133147
3	0	21165,5313	3,3515029
3	0	21166,0313	3,35148382
3	0	21166,5313	3,35167456
3	0	21167,0313	3,351789
3	0	21167,5313	3,35173178
3	0	21168,0313	3,351789
3	0	21168,5313	3,35188413
3	0	21169,0313	3,35197949
3	0	21169,5313	3,35197949
3	0	21170,0313	3,35211301
3	0	21170,5313	3,35209394
3	0	21171,0313	3,35226536
3	0	21171,5313	3,35222745
3	0	21172,0313	3,35234165
3	0	21172,5313	3,35236073
3	0	21173,0313	3,35241795
3	0	21173,5313	3,35243702
3	0	21174,0313	3,35258961
3	0	21174,5313	3,35264683
3	0	21175,0313	3,35264683
3	0	21175,5313	3,35276103
3	0	21176,0313	3,35293269
3	0	21176,5313	3,35293269
3	0	21177,0313	3,35302806
3	0	21177,5313	3,35304713
3	0	21178,0313	3,35308528
3	0	21178,5313	3,35318041
3	0	21179,0313	3,35331392
3	0	21179,5313	3,35331392
3	0	21180,0313	3,35337114
3	0	21180,5313	3,35342836
3	0	21181,0313	3,35335207
3	0	21181,5313	3,35348558
3	0	21182,0313	3,35358095
3	0	21182,5313	3,35375237
3	0	21183,0313	3,35369515
3	0	21183,5313	3,35384774
3	0	21184,0313	3,35382867
3	0	21184,5313	3,35405755
3	0	21185,0313	3,3540194
3	0	21185,5313	3,35405755
3	0	21186,0313	3,35407662
3	0	21186,5313	3,35415268
3	0	21187,0313	3,35430527
3	0	21187,5313	3,35430527
3	0	21188,0313	3,35443878
3	0	21188,5313	3,35441971
3	0	21189,0313	3,35459113
3	0	21189,5313	3,35457206
3	0	21190,0313	3,3546865
3	0	21190,5313	3,35476279
3	0	21191,0313	3,35476279
3	0	21191,5313	3,35485816
3	0	21192,0313	3,35487723
3	0	21192,5313	3,35493445
3	0	21193,0313	3,35495353
3	0	21193,5313	3,35514402
3	0	21194,0313	3,35525846
3	0	21194,5313	3,35520124
3	0	21195,0313	3,35523939
3	0	21195,5313	3,35522032
3	0	21196,0313	3,35558248
3	0	21196,5313	3,35546827
3	0	21197,0313	3,3555634
3	0	21197,5313	3,35550618
3	0	21198,0313	3,3556397
3	0	21198,5313	3,35569692
3	0	21199,0313	3,35579228
3	0	21199,5313	3,35583043
3	0	21200,0313	3,3559258
3	0	21200,5313	3,35594463
3	0	21201,0313	3,35604
3	0	21201,5313	3,35609722
3	0	21202,0313	3,35615444
3	0	21202,5313	3,35626888
3	0	21203,0313	3,35619259
3	0	21203,5313	3,3564024
3	0	21204,0313	3,35647845
3	0	21204,5313	3,3564024
3	0	21205,0313	3,35661197
3	0	21205,5313	3,35661197
3	0	21206,0313	3,35668826
3	0	21206,5313	3,35666919
3	0	21207,0313	3,35682178
3	0	21207,5313	3,35682178
3	0	21208,0313	3,35676455
3	0	21208,5313	3,3569932
3	0	21209,0313	3,3569932
3	0	21209,5313	3,35705042
3	0	21210,0313	3,35718393
3	0	21210,5313	3,35716486
3	0	21211,0313	3,35720301
3	0	21211,5313	3,35735536
3	0	21212,0313	3,35741258
3	0	21212,5313	3,35743165
3	0	21213,0313	3,35752702
3	0	21213,5313	3,35758424
3	0	21214,0313	3,35756516
3	0	21214,5313	3,35773683
3	0	21215,0313	3,35783195
3	0	21215,5313	3,35777497
3	0	21216,0313	3,35796547
3	0	21216,5313	3,35788918
3	0	21217,0313	3,35807991
3	0	21217,5313	3,35800362
3	0	21218,0313	3,3581562
3	0	21218,5313	3,35819435
3	0	21219,0313	3,35827041
3	0	21219,5313	3,35825133
3	0	21220,0313	3,35825133
3	0	21220,5313	3,35838485
3	0	21221,0313	3,35859466
3	0	21221,5313	3,35851836
3	0	21222,0313	3,3586328
3	0	21222,5313	3,35861373
3	0	21223,0313	3,35870886
3	0	21223,5313	3,35878515
3	0	21224,0313	3,35888052
3	0	21224,5313	3,35893774
3	0	21225,0313	3,35899496
3	0	21225,5313	3,35903311
3	0	21226,0313	3,35914755
3	0	21226,5313	3,35920453
3	0	21227,0313	3,35916662
3	0	21227,5313	3,35935712
3	0	21228,0313	3,35933805
3	0	21228,5313	3,35945249
3	0	21229,0313	3,35947156
3	0	21229,5313	3,35952878
3	0	21230,0313	3,35950971
3	0	21230,5313	3,35966206
3	0	21231,0313	3,35966206
3	0	21231,5313	3,35987186
3	0	21232,0313	3,35987186
3	0	21232,5313	3,35992908
3	0	21233,0313	3,3600626
3	0	21233,5313	3,36004353
3	0	21234,0313	3,36010051
3	0	21234,5313	3,36015773
3	0	21235,0313	3,3601768
3	0	21235,5313	3,36021495
3	0	21236,0313	3,36044383
3	0	21236,5313	3,36038661
3	0	21237,0313	3,36052012
3	0	21237,5313	3,36057711
3	0	21238,0313	3,36050105
3	0	21238,5313	3,36061525
3	0	21239,0313	3,36067247
3	0	21239,5313	3,36078691
3	0	21240,0313	3,36071062
3	0	21240,5313	3,36084414
3	0	21241,0313	3,36082506
3	0	21241,5313	3,36097765
3	0	21242,0313	3,36097765
3	0	21242,5313	3,36103463
3	0	21243,0313	3,36114907
3	0	21243,5313	3,36118722
3	0	21244,0313	3,36128259
3	0	21244,5313	3,36122537
3	0	21245,0313	3,36130166
3	0	21245,5313	3,36139703
3	0	21246,0313	3,36145425
3	0	21246,5313	3,36149216
3	0	21247,0313	3,36164474
3	0	21247,5313	3,36168289
3	0	21248,0313	3,36181641
3	0	21248,5313	3,36175919
3	0	21249,0313	3,3618927
3	0	21249,5313	3,36191177
3	0	21250,0313	3,36194968
3	0	21250,5313	3,36210227
3	0	21251,0313	3,36206412
3	0	21251,5313	3,36214042
3	0	21252,0313	3,36219764
3	0	21252,5313	3,36217856
3	0	21253,0313	3,36242628
3	0	21253,5313	3,36240721
3	0	21254,0313	3,3624835
3	0	21254,5313	3,36250257
3	0	21255,0313	3,3624835
3	0	21255,5313	3,36263609
3	0	21256,0313	3,36273146
3	0	21256,5313	3,36271238
3	0	21257,0313	3,36278868
3	0	21257,5313	3,36280775
3	0	21258,0313	3,36290288
3	0	21258,5313	3,36294103
3	0	21259,0313	3,36305547
3	0	21259,5313	3,36301732
3	0	21260,0313	3,36313176
3	0	21260,5313	3,36318898
3	0	21261,0313	3,36328435
3	0	21261,5313	3,36341763
3	0	21262,0313	3,3634367
3	0	21262,5313	3,36334133
3	0	21263,0313	3,36347485
3	0	21263,5313	3,36362743
3	0	21264,0313	3,36360836
3	0	21264,5313	3,36360836
3	0	21265,0313	3,3637228
3	0	21265,5313	3,36379886
3	0	21266,0313	3,36385608
3	0	21266,5313	3,36381793
3	0	21267,0313	3,36395144
3	0	21267,5313	3,36412311
3	0	21268,0313	3,36410403
3	0	21268,5313	3,36406589
3	0	21269,0313	3,3641994
3	0	21269,5313	3,36423755
3	0	21270,0313	3,36423755
3	0	21270,5313	3,36425638
3	0	21271,0313	3,36429453
3	0	21271,5313	3,36444712
3	0	21272,0313	3,36454248