File: Experimentelles/Rohdaten/Batteriemessungen/AlteZelle/Studenten_Batterietests/SemArbeitToph/ECLab-Export/Al_Struktur_01_Laden_IS_02_OCV_C03.mpt
EC-Lab ASCII FILE
Nb header lines : 43

Open Circuit Voltage

Run on channel : 3 (SN 6987)
Grouped channel(s) : 3
User :
CE vs. WE compliance from -10 V to 10 V
Electrode connection : standard
Ewe ctrl range : min = -10,00 V, max = 10,00 V
Acquisition started on : 03.16.2015 13:07:36
Saved on :
	File : Al_Struktur_01_Laden_IS_02_OCV_C03.mpr
	Directory : C:\Hupfer\Studenten Batterietests\SemArbeitToph\
	Host : 192.168.0.2
Device : VMP3 (SN 0324)
Address : 192.168.0.1
EC-Lab for windows v10.33 (software)
Internet server v10.33 (firmware)
Command interpretor v10.32 (firmware)
Electrode material :
Initial state :
Electrolyte :
Comments :
Mass of active material : 0,001 mg
 at x = 0,000
Molecular weight of active material (at x = 0) : 0,001 g/mol
Atomic weight of intercalated ion : 0,001 g/mol
Acquisition started at : xo = 0,000
Number of e- transfered per intercalated ion : 1
for DX = 1, DQ = 26,801 mA.h
Battery capacity : 0,000 A.h
Electrode surface area : 0,001 cm²
Characteristic mass : 0,001 g
tR (h:m:s)          0:10:0,0000
dER/dt (mV/h)       1,0
dER (mV)            1,00
dtR (s)             0,5000
E range min (V)     -10,000
E range max (V)     10,000

mode	error	time/s	Ewe/V
3	0	12185,5582	4,19946098
3	0	12186,0582	4,19906044
3	0	12186,5582	4,19888878
3	0	12187,0582	4,1986413
3	0	12187,5582	4,19850779
3	0	12188,0582	4,19829798
3	0	12188,5582	4,19820261
3	0	12189,0582	4,19793558
3	0	12189,5582	4,19780254
3	0	12190,0582	4,1976881
3	0	12190,5582	4,19753551
3	0	12191,0582	4,19744015
3	0	12191,5582	4,19717312
3	0	12192,0582	4,1971159
3	0	12192,5582	4,19683027
3	0	12193,0582	4,19684935
3	0	12193,5582	4,19671583
3	0	12194,0582	4,19660139
3	0	12194,5582	4,19631529
3	0	12195,0582	4,19625807
3	0	12195,5582	4,19602919
3	0	12196,0582	4,19589615
3	0	12196,5582	4,19576263
3	0	12197,0582	4,19562912
3	0	12197,5582	4,19547653
3	0	12198,0582	4,19534302
3	0	12198,5582	4,19524765
3	0	12199,0582	4,19505739
3	0	12199,5582	4,19496202
3	0	12200,0582	4,19479036
3	0	12200,5582	4,19471407
3	0	12201,0582	4,19452333
3	0	12201,5582	4,19450426
3	0	12202,0582	4,19429445
3	0	12202,5582	4,19419909
3	0	12203,0582	4,19400883
3	0	12203,5582	4,19389439
3	0	12204,0582	4,19360828
3	0	12204,5582	4,19357014
3	0	12205,0582	4,19347477
3	0	12205,5582	4,19336033
3	0	12206,0582	4,19313192
3	0	12206,5582	4,1930747
3	0	12207,0582	4,19292212
3	0	12207,5582	4,19286489
3	0	12208,0582	4,19271231
3	0	12208,5582	4,19255972
3	0	12209,0582	4,1924262
3	0	12209,5582	4,19225502
3	0	12210,0582	4,19225502
3	0	12210,5582	4,19212151
3	0	12211,0582	4,19194984
3	0	12211,5582	4,19189262
3	0	12212,0582	4,19166374
3	0	12212,5582	4,1915493
3	0	12213,0582	4,19139671
3	0	12213,5582	4,19120646
3	0	12214,0582	4,19114923
3	0	12214,5582	4,19103479
3	0	12215,0582	4,19097757
3	0	12215,5582	4,19076777
3	0	12216,0582	4,1906724
3	0	12216,5582	4,1905961
3	0	12217,0582	4,19044399
3	0	12217,5582	4,19027233
3	0	12218,0582	4,19002438
3	0	12218,5582	4,19015789
3	0	12219,0582	4,18992901
3	0	12219,5582	4,18970013
3	0	12220,0582	4,18975735
3	0	12220,5582	4,18947172
3	0	12221,0582	4,1894145
3	0	12221,5582	4,1894908
3	0	12222,0582	4,18918562
3	0	12222,5582	4,18899488
3	0	12223,0582	4,18891859
3	0	12223,5582	4,18889952
3	0	12224,0582	4,18872786
3	0	12224,5582	4,18851852
3	0	12225,0582	4,18849945
3	0	12225,5582	4,18844223
3	0	12226,0582	4,18830872
3	0	12226,5582	4,18811798
3	0	12227,0582	4,18798447
3	0	12227,5582	4,18794632
3	0	12228,0582	4,18783188
3	0	12228,5582	4,18767977
3	0	12229,0582	4,18746996
3	0	12229,5582	4,18745089
3	0	12230,0582	4,18735552
3	0	12230,5582	4,18706942
3	0	12231,0582	4,18708849
3	0	12231,5582	4,18708849
3	0	12232,0582	4,18697405
3	0	12232,5582	4,18689775
3	0	12233,0582	4,18674564
3	0	12233,5582	4,18651676
3	0	12234,0582	4,18640232
3	0	12234,5582	4,18630695
3	0	12235,0582	4,18607807
3	0	12235,5582	4,18613529
3	0	12236,0582	4,18600178
3	0	12236,5582	4,18586826
3	0	12237,0582	4,18567801
3	0	12237,5582	4,18571615
3	0	12238,0582	4,18556356
3	0	12238,5582	4,18533468
3	0	12239,0582	4,1853919
3	0	12239,5582	4,18531561
3	0	12240,0582	4,18518209
3	0	12240,5582	4,18499136
3	0	12241,0582	4,18495321
3	0	12241,5582	4,18482018
3	0	12242,0582	4,18464851
3	0	12242,5582	4,18453407
3	0	12243,0582	4,18440056
3	0	12243,5582	4,18440056
3	0	12244,0582	4,18424797
3	0	12244,5582	4,18403816
3	0	12245,0582	4,18398142
3	0	12245,5582	4,1838479
3	0	12246,0582	4,18380976
3	0	12246,5582	4,18369532
3	0	12247,0582	4,1836381
3	0	12247,5582	4,18350458
3	0	12248,0582	4,18352365
3	0	12248,5582	4,18329477
3	0	12249,0582	4,18321848
3	0	12249,5582	4,18304729
3	0	12250,0582	4,18293285
3	0	12250,5582	4,18295193
3	0	12251,0582	4,18279934
3	0	12251,5582	4,18272305
3	0	12252,0582	4,18245602
3	0	12252,5582	4,18241787
3	0	12253,0582	4,18237972
3	0	12253,5582	4,18220806
3	0	12254,0582	4,18218899
3	0	12254,5582	4,1820941
3	0	12255,0582	4,18197966
3	0	12255,5582	4,18197966
3	0	12256,0582	4,18171263
3	0	12256,5582	4,18161726
3	0	12257,0582	4,18157911
3	0	12257,5582	4,18152189
3	0	12258,0582	4,1813693
3	0	12258,5582	4,18131208
3	0	12259,0582	4,18117905
3	0	12259,5582	4,18108368
3	0	12260,0582	4,18100739
3	0	12260,5582	4,1808548
3	0	12261,0582	4,18074036
3	0	12261,5582	4,18060684
3	0	12262,0582	4,1805687
3	0	12262,5582	4,18047333
3	0	12263,0582	4,18030214
3	0	12263,5582	4,180264
3	0	12264,0582	4,18020678
3	0	12264,5582	4,18007326
3	0	12265,0582	4,17997789
3	0	12265,5582	4,17984438
3	0	12266,0582	4,17984438
3	0	12266,5582	4,17963457
3	0	12267,0582	4,17959642
3	0	12267,5582	4,17952013
3	0	12268,0582	4,17936802
3	0	12268,5582	4,17929173
3	0	12269,0582	4,17936802
3	0	12269,5582	4,17908192
3	0	12270,0582	4,17904377
3	0	12270,5582	4,17883396
3	0	12271,0582	4,17881489
3	0	12271,5582	4,17870045
3	0	12272,0582	4,17862415
3	0	12272,5582	4,17858601
3	0	12273,0582	4,17854786
3	0	12273,5582	4,17837667
3	0	12274,0582	4,17822409
3	0	12274,5582	4,17826223
3	0	12275,0582	4,17803335
3	0	12275,5582	4,1780715
3	0	12276,0582	4,17797613
3	0	12276,5582	4,17782354
3	0	12277,0582	4,17769003
3	0	12277,5582	4,17769003
3	0	12278,0582	4,1774044
3	0	12278,5582	4,17749977
3	0	12279,0582	4,17749977
3	0	12279,5582	4,17727089
3	0	12280,0582	4,17725182
3	0	12280,5582	4,17709923
3	0	12281,0582	4,17702293
3	0	12281,5582	4,17687035
3	0	12282,0582	4,1768322
3	0	12282,5582	4,17664146
3	0	12283,0582	4,17664146
3	0	12283,5582	4,17656565
3	0	12284,0582	4,17648935
3	0	12284,5582	4,17648935
3	0	12285,0582	4,17635584
3	0	12285,5582	4,17622232
3	0	12286,0582	4,1762414
3	0	12286,5582	4,17605066
3	0	12287,0582	4,175879
3	0	12287,5582	4,17582178
3	0	12288,0582	4,17568874
3	0	12288,5582	4,17561245
3	0	12289,0582	4,17568874
3	0	12289,5582	4,17551708
3	0	12290,0582	4,17547894
3	0	12290,5582	4,1752882
3	0	12291,0582	4,17513561
3	0	12291,5582	4,1750021
3	0	12292,0582	4,17502117
3	0	12292,5582	4,1749258
3	0	12293,0582	4,17494488
3	0	12293,5582	4,1746974
3	0	12294,0582	4,17475462
3	0	12294,5582	4,17454481
3	0	12295,0582	4,17460203
3	0	12295,5582	4,17437315
3	0	12296,0582	4,17427778
3	0	12296,5582	4,17422056
3	0	12297,0582	4,17423964
3	0	12297,5582	4,17408705
3	0	12298,0582	4,17391539
3	0	12298,5582	4,17387724
3	0	12299,0582	4,17385864
3	0	12299,5582	4,17361069
3	0	12300,0582	4,17378235
3	0	12300,5582	4,17362976
3	0	12301,0582	4,17349625
3	0	12301,5582	4,17343903
3	0	12302,0582	4,17336273
3	0	12302,5582	4,17336273
3	0	12303,0582	4,17322922
3	0	12303,5582	4,17311478
3	0	12304,0582	4,17305756
3	0	12304,5582	4,17288637
3	0	12305,0582	4,172791
3	0	12305,5582	4,17271471
3	0	12306,0582	4,17263842
3	0	12306,5582	4,17267656
3	0	12307,0582	4,1725049
3	0	12307,5582	4,17242861
3	0	12308,0582	4,17237139
3	0	12308,5582	4,17223787
3	0	12309,0582	4,17210436
3	0	12309,5582	4,17206621
3	0	12310,0582	4,17202806
3	0	12310,5582	4,17208529
3	0	12311,0582	4,17185688
3	0	12311,5582	4,17179966
3	0	12312,0582	4,17166615
3	0	12312,5582	4,1715517
3	0	12313,0582	4,17157078
3	0	12313,5582	4,17145634
3	0	12314,0582	4,17138004
3	0	12314,5582	4,1712656
3	0	12315,0582	4,17124653
3	0	12315,5582	4,17105627
3	0	12316,0582	4,17107534
3	0	12316,5582	4,17107534
3	0	12317,0582	4,17086554
3	0	12317,5582	4,17078924
3	0	12318,0582	4,17073202
3	0	12318,5582	4,17063665
3	0	12319,0582	4,17059851
3	0	12319,5582	4,17050314
3	0	12320,0582	4,17054129
3	0	12320,5582	4,1703124
3	0	12321,0582	4,17033148
3	0	12321,5582	4,17019796
3	0	12322,0582	4,17014122
3	0	12322,5582	4,17006493
3	0	12323,0582	4,17004585
3	0	12323,5582	4,16983604
3	0	12324,0582	4,16983604
3	0	12324,5582	4,16977882
3	0	12325,0582	4,16958809
3	0	12325,5582	4,16964531
3	0	12326,0582	4,16947365
3	0	12326,5582	4,16937828
3	0	12327,0582	4,16928291
3	0	12327,5582	4,16928291
3	0	12328,0582	4,16909266
3	0	12328,5582	4,16899729
3	0	12329,0582	4,1691308
3	0	12329,5582	4,16901636
3	0	12330,0582	4,16895914
3	0	12330,5582	4,16880655
3	0	12331,0582	4,16869211
3	0	12331,5582	4,16869211
3	0	12332,0582	4,16853952
3	0	12332,5582	4,16850138
3	0	12333,0582	4,16850138
3	0	12333,5582	4,16831112
3	0	12334,0582	4,1682539
3	0	12334,5582	4,16823483
3	0	12335,0582	4,16813946
3	0	12335,5582	4,16806316
3	0	12336,0582	4,16783428
3	0	12336,5582	4,1679678
3	0	12337,0582	4,16785336
3	0	12337,5582	4,16777706
3	0	12338,0582	4,16766262
3	0	12338,5582	4,1676054
3	0	12339,0582	4,167377
3	0	12339,5582	4,16745281
3	0	12340,0582	4,16751003
3	0	12340,5582	4,16735792
3	0	12341,0582	4,16722441
3	0	12341,5582	4,16712904
3	0	12342,0582	4,16716719
3	0	12342,5582	4,16707182
3	0	12343,0582	4,16695738
3	0	12343,5582	4,1670146
3	0	12344,0582	4,16678572
3	0	12344,5582	4,1667285
3	0	12345,0582	4,16663313
3	0	12345,5582	4,16655684
3	0	12346,0582	4,16659498
3	0	12346,5582	4,16648102
3	0	12347,0582	4,16640472
3	0	12347,5582	4,16640472
3	0	12348,0582	4,16625214
3	0	12348,5582	4,16615677
3	0	12349,0582	4,16604233
3	0	12349,5582	4,16608047
3	0	12350,0582	4,16590881
3	0	12350,5582	4,16594696
3	0	12351,0582	4,16585159
3	0	12351,5582	4,16566086
3	0	12352,0582	4,16573715
3	0	12352,5582	4,16566086
3	0	12353,0582	4,16550875
3	0	12353,5582	4,16537523
3	0	12354,0582	4,16539431
3	0	12354,5582	4,16531801
3	0	12355,0582	4,16531801
3	0	12355,5582	4,1651845
3	0	12356,0582	4,16503191
3	0	12356,5582	4,16508913
3	0	12357,0582	4,16503191
3	0	12357,5582	4,16499376
3	0	12358,0582	4,16474581
3	0	12358,5582	4,16478395
3	0	12359,0582	4,16453648
3	0	12359,5582	4,16465092
3	0	12360,0582	4,16455555
3	0	12360,5582	4,16461277
3	0	12361,0582	4,16440296
3	0	12361,5582	4,16440296
3	0	12362,0582	4,16432667
3	0	12362,5582	4,16425037
3	0	12363,0582	4,16419315
3	0	12363,5582	4,16405964
3	0	12364,0582	4,16396427
3	0	12364,5582	4,16392612
3	0	12365,0582	4,16388798
3	0	12365,5582	4,16381168
3	0	12366,0582	4,16371679
3	0	12366,5582	4,16371679
3	0	12367,0582	4,16360235
3	0	12367,5582	4,16360235
3	0	12368,0582	4,16343069
3	0	12368,5582	4,16337347
3	0	12369,0582	4,16325903
3	0	12369,5582	4,16329718
3	0	12370,0582	4,16323996
3	0	12370,5582	4,16310644
3	0	12371,0582	4,16306829
3	0	12371,5582	4,16301107
3	0	12372,0582	4,162992
3	0	12372,5582	4,16283941
3	0	12373,0582	4,16287756
3	0	12373,5582	4,16266823
3	0	12374,0582	4,16264915
3	0	12374,5582	4,16259193
3	0	12375,0582	4,16263008
3	0	12375,5582	4,16236305
3	0	12376,0582	4,16243935
3	0	12376,5582	4,1624012
3	0	12377,0582	4,16224861
3	0	12377,5582	4,16219139
3	0	12378,0582	4,16219139
3	0	12378,5582	4,16209602
3	0	12379,0582	4,16198158
3	0	12379,5582	4,16194344
3	0	12380,0582	4,16186762
3	0	12380,5582	4,16186762
3	0	12381,0582	4,16169596
3	0	12381,5582	4,16169596
3	0	12382,0582	4,16165781
3	0	12382,5582	4,16158152
3	0	12383,0582	4,16161966
3	0	12383,5582	4,16146708
3	0	12384,0582	4,16139078
3	0	12384,5582	4,16131449
3	0	12385,0582	4,16114283
3	0	12385,5582	4,1611619
3	0	12386,0582	4,16099024
3	0	12386,5582	4,16099024
3	0	12387,0582	4,16095257
3	0	12387,5582	4,16089535
3	0	12388,0582	4,16089535
3	0	12388,5582	4,16070461
3	0	12389,0582	4,16079998
3	0	12389,5582	4,16068554
3	0	12390,0582	4,16060925
3	0	12390,5582	4,16047573
3	0	12391,0582	4,16051388
3	0	12391,5582	4,16036129
3	0	12392,0582	4,16038036
3	0	12392,5582	4,16018963
3	0	12393,0582	4,16018963
3	0	12393,5582	4,16015148
3	0	12394,0582	4,16007519
3	0	12394,5582	4,15994215
3	0	12395,0582	4,15996122
3	0	12395,5582	4,159904
3	0	12396,0582	4,159904
3	0	12396,5582	4,15982771
3	0	12397,0582	4,15963697
3	0	12397,5582	4,15965605
3	0	12398,0582	4,15967512
3	0	12398,5582	4,15950346
3	0	12399,0582	4,15956068
3	0	12399,5582	4,15948439
3	0	12400,0582	4,15946531
3	0	12400,5582	4,15919828
3	0	12401,0582	4,15929365
3	0	12401,5582	4,15914106
3	0	12402,0582	4,15904617
3	0	12402,5582	4,15910339
3	0	12403,0582	4,15906525
3	0	12403,5582	4,15893173
3	0	12404,0582	4,15887451
3	0	12404,5582	4,158741
3	0	12405,0582	4,15870285
3	0	12405,5582	4,15868378
3	0	12406,0582	4,1586647
3	0	12406,5582	4,15849304
3	0	12407,0582	4,15856934
3	0	12407,5582	4,15847397
3	0	12408,0582	4,15847397
3	0	12408,5582	4,15824509
3	0	12409,0582	4,15822601
3	0	12409,5582	4,1581502
3	0	12410,0582	4,1581502
3	0	12410,5582	4,1581502
3	0	12411,0582	4,15795946
3	0	12411,5582	4,15809298
3	0	12412,0582	4,15795946
3	0	12412,5582	4,15786409
3	0	12413,0582	4,15776873
3	0	12413,5582	4,15767336
3	0	12414,0582	4,15767336
3	0	12414,5582	4,15767336
3	0	12415,0582	4,15755892
3	0	12415,5582	4,15753984
3	0	12416,0582	4,15748262
3	0	12416,5582	4,15746355
3	0	12417,0582	4,15734911
3	0	12417,5582	4,15729189
3	0	12418,0582	4,15734911
3	0	12418,5582	4,15713978
3	0	12419,0582	4,15713978
3	0	12419,5582	4,15704441
3	0	12420,0582	4,15696812
3	0	12420,5582	4,15694904
3	0	12421,0582	4,15687275
3	0	12421,5582	4,15673923
3	0	12422,0582	4,15675831
3	0	12422,5582	4,15670109
3	0	12423,0582	4,15666294
3	0	12423,5582	4,15652943
3	0	12424,0582	4,15656757
3	0	12424,5582	4,15651035
3	0	12425,0582	4,15628195
3	0	12425,5582	4,15637684
3	0	12426,0582	4,15622473
3	0	12426,5582	4,15630102
3	0	12427,0582	4,15614843
3	0	12427,5582	4,15611029
3	0	12428,0582	4,15620565
3	0	12428,5582	4,15611029
3	0	12429,0582	4,15603399
3	0	12429,5582	4,15593863
3	0	12430,0582	4,15586233
3	0	12430,5582	4,15580511
3	0	12431,0582	4,15561438
3	0	12431,5582	4,15572882
3	0	12432,0582	4,15549994
3	0	12432,5582	4,15549994
3	0	12433,0582	4,15551901
3	0	12433,5582	4,15549994
3	0	12434,0582	4,15551901
3	0	12434,5582	4,1552906
3	0	12435,0582	4,15519524
3	0	12435,5582	4,15525246
3	0	12436,0582	4,15523338
3	0	12436,5582	4,15519524
3	0	12437,0582	4,1550045
3	0	12437,5582	4,15498543
3	0	12438,0582	4,15494728
3	0	12438,5582	4,15494728
3	0	12439,0582	4,15481377
3	0	12439,5582	4,15475655
3	0	12440,0582	4,15469933
3	0	12440,5582	4,1547184
3	0	12441,0582	4,15458488
3	0	12441,5582	4,15460396
3	0	12442,0582	4,15452766
3	0	12442,5582	4,15439463
3	0	12443,0582	4,1544137
3	0	12443,5582	4,15422297
3	0	12444,0582	4,15435648
3	0	12444,5582	4,15426111
3	0	12445,0582	4,15420389
3	0	12445,5582	4,1540513
3	0	12446,0582	4,1540513
3	0	12446,5582	4,15410852
3	0	12447,0582	4,15391779
3	0	12447,5582	4,15382242
3	0	12448,0582	4,15387964
3	0	12448,5582	4,15382242
3	0	12449,0582	4,15363169
3	0	12449,5582	4,1537652
3	0	12450,0582	4,15365076
3	0	12450,5582	4,15344143
3	0	12451,0582	4,15351772
3	0	12451,5582	4,15338421
3	0	12452,0582	4,1534605
3	0	12452,5582	4,15340328
3	0	12453,0582	4,15336514
3	0	12453,5582	4,15330791
3	0	12454,0582	4,15325069
3	0	12454,5582	4,15323162
3	0	12455,0582	4,15305996
3	0	12455,5582	4,15305996
3	0	12456,0582	4,1531744
3	0	12456,5582	4,15298367
3	0	12457,0582	4,15286922
3	0	12457,5582	4,152812
3	0	12458,0582	4,152812
3	0	12458,5582	4,15267849
3	0	12459,0582	4,15265989
3	0	12459,5582	4,1525836
3	0	12460,0582	4,1525836
3	0	12460,5582	4,15254545
3	0	12461,0582	4,15250731
3	0	12461,5582	4,15235472
3	0	12462,0582	4,15243101
3	0	12462,5582	4,15239286
3	0	12463,0582	4,15225935
3	0	12463,5582	4,15227842
3	0	12464,0582	4,15218306
3	0	12464,5582	4,15218306
3	0	12465,0582	4,15214491
3	0	12465,5582	4,15203047
3	0	12466,0582	4,15195417
3	0	12466,5582	4,15191603
3	0	12467,0582	4,15197325
3	0	12467,5582	4,15180159
3	0	12468,0582	4,15182066
3	0	12468,5582	4,15174484
3	0	12469,0582	4,15176344
3	0	12469,5582	4,1516304
3	0	12470,0582	4,15159225
3	0	12470,5582	4,15143967
3	0	12471,0582	4,15138245
3	0	12471,5582	4,15132523
3	0	12472,0582	4,15121078
3	0	12472,5582	4,15132523
3	0	12473,0582	4,15124893
3	0	12473,5582	4,15124893
3	0	12474,0582	4,15111542
3	0	12474,5582	4,15111542
3	0	12475,0582	4,15102005
3	0	12475,5582	4,1509819
3	0	12476,0582	4,1509819
3	0	12476,5582	4,15082932
3	0	12477,0582	4,15090561
3	0	12477,5582	4,15086746
3	0	12478,0582	4,15092468
3	0	12478,5582	4,1507535
3	0	12479,0582	4,1506772
3	0	12479,5582	4,1507535
3	0	12480,0582	4,15065813
3	0	12480,5582	4,15044832
3	0	12481,0582	4,15044832
3	0	12481,5582	4,15041018
3	0	12482,0582	4,1503911
3	0	12482,5582	4,15044832
3	0	12483,0582	4,15029573
3	0	12483,5582	4,15033388
3	0	12484,0582	4,15014315
3	0	12484,5582	4,15014315
3	0	12485,0582	4,15012407
3	0	12485,5582	4,15000963
3	0	12486,0582	4,14993334
3	0	12486,5582	4,14999056
3	0	12487,0582	4,14995241
3	0	12487,5582	4,14981937
3	0	12488,0582	4,14968586
3	0	12488,5582	4,1498003
3	0	12489,0582	4,14966679
3	0	12489,5582	4,14970493
3	0	12490,0582	4,14959049
3	0	12490,5582	4,14960957
3	0	12491,0582	4,14955235
3	0	12491,5582	4,14939976
3	0	12492,0582	4,14936161
3	0	12492,5582	4,14934254
3	0	12493,0582	4,14934254
3	0	12493,5582	4,14928532
3	0	12494,0582	4,14918995
3	0	12494,5582	4,14909458
3	0	12495,0582	4,14907551
3	0	12495,5582	4,14907551
3	0	12496,0582	4,14905643
3	0	12496,5582	4,1488471
3	0	12497,0582	4,14888525
3	0	12497,5582	4,1488471
3	0	12498,0582	4,14882803
3	0	12498,5582	4,14877081
3	0	12499,0582	4,14875174
3	0	12499,5582	4,14867544
3	0	12500,0582	4,14861822
3	0	12500,5582	4,14871359
3	0	12501,0582	4,14861822
3	0	12501,5582	4,14844656
3	0	12502,0582	4,14854193
3	0	12502,5582	4,14844656
3	0	12503,0582	4,14842749
3	0	12503,5582	4,14840841
3	0	12504,0582	4,1482749
3	0	12504,5582	4,14823675
3	0	12505,0582	4,14823675
3	0	12505,5582	4,14831305
3	0	12506,0582	4,14817953
3	0	12506,5582	4,14806509
3	0	12507,0582	4,14798927
3	0	12507,5582	4,14800835
3	0	12508,0582	4,14793205
3	0	12508,5582	4,14793205
3	0	12509,0582	4,14785576
3	0	12509,5582	4,14777946
3	0	12510,0582	4,14783669
3	0	12510,5582	4,14770317
3	0	12511,0582	4,1476078
3	0	12511,5582	4,1476078
3	0	12512,0582	4,14755058
3	0	12512,5582	4,14745522
3	0	12513,0582	4,14747429
3	0	12513,5582	4,14745522
3	0	12514,0582	4,14751244
3	0	12514,5582	4,14739799
3	0	12515,0582	4,1473217
3	0	12515,5582	4,14735985
3	0	12516,0582	4,14724541
3	0	12516,5582	4,14707422
3	0	12517,0582	4,1470933
3	0	12517,5582	4,14695978
3	0	12518,0582	4,14703608
3	0	12518,5582	4,14690256
3	0	12519,0582	4,14682627
3	0	12519,5582	4,14690256
3	0	12520,0582	4,14690256
3	0	12520,5582	4,14684534
3	0	12521,0582	4,14671183
3	0	12521,5582	4,14665461
3	0	12522,0582	4,14674997
3	0	12522,5582	4,14657831
3	0	12523,0582	4,14663553
3	0	12523,5582	4,1464448
3	0	12524,0582	4,14648294
3	0	12524,5582	4,14646387
3	0	12525,0582	4,1464448
3	0	12525,5582	4,14638758
3	0	12526,0582	4,14629221
3	0	12526,5582	4,14623499
3	0	12527,0582	4,14617825
3	0	12527,5582	4,1461401
3	0	12528,0582	4,1461401
3	0	12528,5582	4,14604473
3	0	12529,0582	4,14617825
3	0	12529,5582	4,14598751
3	0	12530,0582	4,14596844
3	0	12530,5582	4,14593029
3	0	12531,0582	4,14596844
3	0	12531,5582	4,14591122
3	0	12532,0582	4,14572048
3	0	12532,5582	4,14566326
3	0	12533,0582	4,14560604
3	0	12533,5582	4,14573956
3	0	12534,0582	4,14556789
3	0	12534,5582	4,14572048
3	0	12535,0582	4,14554882
3	0	12535,5582	4,14541531
3	0	12536,0582	4,14537716
3	0	12536,5582	4,14552975
3	0	12537,0582	4,14533901
3	0	12537,5582	4,14522505
3	0	12538,0582	4,14528227
3	0	12538,5582	4,14522505
3	0	12539,0582	4,14516783
3	0	12539,5582	4,14514875
3	0	12540,0582	4,14497709
3	0	12540,5582	4,14493895
3	0	12541,0582	4,1449008
3	0	12541,5582	4,14501524
3	0	12542,0582	4,14491987
3	0	12542,5582	4,14478636
3	0	12543,0582	4,1449008
3	0	12543,5582	4,14480543
3	0	12544,0582	4,14471006
3	0	12544,5582	4,14472914
3	0	12545,0582	4,14467192
3	0	12545,5582	4,14463377
3	0	12546,0582	4,14465284
3	0	12546,5582	4,1445384
3	0	12547,0582	4,14457655
3	0	12547,5582	4,14442396
3	0	12548,0582	4,14440489
3	0	12548,5582	4,14429092
3	0	12549,0582	4,14425278
3	0	12549,5582	4,14429092
3	0	12550,0582	4,14421463
3	0	12550,5582	4,14431
3	0	12551,0582	4,14415741
3	0	12551,5582	4,14404297
3	0	12552,0582	4,1440239
3	0	12552,5582	4,14410019
3	0	12553,0582	4,14400482
3	0	12553,5582	4,14398575
3	0	12554,0582	4,14398575
3	0	12554,5582	4,14389038
3	0	12555,0582	4,14379501
3	0	12555,5582	4,14375687
3	0	12556,0582	4,14377594
3	0	12556,5582	4,14364243
3	0	12557,0582	4,14369965
3	0	12557,5582	4,14371872
3	0	12558,0582	4,14356613
3	0	12558,5582	4,14347076
3	0	12559,0582	4,14341402
3	0	12559,5582	4,1433568
3	0	12560,0582	4,14339495
3	0	12560,5582	4,14328051
3	0	12561,0582	4,14337587
3	0	12561,5582	4,14324236
3	0	12562,0582	4,14316607
3	0	12562,5582	4,14320421
3	0	12563,0582	4,14328051
3	0	12563,5582	4,14326143
3	0	12564,0582	4,14314699
3	0	12564,5582	4,14312792
3	0	12565,0582	4,14305162
3	0	12565,5582	4,14295626
3	0	12566,0582	4,14293718
3	0	12566,5582	4,14291811
3	0	12567,0582	4,14274645
3	0	12567,5582	4,14286089
3	0	12568,0582	4,14272738
3	0	12568,5582	4,14282274
3	0	12569,0582	4,14272738
3	0	12569,5582	4,14255571
3	0	12570,0582	4,14259386
3	0	12570,5582	4,14255571
3	0	12571,0582	4,14259386
3	0	12571,5582	4,14249897
3	0	12572,0582	4,1424036
3	0	12572,5582	4,14230824
3	0	12573,0582	4,14232731
3	0	12573,5582	4,14223194
3	0	12574,0582	4,14232731
3	0	12574,5582	4,14230824
3	0	12575,0582	4,14215565
3	0	12575,5582	4,14213657
3	0	12576,0582	4,1421175
3	0	12576,5582	4,1421175
3	0	12577,0582	4,14196491
3	0	12577,5582	4,14190769
3	0	12578,0582	4,14202213
3	0	12578,5582	4,14198399
3	0	12579,0582	4,14188862
3	0	12579,5582	4,1417551
3	0	12580,0582	4,14181232
3	0	12580,5582	4,14171696
3	0	12581,0582	4,14171696
3	0	12581,5582	4,1417551
3	0	12582,0582	4,14169788
3	0	12582,5582	4,14164066
3	0	12583,0582	4,14158392
3	0	12583,5582	4,1415267
3	0	12584,0582	4,14150763
3	0	12584,5582	4,14148855
3	0	12585,0582	4,14133596
3	0	12585,5582	4,14133596
3	0	12586,0582	4,14133596
3	0	12586,5582	4,14133596
3	0	12587,0582	4,14127874
3	0	12587,5582	4,14129782
3	0	12588,0582	4,14120245
3	0	12588,5582	4,14108801
3	0	12589,0582	4,14110708
3	0	12589,5582	4,14106894
3	0	12590,0582	4,14110708
3	0	12590,5582	4,14106894
3	0	12591,0582	4,14085913
3	0	12591,5582	4,14091635
3	0	12592,0582	4,14084005
3	0	12592,5582	4,14080191
3	0	12593,0582	4,14061165
3	0	12593,5582	4,14076376
3	0	12594,0582	4,1406498
3	0	12594,5582	4,14072561
3	0	12595,0582	4,14059258
3	0	12595,5582	4,1405735
3	0	12596,0582	4,1405735
3	0	12596,5582	4,14051628
3	0	12597,0582	4,14043999
3	0	12597,5582	4,14043999
3	0	12598,0582	4,14047813
3	0	12598,5582	4,14038277
3	0	12599,0582	4,14030647
3	0	12599,5582	4,14023018
3	0	12600,0582	4,14026833
3	0	12600,5582	4,14024925
3	0	12601,0582	4,14011574
3	0	12601,5582	4,14017296
3	0	12602,0582	4,14002037
3	0	12602,5582	4,14003944
3	0	12603,0582	4,13996315
3	0	12603,5582	4,13994408
3	0	12604,0582	4,14002037
3	0	12604,5582	4,139925
3	0	12605,0582	4,13975382
3	0	12605,5582	4,13984871
3	0	12606,0582	4,1396966
3	0	12606,5582	4,13990593
3	0	12607,0582	4,13984871
3	0	12607,5582	4,13967752
3	0	12608,0582	4,13954401
3	0	12608,5582	4,13963938
3	0	12609,0582	4,13952494
3	0	12609,5582	4,13950586
3	0	12610,0582	4,13944864
3	0	12610,5582	4,13948679
3	0	12611,0582	4,13944864
3	0	12611,5582	4,1393342
3	0	12612,0582	4,13935328
3	0	12612,5582	4,13927698
3	0	12613,0582	4,1393342
3	0	12613,5582	4,13923883
3	0	12614,0582	4,13906717
3	0	12614,5582	4,13920069
3	0	12615,0582	4,13918161
3	0	12615,5582	4,13918161
3	0	12616,0582	4,13912439
3	0	12616,5582	4,13902903
3	0	12617,0582	4,1390481
3	0	12617,5582	4,13895273
3	0	12618,0582	4,13893366
3	0	12618,5582	4,13887644
3	0	12619,0582	4,13883877
3	0	12619,5582	4,13887644
3	0	12620,0582	4,13876247
3	0	12620,5582	4,13872433
3	0	12621,0582	4,13872433
3	0	12621,5582	4,13862896
3	0	12622,0582	4,13860989
3	0	12622,5582	4,13857174
3	0	12623,0582	4,13855267
3	0	12623,5582	4,13843822
3	0	12624,0582	4,13849545
3	0	12624,5582	4,13843822
3	0	12625,0582	4,13843822
3	0	12625,5582	4,138381
3	0	12626,0582	4,13834286
3	0	12626,5582	4,13834286
3	0	12627,0582	4,13834286
3	0	12627,5582	4,13832378
3	0	12628,0582	4,13826656
3	0	12628,5582	4,13815212
3	0	12629,0582	4,13811398
3	0	12629,5582	4,13807583
3	0	12630,0582	4,13801861
3	0	12630,5582	4,13805676
3	0	12631,0582	4,13801861
3	0	12631,5582	4,13798046
3	0	12632,0582	4,13788557
3	0	12632,5582	4,13794231
3	0	12633,0582	4,13788557
3	0	12633,5582	4,13769484
3	0	12634,0582	4,1377902
3	0	12634,5582	4,13769484
3	0	12635,0582	4,13765669
3	0	12635,5582	4,13769484
3	0	12636,0582	4,13759947
3	0	12636,5582	4,13759947
3	0	12637,0582	4,13758039
3	0	12637,5582	4,13756132
3	0	12638,0582	4,13746595
3	0	12638,5582	4,13737059
3	0	12639,0582	4,13740873
3	0	12639,5582	4,13740873
3	0	12640,0582	4,13740873
3	0	12640,5582	4,13735151
3	0	12641,0582	4,13727522
3	0	12641,5582	4,13723707
3	0	12642,0582	4,13719893
3	0	12642,5582	4,13727522
3	0	12643,0582	4,1371417
3	0	12643,5582	4,13719893
3	0	12644,0582	4,13710356
3	0	12644,5582	4,13697052
3	0	12645,0582	4,13708448
3	0	12645,5582	4,13697052
3	0	12646,0582	4,13697052
3	0	12646,5582	4,13685608
3	0	12647,0582	4,1369133
3	0	12647,5582	4,13679886
3	0	12648,0582	4,13676071
3	0	12648,5582	4,13679886
3	0	12649,0582	4,13679886
3	0	12649,5582	4,13670349
3	0	12650,0582	4,13679886
3	0	12650,5582	4,13668442
3	0	12651,0582	4,13658905
3	0	12651,5582	4,13651276
3	0	12652,0582	4,13658905
3	0	12652,5582	4,1366272
3	0	12653,0582	4,13645554
3	0	12653,5582	4,13645554
3	0	12654,0582	4,13636017
3	0	12654,5582	4,13632202
3	0	12655,0582	4,13636017
3	0	12655,5582	4,13624573
3	0	12656,0582	4,13634109
3	0	12656,5582	4,13630295
3	0	12657,0582	4,13607454
3	0	12657,5582	4,13622665
3	0	12658,0582	4,13605547
3	0	12658,5582	4,13615036
3	0	12659,0582	4,13607454
3	0	12659,5582	4,13605547
3	0	12660,0582	4,13592196
3	0	12660,5582	4,1359601
3	0	12661,0582	4,13597918
3	0	12661,5582	4,13578844
3	0	12662,0582	4,13584566
3	0	12662,5582	4,13594103
3	0	12663,0582	4,13582659
3	0	12663,5582	4,135674
3	0	12664,0582	4,13575029
3	0	12664,5582	4,13571215
3	0	12665,0582	4,13573122
3	0	12665,5582	4,13569307
3	0	12666,0582	4,13563585
3	0	12666,5582	4,13554049
3	0	12667,0582	4,13565493
3	0	12667,5582	4,13555956
3	0	12668,0582	4,13550234
3	0	12668,5582	4,13546419
3	0	12669,0582	4,13540697
3	0	12669,5582	4,13542604
3	0	12670,0582	4,13540697
3	0	12670,5582	4,13527346
3	0	12671,0582	4,13534975
3	0	12671,5582	4,13517809
3	0	12672,0582	4,13521624
3	0	12672,5582	4,13523531
3	0	12673,0582	4,13506413
3	0	12673,5582	4,13510227
3	0	12674,0582	4,13514042
3	0	12674,5582	4,13512135
3	0	12675,0582	4,13506413
3	0	12675,5582	4,1350069
3	0	12676,0582	4,13496876
3	0	12676,5582	4,13498783
3	0	12677,0582	4,13491154
3	0	12677,5582	4,13494968
3	0	12678,0582	4,1347971
3	0	12678,5582	4,1347971
3	0	12679,0582	4,13475895
3	0	12679,5582	4,13458729
3	0	12680,0582	4,13483524
3	0	12680,5582	4,1347208
3	0	12681,0582	4,13468266
3	0	12681,5582	4,13460636
3	0	12682,0582	4,13470173
3	0	12682,5582	4,13458729
3	0	12683,0582	4,13456821
3	0	12683,5582	4,13449192
3	0	12684,0582	4,13441563
3	0	12684,5582	4,1344347
3	0	12685,0582	4,13433933
3	0	12685,5582	4,13430119
3	0	12686,0582	4,13430119
3	0	12686,5582	4,13433933
3	0	12687,0582	4,1342063
3	0	12687,5582	4,13428211
3	0	12688,0582	4,13416815
3	0	12688,5582	4,13414907
3	0	12689,0582	4,13411093
3	0	12689,5582	4,13407278
3	0	12690,0582	4,13403463
3	0	12690,5582	4,13403463
3	0	12691,0582	4,13399649
3	0	12691,5582	4,13388205
3	0	12692,0582	4,13390112
3	0	12692,5582	4,13390112
3	0	12693,0582	4,13386297
3	0	12693,5582	4,13378668
3	0	12694,0582	4,13374853
3	0	12694,5582	4,13374853
3	0	12695,0582	4,13371038
3	0	12695,5582	4,13367224
3	0	12696,0582	4,13365316
3	0	12696,5582	4,13361502
3	0	12697,0582	4,13363409
3	0	12697,5582	4,1334815
3	0	12698,0582	4,1335578
3	0	12698,5582	4,13359594
3	0	12699,0582	4,13350058
3	0	12699,5582	4,13346243
3	0	12700,0582	4,13344336
3	0	12700,5582	4,13342428
3	0	12701,0582	4,13331032
3	0	12701,5582	4,13340521
3	0	12702,0582	4,13331032
3	0	12702,5582	4,13340521
3	0	12703,0582	4,13332891
3	0	12703,5582	4,13321495
3	0	12704,0582	4,13321495
3	0	12704,5582	4,13310051
3	0	12705,0582	4,13319588
3	0	12705,5582	4,13315773
3	0	12706,0582	4,13310051
3	0	12706,5582	4,13306236
3	0	12707,0582	4,132967
3	0	12707,5582	4,13304329
3	0	12708,0582	4,1328907
3	0	12708,5582	4,13300514
3	0	12709,0582	4,13285255
3	0	12709,5582	4,132967
3	0	12710,0582	4,13279533
3	0	12710,5582	4,13281441
3	0	12711,0582	4,13275719
3	0	12711,5582	4,13279533
3	0	12712,0582	4,13281441
3	0	12712,5582	4,13273811
3	0	12713,0582	4,13264275
3	0	12713,5582	4,1326046
3	0	12714,0582	4,13266182
3	0	12714,5582	4,13252831
3	0	12715,0582	4,13254738
3	0	12715,5582	4,13250923
3	0	12716,0582	4,13249016
3	0	12716,5582	4,13247108
3	0	12717,0582	4,13245201
3	0	12717,5582	4,13243294
3	0	12718,0582	4,13250923
3	0	12718,5582	4,13235712
3	0	12719,0582	4,1322999
3	0	12719,5582	4,13228083
3	0	12720,0582	4,13233805
3	0	12720,5582	4,13214731
3	0	12721,0582	4,13214731
3	0	12721,5582	4,13216639
3	0	12722,0582	4,13214731
3	0	12722,5582	4,13218546
3	0	12723,0582	4,13214731
3	0	12723,5582	4,13199472
3	0	12724,0582	4,13195658
3	0	12724,5582	4,13188028
3	0	12725,0582	4,1319375
3	0	12725,5582	4,13186121
3	0	12726,0582	4,13189936
3	0	12726,5582	4,13184214
3	0	12727,0582	4,13195658
3	0	12727,5582	4,13180399
3	0	12728,0582	4,1317277
3	0	12728,5582	4,1317277
3	0	12729,0582	4,13168955
3	0	12729,5582	4,13167048
3	0	12730,0582	4,13163233
3	0	12730,5582	4,13157511
3	0	12731,0582	4,13159418
3	0	12731,5582	4,13161325
3	0	12732,0582	4,13153696
3	0	12732,5582	4,13153696
3	0	12733,0582	4,131423
3	0	12733,5582	4,13147974
3	0	12734,0582	4,1313467
3	0	12734,5582	4,13144207
3	0	12735,0582	4,13136578
3	0	12735,5582	4,13123226
3	0	12736,0582	4,13123226
3	0	12736,5582	4,13127041
3	0	12737,0582	4,13119411
3	0	12737,5582	4,13127041
3	0	12738,0582	4,13127041
3	0	12738,5582	4,13115597
3	0	12739,0582	4,13100338
3	0	12739,5582	4,13119411
3	0	12740,0582	4,13098431
3	0	12740,5582	4,13111782
3	0	12741,0582	4,13096523
3	0	12741,5582	4,1310606
3	0	12742,0582	4,13100338
3	0	12742,5582	4,13090801
3	0	12743,0582	4,13100338
3	0	12743,5582	4,1307745
3	0	12744,0582	4,13083172
3	0	12744,5582	4,13094616
3	0	12745,0582	4,13081264
3	0	12745,5582	4,13096523
3	0	12746,0582	4,13086987
3	0	12746,5582	4,13083172
3	0	12747,0582	4,13054609
3	0	12747,5582	4,1306982
3	0	12748,0582	4,13062191
3	0	12748,5582	4,13054609
3	0	12749,0582	4,13058376
3	0	12749,5582	4,13052702
3	0	12750,0582	4,13060284
3	0	12750,5582	4,13045073
3	0	12751,0582	4,13035536
3	0	12751,5582	4,13045073
3	0	12752,0582	4,1304698
3	0	12752,5582	4,13039351
3	0	12753,0582	4,13029814
3	0	12753,5582	4,13033628
3	0	12754,0582	4,13020277
3	0	12754,5582	4,13027906
3	0	12755,0582	4,13016462
3	0	12755,5582	4,13025999
3	0	12756,0582	4,13022184
3	0	12756,5582	4,13020277
3	0	12757,0582	4,13014555
3	0	12757,5582	4,13016462
3	0	12758,0582	4,13008833
3	0	12758,5582	4,12995481
3	0	12759,0582	4,12989759
3	0	12759,5582	4,12995481
3	0	12760,0582	4,13003111
3	0	12760,5582	4,13001204
3	0	12761,0582	4,12980223
3	0	12761,5582	4,1298213
3	0	12762,0582	4,12980223
3	0	12762,5582	4,12980223
3	0	12763,0582	4,12980223
3	0	12763,5582	4,12974501
3	0	12764,0582	4,12968779
3	0	12764,5582	4,12978315
3	0	12765,0582	4,12968779
3	0	12765,5582	4,12966871
3	0	12766,0582	4,12957382
3	0	12766,5582	4,12966871
3	0	12767,0582	4,1295166
3	0	12767,5582	4,1295166
3	0	12768,0582	4,12955475
3	0	12768,5582	4,12953568
3	0	12769,0582	4,12944031
3	0	12769,5582	4,12945938
3	0	12770,0582	4,12949753
3	0	12770,5582	4,12947845
3	0	12771,0582	4,12930679
3	0	12771,5582	4,12930679
3	0	12772,0582	4,12932587
3	0	12772,5582	4,1292305
3	0	12773,0582	4,12921143
3	0	12773,5582	4,12924957
3	0	12774,0582	4,12915421
3	0	12774,5582	4,12898254
3	0	12775,0582	4,12909698
3	0	12775,5582	4,12909698
3	0	12776,0582	4,12909698
3	0	12776,5582	4,12905884
3	0	12777,0582	4,12903976
3	0	12777,5582	4,12902069
3	0	12778,0582	4,12898254
3	0	12778,5582	4,12892532
3	0	12779,0582	4,12890625
3	0	12779,5582	4,12881088
3	0	12780,0582	4,12871552
3	0	12780,5582	4,12873459
3	0	12781,0582	4,1288681
3	0	12781,5582	4,12865877
3	0	12782,0582	4,12867785
3	0	12782,5582	4,12871552
3	0	12783,0582	4,12865877
3	0	12783,5582	4,12862062
3	0	12784,0582	4,12862062
3	0	12784,5582	4,12862062
3	0	12785,0582	4,12858248
3	0	12785,5582	4,12854433