File: Experimentelles/Rohdaten/Batteriemessungen/AlteZelle/Studenten_Batterietests/SemArbeitToph/ECLab-Export/Al_Sand_01_Zyklieren_01_OCV_C02.mpt
EC-Lab ASCII FILE
Nb header lines : 46

Open Circuit Voltage

Run on channel : 2 (SN 6986)
Grouped channel(s) : 2
User :
CE vs. WE compliance from -10 V to 10 V
Electrode connection : standard
Ewe ctrl range : min = 0,00 V, max = 5,00 V
Acquisition started on : 03.16.2015 02:19:24
Saved on :
	File : Al_Sand_01_Zyklieren_01_OCV_C02.mpr
	Directory : C:\Hupfer\Studenten Batterietests\SemArbeitToph\
	Host : 192.168.0.2
Device : VMP3 (SN 0324)
Address : 192.168.0.1
EC-Lab for windows v10.33 (software)
Internet server v10.33 (firmware)
Command interpretor v10.32 (firmware)
Electrode material :
Initial state :
Electrolyte :
Comments :
Mass of active material : 0,001 mg
 at x = 0,000
Molecular weight of active material (at x = 0) : 0,001 g/mol
Atomic weight of intercalated ion : 0,001 g/mol
Acquisition started at : xo = 0,000
Number of e- transfered per intercalated ion : 1
for DX = 1, DQ = 26,801 mA.h
Battery capacity : 0,000 A.h
Electrode surface area : 0,001 cm²
Characteristic mass : 0,001 g
tR (h:m:s)          0:10:0,0000
dER/dt (mV/h)       1,0
dER (mV)            1,00
dtR (s)             0,5000
E range min (V)     0,000
E range max (V)     5,000

Number of loops : 1
Loop 0 from point number 0 to 1200

mode	error	time/s	Ewe/V
3	0	0,0000	3,65360212
3	0	0,5000	3,65360212
3	0	1,0000	3,65350676
3	0	1,5000	3,65348768
3	0	2,0000	3,65348768
3	0	2,5000	3,65344954
3	0	3,0000	3,65346861
3	0	3,5000	3,65339231
3	0	4,0000	3,65344954
3	0	4,5000	3,65341139
3	0	5,0000	3,65337324
3	0	5,5000	3,65339231
3	0	6,0000	3,65341139
3	0	6,5000	3,65339231
3	0	7,0000	3,65337324
3	0	7,5000	3,65327787
3	0	8,0000	3,6532588
3	0	8,5000	3,65350676
3	0	9,0000	3,65316343
3	0	9,5000	3,65322065
3	0	10,0000	3,65323973
3	0	10,5000	3,65314436
3	0	11,0000	3,65323973
3	0	11,5000	3,65323973
3	0	12,0000	3,65322065
3	0	12,5000	3,65314436
3	0	13,0000	3,65312529
3	0	13,5000	3,65316343
3	0	14,0000	3,6529727
3	0	14,5000	3,65306807
3	0	15,0000	3,65306807
3	0	15,5000	3,65308714
3	0	16,0000	3,65301085
3	0	16,5000	3,65301085
3	0	17,0000	3,65293455
3	0	17,5000	3,65301085
3	0	18,0000	3,65274382
3	0	18,5000	3,65274382
3	0	19,0000	3,65278196
3	0	19,5000	3,65285826
3	0	20,0000	3,65287733
3	0	20,5000	3,65280104
3	0	21,0000	3,65272474
3	0	21,5000	3,6526866
3	0	22,0000	3,65264845
3	0	22,5000	3,6526866
3	0	23,0000	3,65266752
3	0	23,5000	3,65270567
3	0	24,0000	3,65262938
3	0	24,5000	3,65264845
3	0	25,0000	3,65264845
3	0	25,5000	3,6526103
3	0	26,0000	3,65262938
3	0	26,5000	3,65255308
3	0	27,0000	3,65243864
3	0	27,5000	3,65241957
3	0	28,0000	3,6526103
3	0	28,5000	3,65249586
3	0	29,0000	3,65247679
3	0	29,5000	3,65247679
3	0	30,0000	3,65243864
3	0	30,5000	3,65243864
3	0	31,0000	3,65245771
3	0	31,5000	3,65234327
3	0	32,0000	3,65241957
3	0	32,5000	3,65236235
3	0	33,0000	3,65230513
3	0	33,5000	3,65234327
3	0	34,0000	3,65222883
3	0	34,5000	3,65220976
3	0	35,0000	3,65220976
3	0	35,5000	3,65217161
3	0	36,0000	3,65211439
3	0	36,5000	3,65230513
3	0	37,0000	3,65228605
3	0	37,5000	3,65220976
3	0	38,0000	3,65207624
3	0	38,5000	3,6520381
3	0	39,0000	3,65219069
3	0	39,5000	3,65205717
3	0	40,0000	3,65205717
3	0	40,5000	3,65209532
3	0	41,0000	3,65205717
3	0	41,5000	3,65194273
3	0	42,0000	3,65198088
3	0	42,5000	3,65201902
3	0	43,0000	3,65192366
3	0	43,5000	3,65190458
3	0	44,0000	3,65190458
3	0	44,5000	3,6516757
3	0	45,0000	3,65190458
3	0	45,5000	3,65182829
3	0	46,0000	3,65177107
3	0	46,5000	3,65179014
3	0	47,0000	3,65180922
3	0	47,5000	3,65173292
3	0	48,0000	3,65184736
3	0	48,5000	3,65169477
3	0	49,0000	3,651752
3	0	49,5000	3,65179014
3	0	50,0000	3,65158033
3	0	50,5000	3,65173292
3	0	51,0000	3,65161848
3	0	51,5000	3,65152311
3	0	52,0000	3,65165663
3	0	52,5000	3,65146589
3	0	53,0000	3,65152311
3	0	53,5000	3,65154219
3	0	54,0000	3,65154219
3	0	54,5000	3,65144682
3	0	55,0000	3,65142775
3	0	55,5000	3,6513896
3	0	56,0000	3,65148497
3	0	56,5000	3,65142775
3	0	57,0000	3,65142775
3	0	57,5000	3,65133238
3	0	58,0000	3,65137053
3	0	58,5000	3,65135145
3	0	59,0000	3,65135145
3	0	59,5000	3,65125608
3	0	60,0000	3,65137053
3	0	60,5000	3,6513896
3	0	61,0000	3,65137053
3	0	61,5000	3,65125608
3	0	62,0000	3,65117979
3	0	62,5000	3,65127516
3	0	63,0000	3,65112257
3	0	63,5000	3,65116072
3	0	64,0000	3,65123701
3	0	64,5000	3,65112257
3	0	65,0000	3,65114164
3	0	65,5000	3,65095091
3	0	66,0000	3,6511035
3	0	66,5000	3,6511035
3	0	67,0000	3,65112257
3	0	67,5000	3,65104628
3	0	68,0000	3,65098906
3	0	68,5000	3,65108442
3	0	69,0000	3,65108442
3	0	69,5000	3,65104628
3	0	70,0000	3,65098906
3	0	70,5000	3,65098906
3	0	71,0000	3,65093184
3	0	71,5000	3,65096998
3	0	72,0000	3,65091276
3	0	72,5000	3,65079832
3	0	73,0000	3,65085554
3	0	73,5000	3,65079832
3	0	74,0000	3,6507411
3	0	74,5000	3,65076017
3	0	75,0000	3,65076017
3	0	75,5000	3,65072203
3	0	76,0000	3,65089369
3	0	76,5000	3,65064573
3	0	77,0000	3,65068388
3	0	77,5000	3,65062666
3	0	78,0000	3,65049314
3	0	78,5000	3,65064573
3	0	79,0000	3,65060759
3	0	79,5000	3,65066481
3	0	80,0000	3,65072203
3	0	80,5000	3,65056944
3	0	81,0000	3,65051222
3	0	81,5000	3,650455
3	0	82,0000	3,65055037
3	0	82,5000	3,650455
3	0	83,0000	3,65041685
3	0	83,5000	3,65043592
3	0	84,0000	3,65028334
3	0	84,5000	3,65030241
3	0	85,0000	3,65035963
3	0	85,5000	3,6503787
3	0	86,0000	3,6503787
3	0	86,5000	3,65026426
3	0	87,0000	3,65018797
3	0	87,5000	3,65022612
3	0	88,0000	3,65030241
3	0	88,5000	3,65014982
3	0	89,0000	3,65007353
3	0	89,5000	3,65007353
3	0	90,0000	3,65001631
3	0	90,5000	3,65003538
3	0	91,0000	3,65020704
3	0	91,5000	3,65007353
3	0	92,0000	3,64995909
3	0	92,5000	3,65001631
3	0	93,0000	3,65001631
3	0	93,5000	3,64997816
3	0	94,0000	3,64999723
3	0	94,5000	3,64992094
3	0	95,0000	3,64994001
3	0	95,5000	3,64995909
3	0	96,0000	3,64984465
3	0	96,5000	3,64994001
3	0	97,0000	3,64990187
3	0	97,5000	3,64984465
3	0	98,0000	3,64986372
3	0	98,5000	3,64984465
3	0	99,0000	3,64992094
3	0	99,5000	3,64978743
3	0	100,0000	3,64974928
3	0	100,5000	3,64978743
3	0	101,0000	3,64971113
3	0	101,5000	3,64973021
3	0	102,0000	3,64976835
3	0	102,5000	3,64973021
3	0	103,0000	3,64965391
3	0	103,5000	3,64971113
3	0	104,0000	3,64963484
3	0	104,5000	3,64961576
3	0	105,0000	3,64963484
3	0	105,5000	3,64957762
3	0	106,0000	3,64959669
3	0	106,5000	3,64955854
3	0	107,0000	3,64959669
3	0	107,5000	3,64946318
3	0	108,0000	3,64953947
3	0	108,5000	3,64950132
3	0	109,0000	3,64955854
3	0	109,5000	3,64936781
3	0	110,0000	3,64936781
3	0	110,5000	3,64934874
3	0	111,0000	3,64936781
3	0	111,5000	3,64931059
3	0	112,0000	3,64936781
3	0	112,5000	3,64940596
3	0	113,0000	3,64929152
3	0	113,5000	3,649158
3	0	114,0000	3,64923429
3	0	114,5000	3,64934874
3	0	115,0000	3,64925337
3	0	115,5000	3,64932966
3	0	116,0000	3,64908171
3	0	116,5000	3,64911985
3	0	117,0000	3,64911985
3	0	117,5000	3,64927244
3	0	118,0000	3,64911985
3	0	118,5000	3,64900541
3	0	119,0000	3,649158
3	0	119,5000	3,64908171
3	0	120,0000	3,64902449
3	0	120,5000	3,64900541
3	0	121,0000	3,64896727
3	0	121,5000	3,64892912
3	0	122,0000	3,64898634
3	0	122,5000	3,64904356
3	0	123,0000	3,64889097
3	0	123,5000	3,64883375
3	0	124,0000	3,64883375
3	0	124,5000	3,6488719
3	0	125,0000	3,64881468
3	0	125,5000	3,6488719
3	0	126,0000	3,64891005
3	0	126,5000	3,64885283
3	0	127,0000	3,64862394
3	0	127,5000	3,64877653
3	0	128,0000	3,64871931
3	0	128,5000	3,64866209
3	0	129,0000	3,64870024
3	0	129,5000	3,64870024
3	0	130,0000	3,64870024
3	0	130,5000	3,64870024
3	0	131,0000	3,6485858
3	0	131,5000	3,6485858
3	0	132,0000	3,64870024
3	0	132,5000	3,64868116
3	0	133,0000	3,6485858
3	0	133,5000	3,64849043
3	0	134,0000	3,64860487
3	0	134,5000	3,6485858
3	0	135,0000	3,64849043
3	0	135,5000	3,64847136
3	0	136,0000	3,64847136
3	0	136,5000	3,64837599
3	0	137,0000	3,64847136
3	0	137,5000	3,64831877
3	0	138,0000	3,64837599
3	0	138,5000	3,64831877
3	0	139,0000	3,64839506
3	0	139,5000	3,64833784
3	0	140,0000	3,64835691
3	0	140,5000	3,64816618
3	0	141,0000	3,64829969
3	0	141,5000	3,64824247
3	0	142,0000	3,64824247
3	0	142,5000	3,64833784
3	0	143,0000	3,64814711
3	0	143,5000	3,64812803
3	0	144,0000	3,64824247
3	0	144,5000	3,64828062
3	0	145,0000	3,64818525
3	0	145,5000	3,64818525
3	0	146,0000	3,64812803
3	0	146,5000	3,64803267
3	0	147,0000	3,64805174
3	0	147,5000	3,64807081
3	0	148,0000	3,64803267
3	0	148,5000	3,64808989
3	0	149,0000	3,64797544
3	0	149,5000	3,64795637
3	0	150,0000	3,64795637
3	0	150,5000	3,64799452
3	0	151,0000	3,64782286
3	0	151,5000	3,64791822
3	0	152,0000	3,647861
3	0	152,5000	3,64778471
3	0	153,0000	3,64780378
3	0	153,5000	3,647861
3	0	154,0000	3,64776564
3	0	154,5000	3,64770842
3	0	155,0000	3,64774656
3	0	155,5000	3,64767027
3	0	156,0000	3,64774656
3	0	156,5000	3,64776564
3	0	157,0000	3,64768934
3	0	157,5000	3,64770842
3	0	158,0000	3,64763212
3	0	158,5000	3,6475749
3	0	159,0000	3,64767027
3	0	159,5000	3,64755583
3	0	160,0000	3,64763212
3	0	160,5000	3,64767027
3	0	161,0000	3,64761305
3	0	161,5000	3,6475749
3	0	162,0000	3,64755583
3	0	162,5000	3,64751768
3	0	163,0000	3,64753675
3	0	163,5000	3,64742231
3	0	164,0000	3,64751768
3	0	164,5000	3,64738417
3	0	165,0000	3,64742231
3	0	165,5000	3,64732695
3	0	166,0000	3,64738417
3	0	166,5000	3,64744139
3	0	167,0000	3,6472888
3	0	167,5000	3,64732695
3	0	168,0000	3,64726973
3	0	168,5000	3,64723158
3	0	169,0000	3,64726973
3	0	169,5000	3,6472888
3	0	170,0000	3,64719343
3	0	170,5000	3,64723158
3	0	171,0000	3,64709806
3	0	171,5000	3,64717436
3	0	172,0000	3,64705992
3	0	172,5000	3,64713621
3	0	173,0000	3,64713621
3	0	173,5000	3,64715528
3	0	174,0000	3,64715528
3	0	174,5000	3,64702177
3	0	175,0000	3,64704084
3	0	175,5000	3,6470027
3	0	176,0000	3,64704084
3	0	176,5000	3,64704084
3	0	177,0000	3,64702177
3	0	177,5000	3,64694548
3	0	178,0000	3,64690733
3	0	178,5000	3,64688826
3	0	179,0000	3,64685011
3	0	179,5000	3,6469264
3	0	180,0000	3,64688826
3	0	180,5000	3,64685011
3	0	181,0000	3,64688826
3	0	181,5000	3,64673567
3	0	182,0000	3,64681196
3	0	182,5000	3,64671659
3	0	183,0000	3,64675474
3	0	183,5000	3,64679289
3	0	184,0000	3,64675474
3	0	184,5000	3,64673567
3	0	185,0000	3,64667845
3	0	185,5000	3,64671659
3	0	186,0000	3,64662123
3	0	186,5000	3,64667845
3	0	187,0000	3,64660215
3	0	187,5000	3,64665937
3	0	188,0000	3,64660215
3	0	188,5000	3,6466403
3	0	189,0000	3,64656401
3	0	189,5000	3,64656401
3	0	190,0000	3,64662123
3	0	190,5000	3,64650679
3	0	191,0000	3,64641142
3	0	191,5000	3,64641142
3	0	192,0000	3,64644957
3	0	192,5000	3,64639235
3	0	193,0000	3,64639235
3	0	193,5000	3,64631605
3	0	194,0000	3,64629698
3	0	194,5000	3,6462779
3	0	195,0000	3,64629698
3	0	195,5000	3,64622068
3	0	196,0000	3,64625883
3	0	196,5000	3,6460681
3	0	197,0000	3,64618254
3	0	197,5000	3,64629698
3	0	198,0000	3,64637327
3	0	198,5000	3,64618254
3	0	199,0000	3,64616346
3	0	199,5000	3,64614439
3	0	200,0000	3,64604902
3	0	200,5000	3,64608717
3	0	201,0000	3,64602995
3	0	201,5000	3,6460681
3	0	202,0000	3,6460681
3	0	202,5000	3,64604902
3	0	203,0000	3,64604902
3	0	203,5000	3,64620161
3	0	204,0000	3,64604902
3	0	204,5000	3,64593458
3	0	205,0000	3,64589643
3	0	205,5000	3,64585829
3	0	206,0000	3,64589643
3	0	206,5000	3,64585829
3	0	207,0000	3,64576292
3	0	207,5000	3,64576292
3	0	208,0000	3,64583921
3	0	208,5000	3,64576292
3	0	209,0000	3,64580107
3	0	209,5000	3,64582014
3	0	210,0000	3,64576292
3	0	210,5000	3,64572477
3	0	211,0000	3,64574385
3	0	211,5000	3,64574385
3	0	212,0000	3,64568663
3	0	212,5000	3,64559126
3	0	213,0000	3,64564848
3	0	213,5000	3,64559126
3	0	214,0000	3,64566755
3	0	214,5000	3,64555311
3	0	215,0000	3,64561033
3	0	215,5000	3,64538145
3	0	216,0000	3,64545774
3	0	216,5000	3,64547682
3	0	217,0000	3,64543867
3	0	217,5000	3,64549589
3	0	218,0000	3,64538145
3	0	218,5000	3,6453433
3	0	219,0000	3,64528608
3	0	219,5000	3,6453433
3	0	220,0000	3,64538145
3	0	220,5000	3,64526701
3	0	221,0000	3,64532423
3	0	221,5000	3,6454196
3	0	222,0000	3,64528608
3	0	222,5000	3,64522886
3	0	223,0000	3,64526701
3	0	223,5000	3,64524794
3	0	224,0000	3,64520979
3	0	224,5000	3,64511442
3	0	225,0000	3,64520979
3	0	225,5000	3,64515257
3	0	226,0000	3,64501905
3	0	226,5000	3,64515257
3	0	227,0000	3,64511442
3	0	227,5000	3,64501905
3	0	228,0000	3,6450572
3	0	228,5000	3,64503813
3	0	229,0000	3,64496183
3	0	229,5000	3,64498091
3	0	230,0000	3,64503813
3	0	230,5000	3,64494276
3	0	231,0000	3,64496183
3	0	231,5000	3,64492369
3	0	232,0000	3,64494276
3	0	232,5000	3,64484739
3	0	233,0000	3,64480925
3	0	233,5000	3,64480925
3	0	234,0000	3,64475203
3	0	234,5000	3,64484739
3	0	235,0000	3,64479017
3	0	235,5000	3,64473295
3	0	236,0000	3,6447711
3	0	236,5000	3,64463758
3	0	237,0000	3,64475203
3	0	237,5000	3,64465666
3	0	238,0000	3,64471388
3	0	238,5000	3,64465666
3	0	239,0000	3,64469481
3	0	239,5000	3,64456129
3	0	240,0000	3,64461851
3	0	240,5000	3,64450407
3	0	241,0000	3,64463758
3	0	241,5000	3,64465666
3	0	242,0000	3,64456129
3	0	242,5000	3,64456129
3	0	243,0000	3,64446592
3	0	243,5000	3,64437056
3	0	244,0000	3,64459944
3	0	244,5000	3,64431334
3	0	245,0000	3,64444685
3	0	245,5000	3,64431334
3	0	246,0000	3,64438963
3	0	246,5000	3,64435148
3	0	247,0000	3,6444087
3	0	247,5000	3,64437056
3	0	248,0000	3,64431334
3	0	248,5000	3,64425611
3	0	249,0000	3,64423704
3	0	249,5000	3,64427519
3	0	250,0000	3,64433241
3	0	250,5000	3,64425611
3	0	251,0000	3,64417982
3	0	251,5000	3,64429426
3	0	252,0000	3,64416075
3	0	252,5000	3,64419889
3	0	253,0000	3,64400816
3	0	253,5000	3,6441226
3	0	254,0000	3,64402723
3	0	254,5000	3,64400816
3	0	255,0000	3,64397001
3	0	255,5000	3,64410353
3	0	256,0000	3,64402723
3	0	256,5000	3,64395094
3	0	257,0000	3,64397001
3	0	257,5000	3,64398909
3	0	258,0000	3,64385557
3	0	258,5000	3,64389372
3	0	259,0000	3,6438365
3	0	259,5000	3,64387465
3	0	260,0000	3,64387465
3	0	260,5000	3,6438365
3	0	261,0000	3,6438365
3	0	261,5000	3,64381742
3	0	262,0000	3,64374113
3	0	262,5000	3,6437602
3	0	263,0000	3,64374113
3	0	263,5000	3,64374113
3	0	264,0000	3,64377928
3	0	264,5000	3,64358854
3	0	265,0000	3,64370298
3	0	265,5000	3,64364576
3	0	266,0000	3,64360762
3	0	266,5000	3,64360762
3	0	267,0000	3,64358854
3	0	267,5000	3,64372206
3	0	268,0000	3,64360762
3	0	268,5000	3,64353132
3	0	269,0000	3,64360762
3	0	269,5000	3,64364576
3	0	270,0000	3,64349318
3	0	270,5000	3,64349318
3	0	271,0000	3,6434741
3	0	271,5000	3,64351225
3	0	272,0000	3,6434741
3	0	272,5000	3,64341688
3	0	273,0000	3,64345503
3	0	273,5000	3,64337873
3	0	274,0000	3,64341688
3	0	274,5000	3,64326429
3	0	275,0000	3,64328337
3	0	275,5000	3,64324522
3	0	276,0000	3,64324522
3	0	276,5000	3,64328337
3	0	277,0000	3,64326429
3	0	277,5000	3,64316893
3	0	278,0000	3,643188
3	0	278,5000	3,64322615
3	0	279,0000	3,64314985
3	0	279,5000	3,64322615
3	0	280,0000	3,64313078
3	0	280,5000	3,64313078
3	0	281,0000	3,64316893
3	0	281,5000	3,64305449
3	0	282,0000	3,64299726
3	0	282,5000	3,64303541
3	0	283,0000	3,64301634
3	0	283,5000	3,64294004
3	0	284,0000	3,64292097
3	0	284,5000	3,64297819
3	0	285,0000	3,64288282
3	0	285,5000	3,6429019
3	0	286,0000	3,64297819
3	0	286,5000	3,6429019
3	0	287,0000	3,64286375
3	0	287,5000	3,64278746
3	0	288,0000	3,64286375
3	0	288,5000	3,64271116
3	0	289,0000	3,64294004
3	0	289,5000	3,64265394
3	0	290,0000	3,64271116
3	0	290,5000	3,64265394
3	0	291,0000	3,64265394
3	0	291,5000	3,64274931
3	0	292,0000	3,64265394
3	0	292,5000	3,64257765
3	0	293,0000	3,64265394
3	0	293,5000	3,64257765
3	0	294,0000	3,64271116
3	0	294,5000	3,64263487
3	0	295,0000	3,64250135
3	0	295,5000	3,64252043
3	0	296,0000	3,64255857
3	0	296,5000	3,64259672
3	0	297,0000	3,6425395
3	0	297,5000	3,64234877
3	0	298,0000	3,64250135
3	0	298,5000	3,64246321
3	0	299,0000	3,64236784
3	0	299,5000	3,64242506
3	0	300,0000	3,64183378
3	0	300,5000	3,64200544
3	0	301,0000	3,64185286
3	0	301,5000	3,641891
3	0	302,0000	3,64181471
3	0	302,5000	3,64185286
3	0	303,0000	3,64175749
3	0	303,5000	3,64179564
3	0	304,0000	3,64179564
3	0	304,5000	3,64173841
3	0	305,0000	3,64164305
3	0	305,5000	3,64170027
3	0	306,0000	3,64164305
3	0	306,5000	3,64177656
3	0	307,0000	3,64166212
3	0	307,5000	3,64162397
3	0	308,0000	3,64162397
3	0	308,5000	3,64154768
3	0	309,0000	3,64162397
3	0	309,5000	3,64156675
3	0	310,0000	3,64156675
3	0	310,5000	3,64149046
3	0	311,0000	3,64145231
3	0	311,5000	3,64150953
3	0	312,0000	3,64137602
3	0	312,5000	3,64135695
3	0	313,0000	3,64139509
3	0	313,5000	3,6413188
3	0	314,0000	3,64139509
3	0	314,5000	3,6413188
3	0	315,0000	3,64133787
3	0	315,5000	3,64118528
3	0	316,0000	3,64129972
3	0	316,5000	3,64139509
3	0	317,0000	3,64118528
3	0	317,5000	3,64118528
3	0	318,0000	3,64118528
3	0	318,5000	3,64116621
3	0	319,0000	3,64108992
3	0	319,5000	3,64118528
3	0	320,0000	3,64107084
3	0	320,5000	3,64099455
3	0	321,0000	3,64097548
3	0	321,5000	3,64099455
3	0	322,0000	3,6410327
3	0	322,5000	3,64089918
3	0	323,0000	3,64084196
3	0	323,5000	3,6409564
3	0	324,0000	3,64089918
3	0	324,5000	3,64082289
3	0	325,0000	3,64089918
3	0	325,5000	3,64080381
3	0	326,0000	3,64076567
3	0	326,5000	3,64072752
3	0	327,0000	3,64080381
3	0	327,5000	3,64072752
3	0	328,0000	3,64076567
3	0	328,5000	3,64065123
3	0	329,0000	3,6406703
3	0	329,5000	3,6406703
3	0	330,0000	3,64061308
3	0	330,5000	3,64057493
3	0	331,0000	3,64059401
3	0	331,5000	3,64049864
3	0	332,0000	3,64063215
3	0	332,5000	3,64057493
3	0	333,0000	3,64055586
3	0	333,5000	3,64055586
3	0	334,0000	3,64051771
3	0	334,5000	3,64032698
3	0	335,0000	3,64040327
3	0	335,5000	3,6403079
3	0	336,0000	3,6403079
3	0	336,5000	3,64034605
3	0	337,0000	3,64032698
3	0	337,5000	3,64019346
3	0	338,0000	3,64028883
3	0	338,5000	3,6403079
3	0	339,0000	3,64023161
3	0	339,5000	3,6403079
3	0	340,0000	3,64046049
3	0	340,5000	3,64017439
3	0	341,0000	3,64019346
3	0	341,5000	3,64019346
3	0	342,0000	3,64019346
3	0	342,5000	3,64019346
3	0	343,0000	3,64005995
3	0	343,5000	3,64013624
3	0	344,0000	3,64004087
3	0	344,5000	3,64011717
3	0	345,0000	3,64007902
3	0	345,5000	3,64005995
3	0	346,0000	3,64000273
3	0	346,5000	3,64007902
3	0	347,0000	3,63985014
3	0	347,5000	3,63988829
3	0	348,0000	3,63990736
3	0	348,5000	3,63988829
3	0	349,0000	3,63983107
3	0	349,5000	3,63983107
3	0	350,0000	3,63979292
3	0	350,5000	3,63983107
3	0	351,0000	3,63986921
3	0	351,5000	3,63975477
3	0	352,0000	3,63975477
3	0	352,5000	3,63975477
3	0	353,0000	3,63962126
3	0	353,5000	3,63964033
3	0	354,0000	3,63967848
3	0	354,5000	3,63964033
3	0	355,0000	3,63964033
3	0	355,5000	3,63958311
3	0	356,0000	3,63960218
3	0	356,5000	3,63948774
3	0	357,0000	3,63954496
3	0	357,5000	3,63950682
3	0	358,0000	3,63948774
3	0	358,5000	3,63948774
3	0	359,0000	3,6394496
3	0	359,5000	3,6393733
3	0	360,0000	3,6394496
3	0	360,5000	3,6393733
3	0	361,0000	3,63939238
3	0	361,5000	3,63935423
3	0	362,0000	3,63931608
3	0	362,5000	3,6394496
3	0	363,0000	3,63935423
3	0	363,5000	3,63922071
3	0	364,0000	3,63920164
3	0	364,5000	3,63935423
3	0	365,0000	3,63929701
3	0	365,5000	3,63923979
3	0	366,0000	3,63906813
3	0	366,5000	3,63910627
3	0	367,0000	3,63916349
3	0	367,5000	3,63922071
3	0	368,0000	3,63918257
3	0	368,5000	3,63906813
3	0	369,0000	3,63897276
3	0	369,5000	3,6390872
3	0	370,0000	3,63891554
3	0	370,5000	3,63887739
3	0	371,0000	3,6390872
3	0	371,5000	3,63901091
3	0	372,0000	3,63887739
3	0	372,5000	3,63897276
3	0	373,0000	3,63889647
3	0	373,5000	3,63897276
3	0	374,0000	3,63885832
3	0	374,5000	3,6388011
3	0	375,0000	3,63882017
3	0	375,5000	3,6388011
3	0	376,0000	3,6388011
3	0	376,5000	3,63866758
3	0	377,0000	3,63870573
3	0	377,5000	3,6387248
3	0	378,0000	3,63876295
3	0	378,5000	3,63876295
3	0	379,0000	3,63868666
3	0	379,5000	3,63861036
3	0	380,0000	3,63855314
3	0	380,5000	3,63862944
3	0	381,0000	3,63855314
3	0	381,5000	3,63859129
3	0	382,0000	3,638515
3	0	382,5000	3,6384387
3	0	383,0000	3,63859129
3	0	383,5000	3,63845778
3	0	384,0000	3,63840055
3	0	384,5000	3,63849592
3	0	385,0000	3,63853407
3	0	385,5000	3,63840055
3	0	386,0000	3,63847685
3	0	386,5000	3,63830519
3	0	387,0000	3,6384387
3	0	387,5000	3,6384387
3	0	388,0000	3,63838148
3	0	388,5000	3,63822889
3	0	389,0000	3,63830519
3	0	389,5000	3,63830519
3	0	390,0000	3,6381526
3	0	390,5000	3,63813353
3	0	391,0000	3,63817167
3	0	391,5000	3,63822889
3	0	392,0000	3,6381526
3	0	392,5000	3,63819075
3	0	393,0000	3,63807631
3	0	393,5000	3,63811445
3	0	394,0000	3,63811445
3	0	394,5000	3,63813353
3	0	395,0000	3,63798094
3	0	395,5000	3,63805723
3	0	396,0000	3,63801908
3	0	396,5000	3,63796186
3	0	397,0000	3,63798094
3	0	397,5000	3,63792372
3	0	398,0000	3,63794279
3	0	398,5000	3,63792372
3	0	399,0000	3,6378665
3	0	399,5000	3,63784742
3	0	400,0000	3,63769484
3	0	400,5000	3,63775206
3	0	401,0000	3,63767576
3	0	401,5000	3,6377902
3	0	402,0000	3,63777113
3	0	402,5000	3,63784742
3	0	403,0000	3,6377902
3	0	403,5000	3,63777113
3	0	404,0000	3,63767576
3	0	404,5000	3,63765669
3	0	405,0000	3,63771391
3	0	405,5000	3,63758039
3	0	406,0000	3,63752317
3	0	406,5000	3,63758039
3	0	407,0000	3,63761854
3	0	407,5000	3,63752317
3	0	408,0000	3,63754225
3	0	408,5000	3,63754225
3	0	409,0000	3,63748503
3	0	409,5000	3,63746595
3	0	410,0000	3,63746595
3	0	410,5000	3,63738966
3	0	411,0000	3,63740873
3	0	411,5000	3,6375041
3	0	412,0000	3,63735151
3	0	412,5000	3,63731337
3	0	413,0000	3,63723707
3	0	413,5000	3,63719893
3	0	414,0000	3,63737059
3	0	414,5000	3,63725615
3	0	415,0000	3,63735151
3	0	415,5000	3,63723707
3	0	416,0000	3,63717985
3	0	416,5000	3,63723707
3	0	417,0000	3,63716078
3	0	417,5000	3,63704634
3	0	418,0000	3,63716078
3	0	418,5000	3,63700819
3	0	419,0000	3,63716078
3	0	419,5000	3,63712263
3	0	420,0000	3,63702726
3	0	420,5000	3,63697004
3	0	421,0000	3,63708448
3	0	421,5000	3,63683653
3	0	422,0000	3,6368556
3	0	422,5000	3,63698912
3	0	423,0000	3,6369319
3	0	423,5000	3,6368556
3	0	424,0000	3,63687468
3	0	424,5000	3,63691282
3	0	425,0000	3,63677931
3	0	425,5000	3,63687468
3	0	426,0000	3,63677931
3	0	426,5000	3,63672209
3	0	427,0000	3,63674116
3	0	427,5000	3,63676023
3	0	428,0000	3,63670301
3	0	428,5000	3,63660765
3	0	429,0000	3,63662672
3	0	429,5000	3,63655043
3	0	430,0000	3,63666487
3	0	430,5000	3,63660765
3	0	431,0000	3,6365695
3	0	431,5000	3,63658857
3	0	432,0000	3,63660765
3	0	432,5000	3,63658857
3	0	433,0000	3,63660765
3	0	433,5000	3,63649321
3	0	434,0000	3,63639784
3	0	434,5000	3,63635969
3	0	435,0000	3,63635969
3	0	435,5000	3,63647413
3	0	436,0000	3,63634062
3	0	436,5000	3,63634062
3	0	437,0000	3,63635969
3	0	437,5000	3,63639784
3	0	438,0000	3,63630247
3	0	438,5000	3,63632154
3	0	439,0000	3,63614988
3	0	439,5000	3,6362071
3	0	440,0000	3,6362071
3	0	440,5000	3,6362834
3	0	441,0000	3,6362071
3	0	441,5000	3,63611174
3	0	442,0000	3,63607359
3	0	442,5000	3,63618803
3	0	443,0000	3,63616896
3	0	443,5000	3,63616896
3	0	444,0000	3,63597822
3	0	444,5000	3,63609266
3	0	445,0000	3,63601637
3	0	445,5000	3,63603544
3	0	446,0000	3,63595915
3	0	446,5000	3,63601637
3	0	447,0000	3,6359973
3	0	447,5000	3,635921
3	0	448,0000	3,635921
3	0	448,5000	3,63580656
3	0	449,0000	3,63582563
3	0	449,5000	3,63595915
3	0	450,0000	3,63571119
3	0	450,5000	3,63582563
3	0	451,0000	3,635921
3	0	451,5000	3,63576841
3	0	452,0000	3,63574934
3	0	452,5000	3,63584471
3	0	453,0000	3,63571119
3	0	453,5000	3,63574934
3	0	454,0000	3,63565397
3	0	454,5000	3,63569212
3	0	455,0000	3,63573027
3	0	455,5000	3,63557768
3	0	456,0000	3,63557768
3	0	456,5000	3,63561583
3	0	457,0000	3,63561583
3	0	457,5000	3,63548231
3	0	458,0000	3,63555861
3	0	458,5000	3,63544416
3	0	459,0000	3,63544416
3	0	459,5000	3,63531065
3	0	460,0000	3,63544416
3	0	460,5000	3,63542509
3	0	461,0000	3,63552046
3	0	461,5000	3,63531065
3	0	462,0000	3,63536787
3	0	462,5000	3,63529158
3	0	463,0000	3,63538694
3	0	463,5000	3,63525343
3	0	464,0000	3,63523436
3	0	464,5000	3,63521528
3	0	465,0000	3,63517714
3	0	465,5000	3,63523436
3	0	466,0000	3,63511992
3	0	466,5000	3,63511992
3	0	467,0000	3,63513899
3	0	467,5000	3,63504362
3	0	468,0000	3,63510084
3	0	468,5000	3,63504362
3	0	469,0000	3,6349864
3	0	469,5000	3,63500547
3	0	470,0000	3,63508177
3	0	470,5000	3,63502455
3	0	471,0000	3,63485289
3	0	471,5000	3,63492918
3	0	472,0000	3,63500547
3	0	472,5000	3,63491011
3	0	473,0000	3,63494825
3	0	473,5000	3,63485289
3	0	474,0000	3,63481474
3	0	474,5000	3,63494825
3	0	475,0000	3,63489103
3	0	475,5000	3,63473845
3	0	476,0000	3,63477659
3	0	476,5000	3,63477659
3	0	477,0000	3,63475752
3	0	477,5000	3,63468122
3	0	478,0000	3,63466215
3	0	478,5000	3,63458586
3	0	479,0000	3,634624
3	0	479,5000	3,634624
3	0	480,0000	3,63458586
3	0	480,5000	3,63452864
3	0	481,0000	3,63466215
3	0	481,5000	3,63443327
3	0	482,0000	3,63452864
3	0	482,5000	3,63443327
3	0	483,0000	3,63445234
3	0	483,5000	3,63454771
3	0	484,0000	3,63435698
3	0	484,5000	3,63439512
3	0	485,0000	3,63435698
3	0	485,5000	3,6344142
3	0	486,0000	3,63429976
3	0	486,5000	3,63429976
3	0	487,0000	3,63428068
3	0	487,5000	3,63424253
3	0	488,0000	3,63414717
3	0	488,5000	3,63424253
3	0	489,0000	3,63424253
3	0	489,5000	3,63416624
3	0	490,0000	3,63429976
3	0	490,5000	3,63414717
3	0	491,0000	3,63407087
3	0	491,5000	3,63412809
3	0	492,0000	3,63408995
3	0	492,5000	3,63412809
3	0	493,0000	3,63407087
3	0	493,5000	3,63399458
3	0	494,0000	3,63407087
3	0	494,5000	3,63393736
3	0	495,0000	3,63388014
3	0	495,5000	3,63397551
3	0	496,0000	3,63391829
3	0	496,5000	3,63391829
3	0	497,0000	3,63389921
3	0	497,5000	3,63384199
3	0	498,0000	3,63386106
3	0	498,5000	3,63380384
3	0	499,0000	3,63386106
3	0	499,5000	3,63386106
3	0	500,0000	3,6337657
3	0	500,5000	3,63378477
3	0	501,0000	3,63370848
3	0	501,5000	3,6336894
3	0	502,0000	3,63359404
3	0	502,5000	3,6336894
3	0	503,0000	3,63361311
3	0	503,5000	3,63367033
3	0	504,0000	3,63355589
3	0	504,5000	3,63357496
3	0	505,0000	3,63353682
3	0	505,5000	3,63353682
3	0	506,0000	3,63365126
3	0	506,5000	3,63346052
3	0	507,0000	3,63349867
3	0	507,5000	3,63332701
3	0	508,0000	3,63336515
3	0	508,5000	3,63351774
3	0	509,0000	3,63338423
3	0	509,5000	3,63346052
3	0	510,0000	3,63338423
3	0	510,5000	3,63336515
3	0	511,0000	3,63332701
3	0	511,5000	3,63326979
3	0	512,0000	3,63323164
3	0	512,5000	3,63325071
3	0	513,0000	3,63319349
3	0	513,5000	3,63319349
3	0	514,0000	3,63315535
3	0	514,5000	3,63315535
3	0	515,0000	3,63307905
3	0	515,5000	3,63305998
3	0	516,0000	3,6330409
3	0	516,5000	3,63307905
3	0	517,0000	3,63307905
3	0	517,5000	3,63296461
3	0	518,0000	3,6330409
3	0	518,5000	3,6331172
3	0	519,0000	3,63296461
3	0	519,5000	3,63298368
3	0	520,0000	3,63288832
3	0	520,5000	3,63302183
3	0	521,0000	3,6330409
3	0	521,5000	3,63296461
3	0	522,0000	3,63285017
3	0	522,5000	3,63277388
3	0	523,0000	3,63279295
3	0	523,5000	3,63286924
3	0	524,0000	3,63281202
3	0	524,5000	3,63281202
3	0	525,0000	3,63269758
3	0	525,5000	3,63281202
3	0	526,0000	3,63265944
3	0	526,5000	3,6328311
3	0	527,0000	3,63262129
3	0	527,5000	3,63264036
3	0	528,0000	3,63256407
3	0	528,5000	3,63267851
3	0	529,0000	3,63254499
3	0	529,5000	3,63250685
3	0	530,0000	3,63244963
3	0	530,5000	3,63258314
3	0	531,0000	3,63241148
3	0	531,5000	3,63241148
3	0	532,0000	3,63237333
3	0	532,5000	3,63244963
3	0	533,0000	3,63244963
3	0	533,5000	3,63235426
3	0	534,0000	3,63237333
3	0	534,5000	3,63239241
3	0	535,0000	3,63225889
3	0	535,5000	3,63239241
3	0	536,0000	3,63223982
3	0	536,5000	3,63222075
3	0	537,0000	3,63212538
3	0	537,5000	3,6321826
3	0	538,0000	3,63233519
3	0	538,5000	3,63220167
3	0	539,0000	3,63216352
3	0	539,5000	3,6321826
3	0	540,0000	3,63214445
3	0	540,5000	3,63208723
3	0	541,0000	3,63206816
3	0	541,5000	3,63203001
3	0	542,0000	3,63197279
3	0	542,5000	3,6318965
3	0	543,0000	3,63203001
3	0	543,5000	3,63204908
3	0	544,0000	3,63185835
3	0	544,5000	3,63187742
3	0	545,0000	3,63176298
3	0	545,5000	3,63183928
3	0	546,0000	3,63191557
3	0	546,5000	3,63191557
3	0	547,0000	3,63180113
3	0	547,5000	3,63180113
3	0	548,0000	3,63183928
3	0	548,5000	3,63176298
3	0	549,0000	3,63174391
3	0	549,5000	3,63159132
3	0	550,0000	3,6318202
3	0	550,5000	3,63161039
3	0	551,0000	3,63166761
3	0	551,5000	3,63159132
3	0	552,0000	3,63159132
3	0	552,5000	3,63170576
3	0	553,0000	3,63145781
3	0	553,5000	3,63155317
3	0	554,0000	3,63159132
3	0	554,5000	3,63149595
3	0	555,0000	3,63147688
3	0	555,5000	3,6315341
3	0	556,0000	3,63143873
3	0	556,5000	3,63140059
3	0	557,0000	3,63130522
3	0	557,5000	3,63134336
3	0	558,0000	3,63134336
3	0	558,5000	3,63140059
3	0	559,0000	3,63136244
3	0	559,5000	3,63122892
3	0	560,0000	3,63130522
3	0	560,5000	3,63122892
3	0	561,0000	3,63120985
3	0	561,5000	3,631248
3	0	562,0000	3,63113356
3	0	562,5000	3,63126707
3	0	563,0000	3,63107634
3	0	563,5000	3,63128614
3	0	564,0000	3,63103819
3	0	564,5000	3,63103819
3	0	565,0000	3,63109541
3	0	565,5000	3,63105726
3	0	566,0000	3,63101912
3	0	566,5000	3,63098097
3	0	567,0000	3,63098097
3	0	567,5000	3,63094282
3	0	568,0000	3,63092375
3	0	568,5000	3,63086653
3	0	569,0000	3,63086653
3	0	569,5000	3,63086653
3	0	570,0000	3,63090467
3	0	570,5000	3,63084745
3	0	571,0000	3,63080931
3	0	571,5000	3,63077116
3	0	572,0000	3,63073301
3	0	572,5000	3,63079023
3	0	573,0000	3,63063765
3	0	573,5000	3,63065672
3	0	574,0000	3,6305995
3	0	574,5000	3,63069487
3	0	575,0000	3,63069487
3	0	575,5000	3,63058043
3	0	576,0000	3,63054228
3	0	576,5000	3,63058043
3	0	577,0000	3,63056135
3	0	577,5000	3,63054228
3	0	578,0000	3,63033247
3	0	578,5000	3,63050413
3	0	579,0000	3,63040876
3	0	579,5000	3,63029432
3	0	580,0000	3,63038969
3	0	580,5000	3,63042784
3	0	581,0000	3,63040876
3	0	581,5000	3,63040876
3	0	582,0000	3,63027525
3	0	582,5000	3,63042784
3	0	583,0000	3,63021803
3	0	583,5000	3,63017988
3	0	584,0000	3,63019896
3	0	584,5000	3,6302371
3	0	585,0000	3,6302371
3	0	585,5000	3,63016081
3	0	586,0000	3,63012266
3	0	586,5000	3,63025618
3	0	587,0000	3,63010359
3	0	587,5000	3,63008451
3	0	588,0000	3,63008451
3	0	588,5000	3,63002729
3	0	589,0000	3,63004637
3	0	589,5000	3,63002729
3	0	590,0000	3,63006544
3	0	590,5000	3,62985563
3	0	591,0000	3,62991285
3	0	591,5000	3,62981749
3	0	592,0000	3,62976027
3	0	592,5000	3,62987471
3	0	593,0000	3,62989378
3	0	593,5000	3,62993193
3	0	594,0000	3,62985563
3	0	594,5000	3,62972212
3	0	595,0000	3,62968397
3	0	595,5000	3,62956953
3	0	596,0000	3,62972212
3	0	596,5000	3,62972212
3	0	597,0000	3,62970304
3	0	597,5000	3,6295886
3	0	598,0000	3,62970304
3	0	598,5000	3,62955046
3	0	599,0000	3,6295886
3	0	599,5000	3,62956953
3	0	600,0000	3,62955046