File: Experimentelles/Rohdaten/Batteriemessungen/AlteZelle/Studenten_Batterietests/SemArbeitToph/ECLab-Export/Al_Sand_01_02_OCV_C02.mpt
EC-Lab ASCII FILE
Nb header lines : 43

Open Circuit Voltage

Run on channel : 2 (SN 6986)
Grouped channel(s) : 2
User :
CE vs. WE compliance from -10 V to 10 V
Electrode connection : standard
Ewe ctrl range : min = -10,00 V, max = 10,00 V
Acquisition started on : 03.11.2015 16:05:34
Saved on :
	File : Al_Sand_01_02_OCV_C02.mpr
	Directory : C:\Hupfer\Studenten Batterietests\SemArbeitToph\
	Host : 192.168.0.2
Device : VMP3 (SN 0324)
Address : 192.168.0.1
EC-Lab for windows v10.33 (software)
Internet server v10.33 (firmware)
Command interpretor v10.32 (firmware)
Electrode material :
Initial state :
Electrolyte :
Comments :
Mass of active material : 0,001 mg
 at x = 0,000
Molecular weight of active material (at x = 0) : 0,001 g/mol
Atomic weight of intercalated ion : 0,001 g/mol
Acquisition started at : xo = 0,000
Number of e- transfered per intercalated ion : 1
for DX = 1, DQ = 26,801 mA.h
Battery capacity : 0,000 A.h
Electrode surface area : 0,001 cm²
Characteristic mass : 0,001 g
tR (h:m:s)          0:10:0,0000
dER/dt (mV/h)       1,0
dER (mV)            1,00
dtR (s)             0,5000
E range min (V)     -10,000
E range max (V)     10,000

mode	error	time/s	Ewe/V
3	0	92781,9028	4,19891548
3	0	92782,1314	4,19790459
3	0	92782,6114	4,19689369
3	0	92782,9978	4,19586372
3	0	92783,4978	4,19513893
3	0	92783,9978	4,19431877
3	0	92784,4978	4,19347954
3	0	92784,9978	4,19277382
3	0	92785,4978	4,19193459
3	0	92785,9978	4,19122887
3	0	92786,4978	4,19063759
3	0	92786,9978	4,18985558
3	0	92787,4978	4,18914986
3	0	92787,9978	4,18867302
3	0	92788,4978	4,18823433
3	0	92788,9978	4,18749046
3	0	92789,4978	4,18718529
3	0	92789,9978	4,18647957
3	0	92790,4978	4,18613625
3	0	92790,9978	4,18550682
3	0	92791,4978	4,18510628
3	0	92791,9978	4,1848011
3	0	92792,4978	4,18419075
3	0	92792,9978	4,18394279
3	0	92793,4978	4,18363762
3	0	92793,9978	4,18297005
3	0	92794,4978	4,18266487
3	0	92794,9978	4,1823597
3	0	92795,4978	4,1819973
3	0	92795,9978	4,18161583
3	0	92796,4978	4,18140602
3	0	92796,9978	4,18096733
3	0	92797,4978	4,18064308
3	0	92797,9978	4,18043327
3	0	92798,4978	4,18016624
3	0	92798,9978	4,18003273
3	0	92799,4978	4,17963219
3	0	92799,9978	4,1794796
3	0	92800,4978	4,17932701
3	0	92800,9978	4,17902184
3	0	92801,4978	4,17856407
3	0	92801,9978	4,17833519
3	0	92802,4978	4,17797279
3	0	92802,9978	4,17787743
3	0	92803,4978	4,1776104
3	0	92803,9978	4,1775341
3	0	92804,4978	4,17759132
3	0	92804,9978	4,17734337
3	0	92805,4978	4,17701912
3	0	92805,9978	4,17703819
3	0	92806,4978	4,17673302
3	0	92806,9978	4,17671394
3	0	92807,4978	4,1768856
3	0	92807,9978	4,1765995
3	0	92808,4978	4,17633247
3	0	92808,9978	4,17629433
3	0	92809,4978	4,17614174
3	0	92809,9978	4,175951
3	0	92810,4978	4,17560768
3	0	92810,9978	4,17556953
3	0	92811,4978	4,17534065
3	0	92811,9978	4,17528343
3	0	92812,4978	4,17513084
3	0	92812,9978	4,17530251
3	0	92813,4978	4,17484474
3	0	92813,9978	4,17457771
3	0	92814,4978	4,17459679
3	0	92814,9978	4,1743679
3	0	92815,4978	4,17429161
3	0	92815,9978	4,17438698
3	0	92816,4978	4,17461586
3	0	92816,9978	4,17434883
3	0	92817,4978	4,17425346
3	0	92817,9978	4,17450142
3	0	92818,4978	4,17423439
3	0	92818,9978	4,17400551
3	0	92819,4978	4,17387199
3	0	92819,9978	4,17328072
3	0	92820,4978	4,17345238
3	0	92820,9978	4,17329979
3	0	92821,4978	4,17310905
3	0	92821,9978	4,17303276
3	0	92822,4978	4,17318535
3	0	92822,9978	4,17288017
3	0	92823,4978	4,17282295
3	0	92823,9978	4,17272758
3	0	92824,4978	4,17267036
3	0	92824,9978	4,17272758
3	0	92825,4978	4,17255592
3	0	92825,9978	4,17255592
3	0	92826,4978	4,17255592
3	0	92826,9978	4,17238426
3	0	92827,4978	4,17247963
3	0	92827,9978	4,17217445
3	0	92828,4978	4,17198372
3	0	92828,9978	4,17236519
3	0	92829,4978	4,17228889
3	0	92829,9978	4,17183113
3	0	92830,4978	4,17169762
3	0	92830,9978	4,17162132
3	0	92831,4978	4,17139244
3	0	92831,9978	4,17139244
3	0	92832,4978	4,17146873
3	0	92832,9978	4,17148781
3	0	92833,4978	4,17104912
3	0	92833,9978	4,17082024
3	0	92834,4978	4,17087746
3	0	92834,9978	4,17097282
3	0	92835,4978	4,17085838
3	0	92835,9978	4,17076302
3	0	92836,4978	4,17041969
3	0	92836,9978	4,17045784
3	0	92837,4978	4,17030525
3	0	92837,9978	4,17053413
3	0	92838,4978	4,17017174
3	0	92838,9978	4,17001915
3	0	92839,4978	4,1700573
3	0	92839,9978	4,17009544
3	0	92840,4978	4,17013359
3	0	92840,9978	4,17003822
3	0	92841,4978	4,16994286
3	0	92841,9978	4,16992378
3	0	92842,4978	4,16958046
3	0	92842,9978	4,16954231
3	0	92843,4978	4,16938972
3	0	92843,9978	4,16942787
3	0	92844,4978	4,1694088
3	0	92844,9978	4,16919899
3	0	92845,4978	4,16925621
3	0	92845,9978	4,1690464
3	0	92846,4978	4,16937065
3	0	92846,9978	4,16919899
3	0	92847,4978	4,16923714
3	0	92847,9977	4,1694088
3	0	92848,4977	4,16938972
3	0	92848,9977	4,16908455
3	0	92849,4977	4,16917992
3	0	92849,9977	4,16898918
3	0	92850,4977	4,16895103
3	0	92850,9977	4,16897011
3	0	92851,4977	4,16908455
3	0	92851,9977	4,16870308
3	0	92852,4977	4,16889381
3	0	92852,9977	4,16879845
3	0	92853,4977	4,16898918
3	0	92853,9977	4,16870308
3	0	92854,4977	4,16877937
3	0	92854,9977	4,16897011
3	0	92855,4977	4,16866493
3	0	92855,9977	4,16858864
3	0	92856,4977	4,16851234
3	0	92856,9977	4,16849327
3	0	92857,4977	4,16835976
3	0	92857,9977	4,16841698
3	0	92858,4977	4,16849327
3	0	92858,9977	4,1683979
3	0	92859,4977	4,16874123
3	0	92859,9977	4,16879845
3	0	92860,4977	4,16856956
3	0	92860,9977	4,16853142
3	0	92861,4977	4,16837883
3	0	92861,9977	4,16849327
3	0	92862,4977	4,16832161
3	0	92862,9977	4,16832161
3	0	92863,4977	4,1683979
3	0	92863,9977	4,16826439
3	0	92864,4977	4,16807365
3	0	92864,9977	4,16813087
3	0	92865,4977	4,16794014
3	0	92865,9977	4,16797829
3	0	92866,4977	4,16803551
3	0	92866,9977	4,16799736
3	0	92867,4977	4,16786385
3	0	92867,9977	4,16788292
3	0	92868,4977	4,16790199
3	0	92868,9977	4,1677494
3	0	92869,4977	4,1678257
3	0	92869,9977	4,16761589
3	0	92870,4977	4,16759682
3	0	92870,9977	4,16761589
3	0	92871,4977	4,16761589
3	0	92871,9977	4,16786385
3	0	92872,4977	4,16765404
3	0	92872,9977	4,16763496
3	0	92873,4977	4,16761589
3	0	92873,9977	4,16765404
3	0	92874,4977	4,1674633
3	0	92874,9977	4,16740608
3	0	92875,4977	4,16765404
3	0	92875,9977	4,16731071
3	0	92876,4977	4,16744423
3	0	92876,9977	4,16732979
3	0	92877,4977	4,16742516
3	0	92877,9977	4,16723442
3	0	92878,4977	4,16744423
3	0	92878,9977	4,16719627
3	0	92879,4977	4,16721535
3	0	92879,9977	4,16731071
3	0	92880,4977	4,16704369
3	0	92880,9977	4,16725349
3	0	92881,4977	4,16734886
3	0	92881,9977	4,16729164
3	0	92882,4977	4,16711998
3	0	92882,9977	4,16706276
3	0	92883,4977	4,16687202
3	0	92883,9977	4,16719627
3	0	92884,4977	4,16683388
3	0	92884,9977	4,16673851
3	0	92885,4977	4,16666222
3	0	92885,9977	4,16691017
3	0	92886,4977	4,16677666
3	0	92886,9977	4,1668148
3	0	92887,4977	4,16668129
3	0	92887,9977	4,16677666
3	0	92888,4977	4,1668148
3	0	92888,9977	4,16685295
3	0	92889,4977	4,16673851
3	0	92889,9977	4,16645241
3	0	92890,4977	4,16637611
3	0	92890,9977	4,16647148
3	0	92891,4977	4,16649055
3	0	92891,9977	4,16641426
3	0	92892,4977	4,16649055
3	0	92892,9977	4,16643333
3	0	92893,4977	4,16633797
3	0	92893,9977	4,16622353
3	0	92894,4977	4,16643333
3	0	92894,9977	4,16620445
3	0	92895,4977	4,16656685
3	0	92895,9977	4,1662426
3	0	92896,4977	4,16639519
3	0	92896,9977	4,16641426
3	0	92897,4977	4,16641426
3	0	92897,9977	4,16616631
3	0	92898,4977	4,16614723
3	0	92898,9977	4,16609001
3	0	92899,4977	4,16591835
3	0	92899,9977	4,16582298
3	0	92900,4977	4,16591835
3	0	92900,9977	4,16549873
3	0	92901,4977	4,16549873
3	0	92901,9977	4,1655941
3	0	92902,4977	4,16563225
3	0	92902,9977	4,16582298
3	0	92903,4977	4,16542244
3	0	92903,9977	4,16549873
3	0	92904,4977	4,16555595
3	0	92904,9977	4,16544151
3	0	92905,4977	4,16546059
3	0	92905,9977	4,16528893
3	0	92906,4977	4,16525078
3	0	92906,9977	4,16509819
3	0	92907,4977	4,16515541
3	0	92907,9977	4,1652317
3	0	92908,4977	4,16507912
3	0	92908,9977	4,16496468
3	0	92909,4977	4,16500282
3	0	92909,9977	4,16488838
3	0	92910,4977	4,1649456
3	0	92910,9977	4,16500282
3	0	92911,4977	4,16506004
3	0	92911,9977	4,16507912
3	0	92912,4977	4,16490746
3	0	92912,9977	4,16486931
3	0	92913,4977	4,16498375
3	0	92913,9977	4,16506004
3	0	92914,4977	4,16488838
3	0	92914,9977	4,16481209
3	0	92915,4977	4,16498375
3	0	92915,9977	4,16498375
3	0	92916,4977	4,16464043
3	0	92916,9977	4,16488838
3	0	92917,4977	4,16483116
3	0	92917,9977	4,16464043
3	0	92918,4977	4,16462135
3	0	92918,9977	4,16485023
3	0	92919,4977	4,16488838
3	0	92919,9977	4,1646595
3	0	92920,4977	4,16460228
3	0	92920,9977	4,16467857
3	0	92921,4977	4,16475487
3	0	92921,9977	4,16469765
3	0	92922,4977	4,16456413
3	0	92922,9977	4,16454506
3	0	92923,4977	4,16448784
3	0	92923,9977	4,16422081
3	0	92924,4977	4,16444969
3	0	92924,9977	4,16427803
3	0	92925,4977	4,16423988
3	0	92925,9977	4,16427803
3	0	92926,4977	4,16448784
3	0	92926,9977	4,16452599
3	0	92927,4977	4,16441154
3	0	92927,9977	4,16425896
3	0	92928,4977	4,16433525
3	0	92928,9977	4,16425896
3	0	92929,4977	4,1643734
3	0	92929,9977	4,16423988
3	0	92930,4977	4,16425896
3	0	92930,9977	4,16395378
3	0	92931,4977	4,16433525
3	0	92931,9977	4,16406822
3	0	92932,4977	4,16416359
3	0	92932,9977	4,16403008
3	0	92933,4977	4,16410637
3	0	92933,9977	4,16406822
3	0	92934,4977	4,16389656
3	0	92934,9977	4,1640873
3	0	92935,4977	4,16410637
3	0	92935,9977	4,16418266
3	0	92936,4977	4,16397285
3	0	92936,9977	4,16368675
3	0	92937,4977	4,16366768
3	0	92937,9977	4,16364861
3	0	92938,4977	4,16368675
3	0	92938,9977	4,16393471
3	0	92939,4977	4,1637249
3	0	92939,9977	4,16361046
3	0	92940,4977	4,16355324
3	0	92940,9977	4,16382027
3	0	92941,4977	4,16376305
3	0	92941,9977	4,16326714
3	0	92942,4977	4,16362953
3	0	92942,9977	4,16359138
3	0	92943,4977	4,16353416
3	0	92943,9977	4,16349602
3	0	92944,4977	4,16349602
3	0	92944,9977	4,1633625
3	0	92945,4977	4,1630764
3	0	92945,9977	4,16313362
3	0	92946,4977	4,16324806
3	0	92946,9977	4,16328621
3	0	92947,4977	4,16315269
3	0	92947,9977	4,16320992
3	0	92948,4977	4,16298103
3	0	92948,9977	4,16303825
3	0	92949,4977	4,16305733
3	0	92949,9977	4,16290474
3	0	92950,4977	4,16298103
3	0	92950,9977	4,16273308
3	0	92951,4977	4,16300011
3	0	92951,9977	4,16303825
3	0	92952,4977	4,16288567
3	0	92952,9977	4,16282845
3	0	92953,4977	4,16267586
3	0	92953,9977	4,16286659
3	0	92954,4977	4,16273308
3	0	92954,9977	4,16256142
3	0	92955,4977	4,16277122
3	0	92955,9977	4,16280937
3	0	92956,4977	4,16275215
3	0	92956,9977	4,16284752
3	0	92957,4977	4,16275215
3	0	92957,9977	4,16258049
3	0	92958,4977	4,16258049
3	0	92958,9977	4,16240883
3	0	92959,4977	4,162714
3	0	92959,9977	4,16273308
3	0	92960,4977	4,16284752
3	0	92960,9977	4,16244698
3	0	92961,4977	4,16261864
3	0	92961,9977	4,16256142
3	0	92962,4977	4,16240883
3	0	92962,9977	4,16231346
3	0	92963,4977	4,16229439
3	0	92963,9977	4,16240883
3	0	92964,4977	4,162714
3	0	92964,9977	4,16233253
3	0	92965,4977	4,16244698
3	0	92965,9977	4,16237068
3	0	92966,4977	4,16223717
3	0	92966,9977	4,16210365
3	0	92967,4977	4,16231346
3	0	92967,9977	4,16227531
3	0	92968,4977	4,16237068
3	0	92968,9977	4,16233253
3	0	92969,4977	4,16246605
3	0	92969,9977	4,16252327
3	0	92970,4977	4,16237068
3	0	92970,9977	4,16217995
3	0	92971,4977	4,1621418
3	0	92971,9977	4,1621418
3	0	92972,4977	4,16217995
3	0	92972,9977	4,16197014
3	0	92973,4977	4,16197014
3	0	92973,9977	4,16189384
3	0	92974,4977	4,16189384
3	0	92974,9977	4,16202736
3	0	92975,4977	4,16216087
3	0	92975,9977	4,16238976
3	0	92976,4977	4,16231346
3	0	92976,9977	4,16227531
3	0	92977,4977	4,16193199
3	0	92977,9977	4,16187477
3	0	92978,4977	4,1618557
3	0	92978,9977	4,16200829
3	0	92979,4977	4,16195107
3	0	92979,9977	4,16195107
3	0	92980,4977	4,16191292
3	0	92980,9977	4,16158867
3	0	92981,4977	4,16160774
3	0	92981,9977	4,16174126
3	0	92982,4977	4,16170311
3	0	92982,9977	4,16160774
3	0	92983,4977	4,16151237
3	0	92983,9977	4,16153145
3	0	92984,4977	4,16162682
3	0	92984,9977	4,16134071
3	0	92985,4977	4,16134071
3	0	92985,9977	4,16116905
3	0	92986,4977	4,16109276
3	0	92986,9977	4,16139793
3	0	92987,4977	4,16145515
3	0	92987,9977	4,16135979
3	0	92988,4977	4,16143608
3	0	92988,9977	4,16164589
3	0	92989,4977	4,16162682
3	0	92989,9977	4,16124535
3	0	92990,4977	4,16130257
3	0	92990,9977	4,16132164
3	0	92991,4977	4,16126442
3	0	92991,9977	4,16134071
3	0	92992,4977	4,16134071
3	0	92992,9977	4,16126442
3	0	92993,4977	4,16118813
3	0	92993,9977	4,16130257
3	0	92994,4977	4,1612072
3	0	92994,9977	4,16130257
3	0	92995,4977	4,16132164
3	0	92995,9977	4,16124535
3	0	92996,4977	4,16105461
3	0	92996,9977	4,16124535
3	0	92997,4977	4,16141701
3	0	92997,9977	4,1612072
3	0	92998,4977	4,16147423
3	0	92998,9977	4,16124535
3	0	92999,4977	4,16128349
3	0	92999,9977	4,16109276
3	0	93000,4977	4,16086388
3	0	93000,9977	4,16105461
3	0	93001,4977	4,16109276
3	0	93001,9977	4,16109276
3	0	93002,4977	4,16097832
3	0	93002,9977	4,1609211
3	0	93003,4977	4,16094017
3	0	93003,9977	4,16099739
3	0	93004,4977	4,16080666
3	0	93004,9977	4,16073036
3	0	93005,4977	4,16080666
3	0	93005,9977	4,16128349
3	0	93006,4977	4,1609211
3	0	93006,9977	4,16061592
3	0	93007,4977	4,16065407
3	0	93007,9977	4,16059685
3	0	93008,4977	4,16069221
3	0	93008,9977	4,16065407
3	0	93009,4977	4,16059685
3	0	93009,9977	4,1605587
3	0	93010,4977	4,1605587
3	0	93010,9977	4,16073036
3	0	93011,4977	4,16067314
3	0	93011,9977	4,16046333
3	0	93012,4977	4,16061592
3	0	93012,9977	4,16061592
3	0	93013,4977	4,16048241
3	0	93013,9977	4,16052055
3	0	93014,4977	4,16059685
3	0	93014,9977	4,16040611
3	0	93015,4977	4,16032982
3	0	93015,9977	4,16031075
3	0	93016,4977	4,16034889
3	0	93016,9977	4,16032982
3	0	93017,4977	4,16031075
3	0	93017,9977	4,16031075
3	0	93018,4977	4,16034889
3	0	93018,9977	4,16031075
3	0	93019,4977	4,16031075
3	0	93019,9977	4,16015816
3	0	93020,4977	4,16073036
3	0	93020,9977	4,16032982
3	0	93021,4977	4,16036797
3	0	93021,9977	4,16057777
3	0	93022,4977	4,1602726
3	0	93022,9977	4,16044426
3	0	93023,4977	4,16036797
3	0	93023,9977	4,16021538
3	0	93024,4977	4,16025352
3	0	93024,9977	4,16032982
3	0	93025,4977	4,16015816
3	0	93025,9977	4,16012001
3	0	93026,4977	4,15996742
3	0	93026,9977	4,16012001
3	0	93027,4977	4,1599102
3	0	93027,9977	4,16002464
3	0	93028,4977	4,15973902
3	0	93028,9977	4,16012001
3	0	93029,4977	4,16008186
3	0	93029,9977	4,16008186
3	0	93030,4977	4,16002464
3	0	93030,9977	4,16008186
3	0	93031,4977	4,16000557
3	0	93031,9977	4,15992928
3	0	93032,4977	4,15996742
3	0	93032,9977	4,16000557
3	0	93033,4977	4,15977716
3	0	93033,9977	4,1596055
3	0	93034,4977	4,15966272
3	0	93034,9977	4,1596055
3	0	93035,4977	4,15964365
3	0	93035,9977	4,15973902
3	0	93036,4977	4,15979576
3	0	93036,9977	4,15958643
3	0	93037,4977	4,1596818
3	0	93037,9977	4,15951014
3	0	93038,4977	4,15958643
3	0	93038,9977	4,15954828
3	0	93039,4977	4,15947199
3	0	93039,9977	4,15949106
3	0	93040,4977	4,15962458
3	0	93040,9977	4,15943384
3	0	93041,4977	4,15935755
3	0	93041,9977	4,15956736
3	0	93042,4977	4,15956736
3	0	93042,9977	4,15954828
3	0	93043,4977	4,15933847
3	0	93043,9977	4,15930033
3	0	93044,4977	4,15951014
3	0	93044,9977	4,15951014
3	0	93045,4977	4,15930033
3	0	93045,9977	4,15930033
3	0	93046,4977	4,15912867
3	0	93046,9977	4,15937662
3	0	93047,4977	4,15941477
3	0	93047,9977	4,15951014
3	0	93048,4977	4,15951014
3	0	93048,9977	4,15994835
3	0	93049,4977	4,15954828
3	0	93049,9977	4,15924311
3	0	93050,4977	4,15966272
3	0	93050,9977	4,15943384
3	0	93051,4977	4,15924311
3	0	93051,9977	4,15941477
3	0	93052,4977	4,15949106
3	0	93052,9977	4,15941477
3	0	93053,4977	4,15943384
3	0	93053,9977	4,15949106
3	0	93054,4977	4,15943384
3	0	93054,9977	4,15943384
3	0	93055,4977	4,15943384
3	0	93055,9977	4,15935755
3	0	93056,4977	4,15937662
3	0	93056,9977	4,15949106
3	0	93057,4977	4,15930033
3	0	93057,9977	4,15926218
3	0	93058,4977	4,15914774
3	0	93058,9977	4,15889978
3	0	93059,4977	4,15905237
3	0	93059,9977	4,15897608
3	0	93060,4977	4,1590333
3	0	93060,9977	4,1590333
3	0	93061,4977	4,15901423
3	0	93061,9977	4,15901423
3	0	93062,4977	4,15899515
3	0	93062,9977	4,15893793
3	0	93063,4977	4,15901423
3	0	93063,9977	4,15886164
3	0	93064,4977	4,15888071
3	0	93064,9977	4,15880442
3	0	93065,4977	4,15891886
3	0	93065,9977	4,15888071
3	0	93066,4977	4,15889978
3	0	93066,9977	4,15886164
3	0	93067,4977	4,1587472
3	0	93067,9977	4,15889978
3	0	93068,4977	4,15901423
3	0	93068,9977	4,15897608
3	0	93069,4977	4,15889978
3	0	93069,9977	4,15889978
3	0	93070,4977	4,15888071
3	0	93070,9977	4,15872812
3	0	93071,4977	4,15870905
3	0	93071,9977	4,15857553
3	0	93072,4977	4,15851831
3	0	93072,9977	4,15863276
3	0	93073,4977	4,15855646
3	0	93073,9977	4,15849924
3	0	93074,4977	4,15846109
3	0	93074,9977	4,1586709
3	0	93075,4977	4,15846109
3	0	93075,9977	4,15844202
3	0	93076,4977	4,15865183
3	0	93076,9977	4,15851831
3	0	93077,4977	4,15868998
3	0	93077,9977	4,15857553
3	0	93078,4977	4,15836573
3	0	93078,9977	4,15865183
3	0	93079,4977	4,15851831
3	0	93079,9977	4,15830851
3	0	93080,4977	4,15832758
3	0	93080,9977	4,15857553
3	0	93081,4977	4,15857553
3	0	93081,9977	4,15870905
3	0	93082,4977	4,15853739
3	0	93082,9977	4,15832758
3	0	93083,4977	4,15855646
3	0	93083,9977	4,15842295
3	0	93084,4977	4,15863276
3	0	93084,9977	4,15836573
3	0	93085,4977	4,15861368
3	0	93085,9977	4,15851831
3	0	93086,4977	4,15815592
3	0	93086,9977	4,15836573
3	0	93087,4977	4,15842295
3	0	93087,9977	4,15813684
3	0	93088,4977	4,15819407
3	0	93088,9977	4,15804148
3	0	93089,4977	4,15830851
3	0	93089,9977	4,15804148
3	0	93090,4977	4,15804148
3	0	93090,9977	4,15813684
3	0	93091,4977	4,15813684
3	0	93091,9977	4,15785074
3	0	93092,4977	4,1580987
3	0	93092,9977	4,15811777
3	0	93093,4977	4,15811777
3	0	93093,9977	4,15792704
3	0	93094,4977	4,15790796
3	0	93094,9977	4,15798426
3	0	93095,4977	4,15825129
3	0	93095,9977	4,15813684
3	0	93096,4977	4,1578126
3	0	93096,9977	4,15786982
3	0	93097,4977	4,15800333
3	0	93097,9977	4,15792704
3	0	93098,4977	4,15786982
3	0	93098,9977	4,15771723
3	0	93099,4977	4,15788889
3	0	93099,9977	4,15786982
3	0	93100,4977	4,15786982
3	0	93100,9977	4,15766001
3	0	93101,4977	4,15767908
3	0	93101,9977	4,15764093
3	0	93102,4977	4,15775537
3	0	93102,9977	4,15769815
3	0	93103,4977	4,15771723
3	0	93103,9977	4,15764093
3	0	93104,4977	4,1578126
3	0	93104,9977	4,15783167
3	0	93105,4977	4,15790796
3	0	93105,9977	4,15767908
3	0	93106,4977	4,15777445
3	0	93106,9977	4,15758371
3	0	93107,4977	4,15752649
3	0	93107,9977	4,15748835
3	0	93108,4977	4,1577363
3	0	93108,9977	4,15758371
3	0	93109,4977	4,1574502
3	0	93109,9977	4,15725946
3	0	93110,4977	4,15760279
3	0	93110,9977	4,1574502
3	0	93111,4977	4,15735483
3	0	93111,9977	4,15743113
3	0	93112,4977	4,15722132
3	0	93112,9977	4,15724039
3	0	93113,4977	4,15748835
3	0	93113,9977	4,15735483
3	0	93114,4977	4,15725946
3	0	93114,9977	4,15720224
3	0	93115,4977	4,15724039
3	0	93115,9977	4,15725946
3	0	93116,4977	4,15731668
3	0	93116,9977	4,15712595
3	0	93117,4977	4,15722132
3	0	93117,9977	4,15714502
3	0	93118,4977	4,15743113
3	0	93118,9977	4,15737391
3	0	93119,4977	4,15739298
3	0	93119,9977	4,15733576
3	0	93120,4977	4,15725946
3	0	93120,9977	4,15731668
3	0	93121,4977	4,15725946
3	0	93121,9977	4,15752649
3	0	93122,4977	4,15739298
3	0	93122,9977	4,15741205
3	0	93123,4977	4,15727854
3	0	93123,9977	4,15737391
3	0	93124,4977	4,15725946
3	0	93124,9977	4,15706873
3	0	93125,4977	4,15722132
3	0	93125,9977	4,15710688
3	0	93126,4977	4,15735483
3	0	93126,9977	4,15724039
3	0	93127,4977	4,15750742
3	0	93127,9977	4,15727854
3	0	93128,4977	4,15739298
3	0	93128,9977	4,15741205
3	0	93129,4977	4,15710688
3	0	93129,9977	4,15733576
3	0	93130,4977	4,15722132
3	0	93130,9977	4,15724039
3	0	93131,4977	4,15724039
3	0	93131,9977	4,15739298
3	0	93132,4977	4,15731668
3	0	93132,9977	4,15741205
3	0	93133,4977	4,15748835
3	0	93133,9977	4,15754557
3	0	93134,4977	4,15722132
3	0	93134,9977	4,15724039
3	0	93135,4977	4,15731668
3	0	93135,9977	4,15739298
3	0	93136,4977	4,15733576
3	0	93136,9977	4,15729761
3	0	93137,4977	4,15724039
3	0	93137,9977	4,15725946
3	0	93138,4977	4,15718317
3	0	93138,9977	4,15746927
3	0	93139,4977	4,15710688
3	0	93139,9977	4,15712595
3	0	93140,4977	4,15724039
3	0	93140,9977	4,15720224
3	0	93141,4977	4,15725946
3	0	93141,9977	4,15729761
3	0	93142,4977	4,15731668
3	0	93142,9977	4,15710688
3	0	93143,4977	4,15731668
3	0	93143,9977	4,15729761
3	0	93144,4977	4,1570878
3	0	93144,9977	4,15706873
3	0	93145,4977	4,15695429
3	0	93145,9977	4,15710688
3	0	93146,4977	4,15695429
3	0	93146,9977	4,15695429
3	0	93147,4977	4,15701151
3	0	93147,9977	4,15691614
3	0	93148,4977	4,15683985
3	0	93148,9977	4,15691614
3	0	93149,4977	4,15689707
3	0	93149,9977	4,15697336
3	0	93150,4977	4,15697336
3	0	93150,9977	4,15701151
3	0	93151,4977	4,15701151
3	0	93151,9977	4,15676355
3	0	93152,4977	4,15691614
3	0	93152,9977	4,15701151
3	0	93153,4977	4,15714502
3	0	93153,9977	4,15703058
3	0	93154,4977	4,15722132
3	0	93154,9977	4,15706873
3	0	93155,4977	4,15701151
3	0	93155,9977	4,15724039
3	0	93156,4977	4,15687799
3	0	93156,9977	4,15683985
3	0	93157,4977	4,15714502
3	0	93157,9977	4,15701151
3	0	93158,4977	4,15710688
3	0	93158,9977	4,15697336
3	0	93159,4977	4,15714502
3	0	93159,9977	4,15699244
3	0	93160,4977	4,15706873
3	0	93160,9977	4,15704966
3	0	93161,4977	4,15687799
3	0	93161,9977	4,15697336
3	0	93162,4977	4,15691614
3	0	93162,9977	4,15703058
3	0	93163,4977	4,15691614
3	0	93163,9977	4,15672541
3	0	93164,4977	4,15666819
3	0	93164,9977	4,15685892
3	0	93165,4977	4,15666819
3	0	93165,9977	4,15664911
3	0	93166,4977	4,15668726
3	0	93166,9977	4,15655375
3	0	93167,4977	4,1565156
3	0	93167,9977	4,15670633
3	0	93168,4977	4,15663004
3	0	93168,9977	4,15666819
3	0	93169,4977	4,15636301
3	0	93169,9977	4,15636301
3	0	93170,4977	4,15642023
3	0	93170,9977	4,1564393
3	0	93171,4977	4,15655375
3	0	93171,9977	4,15636301
3	0	93172,4977	4,15647745
3	0	93172,9977	4,15649652
3	0	93173,4977	4,15640116
3	0	93173,9977	4,15642023
3	0	93174,4977	4,15632486
3	0	93174,9977	4,15663004
3	0	93175,4977	4,1564393
3	0	93175,9977	4,1564393
3	0	93176,4977	4,15634394
3	0	93176,9977	4,15636301
3	0	93177,4977	4,15630579
3	0	93177,9977	4,15632486
3	0	93178,4977	4,1561532
3	0	93178,9977	4,15647745
3	0	93179,4977	4,15630579
3	0	93179,9977	4,15634394
3	0	93180,4977	4,15632486
3	0	93180,9977	4,15628672
3	0	93181,4977	4,15611506
3	0	93181,9977	4,15605783
3	0	93182,4977	4,15619135
3	0	93182,9977	4,15619135
3	0	93183,4977	4,1562295
3	0	93183,9977	4,1561532
3	0	93184,4977	4,1561532
3	0	93184,9977	4,15624857
3	0	93185,4977	4,15619135
3	0	93185,9977	4,15605783
3	0	93186,4977	4,15607691
3	0	93186,9977	4,15619135
3	0	93187,4977	4,15607691
3	0	93187,9977	4,15600061
3	0	93188,4977	4,15584803
3	0	93188,9977	4,15579081
3	0	93189,4977	4,15580988
3	0	93189,9977	4,15560007
3	0	93190,4977	4,15554285
3	0	93190,9977	4,15569544
3	0	93191,4977	4,15560007
3	0	93191,9977	4,15571451
3	0	93192,4977	4,15571451
3	0	93192,9977	4,155581
3	0	93193,4977	4,15561914
3	0	93193,9977	4,155581
3	0	93194,4977	4,155581
3	0	93194,9977	4,15565729
3	0	93195,4977	4,15542841
3	0	93195,9977	4,15560007
3	0	93196,4977	4,15544748
3	0	93196,9977	4,15575266
3	0	93197,4977	4,155581
3	0	93197,9977	4,1555047
3	0	93198,4977	4,155581
3	0	93198,9977	4,15569544
3	0	93199,4977	4,1555047
3	0	93199,9977	4,15552378
3	0	93200,4977	4,15546656
3	0	93200,9977	4,15540934
3	0	93201,4977	4,15542841
3	0	93201,9977	4,15542841
3	0	93202,4977	4,15540934
3	0	93202,9977	4,15556192
3	0	93203,4977	4,1552186
3	0	93203,9977	4,15527582
3	0	93204,4977	4,15523767
3	0	93204,9977	4,15535212
3	0	93205,4977	4,15523767
3	0	93205,9977	4,15531397
3	0	93206,4977	4,15514231
3	0	93206,9977	4,15533304
3	0	93207,4977	4,15527582
3	0	93207,9977	4,15525675
3	0	93208,4977	4,15519953
3	0	93208,9977	4,15518045
3	0	93209,4977	4,15523767
3	0	93209,9977	4,15523767
3	0	93210,4977	4,15510416
3	0	93210,9977	4,15510416
3	0	93211,4977	4,15508509
3	0	93211,9977	4,15510416
3	0	93212,4977	4,15518045
3	0	93212,9977	4,15514231
3	0	93213,4977	4,15508509
3	0	93213,9977	4,15510416
3	0	93214,4977	4,15519953
3	0	93214,9977	4,1552186
3	0	93215,4977	4,15527582
3	0	93215,9977	4,15514231
3	0	93216,4977	4,15527582
3	0	93216,9977	4,15542841
3	0	93217,4977	4,15560007
3	0	93217,9977	4,15525675
3	0	93218,4977	4,15512323
3	0	93218,9977	4,15498972
3	0	93219,4977	4,15495157
3	0	93219,9977	4,15510416
3	0	93220,4977	4,15502787
3	0	93220,9977	4,15502787
3	0	93221,4977	4,15487528
3	0	93221,9977	4,15479898
3	0	93222,4977	4,1549325
3	0	93222,9977	4,15495157
3	0	93223,4977	4,15487528
3	0	93223,9977	4,15479898
3	0	93224,4977	4,15470362
3	0	93224,9977	4,15476084
3	0	93225,4977	4,15462732
3	0	93225,9977	4,15477991
3	0	93226,4977	4,15489435
3	0	93226,9977	4,1545701
3	0	93227,4977	4,15445566
3	0	93227,9977	4,15458918
3	0	93228,4977	4,15483713
3	0	93228,9977	4,15455103
3	0	93229,4977	4,15468454
3	0	93229,9977	4,15462732
3	0	93230,4977	4,15481806
3	0	93230,9977	4,15472269
3	0	93231,4977	4,15458918
3	0	93231,9977	4,15470362
3	0	93232,4977	4,15468454
3	0	93232,9977	4,1546464
3	0	93233,4977	4,15468454
3	0	93233,9977	4,1546464
3	0	93234,4977	4,15451288
3	0	93234,9977	4,15462732
3	0	93235,4977	4,15458918
3	0	93235,9977	4,15458918
3	0	93236,4977	4,15458918
3	0	93236,9977	4,15462732
3	0	93237,4977	4,15434122
3	0	93237,9977	4,15420771
3	0	93238,4977	4,154284
3	0	93238,9977	4,154284
3	0	93239,4977	4,15449381
3	0	93239,9977	4,15437937
3	0	93240,4977	4,15424585
3	0	93240,9977	4,15420771
3	0	93241,4977	4,154284
3	0	93241,9977	4,15430307
3	0	93242,4977	4,15407419
3	0	93242,9977	4,15420771
3	0	93243,4977	4,15432215
3	0	93243,9977	4,15430307
3	0	93244,4977	4,15420771
3	0	93244,9977	4,15424585
3	0	93245,4977	4,15426493
3	0	93245,9977	4,15426493
3	0	93246,4977	4,15422678
3	0	93246,9977	4,15445566
3	0	93247,4977	4,15449381
3	0	93247,9977	4,1545701
3	0	93248,4977	4,15447474
3	0	93248,9977	4,15436029
3	0	93249,4977	4,15424585
3	0	93249,9977	4,15422678
3	0	93250,4977	4,15439844
3	0	93250,9977	4,15416956
3	0	93251,4977	4,154284
3	0	93251,9977	4,15434122
3	0	93252,4977	4,15407419
3	0	93252,9977	4,15403605
3	0	93253,4977	4,154284
3	0	93253,9977	4,15416956
3	0	93254,4977	4,15436029
3	0	93254,9977	4,15405512
3	0	93255,4977	4,15422678
3	0	93255,9977	4,15430307
3	0	93256,4977	4,15430307
3	0	93256,9977	4,15418863
3	0	93257,4977	4,15407419
3	0	93257,9977	4,15401697
3	0	93258,4977	4,15390253
3	0	93258,9977	4,15411234
3	0	93259,4977	4,15403605
3	0	93259,9977	4,15384531
3	0	93260,4977	4,15415049
3	0	93260,9977	4,1539979
3	0	93261,4977	4,15386438
3	0	93261,9977	4,1539979
3	0	93262,4977	4,15380716
3	0	93262,9977	4,15395975
3	0	93263,4977	4,15380716
3	0	93263,9977	4,15382624
3	0	93264,4977	4,15384531
3	0	93264,9977	4,15369272
3	0	93265,4977	4,15376902
3	0	93265,9977	4,15373087
3	0	93266,4977	4,15380716
3	0	93266,9977	4,15380716
3	0	93267,4977	4,15376902
3	0	93267,9977	4,1537118
3	0	93268,4977	4,15380716
3	0	93268,9977	4,15374994
3	0	93269,4977	4,1536355
3	0	93269,9977	4,15384531
3	0	93270,4977	4,1537118
3	0	93270,9976	4,15361643
3	0	93271,4976	4,15359735
3	0	93271,9976	4,15361643
3	0	93272,4976	4,15365458
3	0	93272,9976	4,15359735
3	0	93273,4976	4,15350199
3	0	93273,9976	4,15340662
3	0	93274,4976	4,15350199
3	0	93274,9976	4,15346384
3	0	93275,4976	4,15344477
3	0	93275,9976	4,15348291
3	0	93276,4976	4,15355921
3	0	93276,9976	4,15380716
3	0	93277,4976	4,15354013
3	0	93277,9976	4,15365458
3	0	93278,4976	4,15352106
3	0	93278,9976	4,15367365
3	0	93279,4976	4,15338755
3	0	93279,9976	4,15340662
3	0	93280,4976	4,15348291
3	0	93280,9976	4,15344477
3	0	93281,4976	4,15350199
3	0	93281,9976	4,15342569
3	0	93282,4976	4,15325403
3	0	93282,9976	4,15336847
3	0	93283,4976	4,15327311
3	0	93283,9976	4,15315866
3	0	93284,4976	4,15323496
3	0	93284,9976	4,1530633
3	0	93285,4976	4,15327311
3	0	93285,9976	4,15319681
3	0	93286,4976	4,15317774
3	0	93286,9976	4,15321589
3	0	93287,4976	4,15312052
3	0	93287,9976	4,15321589
3	0	93288,4976	4,15312052
3	0	93288,9976	4,15315866
3	0	93289,4976	4,15308237
3	0	93289,9976	4,15312052
3	0	93290,4976	4,15321589
3	0	93290,9976	4,15313959
3	0	93291,4976	4,1530633
3	0	93291,9976	4,15323496
3	0	93292,4976	4,15319681
3	0	93292,9976	4,15315866
3	0	93293,4976	4,15321589
3	0	93293,9976	4,1533494
3	0	93294,4976	4,15342569
3	0	93294,9976	4,15308237
3	0	93295,4976	4,15313959
3	0	93295,9976	4,15310144
3	0	93296,4976	4,15308237
3	0	93296,9976	4,15300608
3	0	93297,4976	4,15319681
3	0	93297,9976	4,15315866
3	0	93298,4976	4,1530633
3	0	93298,9976	4,15315866
3	0	93299,4976	4,15321589
3	0	93299,9976	4,15315866
3	0	93300,4976	4,15329218
3	0	93300,9976	4,1533494
3	0	93301,4976	4,15313959
3	0	93301,9976	4,15302515
3	0	93302,4976	4,15294886
3	0	93302,9976	4,15302515
3	0	93303,4976	4,15292978
3	0	93303,9976	4,15291071
3	0	93304,4976	4,15275812
3	0	93304,9976	4,15275812
3	0	93305,4976	4,15281534
3	0	93305,9976	4,15304422
3	0	93306,4976	4,15281534
3	0	93306,9976	4,15281534
3	0	93307,4976	4,15281534
3	0	93307,9976	4,15277719
3	0	93308,4976	4,15266275
3	0	93308,9976	4,15254831
3	0	93309,4976	4,15275812
3	0	93309,9976	4,15266275
3	0	93310,4976	4,15281534
3	0	93310,9976	4,15291071
3	0	93311,4976	4,1527009
3	0	93311,9976	4,15285349
3	0	93312,4976	4,15279627
3	0	93312,9976	4,1527009
3	0	93313,4976	4,15266275
3	0	93313,9976	4,15249109
3	0	93314,4976	4,15252924
3	0	93314,9976	4,15260553
3	0	93315,4976	4,15260553
3	0	93315,9976	4,15254831
3	0	93316,4976	4,15243387
3	0	93316,9976	4,15237665
3	0	93317,4976	4,15262461
3	0	93317,9976	4,15249109
3	0	93318,4976	4,1524148
3	0	93318,9976	4,15237665
3	0	93319,4976	4,15228128
3	0	93319,9976	4,15254831
3	0	93320,4976	4,15251017
3	0	93320,9976	4,15230036
3	0	93321,4976	4,15231943
3	0	93321,9976	4,15235758
3	0	93322,4976	4,15230036
3	0	93322,9976	4,15231943
3	0	93323,4976	4,15251017
3	0	93323,9976	4,1523385
3	0	93324,4976	4,15216684
3	0	93324,9976	4,15245295
3	0	93325,4976	4,15226221
3	0	93325,9976	4,15224314
3	0	93326,4976	4,15235758
3	0	93326,9976	4,1523385
3	0	93327,4976	4,15230036
3	0	93327,9976	4,1524148
3	0	93328,4976	4,15237665
3	0	93328,9976	4,15239573
3	0	93329,4976	4,15239573
3	0	93329,9976	4,15222406
3	0	93330,4976	4,15220499
3	0	93330,9976	4,15252924
3	0	93331,4976	4,15222406
3	0	93331,9976	4,15220499
3	0	93332,4976	4,15231943
3	0	93332,9976	4,15237665
3	0	93333,4976	4,15235758
3	0	93333,9976	4,15239573
3	0	93334,4976	4,15218592
3	0	93334,9976	4,15216684
3	0	93335,4976	4,15214777
3	0	93335,9976	4,15195704
3	0	93336,4976	4,15207148
3	0	93336,9976	4,15197611
3	0	93337,4976	4,15197611
3	0	93337,9976	4,15197611
3	0	93338,4976	4,15193796
3	0	93338,9976	4,15201426
3	0	93339,4976	4,15207148
3	0	93339,9976	4,15214777
3	0	93340,4976	4,15197611
3	0	93340,9976	4,15209055
3	0	93341,4976	4,15199518
3	0	93341,9976	4,15201426
3	0	93342,4976	4,15228128
3	0	93342,9976	4,1521287
3	0	93343,4976	4,1520524
3	0	93343,9976	4,15201426
3	0	93344,4976	4,15197611
3	0	93344,9976	4,15189981
3	0	93345,4976	4,15218592
3	0	93345,9976	4,15210962
3	0	93346,4976	4,15178537
3	0	93346,9976	4,15203333
3	0	93347,4976	4,15195704
3	0	93347,9976	4,15188074
3	0	93348,4976	4,15201426
3	0	93348,9976	4,15209055
3	0	93349,4976	4,15197611
3	0	93349,9976	4,15195704
3	0	93350,4976	4,15195704
3	0	93350,9976	4,15199518
3	0	93351,4976	4,15199518
3	0	93351,9976	4,15186167
3	0	93352,4976	4,15186167
3	0	93352,9976	4,15182352
3	0	93353,4976	4,15180445
3	0	93353,9976	4,1517663
3	0	93354,4976	4,15169001
3	0	93354,9976	4,1517663
3	0	93355,4976	4,15174723
3	0	93355,9976	4,15178537
3	0	93356,4976	4,15182352
3	0	93356,9976	4,15197611
3	0	93357,4976	4,15189981
3	0	93357,9976	4,15195704
3	0	93358,4976	4,15189981
3	0	93358,9976	4,15199518
3	0	93359,4976	4,15170908
3	0	93359,9976	4,15170908
3	0	93360,4976	4,15180445
3	0	93360,9976	4,15159464
3	0	93361,4976	4,15184259
3	0	93361,9976	4,15170908
3	0	93362,4976	4,15184259
3	0	93362,9976	4,1517663
3	0	93363,4976	4,15184259
3	0	93363,9976	4,15178537
3	0	93364,4976	4,15172815
3	0	93364,9976	4,15167093
3	0	93365,4976	4,15169001
3	0	93365,9976	4,15155649
3	0	93366,4976	4,15155649
3	0	93366,9976	4,15157557
3	0	93367,4976	4,15138483
3	0	93367,9976	4,1514802
3	0	93368,4976	4,15138483
3	0	93368,9976	4,15151834
3	0	93369,4976	4,15159464
3	0	93369,9976	4,15161371
3	0	93370,4976	4,15169001
3	0	93370,9976	4,1514039
3	0	93371,4976	4,15128946
3	0	93371,9976	4,15132761
3	0	93372,4976	4,15149927
3	0	93372,9976	4,15144205
3	0	93373,4976	4,1514802
3	0	93373,9976	4,15144205
3	0	93374,4976	4,15155649
3	0	93374,9976	4,15155649
3	0	93375,4976	4,15159464
3	0	93375,9976	4,15159464
3	0	93376,4976	4,15172815
3	0	93376,9976	4,15161371
3	0	93377,4976	4,15142298
3	0	93377,9976	4,15155649
3	0	93378,4976	4,15134668
3	0	93378,9976	4,15144205
3	0	93379,4976	4,1514039
3	0	93379,9976	4,15149927
3	0	93380,4976	4,15161371
3	0	93380,9976	4,15151834
3	0	93381,4976	4,15165186
3	0	93381,9026	4,15157557