File: Experimentelles/Ausgewaehlte_Daten/LTO/CV/LTO_Korrosion_08_CV_C02.mpt
EC-Lab ASCII FILE
Nb header lines : 61

Cyclic Voltammetry

Run on channel : 2 (SN 6986)
Grouped channel(s) : 2
User :
CE vs. WE compliance from -10 V to 10 V
Electrode connection : standard
Ewe ctrl range : min = 0,00 V, max = 5,00 V
Acquisition started on : 09.04.2015 14:14:19
Saved on :
	File : LTO_Korrosion_08_CV_C02.mpr
	Directory : C:\Gielisch\AlteZelle\150904_LTO_Korrosion\
	Host : 192.168.0.2
Device : VMP3 (SN 0324)
Address : 192.168.0.1
EC-Lab for windows v10.33 (software)
Internet server v10.33 (firmware)
Command interpretor v10.32 (firmware)
Electrode material :
Initial state :
Electrolyte :
Comments :
Electrode surface area : 0,001 cm²
Characteristic mass : 0,001 g
Equivalent Weight : 0,000 g/eq.
Density : 0,000 g/cm3
Ei (V)              0,000
vs.                 Eoc
dE/dt               10,000
dE/dt unit          mV/s
E1 (V)              4,000
vs.                 Ref
Step percent        50
N                   10
E range min (V)     0,000
E range max (V)     5,000
I Range             Auto
Bandwidth           5
E2 (V)              0,600
vs.                 Ref
nc cycles           0
Reverse Scan        1
Ef (V)              0,000
vs.                 Eoc

Modify on : 09.04.2015 14:32
E2 (V)              1,000

Number of loops : 7
Loop 0 from point number 0 to 5997
Loop 1 from point number 5998 to 11996
Loop 2 from point number 11997 to 17995
Loop 3 from point number 17996 to 23993
Loop 4 from point number 23994 to 29993
Loop 5 from point number 29994 to 35992
Loop 6 from point number 35993 to 41992

mode	ox/red	error	control changes	counter inc.	time/s	control/V	Ewe/V	<I>/mA	cycle number	(Q-Qo)/C	P/W
2	1	0	0	0	212471,0460	1,50220346	1,50329101	0,0066841905936598784	1	0	1,00482839E-005
2	1	0	0	0	212478,9826	1,58156908	1,5821991	0,63069694799681792	1	0,00266918773	0,000997888157
2	1	0	0	0	212486,9242	1,66098547	1,66168201	1,658602892800623	1	0,0113365045	0,00275607058
2	1	0	0	0	212494,8258	1,74000168	1,74067521	3,0149865034553798	1	0,0297287293	0,00524811214
2	1	0	0	0	212502,7274	1,81901789	1,81975317	4,4353817375722003	1	0,0591616519	0,00807129964
2	1	0	0	0	212510,6291	1,89803445	1,89863527	5,8485357110147622	1	0,0998332798	0,0111042364
2	1	0	0	0	212518,5307	1,9770503	1,9777528	7,2148980387934925	1	0,151492313	0,0142692849
2	1	0	0	0	212526,4324	2,05606675	2,05671501	8,4447753181121638	1	0,213516325	0,0173684955
2	1	0	1	0	212534,3341	2,13508272	2,13580179	8,8055132042479155	1	0,283193141	0,01880683
2	1	0	1	0	212542,2357	2,21409893	2,21503544	5,0574579277524166	1	0,340079337	0,011202449
2	1	0	1	0	212550,1373	2,29311538	2,29389048	1,8884551069802528	1	0,366142005	0,00433190912
2	1	0	1	0	212558,0389	2,37213159	2,37286186	0,70381037276928282	1	0,375055552	0,00167004485
2	1	0	1	0	212565,9805	2,45154834	2,45231795	0,32607324962952774	1	0,379043609	0,000799635309
2	1	0	1	0	212573,8821	2,53056407	2,53104401	0,16387472663902614	1	0,380803198	0,000414774142
2	1	0	1	0	212581,7837	2,60958004	2,61013508	0,12028996280773806	1	0,38190648	0,000313973054
2	1	0	1	0	212589,6854	2,68859649	2,68915081	0,09940301073563584	1	0,382767856	0,00026730969
2	1	0	0	0	212597,5871	2,76761293	2,76831746	0,090773378559216192	1	0,383517891	0,000251289515
2	1	0	0	0	212605,4887	2,8466289	2,84728861	0,08889533174051767	1	0,384228587	0,000253110658
2	1	0	0	0	212613,3903	2,92564535	2,92629051	0,090242755081919373	1	0,384938389	0,000264076516
2	1	0	0	0	212621,2919	3,00466132	3,00527954	0,093953592504409933	1	0,385669321	0,000282356807
2	1	0	0	0	212629,1935	3,08367753	3,08413053	0,09852195917456297	1	0,386432886	0,000303854584
2	1	0	0	0	212637,0951	3,1626935	3,16335487	0,10244696345869997	1	0,387231439	0,0003240761
2	1	0	0	0	212644,9967	3,24170995	3,24228978	0,10476797534566851	1	0,388056397	0,000339688122
2	1	0	0	0	212652,8984	3,32072592	3,32134557	0,10430128592589494	1	0,38888824	0,000346420624
2	1	0	1	0	212660,8001	3,39974213	3,40053916	0,10109483840426846	1	0,389704436	0,000343776948
2	1	0	1	0	212668,7017	3,47875857	3,47945714	0,096313211152812659	1	0,390488654	0,000335117686
2	1	0	1	0	212676,6033	3,55777478	3,55843687	0,091134173933554944	1	0,391232282	0,000324295193
2	1	0	1	0	212684,5049	3,63679099	3,63735032	0,087251563073583949	1	0,391939938	0,000317364495
2	1	0	1	0	212692,4065	3,71580672	3,7165792	0,084468909970450086	1	0,392623067	0,000313935394
2	1	0	1	0	212700,3081	3,79482341	3,79538107	0,081240446194661312	1	0,393281728	0,000308338465
2	1	0	1	0	212708,2097	3,87384009	3,87453008	0,07798636050170487	1	0,393914253	0,000302160508
2	1	0	1	0	212716,1114	3,95285606	3,95341206	0,076505980299778394	1	0,394526482	0,000302459666
2	0	0	0	0	212723,9635	3,96865964	3,96929622	-0,0026716010836901546	1	0,394914865	1,06043763E-005
2	0	0	0	0	212731,9051	3,88924289	3,8898356	-0,014735330029873594	1	0,3948358	5,73180114E-005
2	0	0	0	0	212739,8067	3,81022668	3,81081581	-0,021084890319293114	1	0,394688874	8,03506337E-005
2	0	0	0	0	212747,7083	3,73121071	3,73204947	-0,024415138975234256	1	0,394500762	9,11185052E-005
2	0	0	0	0	212755,6099	3,65219426	3,65269566	-0,028549994605041261	1	0,394284397	0,000104284438
2	0	0	0	0	212763,5116	3,57317781	3,57380891	-0,030211050242579878	1	0,394048542	0,000107968517
2	0	0	1	0	212771,4133	3,49416208	3,49480295	-0,030627657736961965	1	0,393803895	0,000107037631
2	0	0	1	0	212779,3149	3,4151454	3,41574693	-0,030802671185315072	1	0,393557549	0,000105214131
2	0	0	1	0	212787,2165	3,33612943	3,33681631	-0,03106701998816208	1	0,39331001	0,000103664941
2	0	0	1	0	212795,1181	3,25711322	3,25768495	-0,031273209282921152	1	0,393060416	0,000101878264
2	0	0	1	0	212803,0197	3,17809701	3,17877603	-0,03136809261653689	1	0,392809421	9,97121388E-005
2	0	0	1	0	212810,9213	3,09908056	3,09976053	-0,031445152397888422	1	0,392558187	9,74724389E-005
2	0	0	1	0	212818,8229	3,02006459	3,02063847	-0,031188373139162509	1	0,392307311	9,42088009E-005
2	0	0	1	0	212826,7246	2,94104838	2,94162345	-0,031395639211661222	1	0,392056435	9,2354152E-005
2	0	0	0	0	212834,6263	2,86203218	2,86265206	-0,031890675925683789	1	0,391803741	9,12919058E-005
2	0	0	0	0	212842,5279	2,78301573	2,78371644	-0,032721490939837453	1	0,391546011	9,10873496E-005
2	0	0	0	0	212850,4295	2,70399976	2,70467877	-0,033950549157991725	1	0,391280204	9,18253281E-005
2	0	0	0	0	212858,3311	2,62498331	2,62560964	-0,037373975579005792	1	0,39099744	9,81294725E-005
2	0	0	0	0	212866,2327	2,5459671	2,54657626	-0,043700332727490522	1	0,390675247	0,00011128623
2	0	0	0	0	212874,1343	2,46695113	2,46764994	-0,053115049109760058	1	0,390291959	0,000131069348
2	0	0	0	0	212882,0359	2,38793492	2,38863468	-0,067542463747991475	1	0,389815122	0,000161334276
2	0	0	0	0	212889,9376	2,30891824	2,30968118	-0,085214310306684864	1	0,389209718	0,000196817884
2	0	0	1	0	212897,8793	2,22950244	2,2303009	-0,1035627504396769	1	0,388456345	0,000230976089
2	0	0	1	0	212905,7809	2,15048599	2,15103149	-0,12129886048259486	1	0,38756296	0,000260917674
2	0	0	1	0	212913,6825	2,07147002	2,07235003	-0,1382774385727119	1	0,386533767	0,000286559254
2	0	0	1	0	212921,5841	1,99245369	1,99306738	-0,159184335644736	1	0,38536039	0,000317265105
2	0	0	1	0	212929,4857	1,91343725	1,91409194	-0,20233078445825216	1	0,383950055	0,000387279724
2	0	0	1	0	212937,3873	1,83442104	1,83498728	-0,28342636684990864	1	0,382048041	0,000520083762
2	0	0	1	0	212945,2889	1,75540483	1,7560699	-0,28067494266562854	1	0,379737288	0,000492884836
2	0	0	0	0	212953,1907	1,67638862	1,67717433	-0,34114695240363878	1	0,377383113	0,000572162913
2	0	0	0	0	212961,0923	1,59737229	1,5978874	-0,57845015002897254	1	0,373879492	0,000924298191
2	0	0	0	0	212969,0339	1,51795602	1,51850259	-1,0716675266071611	1	0,367529422	0,00162732997
2	0	0	0	0	212976,9355	1,43893993	1,43962073	-2,2554493157399965	1	0,355148882	0,00324699166
2	0	0	0	0	212984,8371	1,35992384	1,3604449	-3,812513215674265	1	0,331155062	0,00518671423
2	0	0	0	0	212992,7387	1,28090763	1,28142059	-5,3790963711562227	1	0,294837207	0,00689288462
2	0	0	0	0	213000,6403	1,2018913	1,20264995	-6,946654948923424	1	0,246125937	0,0083543947
2	0	0	0	0	213008,5419	1,12287509	1,1236254	-8,4278114548435776	1	0,185255811	0,00946970284
2	0	0	0	0	213016,4436	1,04385936	1,04451287	-9,4156549589685171	1	0,114004411	0,00983477291
2	1	0	1	1	213024,1857	1,0335567	1,03426671	-6,0194594346814234	1	0,0494091138	0,00622572657
2	1	0	1	1	213032,0874	1,11257231	1,11322796	-2,3882641409920211	1	0,0183359478	0,00265868241
2	1	0	0	1	213039,9891	1,19158924	1,19234228	-0,8410372444324992	1	0,00644085743	0,00100280426
2	1	0	0	1	213047,9307	1,27100551	1,27154922	-0,29675128993888518	1	0,00226574764	0,000377333869
2	1	0	0	1	213055,8723	1,35042167	1,35110307	-0,033966584997769165	1	0,00104498176	4,58923569E-005
2	1	0	0	1	213063,8939	1,43063819	1,43128049	0,15196442114258256	1	0,00154091942	0,000217503708
2	1	0	0	0	213071,7677	1,5090543	1,50963259	0,36088604304111539	2	0,000197574074	0,000544805313
2	1	0	0	0	213079,6693	1,58807027	1,58879042	0,86897924266480333	2	0,00469189696	0,00138062588
2	1	0	0	0	213087,6009	1,66738701	1,66805542	1,9679416398759283	2	0,015560925	0,00328263571
2	1	0	0	0	213095,5026	1,74640214	1,74698496	3,3249450955885466	2	0,0364670642	0,0058086291
2	1	0	1	0	213103,4043	1,82541907	1,82603276	4,6921378429289005	2	0,0681547746	0,00856799725
2	1	0	1	0	213111,3059	1,90443563	1,90505719	6,0415856446381325	2	0,110605918	0,0115095666
2	1	0	1	0	213119,2075	1,98345184	1,98425555	7,3266686609497997	2	0,163487256	0,0145379826
2	1	0	1	0	213127,1091	2,06246829	2,06333303	8,4608381103586509	2	0,226045296	0,0174575262
2	1	0	1	0	213135,0107	2,14148402	2,14209056	8,4976026084687821	2	0,294930428	0,0182026345
2	1	0	1	0	213142,9123	2,22050047	2,22121286	4,4681300377404442	2	0,34758532	0,00992466789
2	1	0	1	0	213150,8141	2,29951692	2,30034041	1,4536134581889043	2	0,369564205	0,00334380567
2	1	0	0	0	213158,7158	2,37853265	2,37911916	0,50169045533294822	2	0,376342058	0,00119358138
2	1	0	0	0	213166,6574	2,45794916	2,45868206	0,19504312850121107	2	0,378862888	0,000479549053
2	1	0	0	0	213174,5590	2,53696537	2,53763056	0,13247680170806619	2	0,38012749	0,000336177181
2	1	0	0	0	213182,4606	2,61598158	2,61659741	0,10042337016029989	2	0,381037623	0,000262767542
2	1	0	0	0	213190,3622	2,69499779	2,69575095	0,08226070589282464	2	0,381758302	0,000221754381
2	1	0	0	0	213198,2638	2,774014	2,77460623	0,074495687589256512	2	0,382372975	0,000206696204
2	1	0	0	0	213206,1654	2,8530302	2,85376859	0,074379265351497024	2	0,382962167	0,000212261206
2	1	0	0	0	213214,0671	2,93204689	2,93279338	0,076995195386357568	2	0,383563042	0,000225811003
2	1	0	1	0	213221,9688	3,01106286	3,01176381	0,080701492295635251	2	0,384190649	0,00024305383
2	1	0	1	0	213229,8704	3,09007907	3,0908463	0,084045849223103987	2	0,384845763	0,000259772816
2	1	0	1	0	213237,7720	3,16909504	3,16966152	0,085858181472522688	2	0,385521203	0,000272141362
2	1	0	1	0	213245,6736	3,24811125	3,24873447	0,086316593422520038	2	0,386205792	0,000280419685
2	1	0	1	0	213253,5752	3,32712746	3,3277905	0,085534272448125837	2	0,386888921	0,000284640148
2	1	0	1	0	213261,4768	3,40614367	3,40681028	0,083221866921694144	2	0,387560576	0,000283521105
2	1	0	1	0	213269,3784	3,48515987	3,48592806	0,080222285447504486	2	0,388210833	0,000279649103
2	1	0	0	0	213277,2802	3,56417608	3,56493473	0,077863173171256909	2	0,388838112	0,000277577143
2	1	0	0	0	213285,1818	3,64319229	3,64392352	0,07658068094126601	2	0,389451861	0,000279054133
2	1	0	0	0	213293,0834	3,72220874	3,72302771	0,075049260131048627	2	0,390055239	0,00027941048
2	1	0	0	0	213300,9850	3,80122471	3,8019495	0,073021649201918669	2	0,390643537	0,000277624611
2	1	0	0	0	213308,8866	3,88024116	3,8809526	0,071199559580741594	2	0,391216666	0,000276322127
2	1	0	0	0	213316,7882	3,95925736	3,95974517	0,071587281956992038	2	0,391782939	0,00028346738
2	0	0	0	0	213324,5903	3,96275711	3,96325994	-0,0076276303596911347	2	0,392089009	3,02302815E-005
2	0	0	1	0	213332,5320	3,88334131	3,88400531	-0,018389662908803965	2	0,391977847	7,14255511E-005
2	0	0	1	0	213340,4336	3,80432558	3,80491424	-0,024171011720749466	2	0,391805053	9,19686281E-005
2	0	0	1	0	213348,3352	3,72530961	3,72608137	-0,02797278504887657	2	0,391594738	0,000104228871
2	0	0	1	0	213356,2368	3,64629269	3,64697647	-0,03091947242824544	2	0,391358167	0,000112762587
2	0	0	1	0	213364,1384	3,56727648	3,56796527	-0,032526615360338074	2	0,391103476	0,00011605383
2	0	0	1	0	213372,0400	3,48826051	3,48892379	-0,033023345831747014	2	0,390840441	0,000115215938
2	0	0	1	0	213379,9416	3,4092443	3,40970778	-0,032839410942634093	2	0,390577406	0,000111972797
2	0	0	1	0	213387,8432	3,33022881	3,33088827	-0,032630362332934867	2	0,39031598	0,000108688095
2	0	0	0	0	213395,7450	3,25121188	3,25185895	-0,03268467328787111	2	0,390054137	0,000106285945
2	0	0	0	0	213403,6466	3,17219567	3,17284822	-0,03283419070713639	2	0,389791697	0,000104177903
2	0	0	0	0	213411,5482	3,0931797	3,09395242	-0,032700187621500288	2	0,389529556	0,000101172824
2	0	0	0	0	213419,4498	3,01416302	3,01471019	-0,032643605592763968	2	0,38926816	9,84110084E-005
2	0	0	0	0	213427,3514	2,93514705	2,93571711	-0,032702433993108678	2	0,389007449	9,60050966E-005
2	0	0	0	0	213435,2530	2,8561306	2,85684371	-0,03294087295782633	2	0,388745934	9,41069229E-005
2	0	0	0	0	213443,1546	2,77711463	2,77777481	-0,033465922646293446	2	0,388480276	9,29607995E-005
2	0	0	0	0	213451,0563	2,69809842	2,69892883	-0,034758824334029325	2	0,388207436	9,38115918E-005
2	0	0	1	0	213458,9580	2,61908221	2,61972189	-0,037831761274935206	2	0,387919217	9,91086927E-005
2	0	0	1	0	213466,8596	2,540066	2,54078174	-0,043761542709371162	2	0,387595356	0,000111188529
2	0	0	1	0	213474,7612	2,4610498	2,46184659	-0,052374893471736186	2	0,387215197	0,000128938947
2	0	0	1	0	213482,6628	2,38203382	2,38273311	-0,065634108959110349	2	0,386749119	0,00015638856
2	0	0	1	0	213490,5644	2,30301714	2,30375314	-0,081965408460409779	2	0,38616392	0,000188828068
2	0	0	1	0	213498,5060	2,2236011	2,22417259	-0,099510300404358259	2	0,38543877	0,000221328082
2	0	0	1	0	213506,4076	2,14458489	2,14517021	-0,11668413553248858	2	0,384579927	0,000250307319
2	0	0	1	0	213514,3093	2,06556845	2,06627917	-0,13357186086071126	2	0,383589268	0,000275996746
2	0	0	0	0	213522,2110	1,98655248	1,98734403	-0,15525497215006646	2	0,382452577	0,000308545044
2	0	0	0	0	213530,1126	1,90753591	1,90812349	-0,19866617510302387	2	0,381070435	0,000379079604
2	0	0	0	0	213538,0142	1,82851994	1,82917917	-0,27812850144174474	2	0,379197538	0,000508746889
2	0	0	0	0	213545,9158	1,74950385	1,74999487	-0,2762725549508591	2	0,376939058	0,000483475567
2	0	0	0	0	213553,8174	1,67048764	1,67123747	-0,34245730367385453	2	0,374590456	0,000572327466
2	0	0	0	0	213561,7190	1,59147143	1,59201717	-0,57580948545148749	2	0,371085674	0,000916698598
2	0	0	0	0	213569,6606	1,51205504	1,51267242	-1,0489192047604816	2	0,364823014	0,0015866711
2	0	0	1	0	213577,5624	1,43303871	1,43372369	-2,145279805417431	2	0,35289526	0,00307573844
2	0	0	1	0	213585,4640	1,35402262	1,35465479	-3,6120696382390138	2	0,330138683	0,00489310734
2	0	0	1	0	213593,3656	1,27500618	1,27555919	-5,1021890728562074	2	0,295718193	0,00650814408
2	0	0	1	0	213601,2672	1,19599009	1,19679284	-6,6081892572067315	2	0,249435619	0,00790863391
2	0	0	1	0	213609,1688	1,11697376	1,11768389	-8,0567896940089549	2	0,191398874	0,009004944
2	0	0	1	0	213617,0704	1,03795767	1,03852153	-9,131084160672288	2	0,122964986	0,00948282704
2	1	0	0	1	213624,8226	1,03955793	1,0403018	-6,4704042706224525	2	0,0579273403	0,00673117302
2	1	0	0	1	213632,7242	1,11857426	1,11916149	-2,7197635171038086	2	0,023448078	0,00304385461
2	1	0	0	1	213640,6258	1,19759035	1,19835043	-1,1131255410059709	2	0,00913763978	0,00133391446
2	1	0	0	1	213648,5674	1,27700663	1,27773547	-0,40049589901335027	2	0,00361275068	0,00051172782
2	1	0	0	1	213656,4691	1,35602236	1,3566438	-0,097430121766972634	2	0,00175859558	0,000132177971
2	1	0	1	1	213664,5308	1,43663943	1,43722177	0,11358959959061088	2	0,00185418793	0,00016325344
2	1	0	1	0	213672,3768	1,51475549	1,51538706	0,34926395404531616	3	0,00035097904	0,000529270095
2	1	0	1	0	213680,2784	1,5937717	1,59432697	0,89086881749056704	3	0,00494121015	0,00142033619
2	1	0	1	0	213688,2200	1,67318809	1,67382765	1,9553425389307472	3	0,0159403197	0,00327290641
2	1	0	1	0	213696,1216	1,75220406	1,75281632	3,219032018272969	3	0,0363698043	0,00564237172
2	1	0	1	0	213704,0232	1,83122051	1,83196998	4,4948816945155488	3	0,0668460205	0,00823448785
2	1	0	1	0	213711,9248	1,91023672	1,91097236	5,754944047994144	3	0,107381798	0,0109975394
2	1	0	1	0	213719,8264	1,98925292	1,9899075	6,9663340648015718	3	0,157694042	0,0138623603
2	1	0	0	0	213727,7282	2,06826925	2,06895423	8,0372688957938291	3	0,217117757	0,0166287422
2	1	0	0	0	213735,6298	2,14728498	2,14799643	8,3269423102891546	3	0,283024371	0,0178862419
2	1	0	0	0	213743,5314	2,22630191	2,22707415	5,1607772321612512	3	0,338728994	0,0114934333
2	1	0	0	0	213751,4330	2,30531788	2,30602288	1,9554198290462778	3	0,365217626	0,00450924272
2	1	0	0	0	213759,3346	2,38433409	2,38498926	0,5518861591677968	3	0,373945564	0,00131624262
2	1	0	0	0	213767,2762	2,4637506	2,46439672	0,19205760469453104	3	0,376503766	0,000473306136
2	1	0	0	0	213775,1778	2,54276657	2,54342556	0,12637531638352406	3	0,377729297	0,000321426196
2	1	0	1	0	213783,0796	2,62178326	2,6226728	0,090745389787463296	3	0,378579944	0,000237995468
2	1	0	1	0	213790,9813	2,70079899	2,70150995	0,074182861303496883	3	0,379221916	0,000200405731
2	1	0	1	0	213798,8829	2,77981544	2,78035188	0,070140600333817984	3	0,379791349	0,000195015557
2	1	0	1	0	213806,7845	2,85883141	2,85949612	0,071047657333244915	3	0,380350471	0,000203160496
2	1	0	1	0	213814,6861	2,93784761	2,93849397	0,074425823477752179	3	0,380927414	0,000218699832
2	1	0	1	0	213822,5877	3,01686406	3,01751876	0,078041484139653286	3	0,381532371	0,000235491636
2	1	0	1	0	213830,4893	3,09588003	3,09660983	0,081074841665448896	3	0,382164717	0,00025105715
2	1	0	1	0	213838,3909	3,17489624	3,17557573	0,082521347872292378	3	0,382815897	0,000262052781
2	1	0	1	0	213846,2926	3,25391245	3,25463629	0,082636537705318874	3	0,383473158	0,000268951873
2	1	0	0	0	213854,1943	3,33292866	3,33358073	0,081382429727387622	3	0,384125382	0,000271294906
2	1	0	0	0	213862,0959	3,41194487	3,41266274	0,078969291075029811	3	0,384762883	0,000269495562
2	1	0	0	0	213869,9975	3,49096107	3,49162936	0,07609029971408032	3	0,385378569	0,000265679118
2	1	0	0	0	213877,8991	3,56997752	3,57062697	0,074427048270418125	3	0,38597548	0,000265751238
2	1	0	0	0	213885,8007	3,64899349	3,64970899	0,073318569851970381	3	0,386563241	0,000267591444
2	1	0	0	0	213893,7023	3,7280097	3,72872472	0,072021791625215821	3	0,387142152	0,000268549426
2	1	0	0	0	213901,6040	3,8070271	3,807621	0,070306784035948582	3	0,387707502	0,000267701602
2	1	0	0	0	213909,5056	3,8860414	3,88677669	0,069038951754847194	3	0,388260394	0,000268338976
2	1	0	1	0	213917,4073	3,96505833	3,96582913	0,069876507148836467	3	0,388810366	0,000277118292
2	0	0	1	0	213925,2793	3,95625639	3,95691013	-0,009910648074259703	3	0,389057606	3,92155453E-005
2	0	0	1	0	213933,1809	3,8772409	3,8776722	-0,019805755541677059	3	0,388931453	7,68002283E-005
2	0	0	1	0	213941,0826	3,7982235	3,79888725	-0,025357148963802256	3	0,38874799	9,63289494E-005
2	0	0	0	0	213948,9843	3,719208	3,71983266	-0,028917442136271565	3	0,388529867	0,000107568048
2	0	0	0	0	213956,8859	3,64019179	3,64079046	-0,03155041191106023	3	0,388287336	0,000114868439
2	0	0	0	0	213964,7875	3,56117558	3,5617125	-0,033235725213739008	3	0,388027757	0,000118376098
2	0	0	0	0	213972,6891	3,48215938	3,48276806	-0,033487059214773158	3	0,387760371	0,000116627663
2	0	0	0	0	213980,5907	3,40314293	3,40390348	-0,033135439618490746	3	0,387493819	0,000112789836
2	0	0	0	0	213988,4923	3,32412672	3,32463455	-0,032961529451077498	3	0,38722983	0,000109585038
2	0	0	0	0	213996,3939	3,24511051	3,24576592	-0,033134318125020435	3	0,38696593	0,000107546242
2	0	0	0	0	214004,2956	3,1660943	3,16664815	-0,033241651034369158	3	0,386701435	0,000105264611
2	0	0	1	0	214012,1973	3,08707833	3,08769059	-0,032991818350705306	3	0,386437327	0,000101868529
2	0	0	1	0	214020,0989	3,00806212	3,00875115	-0,032809618640587802	3	0,386174083	9,87159801E-005
2	0	0	1	0	214028,0005	2,92904568	2,92965078	-0,032866239927157203	3	0,385911524	9,62866034E-005
2	0	0	1	0	214035,9021	2,85002971	2,85073328	-0,033061947945194906	3	0,3856484	9,42507977E-005
2	0	0	1	0	214043,8037	2,7710135	2,77158856	-0,033802474491057114	3	0,385381311	9,36865545E-005
2	0	0	1	0	214051,7053	2,69199729	2,69260859	-0,035030541303395002	3	0,385107279	9,43235354E-005
2	0	0	1	0	214059,6069	2,61298108	2,61367321	-0,037763424165960794	3	0,384818703	9,87012536E-005
2	0	0	1	0	214067,5086	2,53396463	2,53461337	-0,043414177193155104	3	0,384496212	0,000110038156
2	0	0	0	0	214075,4103	2,45494866	2,45561576	-0,051996041158283104	3	0,384118259	0,000127682302
2	0	0	0	0	214083,3119	2,37593222	2,37672496	-0,064764618994323213	3	0,383656502	0,000153927685
2	0	0	0	0	214091,2135	2,29691601	2,29755378	-0,080505362142705203	3	0,383079797	0,000184965393
2	0	0	0	0	214099,1151	2,2178998	2,21870279	-0,097915241201580237	3	0,382371455	0,000217244815
2	0	0	0	0	214107,0567	2,13848376	2,13930869	-0,1145846328905057	3	0,381525129	0,000245131901
2	0	0	0	0	214114,9583	2,05946732	2,06010652	-0,13126357110148202	3	0,380551696	0,000270416931
2	0	0	0	0	214122,8599	1,98045111	1,981251	-0,15470544745524762	3	0,379426062	0,000306510308
2	0	0	0	0	214130,7616	1,90143549	1,90218294	-0,19947085851323053	3	0,378041834	0,000379430072
2	0	0	1	0	214138,6633	1,82241869	1,82320678	-0,27511912839556141	3	0,37616694	0,000501599046
2	0	0	1	0	214146,5649	1,74340236	1,74397767	-0,27282471030398624	3	0,373956412	0,000475800189
2	0	0	1	0	214154,4665	1,66438615	1,66501522	-0,34682742351045184	3	0,371598989	0,000577472965
2	0	0	1	0	214162,3681	1,58536983	1,58593762	-0,5771626355471433	3	0,368063897	0,000915343931
2	0	0	1	0	214170,3097	1,50595355	1,50670409	-1,0294780836061186	3	0,361856163	0,0015511188
2	0	0	1	0	214178,2113	1,42693758	1,42756855	-2,034545655051863	3	0,350343823	0,00290445331
2	0	0	1	0	214186,1129	1,34792125	1,34858847	-3,3891293428562432	3	0,328925848	0,00457054097
2	0	0	1	0	214194,0146	1,26890504	1,26975107	-4,7864570368305318	3	0,296643406	0,00607760902
2	0	0	0	0	214201,9163	1,18988883	1,19048655	-6,2173551972265984	3	0,253165245	0,00740167778
2	0	0	0	0	214209,8179	1,11087263	1,11144865	-7,6113555751464614	3	0,198451117	0,00845963042
2	0	0	0	0	214217,7195	1,0318563	1,03244197	-8,7241611745622515	3	0,133549035	0,00900719035
2	1	0	0	1	214225,4616	1,04555893	1,04625642	-6,6455092745521651	3	0,0703917369	0,00695290696
2	1	0	1	1	214233,3633	1,12457538	1,12516975	-3,2489673743645434	3	0,032196153	0,00365563971
2	1	0	1	1	214241,2649	1,20359159	1,20437205	-1,4685994942707197	3	0,0145870754	0,00176874013
2	1	0	1	1	214249,1665	1,28260791	1,28326321	-0,63122441178118643	3	0,00669716205	0,000810027064
2	1	0	1	1	214257,1081	1,36202419	1,36264789	-0,20138316898158461	3	0,00357349543	0,000274414342
2	1	0	1	1	214265,1297	1,44224072	1,44297636	0,062666693314288986	3	0,00307358778	9,04265544E-005
2	1	0	1	0	214272,9877	1,52025664	1,52089691	0,33276603143248275	4	0,000468555227	0,000506102806
2	1	0	1	0	214280,8893	1,59927273	1,59990346	0,89794620319649715	4	0,00506675057	0,00143662724
2	1	0	1	0	214288,8310	1,678689	1,67935097	1,922940981055479	4	0,0160233602	0,00322929281
2	1	0	0	0	214296,7327	1,75770533	1,75832188	3,1044067218900013	4	0,0358702801	0,00545854634
2	1	0	0	0	214304,6343	1,83672166	1,83764458	4,3101712917840019	4	0,065160878	0,00792056322
2	1	0	0	0	214312,5359	1,91573775	1,91647744	5,5195379764945434	4	0,104018554	0,0105780698
2	1	0	0	0	214320,4375	1,99475408	1,9954617	6,6876589159170406	4	0,152306348	0,0133449668
2	1	0	0	0	214328,3391	2,07377028	2,07452631	7,7372009290589005	4	0,209434465	0,0160510261
2	1	0	0	0	214336,2407	2,15278649	2,1533103	8,1469914460623731	4	0,273135424	0,0175430011
2	1	0	0	0	214344,1423	2,2318027	2,23246813	5,8405755515452006	4	0,330659121	0,0130388988
2	1	0	0	0	214352,0440	2,31081915	2,31149268	2,3157858683608019	4	0,361672103	0,00535292225
2	1	0	1	0	214359,9857	2,39023519	2,39112258	0,47163288157295648	4	0,371260703	0,00112773199
2	1	0	1	0	214367,8873	2,46925116	2,47000003	0,17229614765555779	4	0,373361498	0,000425571488
2	1	0	1	0	214375,7889	2,54826784	2,54900646	0,10732270204634576	4	0,374437988	0,000273566257
2	1	0	1	0	214383,6905	2,62728405	2,62779927	0,07928328400615703	4	0,375161171	0,000208340556
2	1	0	1	0	214391,5921	2,70630002	2,70705533	0,068762643909495821	4	0,37574324	0,000186144287
2	1	0	1	0	214399,4937	2,78531623	2,78604889	0,06649447066054048	4	0,376275569	0,000185256853
2	1	0	1	0	214407,3953	2,86433291	2,86481047	0,068243039280383219	4	0,37680918	0,00019550338
2	1	0	0	0	214415,2971	2,94334936	2,94391537	0,07155861598719415	4	0,377363861	0,000210662503
2	1	0	0	0	214423,1987	3,02236533	3,02285504	0,075234180523289779	4	0,37794742	0,000227422017
2	1	0	0	0	214431,1004	3,10138154	3,10210204	0,078402986327462451	4	0,378558815	0,000243214061
2	1	0	0	0	214439,0020	3,18039751	3,18104553	0,079868292022083008	4	0,379188508	0,000254064682
2	1	0	0	0	214446,9036	3,25941324	3,26003885	0,079840533159397427	4	0,379823595	0,000260283239
2	1	0	0	0	214454,8052	3,33842969	3,33898377	0,078320487273029427	4	0,380452216	0,000261510839
2	1	0	0	0	214462,7068	3,41744614	3,41806102	0,075611891742381363	4	0,381064326	0,00025844606
2	1	0	0	0	214470,6085	3,49646282	3,49709988	0,073091896934804442	4	0,38165471	0,000255609659
2	1	0	1	0	214478,5102	3,57547832	3,57606125	0,07185653482425847	4	0,382230133	0,000256963365
2	1	0	1	0	214486,4118	3,654495	3,65517879	0,071299128105036224	4	0,382799238	0,000260611065
2	1	0	1	0	214494,3134	3,73351121	3,73420763	0,069563149155497766	4	0,383360386	0,000259763241
2	1	0	1	0	214502,2150	3,81252718	3,81323647	0,068352093997722355	4	0,383909971	0,000260642701
2	1	0	1	0	214510,1166	3,89154363	3,89233208	0,067424053731546253	4	0,384449363	0,000262436806
2	1	0	1	0	214518,0182	3,9705596	3,97120094	0,068721236721439373	4	0,384988666	0,000272905832
2	0	0	0	0	214525,9404	3,95025539	3,9508841	-0,011980982895086922	4	0,385183305	4,73354739E-005
2	0	0	0	0	214533,8420	3,87123919	3,87187314	-0,021045832506691341	4	0,385045469	8,14867963E-005
2	0	0	0	0	214541,7436	3,79222298	3,79295564	-0,02621426748508504	4	0,384854108	9,94295551E-005
2	0	0	0	0	214549,6452	3,71320724	3,71385121	-0,029522408313048864	4	0,38463071	0,000109641835
2	0	0	0	0	214557,5468	3,63419056	3,634902	-0,03181945286363497	4	0,384384602	0,000115660594
2	0	0	0	0	214565,4484	3,55517483	3,55581975	-0,033456879757365722	4	0,384122372	0,000118966636
2	0	0	1	0	214573,3502	3,47615814	3,47683048	-0,03379201388818176	4	0,383852929	0,0001174891
2	0	0	1	0	214581,2518	3,3971417	3,39778447	-0,033386287270803558	4	0,383584887	0,000113439412
2	0	0	1	0	214589,1534	3,31812549	3,31868458	-0,033058870057747994	4	0,383320034	0,00010971196
2	0	0	1	0	214597,0550	3,23910928	3,23967361	-0,033202257878319373	4	0,38305527	0,000107564476
2	0	0	1	0	214604,9566	3,16009307	3,1608355	-0,033165172048568506	4	0,382790089	0,000104829654
2	0	0	1	0	214612,8582	3,08107734	3,08164239	-0,033078490506375014	4	0,382525265	0,000101936079
2	0	0	1	0	214620,7598	3,00206089	3,00259995	-0,033002827838235661	4	0,382261336	9,90942863E-005
2	0	0	1	0	214628,6615	2,9230442	2,92371821	-0,033011636713042246	4	0,381998032	9,65167201E-005
2	0	0	0	0	214636,5632	2,844028	2,84460473	-0,033138355964588141	4	0,381734252	9,42655242E-005
2	0	0	0	0	214644,4648	2,76501203	2,76573181	-0,033826547730886835	4	0,381466597	9,35551579E-005
2	0	0	0	0	214652,3664	2,68599606	2,68665862	-0,035032117165866406	4	0,381192118	9,4119343E-005
2	0	0	0	0	214660,2680	2,60697961	2,60749125	-0,037682513706386144	4	0,380903453	9,82568235E-005
2	0	0	0	0	214668,1696	2,5279634	2,52849388	-0,043580380958264	4	0,380581528	0,000110192726
2	0	0	0	0	214676,0712	2,44894743	2,44982553	-0,05219720728281463	4	0,380203784	0,000127874053
2	0	0	0	0	214683,9728	2,36993122	2,37050295	-0,064596005396365568	4	0,379742682	0,000153125016
2	0	0	0	0	214691,8744	2,29091477	2,29146504	-0,080076436262094259	4	0,379169196	0,000183492361
2	0	0	1	0	214699,7762	2,2118988	2,21265435	-0,09682819583556768	4	0,378467083	0,000214247324
2	0	0	1	0	214707,7178	2,13248205	2,13322043	-0,11334238556662157	4	0,377629697	0,000241784292
2	0	0	1	0	214715,6194	2,05346608	2,05427623	-0,13056091710718176	4	0,376665056	0,000268208183
2	0	0	1	0	214723,5210	1,97444987	1,97522068	-0,15538414253818765	4	0,375541389	0,000306917966
2	0	0	1	0	214731,4226	1,89543355	1,89615607	-0,20139833167195232	4	0,37414664	0,000381882681
2	0	0	1	0	214739,3242	1,81641769	1,81708288	-0,27232616246436515	4	0,37226364	0,000494839216
2	0	0	1	0	214747,2258	1,73740113	1,73806751	-0,27062317346119302	4	0,370091826	0,000470361352
2	0	0	1	0	214755,1275	1,65838504	1,65904272	-0,35224771657241005	4	0,367715448	0,000584394031
2	0	0	0	0	214763,0292	1,57936859	1,57995164	-0,58191827891601907	4	0,36413309	0,000919402752
2	0	0	0	0	214770,9708	1,49995232	1,50056243	-1,0207196748642939	4	0,357930422	0,00153165357
2	0	0	0	0	214778,8724	1,42093635	1,42150223	-1,9654546512497894	4	0,346651167	0,00279389811
2	0	0	0	0	214786,7740	1,34192014	1,34246016	-3,2351289866147258	4	0,326120108	0,00434303191
2	0	0	0	0	214794,6756	1,26290381	1,26359153	-4,5647101258790022	4	0,295336694	0,0057679289
2	0	0	0	0	214802,5772	1,18388748	1,1844914	-5,94551103203392	4	0,253831893	0,00704240659
2	0	0	0	0	214810,4788	1,10487139	1,1055516	-7,2939969709626381	4	0,201453835	0,00806389004
2	0	0	0	0	214818,3805	1,02585423	1,02672184	-8,4264936864825267	4	0,139049605	0,00865166541
2	1	0	1	1	214826,1226	1,0515604	1,05230045	-6,5085743467013376	4	0,0781591833	0,00684897555
2	1	0	1	1	214834,0242	1,13057661	1,1311692	-3,6315014549979558	4	0,0385278277	0,00410784269
2	1	0	1	1	214841,9258	1,20959282	1,21018016	-1,7507869604009158	4	0,0180618484	0,0021187677
2	1	0	1	1	214849,8275	1,28860879	1,28914678	-0,82042316511349965	4	0,00829160865	0,00105764589
2	1	0	0	1	214857,7692	1,3680253	1,36857605	-0,31312200747844134	4	0,00399790751	0,00042853129
2	1	0	0	1	214865,7908	1,44824195	1,44895339	0,014202887483406922	4	0,00286666327	2,05793222E-005
2	1	0	0	0	214873,6968	1,52675796	1,52732825	0,32830872493623578	5	0,000600152649	0,000501435192
2	1	0	0	0	214881,5984	1,60577416	1,60633016	0,91453741214894003	5	0,00527831167	0,00146904902
2	1	0	0	0	214889,5300	1,68509042	1,68578184	1,9051919761631312	5	0,0162694305	0,00321173808
2	1	0	0	0	214897,4316	1,76410675	1,76473081	3,0251584381416877	5	0,0357330814	0,00533859013
2	1	0	0	0	214905,3332	1,84312284	1,84374177	4,1776083785074931	5	0,064184539	0,00770243118
2	1	0	0	0	214913,2348	1,92213929	1,9229306	5,3437495181957734	5	0,101804115	0,0102756592
2	1	0	1	0	214921,1366	2,00115538	2,00200891	6,4867083115047565	5	0,14857395	0,0129864477
2	1	0	1	0	214929,0382	2,08017159	2,08095741	7,5090147565912845	5	0,204007864	0,0156259406
2	1	0	1	0	214936,9398	2,15918756	2,15985274	7,9522603253524262	5	0,265935183	0,0171757117
2	1	0	1	0	214944,8414	2,23820376	2,2388413	6,2002957176279526	5	0,323555142	0,0138814785
2	1	0	1	0	214952,7430	2,31722045	2,31779933	2,6528212855811546	5	0,358328611	0,00614870759
2	1	0	1	0	214960,6846	2,39663649	2,39733553	0,38844369131106227	5	0,368668705	0,00093122985
2	1	0	1	0	214968,5862	2,47565293	2,47648025	0,1543903248729519	5	0,370552331	0,000382344588
2	1	0	1	0	214976,4879	2,55466938	2,55538511	0,096263264461494464	5	0,371504813	0,000245989708
2	1	0	0	0	214984,3896	2,63368511	2,63439107	0,072913015683836685	5	0,372163087	0,000192081396
2	1	0	0	0	214992,2912	2,71270156	2,71332622	0,064963305256915955	5	0,372703493	0,000176266636
2	1	0	0	0	215000,1928	2,79171777	2,79229307	0,06402002977793719	5	0,37321341	0,000178762682
2	1	0	0	0	215008,0944	2,8707335	2,87141919	0,066188343334943168	5	0,373730034	0,000190054474
2	1	0	0	0	215015,9960	2,94975042	2,95035028	0,069666967692750323	5	0,374269158	0,000205541961
2	1	0	0	0	215023,8976	3,02876639	3,02949071	0,073444113023234304	5	0,374837756	0,00022249826
2	1	0	0	0	215031,7992	3,10778284	3,10853267	0,076484897932796109	5	0,375434041	0,000237755798
2	1	0	0	0	215039,7009	3,18679953	3,18744683	0,077966437470358912	5	0,376048267	0,000248513883
2	1	0	0	0	215047,6025	3,26581407	3,2665143	0,077676108528594854	5	0,376667202	0,000253730133
2	1	0	1	0	215055,5042	3,34483099	3,34557462	0,075900249898916467	5	0,377278507	0,00025392996
2	1	0	1	0	215063,4059	3,4238472	3,42447877	0,073228456778451917	5	0,377871424	0,000250769284
2	1	0	1	0	215071,3075	3,50286365	3,50368142	0,071100332437910912	5	0,37844336	0,000249112927
2	1	0	1	0	215079,2091	3,58187962	3,58267927	0,070154158303652237	5	0,379003286	0,000251339836
2	1	0	1	0	215087,1107	3,66089582	3,66166377	0,069529766725651814	5	0,379558802	0,000254594634
2	1	0	1	0	215095,0123	3,73991132	3,74049616	0,068310968604376371	5	0,380106837	0,000255516905
2	1	0	0	0	215102,9141	3,81892896	3,81973457	0,066944817055223821	5	0,380644739	0,000255711435
2	1	0	0	0	215110,8157	3,89794493	3,89858532	0,066408096183160576	5	0,381174415	0,000258897635
2	1	0	0	0	215118,7173	3,97696066	3,97770762	0,067999842050657126	5	0,381706387	0,000270483491
2	0	0	0	0	215126,5993	3,94425392	3,94490194	-0,0136208857050642	5	0,381844014	5,37330598E-005
2	0	0	0	0	215134,5009	3,86523819	3,86598945	-0,021950688971965616	5	0,381696463	8,48611307E-005
2	0	0	0	0	215142,4025	3,7862215	3,78683615	-0,026814394712413536	5	0,381498814	0,000101541722
2	0	0	0	0	215150,3041	3,70720577	3,70792723	-0,029947917222872934	5	0,381271392	0,000111044697
2	0	0	0	0	215158,2057	3,62818909	3,6288712	-0,032251048255366957	5	0,381022602	0,000117034899
2	0	0	0	0	215166,1073	3,54917288	3,54969621	-0,033756903890106522	5	0,380758554	0,000119826756
2	0	0	0	0	215174,0089	3,47015715	3,47082758	-0,034014340365064083	5	0,380487949	0,000118057913
2	0	0	0	0	215181,9106	3,39114022	3,39174867	-0,033230376700737696	5	0,380219251	0,000112709087
2	0	0	0	0	215189,8122	3,31212497	3,31277466	-0,033110347073112109	5	0,37995407	0,00010968712
2	0	0	1	0	215197,7139	3,23310828	3,23373628	-0,033284924648426195	5	0,379688978	0,000107634667
2	0	0	1	0	215205,6155	3,15409184	3,15472531	-0,033236317008871642	5	0,37942344	0,000104851453
2	0	0	1	0	215213,5171	3,0750761	3,07579422	-0,033175098623528742	5	0,379158288	0,000102039776
2	0	0	1	0	215221,4187	2,99605942	2,99663663	-0,033071980505526125	5	0,378894001	9,91047054E-005
2	0	0	1	0	215229,3203	2,91704345	2,9175055	-0,032962302858423834	5	0,37863037	9,61676997E-005
2	0	0	1	0	215237,2219	2,838027	2,83875656	-0,03322593739290791	5	0,378366262	9,43203486E-005
2	0	0	1	0	215245,1235	2,75901127	2,75978613	-0,033917835848706112	5	0,378098309	9,36059732E-005
2	0	0	0	0	215253,0253	2,67999482	2,6807251	-0,035170125601880154	5	0,377823502	9,42814368E-005
2	0	0	0	0	215260,9269	2,60097861	2,60163927	-0,037762916625339706	5	0,377534688	9,82454876E-005
2	0	0	0	0	215268,8285	2,52196217	2,52267694	-0,043548714986105466	5	0,377212822	0,000109859342
2	0	0	0	0	215276,7301	2,4429462	2,44354606	-0,052211126338483462	5	0,376834333	0,000127580293
2	0	0	0	0	215284,6317	2,36392999	2,36453485	-0,064581694038308493	5	0,376372397	0,000152705659
2	0	0	0	0	215292,5333	2,28491354	2,28561234	-0,0798812061203296	5	0,375799984	0,000182577467
2	0	0	0	0	215300,4349	2,20589733	2,20668578	-0,096287999543601459	5	0,375101477	0,00021247736
2	0	0	0	0	215308,3765	2,12648106	2,12720752	-0,11257355500594546	5	0,374269694	0,000239467307
2	0	0	1	0	215316,2783	2,04746461	2,04810762	-0,13014212235559403	5	0,37330994	0,000266545074
2	0	0	1	0	215324,1799	1,96844852	1,96911013	-0,15646034275630051	5	0,372183889	0,000308087649
2	0	0	1	0	215332,0815	1,88943231	1,88999212	-0,20375106111168685	5	0,370775282	0,000385087886
2	0	0	1	0	215339,9831	1,81041586	1,81103885	-0,27001532253430006	5	0,368882984	0,000489008264
2	0	0	1	0	215347,8847	1,73139989	1,73199677	-0,26992752423716925	5	0,366742402	0,000467513601
2	0	0	1	0	215355,7863	1,65238392	1,65311468	-0,35875565969143699	5	0,364340067	0,000593064236
2	0	0	1	0	215363,6879	1,57336748	1,57402813	-0,58924340222169037	5	0,360698909	0,0009274857
2	0	0	1	0	215371,6296	1,49395108	1,49463475	-1,019942422449713	5	0,354463875	0,00152444141
2	0	0	0	0	215379,5313	1,41493511	1,41553414	-1,9270312631571757	5	0,343282312	0,00272777863
2	0	0	0	0	215387,4329	1,3359189	1,33651435	-3,1321369188803488	5	0,323321849	0,00418614596
2	0	0	0	0	215395,3345	1,25690258	1,25767672	-4,4061104406913075	5	0,293575555	0,00554146245
2	0	0	0	0	215403,2361	1,17788637	1,17850101	-5,7443724749264787	5	0,253482401	0,00676974887
2	0	0	0	0	215411,1377	1,09887016	1,09945428	-7,0734380086263117	5	0,202784926	0,00777692162
2	0	0	0	0	215419,0393	1,01985395	1,02060354	-8,2011383286228608	5	0,142176941	0,00837011077
2	1	0	1	1	215426,7815	1,05756176	1,05823743	-6,2669682215761574	5	0,0836754888	0,00663194014
2	1	0	1	1	215434,6831	1,13657796	1,13719082	-3,7818965729739846	5	0,0443723686	0,00430073822
2	1	0	1	1	215442,5847	1,21559417	1,21632195	-1,9980376379357558	5	0,0220582504	0,00243025692
2	1	0	1	1	215450,4863	1,29461038	1,29514623	-0,98552279726222822	5	0,0107099898	0,0012763961
2	1	0	1	1	215458,4279	1,37402654	1,37467349	-0,4172242982658023	5	0,00533094257	0,000573547208
2	1	0	1	1	215466,3695	1,45344293	1,4541117	-0,041077264623405773	5	0,00359119591	5,97309299E-005
2	1	0	0	0	215474,2117	1,53125894	1,53200567	0,31414953232915277	6	0,000633560703	0,000481278868
2	1	0	0	0	215482,1133	1,61027503	1,61092329	0,91442082104859072	6	0,00528163696	0,00147306174
2	1	0	0	0	215490,0450	1,68959105	1,6902144	1,871674601291815	6	0,0161739513	0,00316353142
2	1	0	1	0	215497,9467	1,76860774	1,76927042	2,9411596029444954	6	0,0351677574	0,00520370668
2	1	0	1	0	215505,8483	1,84762394	1,84820116	4,0480608664177178	6	0,0627606735	0,00748163089
2	1	0	1	0	215513,7499	1,92663991	1,92751038	5,1745882128123968	6	0,0991997868	0,00997407269
2	1	0	1	0	215521,6515	2,00565624	2,00658393	6,2928920984268186	6	0,144536421	0,0126272161
2	1	0	1	0	215529,5531	2,08467245	2,08556819	7,3067848064281126	6	0,198392451	0,0152387982
2	1	0	1	0	215537,4547	2,16368866	2,16441894	7,7900916569763008	6	0,258788913	0,0168610215
2	1	0	1	0	215545,3563	2,24270487	2,24325204	6,4065769325804211	6	0,316237062	0,0143715665
2	1	0	1	0	215553,2579	2,32172012	2,32243538	3,0120612370108973	6	0,354512841	0,00699531753
2	1	0	0	0	215561,1997	2,40113759	2,40174127	0,35531670900268518	6	0,365479708	0,000853378791
2	1	0	0	0	215569,1013	2,48015356	2,48074841	0,14095303295525141	6	0,367187828	0,000349669019
2	1	0	0	0	215577,0029	2,55917001	2,55976343	0,087594085381607514	6	0,368056893	0,00022422013
2	1	0	0	0	215584,9045	2,63818598	2,63878775	0,068073546427682035	6	0,368661374	0,000179631636
2	1	0	0	0	215592,8061	2,71720243	2,71780348	0,062640449161537882	6	0,369176567	0,000170244428
2	1	0	0	0	215600,7077	2,79621863	2,79691696	0,06242524840248119	6	0,369671285	0,00017459823
2	1	0	0	0	215608,6093	2,8752346	2,87587428	0,064703097894650125	6	0,370175183	0,000186077974
2	1	0	0	0	215616,5110	2,95425034	2,95481396	0,068151518541579315	6	0,370702267	0,000201375064
2	1	0	1	0	215624,4127	3,03326726	3,03390098	0,071957232378837005	6	0,371259034	0,000218311121
2	1	0	1	0	215632,3143	3,11228323	3,11309028	0,074962136646112397	6	0,371843398	0,000233363899
2	1	0	1	0	215640,2159	3,19129944	3,19196296	0,07634035491867497	6	0,372445434	0,000243675589
2	1	0	1	0	215648,1175	3,27031589	3,27100992	0,076135137540943693	6	0,373052031	0,0002490388
2	1	0	1	0	215656,0191	3,34933162	3,35002995	0,07437948194435895	6	0,373649925	0,000249173492
2	1	0	1	0	215663,9207	3,42834806	3,42895198	0,071340633806324493	6	0,374228179	0,000244623603
2	1	0	1	0	215671,8224	3,50736547	3,50812817	0,069338945882204019	6	0,374786019	0,000243249902
2	1	0	1	0	215679,7240	3,58638	3,58716035	0,06881632465367415	6	0,375334263	0,000246855197
2	1	0	0	0	215687,6257	3,66539693	3,66611814	0,068176525084439501	6	0,375879109	0,000249943201
2	1	0	0	0	215695,5273	3,74441314	3,74511194	0,067119256360456179	6	0,376416981	0,000251369114
2	1	0	0	0	215703,4290	3,82342935	3,82410073	0,066081644147979456	6	0,376945972	0,000252702856
2	1	0	0	0	215711,3306	3,90244555	3,90318274	0,065642470623262566	6	0,377468437	0,000256214553
2	1	0	0	0	215719,2322	3,98146152	3,98198462	0,067264542707966387	6	0,377994895	0,000267846364
2	0	0	0	0	215727,1642	3,93925357	3,93977547	-0,014837893032193018	6	0,378090948	5,84579684E-005
2	0	0	0	0	215735,0658	3,86023688	3,8609066	-0,022913842224861258	6	0,377935797	8,84682013E-005
2	0	0	0	0	215742,9675	3,78121948	3,78183699	-0,027423699269066736	6	0,377733231	0,000103711958
2	0	0	0	0	215750,8691	3,70220494	3,70296597	-0,030255656356344998	6	0,377502799	0,000112035668
2	0	0	1	0	215758,7708	3,62318826	3,62382483	-0,032454981964460947	6	0,377252251	0,000117611169
2	0	0	1	0	215766,6724	3,54417205	3,54490256	-0,033802103246906931	6	0,37698701	0,000119825163
2	0	0	1	0	215774,5740	3,46515584	3,46582913	-0,033965271026654938	6	0,37671569	0,000117717827
2	0	0	1	0	215782,4756	3,38613963	3,38663149	-0,033403820323723462	6	0,376446635	0,000113126429
2	0	0	1	0	215790,3772	3,30712318	3,30782485	-0,033256242689849613	6	0,376181334	0,000110005829
2	0	0	1	0	215798,2788	3,22810698	3,22879171	-0,033305338622691693	6	0,375916123	0,000107535998
2	0	0	1	0	215806,1804	3,14909124	3,14960718	-0,033283799174601446	6	0,375650406	0,000104830891
2	0	0	0	0	215814,0822	3,0700748	3,07072186	-0,033211295397478189	6	0,375385106	0,000101982652
2	0	0	0	0	215821,9838	2,99105859	2,99171829	-0,033020968734355891	6	0,37512061	9,87894382E-005
2	0	0	0	0	215829,8854	2,91204238	2,91264963	-0,03257415566972832	6	0,37485677	9,48771049E-005
2	0	0	0	0	215837,7870	2,83302617	2,83370996	-0,033421063209297389	6	0,374592423	9,4705596E-005
2	0	0	0	0	215845,6886	2,75400996	2,75456524	-0,033938181267499149	6	0,374324381	9,34849377E-005
2	0	0	0	0	215853,5902	2,67499352	2,67573214	-0,035054625361226496	6	0,374049515	9,37967852E-005
2	0	0	0	0	215861,4918	2,59597754	2,59670329	-0,037693295593338867	6	0,373760909	9,78783064E-005
2	0	0	0	0	215869,3934	2,5169611	2,51764297	-0,043506328702076269	6	0,373439521	0,000109533401
2	0	0	0	0	215877,2951	2,43794513	2,43875265	-0,052289530743147258	6	0,373060852	0,000127521227
2	0	0	1	0	215885,1968	2,35892868	2,35949659	-0,064493423629621184	6	0,372599036	0,000152172011
2	0	0	1	0	215893,0984	2,27991271	2,28060603	-0,079482262997232819	6	0,372028857	0,000181267722
2	0	0	1	0	215901,0000	2,20089626	2,20157242	-0,095415528587722061	6	0,37133497	0,000210064201
2	0	0	1	0	215908,9416	2,12148023	2,12217879	-0,11176645340121994	6	0,370509326	0,000237188404
2	0	0	1	0	215916,8432	2,04246378	2,04318547	-0,13000886192269362	6	0,36955446	0,000265632232
2	0	0	1	0	215924,7448	1,96344757	1,96413863	-0,15754794841632336	6	0,368426293	0,000309446012
2	0	0	1	0	215932,6465	1,884431	1,885203	-0,20534889516373101	6	0,367007285	0,000387124368
2	0	0	0	0	215940,5482	1,80541515	1,80583167	-0,26687704682074374	6	0,365112513	0,000481935014
2	0	0	0	0	215948,4498	1,72639883	1,72705209	-0,26953218394407229	6	0,362997621	0,000465496123
2	0	0	0	0	215956,3514	1,64738274	1,64785409	-0,36359736899397088	6	0,360572875	0,000599155435
2	0	0	0	0	215964,2530	1,56836641	1,56896758	-0,59426365923826726	6	0,356889546	0,000932380441
2	0	0	0	0	215972,1846	1,48905027	1,48979652	-1,0163091505291293	6	0,350652069	0,00151409383
2	0	0	0	0	215980,0862	1,41003394	1,41053629	-1,8886601246065667	6	0,339591444	0,00266402354
2	0	0	0	0	215987,9878	1,33101785	1,33150721	-3,0441257514887565	6	0,320142388	0,00405327557
2	0	0	0	0	215995,8894	1,25200164	1,25275004	-4,275210049969175	6	0,291272789	0,00535576977
2	0	0	1	0	216003,7912	1,17298532	1,1735698	-5,5778844555218822	6	0,252371401	0,00654603681
2	0	0	1	0	216011,6928	1,09396911	1,09458542	-6,8784148395061773	6	0,203114271	0,00752901239
2	0	0	1	0	216019,5944	1,0149529	1,01567221	-8,0067803230551539	6	0,144060835	0,00813226402
2	1	0	1	1	216027,3464	1,0625627	1,06320441	-6,0446238263889805	6	0,0876157209	0,00642667059
2	1	0	1	1	216035,2480	1,14157891	1,14237559	-3,7978357192542944	6	0,0490955561	0,00433855504
2	1	0	1	1	216043,1496	1,22059512	1,22115529	-2,1684290995752454	6	0,0258665103	0,00264798873
2	1	0	1	1	216051,0513	1,29961228	1,30018985	-1,1269512064883838	6	0,0131944371	0,00146525051
2	1	0	0	1	216058,9530	1,37862754	1,37931991	-0,51302255434846522	6	0,00691170059	0,00070762221
2	1	0	0	1	216066,8946	1,45804393	1,4587003	-0,090769031956032691	6	0,00458982959	0,000132404821
2	1	0	0	0	216074,8248	1,53665984	1,53731072	0,30939393638874835	7	0,000682111597	0,000475634617
2	1	0	0	0	216082,7264	1,6156764	1,61630845	0,92425426413064218	7	0,00537147792	0,00149387994
2	1	0	0	0	216090,6680	1,69509244	1,69578671	1,8554476367102781	7	0,0162810329	0,00314644352
2	1	0	0	0	216098,5696	1,77410865	1,77479792	2,8814955792493466	7	0,034970779	0,00511407247
2	1	0	0	0	216106,4712	1,85312498	1,85386658	3,9513683705418323	7	0,0619453825	0,00732530979
2	1	0	0	0	216114,3728	1,93214107	1,93298018	5,0494971876894893	7	0,0975093469	0,00976057816
2	1	0	0	0	216122,2745	2,01115704	2,01194644	6,142003820010359	7	0,141765893	0,012357383
2	1	0	1	0	216130,1762	2,09017348	2,09105134	7,1448843159057843	7	0,194373459	0,0149403196
2	1	0	1	0	216138,0778	2,16919017	2,16994667	7,6484830887229696	7	0,253525585	0,0165967997
2	1	0	1	0	216145,9794	2,2482059	2,24900675	6,4841668815524262	7	0,310524791	0,0145829348
2	1	0	1	0	216153,8810	2,32722235	2,32796407	3,2856118817020358	7	0,350931317	0,00764878653
2	1	0	1	0	216161,8226	2,40663886	2,40732694	0,30575204185313696	7	0,361501098	0,000736045127
2	1	0	1	0	216169,7242	2,48565459	2,48632479	0,12571871541095558	7	0,36300835	0,000312577555
2	1	0	1	0	216177,6258	2,56467104	2,56545568	0,0809961403547616	7	0,363796026	0,000207792007
2	1	0	0	0	216185,5276	2,64368725	2,64440465	0,065470105019838515	7	0,364367068	0,000173129447
2	1	0	0	0	216193,4292	2,72270346	2,72330475	0,060878118379386509	7	0,364864171	0,000165789665
2	1	0	0	0	216201,3308	2,8017199	2,80238175	0,061129970329434573	7	0,365346938	0,000171309512
2	1	0	0	0	216209,2324	2,88073587	2,88139772	0,063423075954670899	7	0,36584115	0,000182747113
2	1	0	0	0	216217,1340	2,95975232	2,9603641	0,067041187892081856	7	0,366359234	0,000198466325
2	1	0	0	0	216225,0356	3,03876877	3,03936219	0,070919580473046835	7	0,36690715	0,000215550288
2	1	0	0	0	216232,9372	3,1177845	3,11831093	0,073622338197849613	7	0,367482543	0,000229577345
2	1	0	0	0	216240,8389	3,19680119	3,19754004	0,075215867759786061	7	0,368075103	0,000240505746
2	1	0	0	0	216248,7405	3,27581596	3,27642059	0,074865458497588749	7	0,368671596	0,000245290721
2	1	0	1	0	216256,6422	3,35483336	3,35542369	0,072588532093774694	7	0,369258255	0,000243565286
2	1	0	1	0	216264,5438	3,43384933	3,43441248	0,06975843185662345	7	0,369823873	0,000239579225
2	1	0	1	0	216272,4454	3,51286578	3,51357961	0,068089671743412928	7	0,370370179	0,000239238478
2	1	0	1	0	216280,3470	3,59188223	3,59254169	0,067644012583144115	7	0,370908946	0,000243013928
2	1	0	1	0	216288,2486	3,6708982	3,67154813	0,067144704680821338	7	0,371444881	0,000246525015
2	1	0	1	0	216296,1502	3,74991441	3,75050139	0,066142023592773325	7	0,371974051	0,000248065742
2	1	0	1	0	216304,0519	3,82893109	3,8295877	0,06510188353552759	7	0,372495443	0,000249313365
2	1	0	1	0	216311,9535	3,90794611	3,90866041	0,06497068756677376	7	0,373011917	0,000253948354
2	1	0	0	0	216319,8552	3,98696327	3,98771691	0,066959186905512448	7	0,373534411	0,000267014286
2	0	0	0	0	216327,7372	3,93425202	3,93492842	-0,015845423562159046	7	0,373582959	6,23506057E-005
2	0	0	0	0	216335,6388	3,85523582	3,85583282	-0,023547010433739475	7	0,373421013	9,07933354E-005
2	0	0	0	0	216343,5405	3,77621984	3,77673745	-0,027745675580162109	7	0,373214334	0,000104788131
2	0	0	0	0	216351,4421	3,6972034	3,69793582	-0,030506863327765862	7	0,372981459	0,00011281242
2	0	0	0	0	216359,3437	3,61818719	3,61881375	-0,032530240555017939	7	0,37272948	0,000117720883
2	0	0	0	0	216367,2453	3,53917122	3,53978443	-0,033946771717940806	7	0,372463346	0,000120164252
2	0	0	0	0	216375,1469	3,46015573	3,46071243	-0,034089393084891117	7	0,372191519	0,000117973585
2	0	0	1	0	216383,0487	3,38113856	3,38170004	-0,033425891133784134	7	0,371922344	0,000113036338
2	0	0	1	0	216390,9503	3,30212212	3,30263567	-0,033081568458496883	7	0,371657073	0,000109256369
2	0	0	1	0	216398,8519	3,22310615	3,22382927	-0,033262825566689024	7	0,371391952	0,000107233667
2	0	0	1	0	216406,7535	3,1440897	3,14480925	-0,033337532797034995	7	0,371126205	0,000104840183
2	0	0	1	0	216414,6551	3,06507373	3,06562901	-0,033308927776050381	7	0,370860845	0,000102112812
2	0	0	1	0	216422,5567	2,98605752	2,98665857	-0,033142480649985459	7	0,37059629	9,89852706E-005
2	0	0	1	0	216430,4583	2,90704131	2,90772295	-0,032999210249356646	7	0,370332539	9,59525642E-005
2	0	0	1	0	216438,3600	2,82802463	2,82875085	-0,033218852720255821	7	0,370067954	9,39678575E-005
2	0	0	0	0	216446,2617	2,74900889	2,74973631	-0,03392053423104441	7	0,369799912	9,32725234E-005
2	0	0	0	0	216454,1633	2,66999292	2,67062283	-0,035134761400210547	7	0,369525105	9,38316953E-005
2	0	0	0	0	216462,0649	2,59097624	2,59158945	-0,037623934590050701	7	0,369236767	9,75057919E-005
2	0	0	0	0	216469,9665	2,51196027	2,51259637	-0,043479957035742534	7	0,368915945	0,00010924758
2	0	0	0	0	216477,8681	2,43294406	2,43362546	-0,052349016199716282	7	0,368537366	0,0001273979
2	0	0	0	0	216485,7697	2,35392785	2,3546145	-0,064252481563016832	7	0,368076146	0,000151289831
2	0	0	0	0	216493,6713	2,2749114	2,27566123	-0,078954734485941094	7	0,36750859	0,000179674229
2	0	0	0	0	216501,5730	2,19589424	2,19655967	-0,094825898785164006	7	0,36681962	0,000208290745
2	0	0	1	0	216509,5147	2,11647892	2,117167	-0,11129766575026301	7	0,365999848	0,000235635744
2	0	0	1	0	216517,4163	2,03746295	2,03821874	-0,12975612532830371	7	0,365049094	0,000264471368
2	0	0	1	0	216525,3179	1,95844674	1,95919406	-0,15853974552549043	7	0,363917857	0,000310610136
2	0	0	1	0	216533,2195	1,87943041	1,88025856	-0,20708128013130534	7	0,362488359	0,000389366352
2	0	0	1	0	216541,1211	1,80041409	1,80108738	-0,26375350632049434	7	0,360592663	0,000475043111
2	0	0	1	0	216549,0227	1,72139788	1,72200525	-0,27009674623884618	7	0,358498245	0,000465108023
2	0	0	1	0	216556,9243	1,64238179	1,64298975	-0,3688859844028407	7	0,356047899	0,000606075919
2	0	0	1	0	216564,8260	1,5633651	1,56403148	-0,59976963928505178	7	0,352318794	0,000938058598
2	0	0	0	0	216572,7677	1,48394918	1,48456693	-1,0161466430182866	7	0,346047729	0,00150853768
2	0	0	0	0	216580,6693	1,40493309	1,40568948	-1,8627862541211754	7	0,335049003	0,0026184991
2	0	0	0	0	216588,5709	1,32591677	1,32658041	-2,9763857465651142	7	0,315975219	0,00394841516
2	0	0	0	0	216596,4725	1,24690056	1,24760067	-4,1684015751989139	7	0,287797093	0,0052005006
2	0	0	0	0	216604,3741	1,16788411	1,16857612	-5,4399533304903501	7	0,249862954	0,00635699974
2	0	0	0	0	216612,2757	1,08886802	1,08938277	-6,7253507806195213	7	0,201767966	0,0073264814
2	0	0	0	0	216620,1773	1,00985193	1,01039839	-7,8549642463524954	7	0,143956974	0,00793664344
2	1	0	0	1	216627,9194	1,06756282	1,06819749	-5,8383829250788045	7	0,0895599201	0,00623654621
2	1	0	1	1	216635,8211	1,1465801	1,14728916	-3,7587961250984704	7	0,0519767702	0,00431242585
2	1	0	1	1	216643,7227	1,22559607	1,22642469	-2,268803585458688	7	0,0285395272	0,00278251665
2	1	0	1	1	216651,6243	1,3046124	1,30519533	-1,2340910836226299	7	0,0150228534	0,00161072996
2	1	0	1	1	216659,5259	1,38362861	1,38422894	-0,5838097940992439	7	0,00803882722	0,00080812641
2	1	0	1	1	216667,4675	1,46304476	1,4636538	-0,12570113450702624	7	0,00529525848	0,000183982949
2	1	0	0	1	216671,7035	1,50540411	1,50625515	0,097622544504702093	7	0,0052344813	0,000147044455