File: Experimentelles/Ausgewaehlte_Daten/LTO/CV/LTO_Korrosion_02_CV_C02.mpt
EC-Lab ASCII FILE
Nb header lines : 61

Cyclic Voltammetry

Run on channel : 2 (SN 6986)
Grouped channel(s) : 2
User :
CE vs. WE compliance from -10 V to 10 V
Electrode connection : standard
Ewe ctrl range : min = 0,00 V, max = 5,00 V
Acquisition started on : 09.04.2015 14:14:19
Saved on :
	File : LTO_Korrosion_02_CV_C02.mpr
	Directory : C:\Gielisch\AlteZelle\150904_LTO_Korrosion\
	Host : 192.168.0.2
Device : VMP3 (SN 0324)
Address : 192.168.0.1
EC-Lab for windows v10.33 (software)
Internet server v10.33 (firmware)
Command interpretor v10.32 (firmware)
Electrode material :
Initial state :
Electrolyte :
Comments :
Electrode surface area : 0,001 cm²
Characteristic mass : 0,001 g
Equivalent Weight : 0,000 g/eq.
Density : 0,000 g/cm3
Ei (V)              0,000
vs.                 Eoc
dE/dt               10,000
dE/dt unit          mV/s
E1 (V)              4,000
vs.                 Ref
Step percent        50
N                   10
E range min (V)     0,000
E range max (V)     5,000
I Range             Auto
Bandwidth           5
E2 (V)              0,600
vs.                 Ref
nc cycles           0
Reverse Scan        1
Ef (V)              0,000
vs.                 Eoc

Modify on : 09.04.2015 14:31
E2 (V)              1,000

Number of loops : 7
Loop 0 from point number 0 to 6797
Loop 1 from point number 6798 to 12795
Loop 2 from point number 12796 to 18793
Loop 3 from point number 18794 to 24791
Loop 4 from point number 24792 to 30789
Loop 5 from point number 30790 to 36788
Loop 6 from point number 36789 to 42787

mode	ox/red	error	control changes	counter inc.	time/s	control/V	Ewe/V	<I>/mA	cycle number	(Q-Qo)/C	P/W
2	1	1	1	0	0,0508	3,143641	3,14429379	0,00012875051470473408	1	0	4,0482945E-007
2	1	0	1	0	8,0474	3,22360635	3,22415805	0,030271667275681203	1	0,000222090472	9,76006413E-005
2	1	0	1	0	16,0490	3,30362296	3,3042419	0,031694191667527238	1	0,000470534724	0,000104725274
2	1	0	1	0	24,0506	3,3836391	3,38423181	0,034254147727214912	1	0,000736497925	0,000115923976
2	1	0	0	0	32,0524	3,46365547	3,46404886	0,036474228633947334	1	0,0010206888	0,000126348517
2	1	0	0	0	40,0540	3,54367161	3,54428816	0,039536818952506515	1	0,00132591778	0,00014012988
2	1	0	0	0	48,0556	3,62368798	3,62411809	0,043090921240272333	1	0,00165802473	0,000156166585
2	1	0	0	0	56,0572	3,70370483	3,70419264	0,046980223057929485	1	0,00202000653	0,000174023793
2	1	0	0	0	64,0589	3,78372121	3,7842319	0,052012085711693203	1	0,0024159723	0,0001968258
2	1	0	1	0	72,0606	3,86373782	3,86418629	0,059341038094350656	1	0,00286098756	0,000229304831
2	1	0	1	0	80,0622	3,9437542	3,9442122	0,067609461490064858	1	0,00337092066	0,000266666058
2	0	0	0	0	87,9844	3,97706079	3,97765875	-0,0020400911943633395	1	0,00382073107	8,1147864E-006
2	0	0	0	0	96,0260	3,89664435	3,89718747	-0,026542725869350915	1	0,00367065752	0,000103441977
2	0	0	0	0	104,0276	3,81662774	3,81710362	-0,03106225952419833	1	0,00343485759	0,000118567863
2	0	0	0	0	112,0292	3,73661137	3,73697114	-0,032343655376246477	1	0,00317837275	0,000120867306
2	0	0	1	0	120,0310	3,65659475	3,65705633	-0,032696351978542816	1	0,00291635678	0,000119572403
2	0	0	1	0	128,0326	3,57657886	3,57692838	-0,032790840896605446	1	0,00265271519	0,000117290489
2	0	0	1	0	136,0342	3,49656224	3,49691153	-0,032703100427709184	1	0,00238949689	0,000114359849
2	0	0	1	0	144,0358	3,41654587	3,4169879	-0,032722521870810842	1	0,00212646043	0,000111812464
2	0	0	1	0	152,0375	3,33652902	3,33705997	-0,033534132313762816	1	0,00186028983	0,000111905414
2	0	0	0	0	160,0392	3,25651312	3,25693655	-0,035042391206068781	1	0,00158495433	0,000114130846
2	0	0	0	0	168,0408	3,17649674	3,17688394	-0,037103977964121626	1	0,00129515433	0,000117875032
2	0	0	0	0	176,0424	3,09648013	3,0970583	-0,039765086602764512	1	0,000986261875	0,000123154794
2	0	0	0	0	184,0440	3,01646352	3,01683712	-0,04324809796418311	1	0,000653225114	0,000130472472
2	0	0	1	0	192,0458	2,93644738	2,93678904	-0,047836602911249805	1	0,00028772396	0,000140486009
2	0	0	1	0	200,0474	2,85643077	2,85694575	-0,05199660519482896	1	-0,000113009657	0,00014855148
2	0	0	1	0	208,0490	2,77641463	2,77671075	-0,0556409747115576	1	-0,000545481744	0,000154498892
2	0	0	1	0	216,0506	2,6963985	2,69684982	-0,059366656381084954	1	-0,00100704411	0,000160102951
2	0	0	1	0	224,0523	2,61638188	2,61688614	-0,063670001736681498	1	-0,00150050316	0,000166617145
2	0	0	0	0	232,0540	2,53636503	2,5368917	-0,068624422945840819	1	-0,00203084736	0,000174092726
2	0	0	0	0	240,0556	2,45634866	2,45683002	-0,074593602619306253	1	-0,00260445895	0,000183263808
2	0	0	0	0	248,0572	2,37633228	2,37682223	-0,082108443214868429	1	-0,00323217269	0,000195157176
2	0	0	0	0	256,0588	2,29631639	2,29681039	-0,091262186737835814	1	-0,00392672326	0,000209611942
2	0	0	1	0	264,1006	2,21589923	2,21647239	-0,10240020123482907	1	-0,0047059278	0,000226967211
2	0	0	1	0	272,1022	2,13588285	2,1362865	-0,11605909751314282	1	-0,00557909859	0,000247935473
2	0	0	1	0	280,1038	2,05586648	2,05650544	-0,13309773745843101	1	-0,00657442305	0,000273716229
2	0	0	1	0	288,1054	1,97585011	1,97640395	-0,15868492127844512	1	-0,00773459673	0,000313625496
2	0	0	0	0	296,1072	1,89583373	1,89638269	-0,20315284268171664	1	-0,0091677485	0,000385255524
2	0	0	0	0	304,1088	1,81581724	1,81644583	-0,25578441374279936	1	-0,0110156201	0,000464618526
2	0	0	0	0	312,1104	1,73580086	1,73635781	-0,29527142961268038	1	-0,0132193854	0,000512696861
2	0	0	0	0	320,1120	1,65578425	1,65614069	-0,36024066371222221	1	-0,0158181749	0,000596609199
2	0	0	0	0	328,1137	1,57576799	1,57630229	-0,46147572016157754	1	-0,019080339	0,000727425213
2	0	0	1	0	336,1154	1,49575162	1,49623585	-0,62133790338756877	1	-0,023364624	0,000929668022
2	0	0	1	0	344,1170	1,41573513	1,41625011	-0,86556934041005555	1	-0,0292484146	0,00122586265
2	0	0	1	0	352,1486	1,3354187	1,33585966	-1,2762513984408592	1	-0,0376756638	0,00170489273
2	0	0	1	0	360,1502	1,25540233	1,2559762	-1,9344198091162605	1	-0,0503954403	0,00242958521
2	0	0	0	0	368,1520	1,17538571	1,17587912	-2,955404900290361	1	-0,0695797652	0,00347519899
2	0	0	0	0	376,1536	1,09536946	1,09573758	-4,6580563309016013	1	-0,0996724591	0,0051040072
2	0	0	0	0	384,1552	1,01535308	1,01578307	-6,4999001920223091	1	-0,144154519	0,00660248846
2	0	0	0	0	392,1568	0,935336649	0,935761809	-8,403093101801673	1	-0,203980938	0,0078632934
2	0	0	1	0	400,1586	0,855320215	0,855700254	-9,9308318760660198	1	-0,277868807	0,00849781558
2	0	0	1	0	408,2002	0,774903715	0,775327444	-8,6737100393683878	1	-0,355478019	0,00672496529
2	0	0	1	0	416,2018	0,69488728	0,69537288	-5,8076150124823731	1	-0,411431462	0,00403845776
2	0	0	1	0	424,2034	0,614870846	0,615364909	-5,1222378401844256	1	-0,454851031	0,00315204542
2	1	0	0	1	432,0856	0,663980961	0,664330125	-3,047428781787559	1	-0,487759173	0,00202449877
2	1	0	0	1	440,0872	0,743997335	0,744436026	-1,4595697139976186	1	-0,505285263	0,00108655624
2	1	0	0	1	448,1288	0,824413776	0,824977934	-0,42610712321820013	1	-0,512581646	0,000351528986
2	1	0	0	1	456,2105	0,90522939	0,905817628	0,29456040957280474	1	-0,512959182	0,00026681801
2	1	0	1	1	464,2122	0,985246837	0,9858886	0,85445764798808806	1	-0,508280516	0,00084240007
2	1	0	1	1	472,2438	1,0655632	1,0659945	1,2933380802472474	1	-0,499562919	0,00137869129
2	1	0	1	1	480,2454	1,1455797	1,14598906	1,5900101109787315	1	-0,48792398	0,00182213425
2	1	0	1	1	488,2471	1,22559619	1,22613943	1,7084529122302819	1	-0,474578202	0,00209480152
2	1	0	0	1	496,2488	1,30561256	1,30604506	1,5728493388052307	1	-0,46124801	0,00205421215
2	1	0	0	1	504,2504	1,38562906	1,3860842	1,1781151367834352	1	-0,450150788	0,0016329668
2	1	0	0	1	512,2520	1,46564543	1,46627462	0,8524590355378656	1	-0,442173064	0,00124993909
2	1	0	0	1	520,2536	1,54566193	1,54618478	0,74023257996197018	1	-0,435942441	0,00114453631
2	1	0	1	1	528,2554	1,62567818	1,62628162	1,0709936529121995	1	-0,429136485	0,00174173724
2	1	0	1	1	536,2570	1,70569468	1,70631647	2,0713853372467882	1	-0,416999876	0,00353443902
2	1	0	1	1	544,2586	1,78571117	1,78614628	3,5089290059275066	1	-0,394857109	0,00626746053
2	1	0	1	1	552,2602	1,86572754	1,86613655	5,2190238347759814	1	-0,360082418	0,00973941106
2	1	0	0	1	560,2620	1,94574404	1,94625151	7,1496138656580928	1	-0,310711324	0,0139149465
2	1	0	0	1	568,2636	2,02576041	2,02631283	9,1767647321577498	1	-0,245348096	0,018594997
2	1	0	0	1	576,3052	2,10617685	2,10652542	10,65433865895976	1	-0,164424643	0,0224436354
2	1	0	0	1	584,3068	2,18619323	2,18670726	7,0211333190953408	1	-0,0897586644	0,0153531628
2	1	0	0	1	592,3485	2,26660895	2,26715875	1,7469614668942707	1	-0,0551518053	0,00396063877
2	1	0	1	1	600,3902	2,34702635	2,34748411	0,3850215769338359	1	-0,0488596559	0,000903832028
2	1	0	1	1	608,3918	2,42704296	2,4274652	0,23180025270967565	1	-0,0465172417	0,000562687055
2	1	0	1	1	616,3934	2,5070591	2,50768685	0,17720763831985798	1	-0,0449059457	0,000444381265
2	1	0	1	1	624,3951	2,58707595	2,58766341	0,14916769884822224	1	-0,0436057001	0,000385995809
2	1	0	0	1	632,3968	2,66709185	2,6675961	0,13232007160506853	1	-0,042480886	0,000352976494
2	1	0	0	1	640,3984	2,74710846	2,74765325	0,12361613721414301	1	-0,0414548963	0,000339654274
2	1	0	0	1	648,4000	2,82712507	2,82777643	0,11686126420412357	1	-0,0404885933	0,000330457522
2	1	0	0	1	656,4016	2,90714145	2,90760207	0,1111761570770159	1	-0,0395719893	0,000323256012
2	1	0	1	1	664,4034	2,98715806	2,98754764	0,10762269725954126	1	-0,0386937074	0,000321527943
2	1	0	1	1	672,4050	3,0671742	3,06768489	0,10560103471356432	1	-0,0378372073	0,000323950691
2	1	0	0	0	680,3816	3,1463902	3,1467557	0,11395983106491192	2	1,92412626E-005	0,000358603749
2	1	0	0	0	688,3832	3,22640634	3,22656727	0,10491029771596715	2	0,000862559653	0,000338500133
2	1	0	0	0	696,3848	3,30642343	3,30667806	0,10732856120362301	2	0,00171689014	0,000354900985
2	1	0	1	0	704,3866	3,38643956	3,38668585	0,10860228148737461	2	0,00258674263	0,000367801811
2	1	0	1	0	712,3882	3,46645617	3,46670723	0,1102886232719933	2	0,00346659962	0,000382338359
2	1	0	1	0	720,3898	3,54647279	3,54673743	0,11294563573405702	2	0,00436489889	0,000400588528
2	1	0	1	0	728,3914	3,62648892	3,62673211	0,11629049569644334	2	0,00528761465	0,000421754463
2	1	0	1	0	736,3931	3,70650578	3,70669603	0,12049324497038173	2	0,00623886427	0,000446631835
2	1	0	0	0	744,3948	3,78652191	3,78659678	0,12499499874603414	2	0,00722414209	0,00047330567
2	1	0	0	0	752,3964	3,86653805	3,86672521	0,13046499679761814	2	0,00825113803	0,000504472293
2	1	0	0	0	760,3980	3,94655442	3,94677782	0,13611507424394826	2	0,00932399649	0,000537215965
2	0	0	1	0	768,3402	3,9740603	3,97433519	0,03755242101572176	2	0,0102216257	0,000149245912
2	0	0	1	0	776,3818	3,89364362	3,89395356	-0,0036746366784899328	2	0,0103181507	1,43088646E-005
2	0	0	0	0	784,4236	3,81322718	3,81341195	-0,016859074469948886	2	0,0102258688	6,42905943E-005
2	0	0	0	0	792,4252	3,7332108	3,73337197	-0,023780809435131056	2	0,0100563327	8,878261E-005
2	0	0	0	0	800,4268	3,65319419	3,65349746	-0,027863693992710742	2	0,00984525867	0,000101799938
2	0	0	0	0	808,4284	3,57317805	3,57327175	-0,030347398309795936	2	0,00960837118	0,000108439504
2	0	0	0	0	816,4301	3,49316144	3,49335241	-0,031779962935267411	2	0,00935561862	0,000111018613
2	0	0	1	0	824,4318	3,41314507	3,41337156	-0,032946356882651686	2	0,00909228623	0,000112458161
2	0	0	1	0	832,4334	3,33312893	3,33341241	-0,033973735420861126	2	0,00882047415	0,000113248469
2	0	0	1	0	840,4350	3,25311232	3,25342679	-0,034862678955067558	2	0,00854123011	0,000113423172
2	0	0	1	0	848,4366	3,1730957	3,17340565	-0,035688235553809178	2	0,00825481955	0,000113253249
2	0	0	0	0	856,4384	3,09307933	3,0933578	-0,036922338910193811	2	0,00796013698	0,000114214003
2	0	0	0	0	864,4400	3,01306319	3,0132072	-0,038608916043476429	2	0,00765437307	0,000116336661
2	0	0	0	0	872,4416	2,93304658	2,93319488	-0,040644715466812365	2	0,00733391009	0,000119218872
2	0	0	0	0	880,4432	2,8530302	2,85321355	-0,042592819948266637	2	0,0069970456	0,000121526413
2	0	0	0	0	888,4449	2,77301455	2,77319741	-0,044363122634993965	2	0,0066448506	0,000123027698
2	0	0	1	0	896,4466	2,69299722	2,69334888	-0,046155711282389709	2	0,00627902849	0,000124313432
2	0	0	1	0	904,4482	2,6129806	2,61331844	-0,048146621983808922	2	0,00589820882	0,000125822451
2	0	0	1	0	912,4498	2,53296447	2,53320384	-0,050429036314771802	2	0,00550000975	0,000127747029
2	0	0	1	0	920,4514	2,45294857	2,4532814	-0,052935821289045395	2	0,0050828103	0,000129866472
2	0	0	0	0	928,4532	2,37293172	2,37311697	-0,056214568170684429	2	0,00464342022	0,000133403752
2	0	0	0	0	936,4548	2,29291534	2,29331779	-0,060816889956455616	2	0,00417347392	0,000139472453
2	0	0	0	0	944,4564	2,21289897	2,21309185	-0,069243089252807142	2	0,0036521852	0,000153241315
2	0	0	0	0	952,4580	2,13288236	2,13286996	-0,083472653723287552	2	0,00304141897	0,000178036309
2	0	0	1	0	960,4998	2,05246592	2,05275083	-0,1050552180623292	2	0,00228564045	0,00021565218
2	0	0	1	0	968,5014	1,97244954	1,97280979	-0,13795228768140122	2	0,00131894567	0,000272153615
2	0	0	1	0	976,5030	1,89243305	1,89272165	-0,19000307779276282	2	1,4102292E-005	0,000359622936
2	0	0	1	0	984,5046	1,81241655	1,81280267	-0,23416728395278819	2	-0,00170648261	0,000424499071
2	0	0	1	0	992,5063	1,73240054	1,732741	-0,28521030508240618	2	-0,00375169865	0,000494195614
2	0	0	0	0	1000,5080	1,65238369	1,65265298	-0,42729153525498112	2	-0,00652064895	0,000706164632
2	0	0	0	0	1008,5096	1,57236719	1,572734	-0,76423463080492122	2	-0,0111121684	0,00120193779
2	0	0	0	0	1016,5512	1,49195075	1,49226344	-1,4831700692022237	2	-0,0197733324	0,00221328042
2	0	0	0	0	1024,5529	1,41193366	1,4120189	-3,2647893804919584	2	-0,0384075753	0,0046099443
2	0	0	1	0	1032,5546	1,331918	1,33218515	-5,1606306152211302	2	-0,0721473247	0,00687491568
2	0	0	1	0	1040,5562	1,25190151	1,25223947	-6,9135463911074458	2	-0,120673314	0,0086574154
2	0	0	1	0	1048,5578	1,17188513	1,17225814	-8,0695268600075712	2	-0,181215882	0,00945956819
2	0	0	1	0	1056,5594	1,09186864	1,09208107	-8,4427852255326848	2	-0,247634187	0,00922020618
2	0	0	0	0	1064,5612	1,01185226	1,01213086	-7,6305188746363802	2	-0,313658774	0,00772308372
2	1	0	0	1	1072,4032	1,06656349	1,06681502	-3,6819007540190637	2	-0,357890397	0,00392790698
2	1	0	0	1	1080,4048	1,14657998	1,14681864	-1,4870526768543072	2	-0,377312869	0,00170537969
2	1	0	0	1	1088,4065	1,22659588	1,22694647	-0,5536063708402423	2	-0,384956509	0,000679245393
2	1	0	1	1	1096,4482	1,30701292	1,30727959	-0,14732865540793584	2	-0,387559175	0,000192599749
2	1	0	1	1	1104,5698	1,38822949	1,3885293	0,065453126785103898	2	-0,387815475	9,08835864E-005
2	1	0	1	1	1112,6114	1,46864617	1,46893346	0,22260523697844192	2	-0,386651486	0,000326992274
2	1	0	0	1	1120,6132	1,54866242	1,54892802	0,46496976787845235	2	-0,384040177	0,000720204727
2	1	0	0	1	1128,6448	1,62897873	1,62926984	1,0593719643851163	2	-0,378189296	0,00172600278
2	1	0	0	1	1136,6464	1,70899546	1,7093401	2,1482763293164746	2	-0,365680397	0,00367213483
2	1	0	0	1	1144,6480	1,78901172	1,78923225	3,6714715852781542	2	-0,342592657	0,00656911545
2	1	0	0	1	1152,6497	1,8690275	1,86927044	5,4440680984330074	2	-0,306267828	0,010176436
2	1	0	1	1	1160,6514	1,94904459	1,94931066	7,4037506801110592	2	-0,254929483	0,0144322105
2	1	0	1	1	1168,6530	2,02906108	2,02931881	9,3728587483917926	2	-0,18773371	0,0190205183
2	1	0	1	1	1176,6846	2,10937738	2,10983396	10,621874053169194	2	-0,106088631	0,0224103909
2	1	0	1	1	1184,6863	2,18939376	2,18965483	6,5166404163458086	2	-0,0329835452	0,0142691927
2	1	0	0	1	1192,7280	2,26981044	2,27004099	0,65258573920086554	2	-0,0107700676	0,00148139638
2	1	0	0	1	1200,7696	2,35022712	2,35062337	0,23551500388593549	2	-0,00770728895	0,000553607068
2	1	0	0	1	1208,7712	2,43024349	2,43056464	0,14435698602486547	2	-0,00625020452	0,000350868999
2	1	0	0	1	1216,7729	2,51025963	2,51050973	0,10199954725505923	2	-0,00527086016	0,000256070867
2	1	0	1	1	1224,7746	2,59027624	2,59054494	0,084818930028833946	2	-0,00453771418	0,000219727255
2	1	0	1	1	1232,7762	2,67029238	2,67054415	0,081476995324784691	2	-0,00387174636	0,00021758792
2	1	0	1	1	1240,7778	2,75030923	2,75063658	0,081065565502891942	2	-0,00321768969	0,000222981907
2	1	0	1	1	1248,7794	2,8303256	2,83065343	0,080122606233797184	2	-0,002567983	0,000226799326
2	1	0	0	1	1256,7812	2,91034222	2,9105413	0,079725929544548826	2	-0,00192403444	0,000232045611
2	1	0	0	1	1264,7828	2,99035835	2,99063826	0,079874871816072448	2	-0,0012816909	0,000238876848
2	1	0	0	1	1272,7844	3,07037497	3,07060194	0,079784324030495398	2	-0,000638554222	0,000244985888
2	1	0	0	0	1280,6888	3,1488905	3,14911866	0,080681755871477414	3	3,12863049E-005	0,000254076411
2	1	0	0	0	1288,6904	3,22890687	3,22916174	0,079332977679937536	3	0,00066973333	0,000256179017
2	1	0	1	0	1296,6922	3,30892372	3,30914354	0,080381565684176589	3	0,00131357124	0,000265994138
2	1	0	1	0	1304,6938	3,38894033	3,38908935	0,080430498200089408	3	0,00196216931	0,000272586156
2	1	0	1	0	1312,6954	3,46895695	3,46914601	0,081335911915327181	3	0,00261369115	0,000282166147
2	1	0	1	0	1320,6970	3,54897308	3,54906082	0,083593309037732518	3	0,00327816349	0,000296677725
2	1	0	0	0	1328,6988	3,6289897	3,62909579	0,085888220712042048	3	0,0039606397	0,000311696582
2	1	0	0	0	1336,7004	3,70900559	3,70917892	0,08876767304415511	3	0,00466317777	0,000329255185
2	1	0	0	0	1344,7020	3,78902221	3,78931165	0,092584576914776614	3	0,00539223524	0,000350831804
2	1	0	0	0	1352,7036	3,86903858	3,86932874	0,098372583225783347	3	0,0061602029	0,000380635873
2	1	0	0	0	1360,7052	3,94905519	3,94927859	0,10614447540569038	3	0,00698187482	0,000419194112
2	0	0	1	0	1368,5974	3,97205997	3,97241259	0,017576199615615683	3	0,00764093827	6,98199146E-005
2	0	0	0	0	1376,6792	3,89124298	3,89143372	-0,012513931509010757	3	0,00763039617	4,86971367E-005
2	0	0	0	0	1384,6808	3,81122708	3,8114624	-0,023079206097733117	3	0,00747803692	8,79655272E-005
2	0	0	0	0	1392,6824	3,73121071	3,73144984	-0,027090485026645962	3	0,00726721715	0,000101086785
2	0	0	0	0	1400,6840	3,65119386	3,65141034	-0,030989813915867693	3	0,00702658715	0,00011315653
2	0	0	0	0	1408,6857	3,57117677	3,57143784	-0,032432659785051834	3	0,00676850928	0,00011583123
2	0	0	1	0	1416,6874	3,49116087	3,49148822	-0,033393883012683648	3	0,00650048116	0,000116594347
2	0	0	1	0	1424,6890	3,41114473	3,41145325	-0,033994443309320941	3	0,00622674264	0,000115970455
2	0	0	1	0	1432,6906	3,33112812	3,33144546	-0,034383858377286304	3	0,00594957452	0,000114547947
2	0	0	1	0	1440,6922	3,25111198	3,25121927	-0,034385216512924365	3	0,00567053305	0,000111793881
2	0	0	0	0	1448,6940	3,17109561	3,17119408	-0,034791855865537344	3	0,00538945198	0,000110331726
2	0	0	0	0	1456,6956	3,091079	3,09127498	-0,035826691577245715	3	0,0051042717	0,000110750152
2	0	0	0	0	1464,6972	3,01106286	3,01132464	-0,036952039972809824	3	0,00481069135	0,000111274589
2	0	0	0	0	1472,6988	2,93104625	2,93122768	-0,038806267087002867	3	0,00450367946	0,000113750008
2	0	0	0	0	1480,7005	2,85102987	2,85137439	-0,040862151104842259	3	0,00418085838	0,000116513293
2	0	0	1	0	1488,7022	2,77101326	2,77122068	-0,042617882571734931	3	0,00384314242	0,000118103555
2	0	0	1	0	1496,7038	2,69099689	2,6913414	-0,044231171090225229	3	0,00349231972	0,000119041179
2	0	0	1	0	1504,7054	2,61098075	2,61130261	-0,045989338765610566	3	0,00312744151	0,000120092081
2	0	0	1	0	1512,7070	2,53096414	2,53127646	-0,048158480061425421	3	0,00274666701	0,000121902427
2	0	0	0	0	1520,7088	2,45094776	2,45112181	-0,050511250134419373	3	0,00234896387	0,000123809223
2	0	0	0	0	1528,7104	2,37093115	2,37114954	-0,053370814873940326	3	0,0019309707	0,000126550178
2	0	0	0	0	1536,7120	2,29091454	2,29114151	-0,057987111965539238	3	0,00148306706	0,000132856672
2	0	0	0	0	1544,7136	2,2108984	2,21126699	-0,066619155419714189	3	0,000983479549	0,000147312734
2	0	0	0	0	1552,7153	2,1308825	2,13113523	-0,080665228303878451	3	0,000394569273	0,000171908512
2	0	0	1	0	1560,7570	2,05046558	2,05083299	-0,10181177997340752	3	-0,000337352918	0,000208798956
2	0	0	1	0	1568,7586	1,97044897	1,97062445	-0,13347623095399253	3	-0,00127535744	0,000263031514
2	0	0	1	0	1576,7602	1,89043248	1,8908478	-0,18309824927537565	3	-0,00253470079	0,000346210931
2	0	0	1	0	1584,7619	1,81041539	1,81064701	-0,22830280817780813	3	-0,00420246832	0,00041337579
2	0	0	0	0	1592,7636	1,73039985	1,73056924	-0,27621642465668694	3	-0,00618894398	0,000478011643
2	0	0	0	0	1600,7652	1,65038323	1,65082383	-0,4164900423062048	3	-0,00887867343	0,000687551685
2	0	0	0	0	1608,7668	1,57036698	1,57069123	-0,74849938608153984	3	-0,013371882	0,00117566145
2	0	0	0	0	1616,8084	1,48995042	1,49019372	-1,4466810569995018	3	-0,0218484737	0,00215583504
2	0	0	1	0	1624,8102	1,40993392	1,41021693	-3,146820637914871	3	-0,0398537591	0,00443769991
2	0	0	1	0	1632,8118	1,32991767	1,33019567	-4,9764519598749075	3	-0,0723503083	0,0066196546
2	0	0	1	0	1640,8134	1,24990118	1,25026774	-6,7090826663705907	3	-0,119311519	0,00838814955
2	0	0	1	0	1648,8150	1,16988456	1,17037988	-7,8302337350668979	3	-0,178092211	0,00916434824
2	0	0	1	0	1656,8167	1,08986926	1,09015441	-8,0852194499476019	3	-0,24201557	0,00881413743
2	0	0	0	0	1664,8184	1,00985181	1,01020384	-8,1231009728378752	3	-0,307905555	0,00820598751
2	1	0	0	1	1672,6604	1,06856406	1,06871545	-4,0675439359965254	3	-0,356099993	0,00434704684
2	1	0	0	1	1680,6621	1,14857948	1,14885604	-1,5234120076562122	3	-0,376719117	0,00175018108
2	1	0	1	1	1688,6638	1,22859681	1,22891378	-0,5892396965926441	3	-0,384600401	0,00072412478
2	1	0	1	1	1696,7054	1,30901325	1,30934918	-0,17916071318365888	3	-0,38749215	0,000234583931
2	1	0	1	1	1704,8270	1,39022982	1,3905499	0,040527815986597158	3	-0,387975246	5,63559515E-005
2	1	0	0	1	1712,8688	1,47064638	1,47108305	0,2055745363166479	3	-0,386983395	0,000302417204
2	1	0	0	1	1720,8704	1,55066288	1,5507971	0,46166681146456058	3	-0,384457171	0,000715951552
2	1	0	0	1	1728,9020	1,6309793	1,63119233	1,060270273851021	3	-0,378606528	0,00172950479
2	1	0	0	1	1736,9036	1,71099567	1,71134722	2,0989685196567533	3	-0,366215557	0,00359206391
2	1	0	0	1	1744,9053	1,79101133	1,79120314	3,4889636806765978	3	-0,344061553	0,0062494427
2	1	0	1	1	1752,9070	1,87102854	1,87130523	5,1004619835703642	3	-0,309819281	0,00954452157
2	1	0	1	1	1760,9086	1,95104504	1,95126009	6,895419603144695	3	-0,261931598	0,0134547567
2	1	0	1	1	1768,9102	2,03106165	2,03132153	8,7548266516791667	3	-0,199295312	0,0177838672
2	1	0	0	1	1776,9520	2,11147881	2,11178422	10,26361547235615	3	-0,122147113	0,0216745418
2	1	0	0	1	1784,9536	2,19149423	2,19178653	7,8125457090359808	3	-0,0452343188	0,0171234328
2	1	0	0	1	1792,9952	2,27191091	2,2722621	0,94585185263443699	3	-0,0130521096	0,00214922335
2	1	0	0	1	1801,0368	2,35232735	2,3526082	0,26564422298084883	3	-0,00922960974	0,000624956796
2	1	0	0	1	1809,0385	2,43234372	2,43285656	0,15145595673536061	3	-0,00765203964	0,000368470617
2	1	0	1	1	1817,0402	2,51236033	2,51257968	0,1061524599445636	3	-0,00663613528	0,000266716524
2	1	0	1	1	1825,0418	2,59237695	2,59257889	0,082567663992651802	3	-0,00590330362	0,000214063184
2	1	0	1	1	1833,0434	2,67239332	2,67274714	0,078582540464898176	3	-0,00525898766	0,000210031256
2	1	0	1	1	1841,0450	2,7524097	2,75276852	0,07798818501436905	3	-0,00462931069	0,000214683416
2	1	0	0	1	1849,0468	2,83242607	2,83264756	0,077710592412148506	3	-0,0040018633	0,00022012672
2	1	0	0	1	1857,0484	2,91244221	2,91253066	0,076944330138051021	3	-0,00337526156	0,000224102725
2	1	0	0	1	1865,0500	2,99245882	2,9926188	0,078888722764397069	3	-0,00274430867	0,00023608387
2	1	0	0	1	1873,0516	3,07247543	3,07279587	0,079511248601462746	3	-0,00210573873	0,000244321825
2	1	0	0	0	1880,9962	3,15139103	3,15164661	0,079915612315138381	4	4,7645266E-005	0,000251865771
2	1	0	1	0	1888,9980	3,23140788	3,23152113	0,078872261946284826	4	0,000684964703	0,000254877377
2	1	0	1	0	1896,9996	3,31142449	3,31156921	0,078790515186955174	4	0,00131970516	0,000260920235
2	1	0	1	0	1905,0012	3,39144087	3,39165735	0,078013727889844954	4	0,00195097213	0,000264595845
2	1	0	1	0	1913,0028	3,47145724	3,47157192	0,07817171579571785	4	0,00257889787	0,000271378725
2	1	0	1	0	1921,0045	3,55147386	3,55172205	0,079255310601094259	4	0,00321249315	0,00028149283
2	1	0	0	0	1929,0062	3,63148975	3,63175201	0,080475182927869043	4	0,00385572203	0,000292265904
2	1	0	0	0	1937,0078	3,71150637	3,71185422	0,082338699596692826	4	0,00451063644	0,000305629248
2	1	0	0	0	1945,0094	3,79152274	3,79179096	0,085310986412136973	4	0,00518420478	0,000323481421
2	1	0	0	0	1953,0110	3,87153888	3,87175846	0,090095235362510746	4	0,00588909118	0,000348826987
2	1	0	1	0	1961,0128	3,95155549	3,95184207	0,097064113735945485	4	0,00664058886	0,000383582053
2	0	0	0	0	1968,9550	3,96905923	3,96932411	0,0097447334674480371	4	0,00720989704	3,86800057E-005
2	0	0	0	0	1977,0366	3,88824248	3,88852835	-0,015767029031714563	4	0,00716037909	6,13105367E-005
2	0	0	0	0	1985,0381	3,80822587	3,8083601	-0,025116272080965562	4	0,00698887324	9,56518052E-005
2	0	0	0	0	1993,0397	3,72820973	3,72852135	-0,029206377501530547	4	0,00676614698	0,000108896602
2	0	0	1	0	2001,0415	3,64819336	3,64839768	-0,031672594452242355	4	0,00651711365	0,00011555422
2	0	0	1	0	2009,0431	3,56817722	3,56828284	-0,033123884009438746	4	0,00625323132	0,000118195385
2	0	0	1	0	2017,0447	3,48816085	3,48822999	-0,033917183905874285	4	0,00598104857	0,000118310942
2	0	0	1	0	2025,0463	3,40814424	3,40840912	-0,03427589653249552	4	0,0057044779	0,000116826275
2	0	0	1	0	2033,0480	3,32812762	3,328228	-0,034264517266370029	4	0,00542614795	0,000114040129
2	0	0	0	0	2041,0497	3,24811101	3,24837565	-0,034318927942809773	4	0,00514813839	0,000111480767
2	0	0	0	0	2049,0513	3,16809487	3,16831398	-0,034497206168318195	4	0,00487003801	0,00010929798
2	0	0	0	0	2057,0529	3,0880785	3,08825707	-0,03505980699426592	4	0,00458923355	0,0001082737
2	0	0	0	0	2065,0546	3,00806093	3,00829291	-0,036254012178194573	4	0,00430089515	0,00010906269
2	0	0	1	0	2073,0563	2,92804575	2,92818356	-0,038183054860888134	4	0,00399957551	0,000111806992
2	0	0	1	0	2081,0579	2,84802914	2,84842491	-0,040073782813528358	4	0,00368303293	0,000114147158
2	0	0	1	0	2089,0595	2,76801276	2,76823425	-0,041747632854687078	4	0,00335211866	0,000115567229
2	0	0	1	0	2097,0611	2,68799639	2,68834639	-0,043259479937626579	4	0,00300842454	0,000116296469
2	0	0	0	0	2105,0629	2,60797977	2,60816455	-0,045147919307324979	4	0,00265092822	0,000117753203
2	0	0	0	0	2113,0645	2,5279634	2,52818823	-0,047309849363820512	4	0,00227807718	0,000119608201
2	0	0	0	0	2121,0661	2,44794703	2,44824672	-0,04933224121729529	4	0,00188896596	0,000120777499
2	0	0	0	0	2129,0677	2,36793089	2,36814976	-0,052204674032206298	4	0,00147986179	0,000123628488
2	0	0	0	0	2137,0694	2,28791356	2,28826094	-0,057217603554971187	4	0,00104007998	0,000130928805
2	0	0	1	0	2145,0711	2,2078979	2,20816517	-0,066068093033714304	4	0,000546452124	0,000145889266
2	0	0	1	0	2153,0727	2,12788105	2,12823725	-0,080281103547248602	4	-3,84906671E-005	0,000170857238
2	0	0	1	0	2161,1143	2,04746485	2,0477438	-0,10133264531139941	4	-0,000767101243	0,000207503297
2	0	0	1	0	2169,1159	1,96744847	1,96768713	-0,13281476487302157	4	-0,0017009516	0,000261337904
2	0	0	0	0	2177,1177	1,88743198	1,88773239	-0,18044865536676013	4	-0,0029479349	0,00034063877
2	0	0	0	0	2185,1193	1,80741537	1,8077023	-0,22550094962396016	4	-0,0045944564	0,000407638581
2	0	0	0	0	2193,1209	1,72739911	1,72763634	-0,27306287935762531	4	-0,00655859197	0,000471753359
2	0	0	0	0	2201,1225	1,64738262	1,64780641	-0,41161097696533574	4	-0,00921857823	0,000678255223
2	0	0	1	0	2209,1243	1,56736624	1,56769156	-0,73219471735258957	4	-0,0136392415	0,00114785554
2	0	0	1	0	2217,1659	1,4869498	1,48711848	-1,3816342106847834	4	-0,0218373444	0,00205465383
2	0	0	1	0	2225,1675	1,40693343	1,40714598	-2,9267691787746342	4	-0,0386781655	0,00411839131
2	0	0	1	0	2233,1691	1,32691693	1,32722259	-4,6303366428172339	4	-0,0688888878	0,00614548754
2	0	0	1	0	2241,1708	1,24690115	1,24740195	-6,2668803398792358	4	-0,112661295	0,00781731866
2	0	0	0	0	2249,1725	1,16688406	1,16703308	-7,4537157206623731	4	-0,168005407	0,00869873259
2	0	0	0	0	2257,1741	1,08686757	1,08714986	-7,9987047226340736	4	-0,230064839	0,00869579054
2	0	0	0	0	2265,1757	1,0068512	1,00717735	-8,4995785223113421	4	-0,296538532	0,008560583
2	1	0	0	1	2273,0178	1,07156444	1,07177329	-4,6420678326031603	4	-0,348542571	0,0049752444
2	1	0	1	1	2281,0195	1,15158093	1,15184319	-1,7603683353022205	4	-0,37262097	0,00202766829
2	1	0	1	1	2289,0211	1,23159742	1,23196256	-0,68008941149822234	4	-0,381697893	0,00083784468
2	1	0	1	1	2297,0627	1,31201386	1,31222415	-0,23392650971395978	4	-0,385156155	0,000306964008
2	1	0	1	1	2305,1444	1,39282966	1,39312637	0,0049619157628680282	4	-0,385998964	6,91257583E-006
2	1	0	0	1	2313,2261	1,473647	1,47400248	0,18458834238764304	4	-0,385232151	0,000272083678
2	1	0	0	1	2321,2277	1,55366349	1,55398834	0,46218272560724435	4	-0,382792294	0,00071822654
2	1	0	0	1	2329,2693	1,63408005	1,63435221	1,076587070055588	4	-0,376862347	0,00175952248
2	1	0	1	1	2337,2711	1,71409631	1,71436477	2,0965663881765408	4	-0,36437887	0,00359427952
2	1	0	1	1	2345,2727	1,7941128	1,79444385	3,400669212142617	4	-0,342567325	0,00610231003
2	1	0	1	1	2353,2743	1,87412918	1,87422955	4,9442101120949005	4	-0,309298128	0,00926658511
2	1	0	1	1	2361,2759	1,95414555	1,95437098	6,6450154582659597	4	-0,263016105	0,0129868258
2	1	0	1	1	2369,2776	2,03416276	2,03431273	8,4293993178645939	4	-0,202698559	0,0171480346
2	1	0	0	1	2377,2793	2,11417842	2,11420441	9,9747153012840576	4	-0,128599271	0,0210885871
2	1	0	0	1	2385,3209	2,1945951	2,19484425	8,3049467945540621	4	-0,050766442	0,0182280652
2	1	0	0	1	2393,3625	2,27501154	2,27523088	1,2107249876415338	4	-0,0131633207	0,00275467895
2	1	0	0	1	2401,4041	2,35542727	2,35560775	0,28133964781785846	4	-0,00876534823	0,000662725826
2	1	0	1	1	2409,4059	2,43544436	2,43569613	0,15295908313796547	4	-0,00713218423	0,000372561859
2	1	0	1	1	2417,4075	2,51546097	2,51568198	0,10323835869699178	4	-0,0061235847	0,00025971487
2	1	0	1	1	2425,4091	2,59547758	2,59573436	0,079451358342474406	4	-0,00541784707	0,000206234618
2	1	0	1	1	2433,4107	2,67549396	2,67573786	0,075553053429488256	4	-0,00479748193	0,000202160169
2	1	0	0	1	2441,4125	2,75551033	2,75565219	0,075242275880925914	4	-0,00419060607	0,000207341538
2	1	0	0	1	2449,4141	2,8355267	2,83566904	0,075514435923347878	4	-0,00358413579	0,00021413395
2	1	0	0	1	2457,4157	2,91554308	2,91587305	0,075875521801343155	4	-0,00297528668	0,00022124339
2	1	0	0	1	2465,4173	2,99555922	2,99576998	0,077320599980238438	4	-0,00235772226	0,000231634738
2	1	0	1	1	2473,4191	3,07557654	3,07564974	0,078851900006863155	4	-0,00172807113	0,000242520822
2	1	0	1	0	2481,3017	3,1532917	3,15354228	0,078827932994398938	5	6,2342835E-005	0,000248587225
2	1	0	1	0	2489,3033	3,23330832	3,23357725	0,078134743712359616	5	0,000694629387	0,000252654718
2	1	0	1	0	2497,3049	3,31332445	3,31352329	0,077165396763356762	5	0,00132001203	0,000255689345
2	1	0	1	0	2505,3065	3,39334106	3,3936646	0,075796617686541338	5	0,00193674723	0,000257228297
2	1	0	1	0	2513,3082	3,47335744	3,47344136	0,075701452973411302	5	0,00254705152	0,000262944552
2	1	0	0	0	2521,3099	3,55337358	3,55361795	0,076555560110137306	5	0,00315994187	0,000272049219
2	1	0	0	0	2529,3115	3,63339067	3,63372827	0,077073844141085197	5	0,00377819315	0,000280065404
2	1	0	0	0	2537,3131	3,7134068	3,71348739	0,078390424915899981	5	0,00440394413	0,000291101867
2	1	0	0	0	2545,3147	3,79342318	3,79366851	0,080935523198503552	5	0,00504452968	0,000307042559
2	1	0	1	0	2553,3165	3,87343979	3,8735075	0,085163891280966656	5	0,0057123173	0,000329882983
2	1	0	1	0	2561,3181	3,9534564	3,95375133	0,09160754491609513	5	0,00642214157	0,000362193445
2	0	0	0	0	2569,2903	3,96685886	3,96698618	0,0049287053701939501	5	0,00693357596	1,95521061E-005
2	0	0	0	0	2577,3519	3,88624239	3,88646793	-0,017746239598771446	5	0,00686058123	6,89701919E-005
2	0	0	0	0	2585,3535	3,80622625	3,80649042	-0,026223347612863658	5	0,00667785201	9,98189207E-005
2	0	0	0	0	2593,3552	3,72620964	3,72639394	-0,030028275356903334	5	0,00644848589	0,000111897185
2	0	0	1	0	2601,3569	3,64619303	3,64648414	-0,032293092174869446	5	0,0061950651	0,000117756252
2	0	0	1	0	2609,3585	3,56617641	3,56645346	-0,03358457553959271	5	0,0059282505	0,000119777826
2	0	0	1	0	2617,3601	3,48616004	3,48633432	-0,034288313800331206	5	0,00565399416	0,000119540528
2	0	0	1	0	2625,3617	3,4061439	3,40633988	-0,034531713570903123	5	0,00537603814	0,000117626754
2	0	0	0	0	2633,3635	3,32612729	3,32640743	-0,034431166416551526	5	0,00509722624	0,000114532086
2	0	0	0	0	2641,3651	3,24611115	3,24641705	-0,034212682016745766	5	0,00481993938	0,000111068635
2	0	0	0	0	2649,3667	3,16609454	3,16637802	-0,034267794651289677	5	0,00454369606	0,000108504792
2	0	0	0	0	2657,3683	3,08607817	3,08631229	-0,034820560870381709	5	0,00426559756	0,000107467124
2	0	0	1	0	2665,3701	3,00606155	3,00630903	-0,035916247741422989	5	0,00398041215	0,000107975342
2	0	0	1	0	2673,3717	2,92604494	2,92635465	-0,037840470197368966	5	0,00368262501	0,000110734632
2	0	0	1	0	2681,3733	2,8460288	2,84638596	-0,039614808517163366	5	0,00337028457	0,000112759037
2	0	0	1	0	2689,3749	2,76601243	2,76631141	-0,041197606418454381	5	0,0030440907	0,000113965405
2	0	0	1	0	2697,3766	2,68599606	2,68625021	-0,042766921867205318	5	0,00270544831	0,000114882656
2	0	0	0	0	2705,3783	2,60597968	2,60630012	-0,044558533876961626	5	0,0023533348	0,000116132913
2	0	0	0	0	2713,3799	2,52596307	2,5261097	-0,046640608218256966	5	0,00198620581	0,000117819291
2	0	0	0	0	2721,3815	2,44594669	2,44622183	-0,048657566222741574	5	0,00160327659	0,000119027201
2	0	0	0	0	2729,3831	2,36593032	2,36606669	-0,051593644829052819	5	0,00120046642	0,000122074009
2	0	0	1	0	2737,3849	2,28591371	2,28625464	-0,056752096792614003	5	0,000766167301	0,000129749751
2	0	0	1	0	2745,3865	2,20589709	2,20628238	-0,065813719019017779	5	0,000276239502	0,000145203652
2	0	0	1	0	2753,3881	2,12588072	2,12611842	-0,080128474523209702	5	-0,000306359434	0,000170362619
2	0	0	1	0	2761,4297	2,04546428	2,04584789	-0,10126915643060635	5	-0,00103293103	0,000207181292
2	0	0	0	0	2769,4315	1,96544802	1,96566653	-0,13237566742356054	5	-0,00196407223	0,000260206405
2	0	0	0	0	2777,4331	1,88543153	1,88565385	-0,17895010588000736	5	-0,00320219132	0,000337437959
2	0	0	0	0	2785,4347	1,80541515	1,80569923	-0,2235478630496399	5	-0,00483209919	0,000403660204
2	0	0	0	0	2793,4363	1,72539866	1,72568715	-0,27074000977531654	5	-0,00677895872	0,000467212551
2	0	0	0	0	2801,4380	1,64538157	1,64566481	-0,40751448661237658	5	-0,00941463374	0,000670632231
2	0	0	1	0	2809,4397	1,56536567	1,56579113	-0,71801607835072192	5	-0,0137699917	0,00112426316
2	0	0	1	0	2817,4813	1,48494935	1,48521364	-1,332613724939252	5	-0,0217400845	0,001979216
2	0	0	1	0	2825,4829	1,40493298	1,40525448	-2,7649620247108118	5	-0,0377249233	0,00388547522
2	0	0	1	0	2833,4845	1,32491648	1,32521105	-4,3865755597750253	5	-0,0663026795	0,00581313856
2	0	0	0	0	2841,4863	1,24489999	1,24518526	-5,989287573982153	5	-0,10792917	0,00745777274
2	0	0	0	0	2849,4879	1,16488373	1,16517282	-7,2482546159514381	5	-0,161245152	0,00844546966
2	0	0	0	0	2857,4895	1,08486712	1,08510685	-7,9666870390927334	5	-0,222326964	0,00864470657
2	0	0	0	0	2865,4911	1,00485086	1,00511241	-8,6477471590042253	5	-0,289071053	0,00869195815
2	1	0	1	1	2873,3333	1,07356489	1,07378459	-4,9651675715490598	5	-0,343022257	0,00533152046
2	1	0	1	1	2881,3349	1,15358138	1,15384173	-1,9617528048930381	5	-0,369531482	0,00226355228
2	1	0	1	1	2889,3365	1,23359787	1,23391187	-0,75660374105252966	5	-0,379642457	0,000933582312
2	1	0	1	1	2897,3782	1,31401384	1,31420004	-0,27368107797785846	5	-0,383535117	0,000359671685
2	1	0	0	1	2905,4199	1,39443076	1,39463115	-0,021002517898860227	5	-0,384630591	2,92907662E-005
2	1	0	0	1	2913,5415	1,47564745	1,47596967	0,17074027864469434	5	-0,38402006	0,000252007478
2	1	0	0	1	2921,5431	1,55566382	1,55602658	0,46087140983177741	5	-0,381641269	0,000717128161
2	1	0	1	1	2929,5749	1,63598025	1,63630629	1,0755093293609424	5	-0,375721455	0,00175986264
2	1	0	1	1	2937,5765	1,71599674	1,71628296	2,0747948341347638	5	-0,363312542	0,00356093491
2	1	0	1	1	2945,5781	1,79601312	1,79648221	3,3266951916394323	5	-0,341861397	0,00597634865
2	1	0	1	1	2953,5797	1,87602961	1,87630773	4,814749622234615	5	-0,309401661	0,00903395191
2	1	0	1	1	2961,5813	1,9560461	1,95616007	6,4586704660344768	5	-0,264373571	0,0126341935
2	1	0	0	1	2969,5831	2,03606248	2,03636384	8,1911030831160397	5	-0,205763727	0,0166800655
2	1	0	0	1	2977,5847	2,11607885	2,11609125	9,7578089126834445	5	-0,133615077	0,0206484143
2	1	0	0	1	2985,5863	2,19609547	2,19637561	8,6642906224286093	5	-0,0560650416	0,0190300364
2	1	0	0	1	2993,5879	2,27611184	2,27634764	1,5579384543277606	5	-0,0137619385	0,00354640954
2	1	0	1	1	3001,6297	2,35652828	2,35680962	0,30043011355317261	5	-0,00857975148	0,000708056556
2	1	0	1	1	3009,6313	2,4365449	2,43692017	0,15565371164983133	5	-0,00687537389	0,000379315665
2	1	0	1	1	3017,6329	2,51656127	2,51681685	0,10128199450533704	5	-0,00586530054	0,000254908227
2	1	0	1	1	3025,6345	2,59657764	2,59698057	0,077478982008027942	5	-0,00517522451	0,000201211413
2	1	0	0	1	3033,6363	2,67659402	2,6770153	0,073607154723118912	5	-0,00457110535	0,000197047484
2	1	0	0	1	3041,6379	2,75661039	2,75683165	0,073324844810284288	5	-0,00398035347	0,000202144249
2	1	0	0	1	3049,6395	2,83662677	2,83686662	0,073713289660022554	5	-0,00338880485	0,000209114776
2	1	0	0	1	3057,6411	2,91664314	2,91675425	0,074498337926342861	5	-0,00279298634	0,000217293345
2	1	0	0	1	3065,6428	2,99665976	2,99688196	0,07623394498196073	5	-0,0021860823	0,000228464138
2	1	0	1	1	3073,6445	3,07667661	3,0767169	0,078368178551533555	5	-0,00156418537	0,000241116693
2	1	0	1	0	3081,6091	3,15579224	3,15603924	0,07867243229756471	6	7,9012636E-005	0,000248293276
2	1	0	1	0	3089,6107	3,23580837	3,23619437	0,077469872638445517	6	0,000707671687	0,000250707555
2	1	0	1	0	3097,6123	3,31582522	3,31610847	0,07585736534868704	6	0,00132548017	0,000251551246
2	1	0	1	0	3105,6139	3,3958416	3,39612126	0,074380928340057267	6	0,00193063752	0,000252606638
2	1	0	0	0	3113,6157	3,47585773	3,47612906	0,07419181640121961	6	0,00252756872	0,000257900334
2	1	0	0	0	3121,6173	3,55587411	3,5560174	0,074451221929242022	6	0,00312519609	0,000264749833
2	1	0	0	0	3129,6189	3,63589072	3,63619423	0,074598313749043469	6	0,00372560904	0,000271253957
2	1	0	0	0	3137,6205	3,71590734	3,71614408	0,075809955234743155	6	0,00433109282	0,000281720713
2	1	0	1	0	3145,6223	3,79592419	3,7961123	0,078095766234581363	6	0,00494920416	0,00029646029
2	1	0	1	0	3153,6239	3,87594008	3,87615991	0,081896639618746714	6	0,00559179764	0,000317444472
2	1	0	1	0	3161,6255	3,9559567	3,95613265	0,087806449487322522	6	0,00627319841	0,000347373949
2	0	0	0	0	3169,5677	3,96465826	3,96483326	0,001114003745627732	6	0,0067336983	4,41683915E-006
2	0	0	0	0	3177,6093	3,88424182	3,88427806	-0,019134709520989792	6	0,00664336234	7,43245328E-005
2	0	0	1	0	3185,6111	3,80422521	3,80456829	-0,026798146983815498	6	0,00645253854	0,000101955382
2	0	0	1	0	3193,6127	3,72420883	3,7245512	-0,030328132608836486	6	0,00621860055	0,000112958682
2	0	0	1	0	3201,6143	3,6441927	3,64449859	-0,03249986921178377	6	0,00596240535	0,000118445729
2	0	0	1	0	3209,6159	3,56417632	3,5644505	-0,033682390577504774	6	0,00569382962	0,000120059216
2	0	0	1	0	3217,6176	3,48415995	3,4844389	-0,034286641069217696	6	0,00541839283	0,000119469703
2	0	0	0	0	3225,6193	3,4041431	3,40439057	-0,034394734746052256	6	0,00513969036	0,000117093114
2	0	0	0	0	3233,6209	3,32412648	3,32429814	-0,034315158561285978	6	0,00486067124	0,000114073817
2	0	0	0	0	3241,6225	3,24410987	3,24433446	-0,03415394560606391	6	0,00458401022	0,000110806825
2	0	0	0	0	3249,6242	3,16409302	3,1643784	-0,033929712511545971	6	0,00430912804	0,000107366446
2	0	0	1	0	3257,6259	3,08407784	3,08443832	-0,034326036546931226	6	0,00403285213	0,000105876541
2	0	0	1	0	3265,6275	3,00406122	3,00421262	-0,03561165633490665	6	0,0037497161	0,00010698499
2	0	0	1	0	3273,6291	2,92404485	2,92432904	-0,037405121687765248	6	0,00345438137	0,000109384884
2	0	0	1	0	3281,6307	2,84402847	2,84433007	-0,039108056281865754	6	0,00314511592	0,000111236222
2	0	0	0	0	3289,6325	2,76401186	2,76435328	-0,040582655838483642	6	0,00282249926	0,000112184796
2	0	0	0	0	3297,6341	2,68399549	2,68427873	-0,042176079337002125	6	0,00248769624	0,000113212351
2	0	0	0	0	3305,6357	2,60397911	2,60437751	-0,044013615611388576	6	0,00213969033	0,00011462807
2	0	0	0	0	3313,6373	2,5239625	2,52414203	-0,045906701431333907	6	0,00177697907	0,000115875031
2	0	0	0	0	3321,6390	2,44394565	2,44428515	-0,047856161621766093	6	0,00139882532	0,000116974108
2	0	0	1	0	3329,6407	2,36392975	2,36435342	-0,050941423495748653	6	0,00100075477	0,000120443532
2	0	0	1	0	3337,6423	2,28391361	2,28429675	-0,056311359818748909	6	0,000570343633	0,000128631858
2	0	0	1	0	3345,6439	2,20389724	2,20419502	-0,065564407061578406	6	8,26409087E-005	0,000144516744
2	0	0	1	0	3353,6455	2,12388062	2,12414694	-0,079815195295614874	6	-0,000498918002	0,000169539198
2	0	0	0	0	3361,6873	2,04346418	2,04383636	-0,10117098107864997	6	-0,00122497324	0,000206776924
2	0	0	0	0	3369,6889	1,96344757	1,96383297	-0,13223944533685333	6	-0,0021552986	0,000259696186
2	0	0	0	0	3377,6905	1,88343132	1,88366032	-0,17774224836655251	6	-0,00338809495	0,000334806013
2	0	0	0	0	3385,6921	1,8034147	1,80370557	-0,22162772877210746	6	-0,00500583649	0,000399751181
2	0	0	1	0	3393,6939	1,72339833	1,72364879	-0,26915162439561514	6	-0,00694032898	0,000463922857
2	0	0	1	0	3401,6955	1,64338183	1,64364493	-0,40459729034315738	6	-0,00956024136	0,00066501426
2	0	0	1	0	3409,6971	1,56336522	1,56369495	-0,70684839046939546	6	-0,0138680888	0,00110529526
2	0	0	1	0	3417,7387	1,48294902	1,48317516	-1,2939098819538338	6	-0,0216620564	0,00191909494
2	0	0	1	0	3425,7404	1,40293288	1,40316248	-2,6425389842020371	6	-0,0369916223	0,00370791159
2	0	0	0	0	3433,7421	1,32291615	1,32326174	-4,2004152900642848	6	-0,0643169358	0,00555824861
2	0	0	0	0	3441,7437	1,24289978	1,24324036	-5,7753037755136346	6	-0,104299508	0,00718009053
2	0	0	0	0	3449,7453	1,16288328	1,1632725	-7,0948200468663795	6	-0,156083062	0,00825320929
2	0	0	0	0	3457,7469	1,08286679	1,08311307	-7,9342359966701747	6	-0,21641627	0,00859367475
2	0	0	1	0	3465,7487	1,00285041	1,00321639	-8,7065087899013491	6	-0,283221245	0,00873451214
2	1	0	1	1	3473,5907	1,07556534	1,07578743	-5,158823960357248	6	-0,33815068	0,00554979779
2	1	0	1	1	3481,5923	1,15558171	1,15591574	-2,1678014232052723	6	-0,366586804	0,0025057958
2	1	0	1	1	3489,5939	1,23559821	1,23588812	-0,8438520908907607	6	-0,377782732	0,00104290678
2	1	0	0	1	3497,6357	1,31601465	1,31618965	-0,31106608398948499	6	-0,382128447	0,000409421948
2	1	0	0	1	3505,6773	1,39643121	1,39676726	-0,041940174285425901	6	-0,383448124	5,85806629E-005
2	1	0	0	1	3513,7989	1,47764802	1,47790575	0,15952700661081408	6	-0,38296771	0,000235765881
2	1	0	0	1	3521,8005	1,55766428	1,55791378	0,45972005588312915	6	-0,380636543	0,000716204231
2	1	0	1	1	3529,8323	1,6379807	1,63807738	1,0713042310542562	6	-0,374728262	0,00175487925
2	1	0	1	1	3537,8339	1,71799731	1,71835256	2,0519024751804515	6	-0,362422198	0,00352589181
2	1	0	1	1	3545,8355	1,79801369	1,7982626	3,2710013130196742	6	-0,341280729	0,00588211929
2	1	0	1	1	3553,8371	1,87803018	1,8783462	4,7126693372373331	6	-0,309452206	0,00885202456
2	1	0	0	1	3561,8389	1,95804644	1,95833194	6,3163313258577178	6	-0,26540795	0,0123694735
2	1	0	0	1	3569,8405	2,03806281	2,0383265	8,0083741082085427	6	-0,208121747	0,0163236819
2	1	0	0	1	3577,8421	2,11807919	2,11834335	9,5721567791920986	6	-0,137513846	0,0202771146
2	1	0	0	1	3585,8437	2,19809532	2,19829345	8,8791856544988979	6	-0,0602198839	0,0195190553
2	1	0	0	1	3593,8454	2,27811193	2,27830124	1,9305068470796573	6	-0,0143135078	0,0043982761
2	1	0	1	1	3601,8871	2,35852885	2,35885239	0,31632587375740333	6	-0,00831210427	0,000746166043
2	1	0	1	1	3609,8887	2,43854499	2,43889618	0,15708807052147568	6	-0,00655214069	0,000383121485
2	1	0	1	1	3617,8903	2,51856136	2,51883292	0,098128371233879296	6	-0,00555042364	0,000247168966
2	1	0	1	1	3625,8919	2,59857774	2,59880996	0,075428613086130637	6	-0,00487861689	0,00019602463
2	1	0	0	1	3633,8937	2,67859435	2,6790092	0,071980850995277069	6	-0,00428878423	0,000192837368
2	1	0	0	1	3641,8953	2,75861096	2,75887918	0,071793897396505434	6	-0,00371157564	0,000198070687
2	1	0	0	1	3649,8969	2,83862758	2,83891392	0,072120515232974464	6	-0,00313286786	0,000204743934
2	1	0	0	1	3657,8985	2,91864371	2,91885543	0,073143400088021734	6	-0,00254848623	0,000213495005
2	1	0	0	1	3665,9002	2,99865937	2,99876404	0,075202790372971507	6	-0,00195144408	0,000225515425
2	1	0	1	1	3673,9019	3,0786767	3,07889748	0,077275412407255437	6	-0,0013374188	0,000237923072
2	1	0	1	0	3681,8145	3,15719247	3,15730762	0,077999683441939635	7	8,60499276E-005	0,000246268988
2	1	0	1	0	3689,8161	3,23720884	3,23755622	0,076793791777971738	7	0,000708921987	0,000248624216
2	1	0	1	0	3697,8177	3,31722546	3,31743503	0,074860209452540352	7	0,0013188615	0,000248343888
2	1	0	1	0	3705,8194	3,39724088	3,39738441	0,073138793311645414	7	0,00191363471	0,000248480588
2	1	0	0	0	3713,8211	3,47725844	3,47759771	0,072756795083276147	7	0,00249932101	0,000253018865
2	1	0	0	0	3721,8227	3,55727482	3,55748153	0,072898759929187149	7	0,0030847115	0,000259335997
2	1	0	0	0	3729,8243	3,63729095	3,63748479	0,072890902179534976	7	0,00367108872	0,000265139533
2	1	0	0	0	3737,8259	3,71730733	3,71762609	0,073825338596685274	7	0,00426056702	0,000274455
2	1	0	1	0	3745,8277	3,79732347	3,79748273	0,075803140290426458	7	0,00486076809	0,000287861127
2	1	0	1	0	3753,8293	3,87734056	3,87751341	0,079358534266551373	7	0,00548356632	0,000307713781
2	1	0	1	0	3761,8309	3,95735717	3,95752144	0,085003607233779277	7	0,00614252035	0,000336403609
2	0	0	0	0	3769,7331	3,96365786	3,96353841	-0,0011784592422406682	7	0,00656893058	4,67086829E-006
2	0	0	0	0	3777,7748	3,88324213	3,88356185	-0,020178098547439542	7	0,00646666298	7,8362893E-005
2	0	0	1	0	3785,7765	3,80322504	3,80340648	-0,02746216952369568	7	0,00627008546	0,000104449791
2	0	0	1	0	3793,7781	3,7232089	3,72355032	-0,030790171318652915	7	0,00603294466	0,000114648756
2	0	0	1	0	3801,7797	3,64319253	3,64340377	-0,032745246007969587	7	0,00577489752	0,000119304153
2	0	0	1	0	3809,7813	3,56317592	3,56335568	-0,033845198590791379	7	0,00550524099	0,000120602483
2	0	0	0	0	3817,7831	3,48315978	3,48333931	-0,034420789008166918	7	0,00522905728	0,00011989929
2	0	0	0	0	3825,7847	3,40314317	3,40341568	-0,034576412290334624	7	0,00494987192	0,000117677904
2	0	0	0	0	3833,7863	3,32312655	3,32327843	-0,034397593423448282	7	0,00467076246	0,000114312781
2	0	0	0	0	3841,7879	3,24310994	3,24331927	-0,034093637920536659	7	0,00439463556	0,000110576555
2	0	0	1	0	3849,7897	3,16309381	3,16329789	-0,033862636588445018	7	0,00412078714	0,000107117608
2	0	0	1	0	3857,7913	3,08307743	3,08325028	-0,034286818885313318	7	0,00384582626	0,000105714847
2	0	0	1	0	3865,7929	3,00306106	3,00318909	-0,035517766890633421	7	0,00356425648	0,000106666572
2	0	0	1	0	3873,7945	2,92304468	2,92327881	-0,037225886127325024	7	0,00327091594	0,000108821645
2	0	0	1	0	3881,7962	2,84302735	2,84350181	-0,03887347115695977	7	0,00296426658	0,000110536785
2	0	0	0	0	3889,7979	2,76301146	2,7632184	-0,040294050829726534	7	0,00264478801	0,000111341265
2	0	0	0	0	3897,7995	2,68299532	2,68326807	-0,041846533543085318	7	0,00231340807	0,000112285466
2	0	0	0	0	3905,8011	2,60297894	2,60325575	-0,043616025018747174	7	0,00196908414	0,000113543669
2	0	0	0	0	3913,8027	2,52296257	2,52325654	-0,045451778689985734	7	0,00161032216	0,000114686496
2	0	0	1	0	3921,8045	2,4429462	2,44315505	-0,047420448791753056	7	0,00123639917	0,00011585551
2	0	0	1	0	3929,8061	2,36292958	2,36315203	-0,050558591270129293	7	0,000842611713	0,000119477634
2	0	0	1	0	3937,8077	2,28291297	2,28311706	-0,056012983839200006	7	0,000415907736	0,000127884196
2	0	0	1	0	3945,8093	2,2028966	2,20316672	-0,065425477559781453	7	-6,92327158E-005	0,00014414324
2	0	0	1	0	3953,8110	2,12288022	2,12306547	-0,079704078160626854	7	-0,000648759713	0,000169216975
2	0	0	0	0	3961,8527	2,04246402	2,04294181	-0,10103039771180411	7	-0,00137269264	0,000206399229
2	0	0	0	0	3969,8543	1,9624474	1,96280932	-0,13180564143867346	7	-0,00230002287	0,000258709333
2	0	0	0	0	3977,8559	1,88243079	1,8827256	-0,176463280959676	7	-0,00352504919	0,000332231924
2	0	0	0	0	3985,8576	1,80241394	1,80274773	-0,21996008129081402	7	-0,00512857921	0,00039653253
2	0	0	1	0	3993,8593	1,72239804	1,7225492	-0,26720533323370787	7	-0,00704830326	0,000460274343
2	0	0	1	0	4001,8609	1,64238167	1,64250565	-0,40000637268854611	7	-0,00964275468	0,000657012744
2	0	0	1	0	4009,8625	1,56236529	1,5625689	-0,69299775396508429	7	-0,013881824	0,00108285679
2	0	0	1	0	4017,9041	1,48194885	1,48219597	-1,2519825739717026	7	-0,0214710888	0,00185568351
2	0	0	0	0	4025,9059	1,40193236	1,40224147	-2,5223188146396858	7	-0,0361331291	0,00353690004
2	0	0	0	0	4033,9075	1,32191598	1,32204664	-4,0290399927783936	7	-0,0622761697	0,00532657886
2	0	0	0	0	4041,9091	1,24189949	1,24215901	-5,5767388984008902	7	-0,100738958	0,0069271964
2	0	0	0	0	4049,9107	1,161883	1,1622175	-6,9399236429620288	7	-0,151061893	0,00806570053
2	0	0	0	0	4057,9124	1,08186746	1,08221865	-7,8996242007580262	7	-0,210634649	0,00854912028
2	0	0	1	0	4065,9141	1,00185013	1,00212145	-8,7504565859282624	7	-0,277450472	0,00876902044
2	1	0	0	1	4073,7563	1,0765655	1,07684219	-5,327582300261209	7	-0,333249062	0,00573696522
2	1	0	0	1	4081,7579	1,156582	1,15691245	-2,3873145177408438	7	-0,363442361	0,00276191393
2	1	0	0	1	4089,7595	1,23659849	1,23696494	-0,94793872452444467	7	-0,375870615	0,00117256702
2	1	0	1	1	4097,8013	1,31701493	1,31729805	-0,35442830246217837	7	-0,380777299	0,000466887723
2	1	0	1	1	4105,8029	1,39703143	1,39720356	-0,065443307014734259	7	-0,382345706	9,14376214E-005
2	1	0	1	1	4113,9645	1,47864819	1,47896063	0,14684882678988365	7	-0,38200739	0,000217183639
2	1	0	1	1	4121,9662	1,55866492	1,55904925	0,45310845259161338	7	-0,379746884	0,000706418417
2	1	0	0	1	4129,9979	1,6389811	1,63924813	1,0557276289220213	7	-0,373916626	0,00173059956
2	1	0	0	1	4137,9995	1,71899748	1,71930063	2,0140673898988323	7	-0,361818105	0,00346278725
2	1	0	0	1	4146,0011	1,79901385	1,79914391	3,2046089707701382	7	-0,341083109	0,00576555263
2	1	0	0	1	4154,0027	1,87903035	1,87928998	4,6102337014895981	7	-0,309939474	0,00866396632
2	1	0	1	1	4162,0045	1,95904672	1,95932007	6,1633264587984794	7	-0,266913116	0,012075929
2	1	0	1	1	4170,0061	2,03906322	2,03936386	7,8150758290732339	7	-0,211014599	0,0159377828
2	1	0	1	1	4178,0077	2,11907959	2,11923385	9,3789475758870541	7	-0,142016917	0,0198761839
2	1	0	1	1	4186,0093	2,1990962	2,19940186	9,0971100219974093	7	-0,0650874749	0,0200082008
2	1	0	0	1	4194,0111	2,27911282	2,27933884	2,4078784460822787	7	-0,0153096896	0,00548837101
2	1	0	0	1	4202,0527	2,35952926	2,35972953	0,33635238295903981	7	-0,00813104957	0,00079370063
2	1	0	0	1	4210,0543	2,43954587	2,43976426	0,15907780705364771	7	-0,00630002003	0,000388112356
2	1	0	0	1	4218,0559	2,51956177	2,51972318	0,095602232497185472	7	-0,00530661689	0,000240891168
2	1	0	0	1	4226,0576	2,59957838	2,59981108	0,073817139450173658	7	-0,00464965124	0,000191910614
2	1	0	1	1	4234,0593	2,67959499	2,67979717	0,070420047087180749	7	-0,00407222798	0,000188711449
2	1	0	1	1	4242,0609	2,75961137	2,75985837	0,070269300981804006	7	-0,0035070451	0,000193933316
2	1	0	1	1	4250,0625	2,8396275	2,83996439	0,070726187330567232	7	-0,00293927034	0,000200859853
2	1	0	1	1	4258,0641	2,91964388	2,91978097	0,071879492572474163	7	-0,00236544944	0,000209872378
2	1	0	0	1	4266,0659	2,99966049	2,9999001	0,074093274478973325	7	-0,0017778601	0,000222272429
2	1	0	0	1	4274,0675	3,0796771	3,07994819	0,076250917726644774	7	-0,00117214466	0,000234848878
2	1	0	1	1	4280,6943	3,14604139	3,14631605	0,078630954027175898	7	-0,000659882149	0,000247397838