File: Experimentelles/Rohdaten/Batteriemessungen/AlteZelle/Studenten_Batterietests/Sonstige/ZView-Export/LiCoO2 vs Li_04_OCV_C01.txt
EC-Lab ASCII FILE
Nb header lines : 48

Open Circuit Voltage

Run on channel : 1 (SN 6985)
Grouped channel(s) : 1
User :
CE vs. WE compliance from -10 V to 10 V
Electrode connection : standard
Ewe ctrl range : min = 0,00 V, max = 5,00 V
Acquisition started on : 01.22.2015 12:12:33
Saved on :
	File : LiCoO2 vs Li_04_OCV_C01.mpr
	Directory : C:\Hupfer\Studenten Batterietests\
	Host : 192.168.0.2
Device : VMP3 (SN 0324)
Address : 192.168.0.1
EC-Lab for windows v10.33 (software)
Internet server v10.33 (firmware)
Command interpretor v10.32 (firmware)
Electrode material : LATP vs Li
Initial state : charged
Electrolyte : DME:Diox 1:2, 1M LiTFSi
Comments : LATP als Elektrode, normaler Seperator und Elektrolyt, Goldschicht teilweise vorhanden, elektrolytschonend, Probe2
Mass of active material : 0,001 mg
 at x = 0,000
Molecular weight of active material (at x = 0) : 0,001 g/mol
Atomic weight of intercalated ion : 0,001 g/mol
Acquisition started at : xo = 0,000
Number of e- transfered per intercalated ion : 1
for DX = 1, DQ = 26,801 mA.h
Battery capacity : 0,000 A.h
Reference electrode : Li+/Li (-3,020 V)
Electrode surface area : 0,001 cm²
Characteristic mass : 0,001 g
Create one data file per loop
tR (h:m:s)          1:00:0,0000
dER/dt (mV/h)       0,0
dER (mV)            0,00
dtR (s)             5,0000
E range min (V)     0,000
E range max (V)     5,000

Number of loops : 1
Loop 0 from point number 0 to 720

mode	error	time/s	Ewe/V
3	0	11041,1396	3,15944052
3	0	11046,1396	3,32885051
3	0	11051,1396	3,38470316
3	0	11056,1396	3,41659164
3	0	11061,1396	3,43792057
3	0	11066,1396	3,4533875
3	0	11071,1396	3,46535993
3	0	11076,1396	3,47486925
3	0	11081,1396	3,4826982
3	0	11086,1396	3,48938131
3	0	11091,1396	3,49491882
3	0	11096,1396	3,5000937
3	0	11101,1396	3,50417995
3	0	11106,1396	3,50801802
3	0	11111,1396	3,51135969
3	0	11116,1396	3,51445293
3	0	11121,1396	3,51708817
3	0	11126,1396	3,51943684
3	0	11131,1396	3,52188087
3	0	11136,1396	3,52382851
3	0	11141,1396	3,52579546
3	0	11146,1396	3,5275712
3	0	11151,1396	3,52911782
3	0	11156,1396	3,53051186
3	0	11161,1396	3,53192472
3	0	11166,1396	3,53328061
3	0	11171,1396	3,53438807
3	0	11176,1396	3,53557205
3	0	11181,1396	3,53652668
3	0	11186,1396	3,53755784
3	0	11191,1396	3,53849339
3	0	11196,1396	3,53933358
3	0	11201,1396	3,54017377
3	0	11206,1396	3,54091859
3	0	11211,1396	3,5414722
3	0	11216,1396	3,54221702
3	0	11221,1396	3,54290438
3	0	11226,1396	3,54359174
3	0	11231,1396	3,54406929
3	0	11236,1396	3,54464197
3	0	11241,1396	3,54515767
3	0	11246,1396	3,54565406
3	0	11251,1396	3,5461123
3	0	11256,1396	3,54666615
3	0	11261,1396	3,54699063
3	0	11266,1396	3,54741073
3	0	11271,1396	3,5476017
3	0	11276,1396	3,54805994
3	0	11281,1396	3,54838467
3	0	11286,1396	3,54882383
3	0	11291,1396	3,54911017
3	0	11296,1396	3,54939675
3	0	11301,1396	3,54964495
3	0	11306,1396	3,54989314
3	0	11311,1396	3,55017948
3	0	11316,1396	3,55038953
3	0	11321,1396	3,55061865
3	0	11326,1396	3,5509243
3	0	11331,1396	3,55111527
3	0	11336,1396	3,55134439
3	0	11341,1396	3,55147791
3	0	11346,1396	3,55166888
3	0	11351,1396	3,55191731
3	0	11356,1396	3,55208898
3	0	11361,1396	3,55201268
3	0	11366,1396	3,5523181
3	0	11371,1396	3,55249
3	0	11376,1396	3,55256653
3	0	11381,1396	3,55271912
3	0	11386,1396	3,55277658
3	0	11391,1396	3,55298662
3	0	11396,1396	3,55317736
3	0	11401,1396	3,55321574
3	0	11406,1396	3,55333018
3	0	11411,1396	3,55342579
3	0	11416,1396	3,5535593
3	0	11421,1396	3,55363584
3	0	11426,1396	3,55365491
3	0	11431,1396	3,55361676
3	0	11436,1396	3,55386496
3	0	11441,1396	3,55394125
3	0	11446,1396	3,5539794
3	0	11451,1396	3,55409408
3	0	11456,1396	3,5541513
3	0	11461,1396	3,55411315
3	0	11466,1396	3,55426598
3	0	11471,1396	3,5543232
3	0	11476,1396	3,55439949
3	0	11481,1396	3,5543232
3	0	11486,1396	3,55447602
3	0	11491,1396	3,5544951
3	0	11496,1396	3,55443764
3	0	11501,1396	3,55453324
3	0	11506,1396	3,55447602
3	0	11511,1396	3,55453324
3	0	11516,1396	3,55470514
3	0	11521,1396	3,55478144
3	0	11526,1396	3,55464768
3	0	11531,1396	3,55460954
3	0	11536,1396	3,55468607
3	0	11541,1396	3,55474329
3	0	11546,1396	3,55478144
3	0	11551,1396	3,55476236
3	0	11556,1396	3,55480051
3	0	11561,1396	3,55476236
3	0	11566,1396	3,55478144
3	0	11571,1396	3,55474329
3	0	11576,1396	3,55480051
3	0	11581,1396	3,55474329
3	0	11586,1396	3,55480051
3	0	11591,1396	3,55478144
3	0	11596,1396	3,55476236
3	0	11601,1396	3,55476236
3	0	11606,1396	3,55480051
3	0	11611,1396	3,55481958
3	0	11616,1396	3,55485773
3	0	11621,1396	3,55480051
3	0	11626,1396	3,55480051
3	0	11631,1396	3,5548768
3	0	11636,1396	3,55480051
3	0	11641,1396	3,55478144
3	0	11646,1396	3,55474329
3	0	11651,1396	3,55478144
3	0	11656,1396	3,55474329
3	0	11661,1396	3,55472422
3	0	11666,1396	3,55457139
3	0	11671,1396	3,55455232
3	0	11676,1396	3,55457139
3	0	11681,1396	3,55460954
3	0	11686,1396	3,55457139
3	0	11691,1396	3,55462861
3	0	11696,1396	3,55453324
3	0	11701,1396	3,55445671
3	0	11706,1396	3,55451417
3	0	11711,1396	3,5544951
3	0	11716,1396	3,55445671
3	0	11721,1396	3,55438042
3	0	11726,1396	3,55445671
3	0	11731,1396	3,5543232
3	0	11736,1396	3,55430412
3	0	11741,1396	3,55420852
3	0	11746,1396	3,55430412
3	0	11751,1396	3,55428505
3	0	11756,1396	3,55424666
3	0	11761,1396	3,55424666
3	0	11766,1396	3,55413222
3	0	11771,1396	3,55413222
3	0	11776,1396	3,55411315
3	0	11781,1396	3,55405593
3	0	11786,1396	3,55401754
3	0	11791,1396	3,55401754
3	0	11796,1396	3,55392218
3	0	11801,1396	3,55382657
3	0	11806,1396	3,55392218
3	0	11811,1396	3,55399847
3	0	11816,1396	3,55382657
3	0	11821,1396	3,5538075
3	0	11826,1396	3,55371213
3	0	11831,1396	3,55369306
3	0	11836,1396	3,55376935
3	0	11841,1396	3,55363584
3	0	11846,1396	3,55354023
3	0	11851,1396	3,55367398
3	0	11856,1396	3,55369306
3	0	11861,1396	3,55342579
3	0	11866,1396	3,55344486
3	0	11871,1396	3,55346394
3	0	11876,1396	3,55346394
3	0	11881,1396	3,55346394
3	0	11886,1396	3,5533874
3	0	11891,1396	3,55323482
3	0	11896,1396	3,55321574
3	0	11901,1396	3,55310106
3	0	11906,1396	3,55327296
3	0	11911,1396	3,55312014
3	0	11916,1396	3,55313921
3	0	11921,1396	3,55287194
3	0	11926,1396	3,55298662
3	0	11931,1396	3,55296731
3	0	11936,1396	3,55281472
3	0	11941,1396	3,55289102
3	0	11946,1396	3,55279565
3	0	11951,1396	3,55291009
3	0	11956,1396	3,55273819
3	0	11961,1396	3,55270004
3	0	11966,1396	3,5526619
3	0	11971,1396	3,55262375
3	0	11976,1396	3,55254722
3	0	11981,1396	3,5525856
3	0	11986,1396	3,55245185
3	0	11991,1396	3,55249
3	0	11996,1396	3,55243278
3	0	12001,1396	3,55239463
3	0	12006,1396	3,55229902
3	0	12011,1396	3,5523181
3	0	12016,1396	3,55214643
3	0	12021,1396	3,55212736
3	0	12026,1396	3,55218458
3	0	12031,1396	3,55208898
3	0	12036,1396	3,55205083
3	0	12041,1396	3,55193639
3	0	12046,1396	3,551898
3	0	12051,1396	3,55187893
3	0	12056,1396	3,55174541
3	0	12061,1396	3,55182171
3	0	12066,1396	3,55161166
3	0	12071,1396	3,55163074
3	0	12076,1396	3,55163074
3	0	12081,1396	3,55155444
3	0	12086,1396	3,55155444
3	0	12091,1396	3,55147791
3	0	12096,1396	3,55157351
3	0	12101,1396	3,55147791
3	0	12106,1396	3,55143976
3	0	12111,1396	3,55122972
3	0	12116,1396	3,55124879
3	0	12121,1396	3,55117249
3	0	12126,1396	3,55124879
3	0	12131,1396	3,55124879
3	0	12136,1396	3,55113435
3	0	12141,1396	3,55111527
3	0	12146,1396	3,55090523
3	0	12151,1396	3,55098152
3	0	12156,1396	3,55086708
3	0	12161,1396	3,55084777
3	0	12166,1396	3,55079055
3	0	12171,1396	3,55065703
3	0	12176,1396	3,55063772
3	0	12181,1396	3,55069518
3	0	12186,1396	3,55052328
3	0	12191,1396	3,55056143
3	0	12196,1396	3,55052328
3	0	12201,1396	3,55038953
3	0	12206,1396	3,55037045
3	0	12211,1396	3,55027509
3	0	12216,1396	3,55031323
3	0	12221,1396	3,55027509
3	0	12226,1396	3,55014133
3	0	12231,1396	3,55008411
3	0	12236,1396	3,55006504
3	0	12241,1396	3,55012226
3	0	12246,1396	3,55004597
3	0	12251,1396	3,55000782
3	0	12256,1396	3,55000782
3	0	12261,1396	3,54987407
3	0	12266,1396	3,54981685
3	0	12271,1396	3,54981685
3	0	12276,1396	3,54966402
3	0	12281,1396	3,54966402
3	0	12286,1396	3,5496068
3	0	12291,1396	3,54954934
3	0	12296,1396	3,54945397
3	0	12301,1396	3,5494349
3	0	12306,1396	3,54951119
3	0	12311,1396	3,54930115
3	0	12316,1396	3,549263
3	0	12321,1396	3,54928207
3	0	12326,1396	3,54918671
3	0	12331,1396	3,549263
3	0	12336,1396	3,54912925
3	0	12341,1396	3,54903388
3	0	12346,1396	3,54899573
3	0	12351,1396	3,54895759
3	0	12356,1396	3,54876661
3	0	12361,1396	3,5489192
3	0	12366,1396	3,54882383
3	0	12371,1396	3,54886198
3	0	12376,1396	3,54876661
3	0	12381,1396	3,54869008
3	0	12386,1396	3,54861379
3	0	12391,1396	3,54857564
3	0	12396,1396	3,54859471
3	0	12401,1396	3,54848003
3	0	12406,1396	3,54832745
3	0	12411,1396	3,54834652
3	0	12416,1396	3,54832745
3	0	12421,1396	3,54823184
3	0	12426,1396	3,54813647
3	0	12431,1396	3,54823184
3	0	12436,1396	3,54807901
3	0	12441,1396	3,54807901
3	0	12446,1396	3,54800272
3	0	12451,1396	3,54798365
3	0	12456,1396	3,54792643
3	0	12461,1396	3,54783082
3	0	12466,1396	3,54765892
3	0	12471,1396	3,54790735
3	0	12476,1396	3,54783082
3	0	12481,1396	3,54781175
3	0	12486,1396	3,54763985
3	0	12491,1396	3,5476017
3	0	12496,1396	3,54758263
3	0	12501,1396	3,5474298
3	0	12506,1396	3,54735351
3	0	12511,1396	3,54729629
3	0	12516,1396	3,54741073
3	0	12521,1396	3,54733443
3	0	12526,1396	3,54733443
3	0	12531,1396	3,54720068
3	0	12536,1396	3,54721975
3	0	12541,1396	3,54706717
3	0	12546,1396	3,54706717
3	0	12551,1396	3,54704809
3	0	12556,1396	3,54700971
3	0	12561,1396	3,54687619
3	0	12566,1396	3,54689527
3	0	12571,1396	3,54687619
3	0	12576,1396	3,54676151
3	0	12581,1396	3,54666615
3	0	12586,1396	3,54670429
3	0	12591,1396	3,54655147
3	0	12596,1396	3,54657054
3	0	12601,1396	3,54657054
3	0	12606,1396	3,54647517
3	0	12611,1396	3,54643703
3	0	12616,1396	3,54632235
3	0	12621,1396	3,54632235
3	0	12626,1396	3,54641795
3	0	12631,1396	3,54626513
3	0	12636,1396	3,5462079
3	0	12641,1396	3,54613137
3	0	12646,1396	3,54605508
3	0	12651,1396	3,54607415
3	0	12656,1396	3,54595947
3	0	12661,1396	3,5459404
3	0	12666,1396	3,54586411
3	0	12671,1396	3,54578781
3	0	12676,1396	3,54580688
3	0	12681,1396	3,54578781
3	0	12686,1396	3,54561591
3	0	12691,1396	3,54555869
3	0	12696,1396	3,54555869
3	0	12701,1396	3,54546309
3	0	12706,1396	3,54555869
3	0	12711,1396	3,54538679
3	0	12716,1396	3,54534864
3	0	12721,1396	3,54532957
3	0	12726,1396	3,54536772
3	0	12731,1396	3,54517674
3	0	12736,1396	3,54523396
3	0	12741,1396	3,5451386
3	0	12746,1396	3,54515767
3	0	12751,1396	3,5451386
3	0	12756,1396	3,54506207
3	0	12761,1396	3,54498577
3	0	12766,1396	3,54485202
3	0	12771,1396	3,5449667
3	0	12776,1396	3,5447948
3	0	12781,1396	3,54483294
3	0	12786,1396	3,54477572
3	0	12791,1396	3,54475665
3	0	12796,1396	3,54475665
3	0	12801,1396	3,5446229
3	0	12806,1396	3,5446229
3	0	12811,1396	3,54452753
3	0	12816,1396	3,54450846
3	0	12821,1396	3,54443192
3	0	12826,1396	3,54443192
3	0	12831,1396	3,54433656
3	0	12836,1396	3,54435563
3	0	12841,1396	3,54418373
3	0	12846,1396	3,54414558
3	0	12851,1396	3,54414558
3	0	12856,1396	3,54406929
3	0	12861,1396	3,5440309
3	0	12866,1396	3,54414558
3	0	12871,1396	3,54391646
3	0	12876,1396	3,54401183
3	0	12881,1396	3,54385924
3	0	12886,1396	3,54382086
3	0	12891,1396	3,54385924
3	0	12896,1396	3,54380178
3	0	12901,1396	3,54372549
3	0	12906,1396	3,54370642
3	0	12911,1396	3,54355359
3	0	12916,1396	3,54351544
3	0	12921,1396	3,54353452
3	0	12926,1396	3,54342008
3	0	12931,1396	3,54345822
3	0	12936,1396	3,54340076
3	0	12941,1396	3,54338169
3	0	12946,1396	3,54338169
3	0	12951,1396	3,54324818
3	0	12956,1396	3,54321003
3	0	12961,1396	3,54307628
3	0	12966,1396	3,54317164
3	0	12971,1396	3,54298067
3	0	12976,1396	3,54309535
3	0	12981,1396	3,54299998
3	0	12986,1396	3,54292345
3	0	12991,1396	3,54292345
3	0	12996,1396	3,54278994
3	0	13001,1396	3,54277062
3	0	13006,1396	3,54275155
3	0	13011,1396	3,54275155
3	0	13016,1396	3,54259896
3	0	13021,1396	3,54261804
3	0	13026,1396	3,54261804
3	0	13031,1396	3,54256058
3	0	13036,1396	3,54248428
3	0	13041,1396	3,54250336
3	0	13046,1396	3,54238892
3	0	13051,1396	3,54238892
3	0	13056,1396	3,54236984
3	0	13061,1396	3,54225516
3	0	13066,1396	3,54223609
3	0	13071,1396	3,54227424
3	0	13076,1396	3,54212141
3	0	13081,1396	3,54206419
3	0	13086,1396	3,5419879
3	0	13091,1396	3,54196882
3	0	13096,1396	3,5419879
3	0	13101,1396	3,54202604
3	0	13106,1396	3,54191136
3	0	13111,1396	3,5417397
3	0	13116,1396	3,5417397
3	0	13121,1396	3,54172063
3	0	13126,1396	3,54160595
3	0	13131,1396	3,54162502
3	0	13136,1396	3,54152966
3	0	13141,1396	3,54151058
3	0	13146,1396	3,54143405
3	0	13151,1396	3,54143405
3	0	13156,1396	3,54133868
3	0	13161,1396	3,54130054
3	0	13166,1396	3,5413959
3	0	13171,1396	3,54128122
3	0	13176,1396	3,54126215
3	0	13181,1396	3,54120493
3	0	13186,1396	3,54110956
3	0	13191,1396	3,54114771
3	0	13196,1396	3,54114771
3	0	13201,1396	3,54107118
3	0	13206,1396	3,54093766
3	0	13211,1396	3,54084206
3	0	13216,1396	3,54089952
3	0	13221,1396	3,54086113
3	0	13226,1396	3,54078484
3	0	13231,1396	3,54065132
3	0	13236,1396	3,54074669
3	0	13241,1396	3,54076576
3	0	13246,1396	3,54063201
3	0	13251,1396	3,54053664
3	0	13256,1396	3,54059386
3	0	13261,1396	3,54051757
3	0	13266,1396	3,54038382
3	0	13271,1396	3,54028845
3	0	13276,1396	3,54040289
3	0	13281,1396	3,54036474
3	0	13286,1396	3,5403266
3	0	13291,1396	3,54028845
3	0	13296,1396	3,54026937
3	0	13301,1396	3,54011655
3	0	13306,1396	3,5400784
3	0	13311,1396	3,54013562
3	0	13316,1396	3,5400784
3	0	13321,1396	3,54000187
3	0	13326,1396	3,54002118
3	0	13331,1396	3,53986835
3	0	13336,1396	3,53979182
3	0	13341,1396	3,53983021
3	0	13346,1396	3,53979182
3	0	13351,1396	3,53967738
3	0	13356,1396	3,53969646
3	0	13361,1396	3,53965831
3	0	13366,1396	3,53952456
3	0	13371,1396	3,5395627
3	0	13376,1396	3,5395627
3	0	13381,1396	3,53952456
3	0	13386,1396	3,53935266
3	0	13391,1396	3,53937173
3	0	13396,1396	3,53937173
3	0	13401,1396	3,53923821
3	0	13406,1396	3,53920007
3	0	13411,1396	3,53923821
3	0	13416,1396	3,53921914
3	0	13421,1396	3,53920007
3	0	13426,1396	3,53902817
3	0	13431,1396	3,53914261
3	0	13436,1396	3,53900909
3	0	13441,1396	3,53887534
3	0	13446,1396	3,53904724
3	0	13451,1396	3,53904724
3	0	13456,1396	3,53879905
3	0	13461,1396	3,53868437
3	0	13466,1396	3,53881812
3	0	13471,1396	3,53872252
3	0	13476,1396	3,53874183
3	0	13481,1396	3,5387609
3	0	13486,1396	3,5387609
3	0	13491,1396	3,53856993
3	0	13496,1396	3,53843617
3	0	13501,1396	3,53860807
3	0	13506,1396	3,53837895
3	0	13511,1396	3,53837895
3	0	13516,1396	3,53843617
3	0	13521,1396	3,53837895
3	0	13526,1396	3,53830242
3	0	13531,1396	3,53826427
3	0	13536,1396	3,53822613
3	0	13541,1396	3,53809237
3	0	13546,1396	3,53818798
3	0	13551,1396	3,5380733
3	0	13556,1396	3,53801608
3	0	13561,1396	3,53795886
3	0	13566,1396	3,53790164
3	0	13571,1396	3,53793979
3	0	13576,1396	3,53797793
3	0	13581,1396	3,53786325
3	0	13586,1396	3,53784418
3	0	13591,1396	3,53788233
3	0	13596,1396	3,53771067
3	0	13601,1396	3,53767228
3	0	13606,1396	3,53771067
3	0	13611,1396	3,53767228
3	0	13616,1396	3,53759599
3	0	13621,1396	3,53750062
3	0	13626,1396	3,53755784
3	0	13631,1396	3,53750062
3	0	13636,1396	3,53744316
3	0	13641,1396	3,53740501
3	0	13646,1396	3,53729057
3	0	13651,1396	3,53738594
3	0	13656,1396	3,53750062
3	0	13661,1396	3,53723311
3	0	13666,1396	3,5372715
3	0	13671,1396	3,53715682
3	0	13676,1396	3,53715682
3	0	13681,1396	3,53702307
3	0	13686,1396	3,53706145
3	0	13691,1396	3,53700399
3	0	13696,1396	3,53694677
3	0	13701,1396	3,53687048
3	0	13706,1396	3,53690863
3	0	13711,1396	3,53683233
3	0	13716,1396	3,53681302
3	0	13721,1396	3,53666043
3	0	13726,1396	3,53679395
3	0	13731,1396	3,53662229
3	0	13736,1396	3,53664136
3	0	13741,1396	3,53648853
3	0	13746,1396	3,53662229
3	0	13751,1396	3,53656483
3	0	13756,1396	3,53643131
3	0	13761,1396	3,53635478
3	0	13766,1396	3,53639293
3	0	13771,1396	3,53645039
3	0	13776,1396	3,53633571
3	0	13781,1396	3,53627849
3	0	13786,1396	3,53633571
3	0	13791,1396	3,53620219
3	0	13796,1396	3,53635478
3	0	13801,1396	3,53624034
3	0	13806,1396	3,53612566
3	0	13811,1396	3,53616381
3	0	13816,1396	3,53610659
3	0	13821,1396	3,53606844
3	0	13826,1396	3,53583932
3	0	13831,1396	3,53589654
3	0	13836,1396	3,53580117
3	0	13841,1396	3,5357821
3	0	13846,1396	3,53585839
3	0	13851,1396	3,53570557
3	0	13856,1396	3,5357821
3	0	13861,1396	3,5356102
3	0	13866,1396	3,53574371
3	0	13871,1396	3,53562927
3	0	13876,1396	3,53549552
3	0	13881,1396	3,5356102
3	0	13886,1396	3,5356102
3	0	13891,1396	3,53549552
3	0	13896,1396	3,53540015
3	0	13901,1396	3,53547645
3	0	13906,1396	3,5352664
3	0	13911,1396	3,53530455
3	0	13916,1396	3,53530455
3	0	13921,1396	3,53520918
3	0	13926,1396	3,53534293
3	0	13931,1396	3,5350945
3	0	13936,1396	3,53513288
3	0	13941,1396	3,53522825
3	0	13946,1396	3,53507543
3	0	13951,1396	3,53492284
3	0	13956,1396	3,53498006
3	0	13961,1396	3,53498006
3	0	13966,1396	3,53488445
3	0	13971,1396	3,53480816
3	0	13976,1396	3,53482723
3	0	13981,1396	3,53480816
3	0	13986,1396	3,53484631
3	0	13991,1396	3,53461719
3	0	13996,1396	3,53463626
3	0	14001,1396	3,53461719
3	0	14006,1396	3,53455997
3	0	14011,1396	3,53454089
3	0	14016,1396	3,53465533
3	0	14021,1396	3,53448343
3	0	14026,1396	3,53452182
3	0	14031,1396	3,53450274
3	0	14036,1396	3,53442621
3	0	14041,1396	3,53446436
3	0	14046,1396	3,53431177
3	0	14051,1396	3,53421617
3	0	14056,1396	3,53417802
3	0	14061,1396	3,53427339
3	0	14066,1396	3,53408265
3	0	14071,1396	3,53419709
3	0	14076,1396	3,53417802
3	0	14081,1396	3,53413987
3	0	14086,1396	3,53408265
3	0	14091,1396	3,5341208
3	0	14096,1396	3,53408265
3	0	14101,1396	3,53385353
3	0	14106,1396	3,53383422
3	0	14111,1396	3,53392982
3	0	14116,1396	3,53385353
3	0	14121,1396	3,533777
3	0	14126,1396	3,53379607
3	0	14131,1396	3,53381515
3	0	14136,1396	3,5337007
3	0	14141,1396	3,53368163
3	0	14146,1396	3,53362417
3	0	14151,1396	3,53364348
3	0	14156,1396	3,53356695
3	0	14161,1396	3,53356695
3	0	14166,1396	3,53349066
3	0	14171,1396	3,53337598
3	0	14176,1396	3,5333569
3	0	14181,1396	3,53331876
3	0	14186,1396	3,5333569
3	0	14191,1396	3,53328061
3	0	14196,1396	3,53329968
3	0	14201,1396	3,53328061
3	0	14206,1396	3,53329968
3	0	14211,1396	3,53316593
3	0	14216,1396	3,53318501
3	0	14221,1396	3,53305149
3	0	14226,1396	3,53301334
3	0	14231,1396	3,53303242
3	0	14236,1396	3,53299403
3	0	14241,1396	3,53295588
3	0	14246,1396	3,53295588
3	0	14251,1396	3,53303242
3	0	14256,1396	3,53289866
3	0	14261,1396	3,53282237
3	0	14266,1396	3,5328033
3	0	14271,1396	3,53291774
3	0	14276,1396	3,53272676
3	0	14281,1396	3,53266954
3	0	14286,1396	3,53259325
3	0	14291,1396	3,53274584
3	0	14296,1396	3,53266954
3	0	14301,1396	3,53259325
3	0	14306,1396	3,53244042
3	0	14311,1396	3,53255486
3	0	14316,1396	3,53255486
3	0	14321,1396	3,53255486
3	0	14326,1396	3,53242135
3	0	14331,1396	3,5323832
3	0	14336,1396	3,5322113
3	0	14341,1396	3,53232574
3	0	14346,1396	3,5322876
3	0	14351,1396	3,53230667
3	0	14356,1396	3,53215408
3	0	14361,1396	3,53205848
3	0	14366,1396	3,53209662
3	0	14371,1396	3,53213477
3	0	14376,1396	3,53196311
3	0	14381,1396	3,53194404
3	0	14386,1396	3,53202033
3	0	14391,1396	3,53181028
3	0	14396,1396	3,53194404
3	0	14401,1396	3,5318675
3	0	14406,1396	3,53192472
3	0	14411,1396	3,5318675
3	0	14416,1396	3,53177214
3	0	14421,1396	3,53184843
3	0	14426,1396	3,53165746
3	0	14431,1396	3,53163838
3	0	14436,1396	3,53167653
3	0	14441,1396	3,53158116
3	0	14446,1396	3,53154302
3	0	14451,1396	3,53152394
3	0	14456,1396	3,53158116
3	0	14461,1396	3,53150463
3	0	14466,1396	3,53144741
3	0	14471,1396	3,53129458
3	0	14476,1396	3,53140926
3	0	14481,1396	3,53133297
3	0	14486,1396	3,53123736
3	0	14491,1396	3,53133297
3	0	14496,1396	3,53118014
3	0	14501,1396	3,53116107
3	0	14506,1396	3,53129458
3	0	14511,1396	3,53119922
3	0	14516,1396	3,53100824
3	0	14521,1396	3,53118014
3	0	14526,1396	3,53104639
3	0	14531,1396	3,53102732
3	0	14536,1396	3,53093195
3	0	14541,1396	3,53104639
3	0	14546,1396	3,53081727
3	0	14551,1396	3,53091288
3	0	14556,1396	3,53081727
3	0	14561,1396	3,53085542
3	0	14566,1396	3,53068376
3	0	14571,1396	3,5307982
3	0	14576,1396	3,5307219
3	0	14581,1396	3,53068376
3	0	14586,1396	3,5306263
3	0	14591,1396	3,53056908
3	0	14596,1396	3,53064537
3	0	14601,1396	3,53056908
3	0	14606,1396	3,53051186
3	0	14611,1396	3,53049278
3	0	14616,1396	3,53047371
3	0	14621,1396	3,53039718
3	0	14626,1396	3,53053093
3	0	14631,1396	3,53035903
3	0	14636,1396	3,53026366
3	0	14641,1396	3,53016806