File: Experimentelles/Rohdaten/Batteriemessungen/AlteZelle/Studenten_Batterietests/Sonstige/ZView-Export/LiCoO2 vs Li_02_CV_C01_loop3.txt
EC-Lab ASCII FILE
Nb header lines : 3
mode	ox/red	error	control changes	counter inc.	time/s	control/V	Ewe/V	<I>/mA	cycle number	(Q-Qo)/C	P/W
2	0	0	1	0	5820,42	3,10336637	3,10376072	-0,51356321573257446	4	0	0,00159397733
2	0	0	0	0	5821,75	3,09006476	3,09031725	-0,44659184400613139	4	-0,000606991118	0,00138011051
2	0	0	1	0	5823,10	3,07656336	3,0767839	-0,44840024287502086	4	-0,0012115495	0,00137963064
2	0	0	1	0	5824,45	3,06306219	3,06318092	-0,45110655824343482	4	-0,00181938335	0,001381821
2	0	0	0	0	5825,80	3,04956079	3,04994822	-0,45382748295863526	4	-0,00243090908	0,00138415035
2	0	0	1	0	5827,15	3,03605938	3,0360744	-0,45655935958087526	4	-0,00304610794	0,00138614816
2	0	0	1	0	5828,50	3,02255845	3,02284217	-0,45898503965387597	4	-0,00366467121	0,00138743932
2	0	0	0	0	5829,85	3,00905704	3,00935912	-0,46139051780725638	4	-0,00428661099	0,00138848973
2	0	0	0	0	5831,20	2,99555564	2,99572587	-0,46379688335582656	4	-0,00491162669	0,00138940837
2	0	0	1	0	5832,55	2,98205471	2,98213267	-0,46611295687034726	4	-0,0055398657	0,0013900107
2	0	0	0	0	5833,90	2,96855354	2,9690001	-0,46835924390082618	4	-0,00617121905	0,00139055867
2	0	0	0	0	5835,25	2,9550519	2,95520663	-0,470436762087048	4	-0,00680541201	0,00139023783
2	0	0	1	0	5836,60	2,94155073	2,94168329	-0,47251195569212358	4	-0,00744277751	0,00138998055
2	0	0	0	0	5837,95	2,92804837	2,9283607	-0,47454632874445491	4	-0,0080830697	0,00138964283
2	0	0	0	0	5839,30	2,91454816	2,91479778	-0,47711205404872755	4	-0,00872627366	0,00139068521
2	0	0	1	0	5840,65	2,90104699	2,90133452	-0,47883146861568102	4	-0,00937218312	0,00138925028
2	0	0	1	0	5842,00	2,88754582	2,88770127	-0,48115102419008691	4	-0,0100209294	0,00138942047
2	0	0	0	0	5843,35	2,87404442	2,8741281	-0,48320566086719462	4	-0,0106725814	0,00138879498
2	0	0	1	0	5844,70	2,86054325	2,86057496	-0,48526533242936051	4	-0,0113271298	0,00138813781
2	0	0	1	0	5846,05	2,84704208	2,84732246	-0,48738453801100512	4	-0,0119842477	0,00138774095
2	0	0	0	0	5847,40	2,83354092	2,83368897	-0,48924495543663757	4	-0,0126442024	0,00138636807
2	0	0	1	0	5848,75	2,82003951	2,8203063	-0,49129636270925478	4	-0,0133068291	0,00138560624
2	0	0	1	0	5850,10	2,80653811	2,80679321	-0,4930516962582896	4	-0,013971976	0,00138389412
2	0	0	0	0	5851,45	2,79303694	2,79327035	-0,49537120666354893	4	-0,0146397306	0,00138370565
2	0	0	0	0	5852,80	2,77953601	2,77987814	-0,49695630268706739	4	-0,0153099885	0,00138147792
2	0	0	1	0	5854,15	2,76603436	2,76637435	-0,49894177587702982	4	-0,0159828123	0,00138025975
2	0	0	0	0	5855,50	2,75253296	2,7528615	-0,50070085345457114	4	-0,0166581087	0,00137836009
2	0	0	0	0	5856,85	2,73903179	2,73935843	-0,50257201648006957	4	-0,0173358917	0,00137672492
2	0	0	1	0	5858,20	2,72553062	2,72563481	-0,50445435894653376	4	-0,0180162229	0,00137495832
2	0	0	0	0	5859,55	2,71202946	2,71218181	-0,50606520908574381	4	-0,018699009	0,00137254084
2	0	0	0	0	5860,90	2,69852805	2,69878912	-0,50763361823434662	4	-0,0193840005	0,00136999611
2	0	0	1	0	5862,25	2,68502688	2,68529606	-0,50932286772876979	4	-0,0200715121	0,00136768271
2	0	0	1	0	5863,60	2,67152643	2,67154312	-0,51131487367512698	4	-0,0207612664	0,00136599969
2	0	0	0	0	5864,95	2,65802455	2,65821981	-0,51295678860818406	4	-0,0214534514	0,00136355194
2	0	0	1	0	5866,30	2,64452291	2,64473677	-0,5145869720727223	4	-0,0221478436	0,00136094703
2	0	0	1	0	5867,65	2,63102174	2,63153458	-0,5163046874416377	4	-0,022844376	0,00135867367
2	0	0	0	0	5869,00	2,61752057	2,61792111	-0,51763407342756909	4	-0,0235430244	0,00135512522
2	0	0	1	0	5870,35	2,6040194	2,60426784	-0,51922850916162221	4	-0,0242437031	0,00135221006
2	0	0	1	0	5871,70	2,590518	2,59080482	-0,52051879512146118	4	-0,0249461439	0,00134856266
2	0	0	0	0	5873,05	2,57701683	2,57731175	-0,52188928099349139	4	-0,0256505609	0,00134507136
2	0	0	0	0	5874,40	2,56351566	2,5635581	-0,52318458129443712	4	-0,0263565853	0,00134121405
2	0	0	1	0	5875,75	2,55001426	2,55026579	-0,52423979869733197	4	-0,0270641204	0,00133695081
2	0	0	0	0	5877,10	2,53651309	2,53674269	-0,52520076309641261	4	-0,0277731884	0,0013322992
2	0	0	0	0	5878,45	2,52301097	2,52331901	-0,52607154337747674	4	-0,028483456	0,00132744631
2	0	0	1	0	5879,80	2,50951052	2,5098567	-0,5269262607519849	4	-0,0291947983	0,00132250937
2	0	0	0	0	5881,15	2,49600911	2,49637365	-0,52705216997613389	4	-0,0299068969	0,0013157191
2	0	0	0	0	5882,50	2,48250794	2,48248982	-0,52758316043764531	4	-0,0306193661	0,00130971987
2	0	0	1	0	5883,85	2,46900654	2,46937776	-0,52747368859127117	4	-0,0313321911	0,0013025318
2	0	0	0	0	5885,20	2,45550537	2,45579481	-0,52721022985254739	4	-0,0320450291	0,0012947201
2	0	0	0	0	5886,55	2,44200397	2,44225121	-0,52665783371776339	4	-0,0327574126	0,00128623075
2	0	0	1	0	5887,90	2,4285028	2,42883849	-0,52622914593666816	4	-0,0334691629	0,00127812556
2	0	0	1	0	5889,25	2,41500115	2,4151957	-0,52528029078837645	4	-0,0341798328	0,00126865471
2	0	0	0	0	5890,60	2,40150046	2,40173221	-0,52409804736574637	4	-0,0348890275	0,00125874311
2	0	0	1	0	5891,95	2,38799906	2,38831925	-0,52250986158226899	4	-0,0355963819	0,00124792033
2	0	0	1	0	5893,30	2,37449789	2,37479615	-0,52068590434888986	4	-0,0363013446	0,00123652292
2	0	0	0	0	5894,65	2,36099672	2,36134338	-0,51860324852168384	4	-0,0370035395	0,00122460036
2	0	0	1	0	5896,00	2,34749556	2,34768987	-0,51590730684499066	4	-0,0377026387	0,00121119036
2	0	0	1	0	5897,35	2,33399415	2,33430696	-0,51316434253627949	4	-0,0383979157	0,00119788304
2	0	0	0	0	5898,70	2,32049274	2,32072401	-0,50971271408100979	4	-0,0390891917	0,00118290249
2	0	0	1	0	5900,05	2,30699039	2,30745149	-0,5061493143039577	4	-0,0397757329	0,00116791495
2	0	0	1	0	5901,40	2,29349017	2,29383802	-0,50246774498373357	4	-0,0404572114	0,00115257967
2	0	0	0	0	5902,75	2,279989	2,28045559	-0,49816801057507834	4	-0,041133374	0,00113604998
2	0	0	0	0	5904,10	2,26648784	2,26662159	-0,49390808617075258	4	-0,0418036431	0,0011195027
2	0	0	1	0	5905,45	2,25298643	2,25323868	-0,48900666708747597	4	-0,0424678735	0,00110184879
2	0	0	0	0	5906,80	2,23948526	2,23969555	-0,48442666480938714	4	-0,043125663	0,00108496821
2	0	0	0	0	5908,15	2,22598386	2,22605228	-0,4792520869523287	4	-0,043776691	0,00106684025
2	0	0	1	0	5909,50	2,21248269	2,2126596	-0,47396036377176685	4	-0,0444209389	0,00104871299
2	0	0	0	0	5910,85	2,19898105	2,19933629	-0,46856312395093446	4	-0,045058202	0,00103052787
2	0	0	0	0	5912,20	2,18548036	2,18567324	-0,46327899225677082	4	-0,045688197	0,00101257651
2	0	0	1	0	5913,55	2,17197871	2,17215037	-0,45839275962983629	4	-0,0463112406	0,000995698036
2	0	0	1	0	5914,90	2,15847826	2,15883923	-0,45297127259692749	4	-0,0469271205	0,000977892196
2	0	0	0	0	5916,25	2,14497638	2,14540482	-0,4479453961054496	4	-0,0475360975	0,000961024198
2	0	0	1	0	5917,60	2,13147497	2,13182163	-0,44270593874777562	4	-0,0481380783	0,000943770108
2	0	0	1	0	5918,95	2,1179738	2,11843896	-0,43810073674346042	4	-0,0487333722	0,000928089663
2	0	0	0	0	5920,30	2,10447264	2,10457516	-0,43326682597398758	4	-0,0493221804	0,000911842624
2	0	0	1	0	5921,66	2,09097147	2,09118199	-0,42854796908795834	4	-0,0499047451	0,000896171783
2	0	0	1	0	5923,01	2,07747006	2,07770944	-0,4243321653145049	4	-0,0504809953	0,00088163896
2	0	0	0	0	5924,36	2,06396914	2,06425643	-0,42002637529124877	4	-0,0510517284	0,000867042167
2	0	0	0	0	5925,71	2,05046868	2,050735	-0,41641580589237126	4	-0,051617004	0,000853958481
2	0	0	1	0	5927,06	2,03696656	2,03729033	-0,41254359732071475	4	-0,052177228	0,000840471068
2	0	0	0	0	5928,41	2,02346516	2,02358699	-0,40933719463646381	4	-0,0527326763	0,000828329416
2	0	0	0	0	5929,76	2,00996399	2,01020408	-0,40601010123888858	4	-0,0532835983	0,000816163141
2	0	0	1	0	5931,11	1,99646258	1,9964205	-0,40307431047161389	4	-0,0538304597	0,000804705836
2	0	0	0	0	5932,46	1,9829613	1,98337841	-0,40041082445532083	4	-0,0543734357	0,000794166175
2	0	0	0	0	5933,81	1,96946013	1,96962476	-0,39797146711498765	4	-0,054912962	0,000783854455
2	0	0	1	0	5935,16	1,95595872	1,95651269	-0,39551733791207334	4	-0,0554494523	0,000773834705
2	0	0	0	0	5936,51	1,94245756	1,94264865	-0,39349647440637267	4	-0,0559832305	0,000764425378
2	0	0	0	0	5937,86	1,92895615	1,92908561	-0,3923201694463696	4	-0,0565145575	0,000756819209
2	0	0	1	0	5939,21	1,91545498	1,91571283	-0,39083229502042195	4	-0,0570440404	0,000748722465
2	0	0	1	0	5940,56	1,90195382	1,90238035	-0,38981364294886675	4	-0,0575717613	0,000741573807
2	0	0	0	0	5941,91	1,88845265	1,88905776	-0,38892905010531373	4	-0,0580983683	0,000734709436
2	0	0	1	0	5943,26	1,87495124	1,87538433	-0,38826233606475213	4	-0,0586239174	0,000728141109
2	0	0	1	0	5944,61	1,86145008	1,86167061	-0,38804304964530048	4	-0,0591487736	0,000722408353
2	0	0	0	0	5945,96	1,84794879	1,84808743	-0,38768843887373805	4	-0,0596732125	0,000716482115
2	0	0	1	0	5947,31	1,83444738	1,83477485	-0,38787504751235245	4	-0,0601976365	0,000711663393
2	0	0	1	0	5948,66	1,82094622	1,82120156	-0,3881846122288448	4	-0,0607222021	0,000706962426
2	0	0	0	0	5950,01	1,80744481	1,80768847	-0,38886076662068493	4	-0,0612474009	0,000702939113
2	0	0	0	0	5951,36	1,79394388	1,794245	-0,38962085285318349	4	-0,061773546	0,000699075288
2	0	0	1	0	5952,71	1,78044248	1,7806524	-0,39059471626145203	4	-0,0623009168	0,000695513445
2	0	0	0	0	5954,06	1,76694131	1,76722956	-0,39205742751558861	4	-0,0628299713	0,00069285545
2	0	0	0	0	5955,41	1,7534399	1,75389695	-0,39341242114702976	4	-0,0633609369	0,000690004847
2	0	0	1	0	5956,76	1,73993874	1,74014318	-0,39552886364981619	4	-0,0638942271	0,000688276836
2	0	0	0	0	5958,11	1,72643733	1,72674036	-0,39733309562628525	4	-0,064430058	0,00068609108
2	0	0	0	0	5959,46	1,71293616	1,71319723	-0,39943896389255859	4	-0,064968802	0,000684317725
2	0	0	1	0	5960,81	1,69943488	1,69969416	-0,40189313919593997	4	-0,0655108541	0,000683095423
2	0	0	0	0	5962,16	1,68593347	1,68619132	-0,40507264233504794	4	-0,0660566837	0,000683029997
2	0	0	0	0	5963,51	1,6724323	1,6726681	-0,40813250529269408	4	-0,0666064993	0,000682670216
2	0	0	1	0	5964,86	1,65893114	1,65912509	-0,4108743794883303	4	-0,0671604201	0,000681691978
2	0	0	1	0	5966,21	1,64542997	1,64576221	-0,41363256160790662	4	-0,0677178875	0,000680740864
2	0	0	0	0	5967,56	1,63192856	1,63209879	-0,41604684308792186	4	-0,0682788864	0,000679029559
2	0	0	1	0	5968,91	1,6184274	1,6188966	-0,41925225562105606	4	-0,0688435435	0,000678726065
2	0	0	1	0	5970,26	1,60492599	1,60532331	-0,4224103270098567	4	-0,0694124028	0,000678105163
2	0	0	0	0	5971,61	1,59142482	1,59177029	-0,42599675711244435	4	-0,0699857101	0,000678088982
2	0	0	1	0	5972,96	1,57792354	1,57829702	-0,42921347512553254	4	-0,0705638751	0,000677426346
2	0	0	1	0	5974,31	1,56442225	1,56467378	-0,43314991611987533	4	-0,0711467639	0,000677738339
2	0	0	0	0	5975,66	1,55092096	1,55127108	-0,43723465548828243	4	-0,0717350692	0,000678269484
2	0	0	0	0	5977,01	1,53741956	1,537637	-0,4415044961657193	4	-0,0723289624	0,000678873621
2	0	0	1	0	5978,36	1,52391863	1,52417481	-0,44629934057593389	4	-0,0729289949	0,000680238241
2	0	0	0	0	5979,71	1,51041734	1,51077199	-0,4511212483048439	4	-0,0735355988	0,000681541336
2	0	0	0	0	5981,06	1,49691606	1,49720883	-0,45685351857294701	4	-0,0741490722	0,00068400515
2	0	0	1	0	5982,41	1,48341477	1,48391628	-0,46229408712436813	4	-0,0747701004	0,000686005747
2	0	0	0	0	5983,76	1,46991348	1,47029293	-0,46814461952696365	4	-0,0753990561	0,000688309723
2	0	0	0	0	5985,11	1,4564122	1,45671964	-0,47455272264778579	4	-0,0760364681	0,000691290246
2	0	0	1	0	5986,46	1,44291091	1,44317651	-0,48153000526751155	4	-0,076683037	0,000694932765
2	0	0	0	0	5987,81	1,42940974	1,42971361	-0,4894207269636288	4	-0,0773396119	0,000699731463
2	0	0	0	0	5989,16	1,41590846	1,41611028	-0,49741142305235187	4	-0,0780066475	0,000704389415
2	0	0	1	0	5990,51	1,40240741	1,4026475	-0,50628872386490541	4	-0,0786851197	0,000710144639
2	0	0	1	0	5991,86	1,388906	1,38933492	-0,51530413515865978	4	-0,079375498	0,000715930015
2	0	0	0	0	5993,21	1,37540472	1,37550104	-0,52536326646804678	4	-0,0800788179	0,000722637691
2	0	0	1	0	5994,56	1,36190343	1,36224854	-0,53583276690914829	4	-0,0807958543	0,000729937397
2	0	0	1	0	5995,91	1,34840214	1,34858513	-0,54734264904012077	4	-0,0815277472	0,000738138158
2	0	0	0	0	5997,26	1,33490098	1,33496177	-0,56006866010526938	4	-0,082276009	0,000747670245
2	0	0	1	0	5998,61	1,32139957	1,32185984	-0,57333302606518042	4	-0,0830419213	0,000757865899
2	0	0	1	0	5999,96	1,30789828	1,30813611	-0,58845220366493043	4	-0,0838267654	0,000769775594
2	0	0	0	0	6001,31	1,294397	1,29473329	-0,60416006157174707	4	-0,084632501	0,000782226154
2	0	0	0	0	6002,66	1,28089595	1,28118002	-0,62194091423104435	4	-0,0854607522	0,000796818291
2	0	0	1	0	6004,01	1,26739466	1,26772726	-0,640274810604752	4	-0,0863134786	0,000811693841
2	0	0	0	0	6005,36	1,25389349	1,2541039	-0,6610249493581559	4	-0,087192677	0,000828993972
2	0	0	0	0	6006,71	1,24039209	1,24071109	-0,68277648758764186	4	-0,0881002545	0,000847128336
2	0	0	1	0	6008,06	1,2268908	1,22739851	-0,70589214315017037	4	-0,0890384465	0,000866410963
2	0	0	0	0	6009,41	1,21338964	1,21382535	-0,73037055910875277	4	-0,0900090635	0,000886542315
2	0	0	0	0	6010,76	1,19988823	1,20026219	-0,75650195358321254	4	-0,0910139158	0,000908000686
2	0	0	1	0	6012,11	1,18638706	1,18678927	-0,78441109725584819	4	-0,0920551568	0,000930930662
2	0	0	1	0	6013,46	1,17288589	1,17319632	-0,81323901955341427	4	-0,0931345448	0,000954089046
2	0	0	0	0	6014,81	1,15938461	1,15981305	-0,84378347328553715	4	-0,0942538902	0,000978631084
2	0	0	1	0	6016,16	1,14588332	1,14619982	-0,87517038111885619	4	-0,0954152271	0,00100312009
2	0	0	1	0	6017,51	1,13238204	1,132797	-0,90839777359118477	4	-0,0966200009	0,0010290303
2	0	0	0	0	6018,86	1,11888075	1,11915374	-0,94306699434916301	4	-0,0978707299	0,00105543691
2	0	0	1	0	6020,21	1,10537958	1,10557032	-0,9792679864913225	4	-0,0991693363	0,00108264957
2	0	0	1	0	6021,60	1,09147823	1,09158623	-1,0185770088185872	4	-0,100558698	0,00111186469
2	0	0	0	0	6022,95	1,07797694	1,07833385	-1,0601562578231096	4	-0,101962633	0,00114320242
2	0	0	1	0	6024,30	1,06447554	1,06474054	-1,1050063340614213	4	-0,103424847	0,00117654505
2	0	0	1	0	6025,65	1,05097437	1,05140781	-1,1544944280758501	4	-0,104950421	0,00121384452
2	0	0	0	0	6027,00	1,03747332	1,03777456	-1,2101417922725259	4	-0,106547013	0,00125585438
2	0	0	0	0	6028,35	1,02397192	1,02414119	-1,2730956263840216	4	-0,10822323	0,00130382972
2	0	0	1	0	6029,71	1,01047063	1,01064825	-1,3460115579267366	4	-0,109990925	0,00136034423
2	0	0	0	0	6031,06	0,996969521	0,99732554	-1,4308249078070184	4	-0,111865021	0,00142699818
2	0	0	0	0	6032,41	0,983468115	0,98375237	-1,529444197813673	4	-0,113862678	0,00150459434
2	0	0	1	0	6033,76	0,969966948	0,970359564	-1,6445062812417744	4	-0,116005108	0,00159576244
2	0	0	0	0	6035,11	0,956465662	0,956686199	-1,7761394300808534	4	-0,118313849	0,00169920805
2	0	0	0	0	6036,46	0,942964375	0,943283319	-1,9265929311513866	4	-0,120812885	0,00181732292
2	0	0	1	0	6037,81	0,929463148	0,929660022	-2,0936721240480765	4	-0,123526625	0,0019464033
2	0	0	0	0	6039,16	0,915961206	0,916166365	-2,2775878490274195	4	-0,126477152	0,00208664942
2	0	0	0	0	6040,51	0,902460575	0,902734101	-2,4762067844470362	4	-0,129686117	0,00223535625
2	0	0	1	0	6041,86	0,888959408	0,889291108	-2,6903583736469389	4	-0,133173734	0,00239251181
2	0	0	1	0	6043,21	0,875458121	0,875477374	-2,919722524161127	4	-0,13695997	0,00255615101
2	0	0	0	0	6044,56	0,861956775	0,862144768	-3,1677878337601869	4	-0,141068965	0,00273109181
2	0	0	1	0	6045,91	0,848455608	0,848571539	-3,4374993890524051	4	-0,145527005	0,00291696424
2	0	0	1	0	6047,26	0,834954202	0,834968269	-3,7324081026017702	4	-0,150365636	0,00311644236
2	0	0	0	0	6048,61	0,821453035	0,821756005	-4,0505089797079699	4	-0,155619591	0,00332853012
2	0	0	1	0	6049,96	0,807951808	0,808132589	-4,3814811967313274	4	-0,161312744	0,00354081765
2	0	0	1	0	6051,31	0,794450521	0,794719756	-4,7133731096983168	4	-0,167453736	0,00374581083
2	0	0	0	0	6052,66	0,780949295	0,781256795	-5,0437340090672365	4	-0,174042702	0,00394045142
2	0	0	0	0	6054,01	0,767448068	0,767603457	-5,3683103683094086	4	-0,181073159	0,00412073359
2	0	0	1	0	6055,36	0,753946781	0,754030228	-5,6859197231630637	4	-0,188537881	0,00428735511
2	0	0	0	0	6056,71	0,740445495	0,740707636	-5,9974808792273229	4	-0,196427763	0,00444237981
2	0	0	0	0	6058,06	0,726944268	0,727284849	-6,3023493761817664	4	-0,204732955	0,00458360324
2	0	0	1	0	6059,41	0,713442981	0,713811815	-6,6034935538967539	4	-0,213448659	0,00471365172
2	0	0	0	0	6060,76	0,699941754	0,700248659	-6,8997790192564134	4	-0,222566992	0,00483156089
2	0	0	0	0	6062,11	0,686440468	0,686665356	-7,1871638397375642	4	-0,232077882	0,00493517658
2	0	0	1	0	6063,46	0,672939241	0,673052132	-7,468203542133175	4	-0,241974339	0,00502649043
2	0	0	1	0	6064,81	0,659437954	0,659629226	-7,7403542026877683	4	-0,252243906	0,00510576367
2	0	0	0	0	6066,16	0,645936728	0,646176338	-8,0063718532522893	4	-0,262875766	0,0051735281
2	0	0	1	0	6067,51	0,632435501	0,632713377	-8,2667532811562342	4	-0,273864806	0,00523048546
2	0	0	1	0	6068,86	0,618934155	0,619100034	-8,520529011885344	4	-0,285198689	0,00527505996
2	0	0	0	0	6070,21	0,605432928	0,605416596	-8,7721965511640294	4	-0,296876013	0,00531083345
2	0	0	1	0	6071,56	0,591931641	0,591873467	-9,0200397397081101	4	-0,308888942	0,00533872237
2	0	0	1	0	6072,91	0,578430414	0,578701198	-9,2559512207905357	4	-0,321224302	0,00535643008
2	0	0	0	0	6074,26	0,564929187	0,565087855	-9,4946709151069658	4	-0,333884358	0,00536532328
2	0	0	1	0	6075,61	0,551427364	0,551885605	-9,7316643281555174	4	-0,346866637	0,00537076546
2	0	0	1	0	6076,96	0,537926614	0,538111866	-9,9649601479371379	4	-0,360165179	0,00536226342
2	0	0	0	0	6078,34	0,524125338	0,524287999	-10,192200861871229	4	-0,374075055	0,00534364861
2	0	0	0	0	6079,69	0,510624111	0,510995507	-10,409312002360848	4	-0,387981981	0,00531911151
2	1	0	0	0	6080,98	0,502323329	0,502434552	-10,489599476257979	4	-0,401536018	0,00527033722
2	1	0	1	0	6082,33	0,515824556	0,516047895	-10,037651307880906	4	-0,415391594	0,00517990906
2	1	0	1	0	6083,68	0,529325843	0,529520869	-9,5859601025779853	4	-0,428632945	0,00507596601
2	1	0	0	0	6085,03	0,54282707	0,543003798	-9,1481017768382886	4	-0,441274971	0,00496745389
2	1	0	1	0	6086,38	0,556328297	0,556627214	-8,7363832443952422	4	-0,453343242	0,00486290874
2	1	0	1	0	6087,73	0,569829583	0,56998992	-8,3310371985038502	4	-0,464860439	0,00474860705
2	1	0	0	0	6089,08	0,58333081	0,583342552	-7,9393369456132352	4	-0,475839883	0,00463135308
2	1	0	1	0	6090,43	0,596832097	0,597256601	-7,5640761355558938	4	-0,486302674	0,00451769447
2	1	0	1	0	6091,78	0,610333383	0,61062932	-7,2024642775456013	4	-0,496265322	0,00439803582
2	1	0	0	0	6093,13	0,62383461	0,624102354	-6,847042908271177	4	-0,505746126	0,00427325582
2	1	0	0	0	6094,48	0,637336135	0,637645006	-6,5120204648528666	4	-0,514762759	0,00415235711
2	1	0	1	0	6095,83	0,650837123	0,65126878	-6,1889071203768294	4	-0,523332059	0,0040306421
2	1	0	0	0	6097,18	0,66433847	0,664601386	-5,8768922177453926	4	-0,531472623	0,00390579063
2	1	0	0	0	6098,53	0,677839637	0,677924037	-5,5772084345420294	4	-0,539199531	0,00378092355
2	1	0	1	0	6099,88	0,691340923	0,691386998	-5,2925551695128378	4	-0,54653424	0,00365920388
2	1	0	0	0	6101,23	0,70484221	0,705020308	-5,006921415527657	4	-0,553486884	0,00352998124
2	1	0	0	0	6102,62	0,718743503	0,718773961	-4,7465142719447648	4	-0,560268342	0,00341167091
2	1	0	1	0	6103,97	0,73224473	0,732657969	-4,4921370558440614	4	-0,566502631	0,00329119992
2	1	0	0	0	6105,32	0,745746017	0,74592036	-4,2477965876460218	4	-0,57240051	0,00316851796
2	1	0	0	0	6106,67	0,759247303	0,759433508	-4,0111721592644896	4	-0,577972651	0,00304621854
2	1	0	1	0	6108,02	0,77274859	0,773076892	-3,7830685290197722	4	-0,583231807	0,00292460294
2	1	0	1	0	6109,37	0,786249757	0,786609948	-3,5640050272146835	4	-0,588188529	0,00280348188
2	1	0	0	0	6110,72	0,799750984	0,800042868	-3,3521392593781235	4	-0,592855334	0,00268185511
2	1	0	1	0	6112,07	0,81325233	0,813405454	-3,1505562191208301	4	-0,597243547	0,00256267958
2	1	0	1	0	6113,42	0,826753557	0,827098966	-2,9557714164257069	4	-0,601363122	0,00244471547
2	1	0	0	0	6114,77	0,840254724	0,840421617	-2,7695503979921411	4	-0,60522604	0,00232759002
2	1	0	1	0	6116,12	0,85375607	0,853794336	-2,5906491062293552	4	-0,608842552	0,00221188157
2	1	0	1	0	6117,47	0,867257357	0,867337406	-2,419352212920792	4	-0,612222731	0,00209839456
2	1	0	0	0	6118,82	0,880758643	0,881191432	-2,2545177551607338	4	-0,615376472	0,00198666169
2	1	0	0	0	6120,17	0,894259155	0,89449203	-2,097369711910119	4	-0,618312001	0,00187608053
2	1	0	1	0	6121,52	0,907761097	0,908107281	-1,9469552505761386	4	-0,621040225	0,0017680442
2	1	0	0	0	6122,87	0,921262324	0,921490014	-1,8034497145563398	4	-0,623570085	0,00166186085
2	1	0	0	0	6124,22	0,93476367	0,934822619	-1,6661711490402595	4	-0,625910401	0,00155757449
2	1	0	1	0	6125,57	0,948264897	0,948455989	-1,5365597940981389	4	-0,62807107	0,00145735929
2	1	0	0	0	6126,92	0,961766064	0,96208936	-1,412102694002288	4	-0,6300596	0,00135856902
2	1	0	0	0	6128,27	0,97526747	0,97569263	-1,2937082371984942	4	-0,6318838	0,00126226165
2	1	0	1	0	6129,63	0,988768637	0,989105523	-1,1810511120905502	4	-0,63355273	0,00116818422
2	1	0	0	0	6130,98	1,00226986	1,00233781	-1,0742181787888203	4	-0,635073483	0,0010767295
2	1	0	0	0	6132,33	1,01577127	1,01614165	-0,9719842250148503	4	-0,636453092	0,000987673644
2	1	0	1	0	6133,68	1,02927244	1,02957439	-0,87553431621442714	4	-0,637698829	0,000901427702
2	1	0	1	0	6135,03	1,04277372	1,0430975	-0,78342384720842163	4	-0,63881737	0,00081718748
2	1	0	0	0	6136,38	1,05627477	1,05665076	-0,69551630876958374	4	-0,639814436	0,000734917819
2	1	0	1	0	6137,73	1,06977606	1,07004356	-0,61217992644136205	4	-0,640696049	0,000655059179
2	1	0	1	0	6139,08	1,08327734	1,08340621	-0,53251730091869741	4	-0,641467392	0,000576932565
2	1	0	0	0	6140,47	1,0971787	1,09730017	-0,45553068257868467	4	-0,642153025	0,000499853923
2	1	0	1	0	6141,82	1,1106801	1,1109134	-0,38339239459795315	4	-0,642718315	0,000425915758
2	1	0	1	0	6143,17	1,12418127	1,1244967	-0,31521974139225952	4	-0,643188775	0,000354463555
2	1	0	0	0	6144,52	1,13768256	1,13813019	-0,25008908853245338	4	-0,643569112	0,000284633948
2	1	0	0	0	6145,87	1,15118408	1,15144277	-0,18833453515193011	4	-0,643863559	0,000216856439
2	1	0	1	0	6147,22	1,16468489	1,16520643	-0,12887693988159291	4	-0,644076288	0,000150168242
2	1	0	0	0	6148,57	1,17818618	1,17862928	-0,073027322631484365	4	-0,644211352	8,60721411E-005
2	1	0	0	0	6149,96	1,19208777	1,19240296	-0,017801772720607302	4	-0,644273221	2,1226886E-005
2	1	0	1	0	6151,39	1,20638895	1,20674801	0,036121732972484666	4	-0,644259274	4,35898291E-005
2	1	0	0	0	6152,74	1,21989036	1,2202512	0,08453624202714583	4	-0,644176841	0,000103155449
2	1	0	0	0	6154,13	1,23379135	1,23416519	0,1324436784489087	4	-0,644025087	0,000163457371
2	1	0	1	0	6155,48	1,24729276	1,24762797	0,17663042227892774	4	-0,643815339	0,000220369053
2	1	0	0	0	6156,83	1,26079404	1,26111102	0,21991499249512934	4	-0,643546641	0,000277337211
2	1	0	0	0	6158,18	1,27429533	1,27453387	0,26053822358759837	4	-0,643221319	0,000332064781
2	1	0	1	0	6159,53	1,2877965	1,28815722	0,30097686825320211	4	-0,642841399	0,000387705513
2	1	0	0	0	6160,88	1,30129778	1,30175054	0,33929938062404486	4	-0,64240849	0,000441683165
2	1	0	0	0	6162,23	1,31479919	1,31498289	0,37712321329551379	4	-0,641924083	0,000495910586
2	1	0	1	0	6163,58	1,32830036	1,32852602	0,41361737499634522	4	-0,641389608	0,000549501448
2	1	0	1	0	6164,93	1,34180164	1,34202909	0,44942112375671782	4	-0,640806377	0,000603136199
2	1	0	0	0	6166,28	1,35530269	1,3554219	0,48406910321985517	4	-0,640175283	0,00065611786
2	1	0	1	0	6167,63	1,36880398	1,36894488	0,51850203517824237	4	-0,639497101	0,00070980069
2	1	0	1	0	6168,98	1,38230526	1,38258839	0,55312311494102086	4	-0,638772666	0,000764741621
2	1	0	0	0	6170,33	1,39580667	1,3960011	0,58675935057302374	4	-0,638002157	0,000819116714
2	1	0	1	0	6171,68	1,40930796	1,40959442	0,62046002099911219	4	-0,63718611	0,000874596997
2	1	0	1	0	6173,03	1,42280912	1,4230876	0,65409313111255334	4	-0,636324823	0,000930831826
2	1	0	0	0	6174,38	1,43631041	1,43650019	0,68763365084305408	4	-0,635418177	0,000987785868
2	1	0	0	0	6175,73	1,4498117	1,45004332	0,72133753790209459	4	-0,63446629	0,00104597071
2	1	0	1	0	6177,08	1,46331298	1,46359658	0,75505300021419866	4	-0,633468747	0,00110509305
2	1	0	0	0	6178,43	1,47681403	1,47705948	0,7892167788619808	4	-0,632425368	0,00116572017
2	1	0	0	0	6179,78	1,49031544	1,49072289	0,82345389761030758	4	-0,631336153	0,00122754159
2	1	0	1	0	6181,13	1,5038166	1,50408566	0,85832681755224627	4	-0,630200207	0,00129099702
2	1	0	0	0	6182,48	1,51731789	1,51752865	0,89313533312330406	4	-0,629017234	0,00135535852
2	1	0	0	0	6183,83	1,53081918	1,53099155	0,92853592584530278	4	-0,627786875	0,00142158067
2	1	0	1	0	6185,18	1,54432046	1,54476523	0,96469219246258214	4	-0,626508236	0,00149022299
2	1	0	0	0	6186,57	1,55822158	1,55869877	1,0034250444802808	4	-0,625140607	0,0015640374
2	1	0	0	0	6187,92	1,57172298	1,57211196	1,0404769169787565	4	-0,623760164	0,00163574622
2	1	0	1	0	6189,27	1,58522427	1,58530426	1,0776500767096842	4	-0,622329473	0,00170840323
2	1	0	1	0	6190,62	1,59872544	1,59880733	1,1159438320125118	4	-0,620847881	0,00178417913
2	1	0	0	0	6191,97	1,61222684	1,61240077	1,1548956635718541	4	-0,619313836	0,00186215469
2	1	0	1	0	6193,32	1,62572801	1,62594366	1,1950325633709582	4	-0,617726147	0,00194305566
2	1	0	1	0	6194,67	1,63922918	1,63943684	1,2358646296585691	4	-0,616084158	0,00202612206
2	1	0	0	0	6196,02	1,65273035	1,65292966	1,2775429630031213	4	-0,61438638	0,00211168872
2	1	0	1	0	6197,37	1,66623175	1,66622221	1,3198090891043304	4	-0,612632096	0,00219909521
2	1	0	1	0	6198,72	1,67973292	1,68003619	1,3637314240137677	4	-0,610820115	0,00229111803
2	1	0	0	0	6200,07	1,69323432	1,69348896	1,4081291885425635	4	-0,608948171	0,00238465122
2	1	0	0	0	6201,42	1,70673549	1,70698214	1,4531190528844774	4	-0,607015848	0,00248044822
2	1	0	1	0	6202,77	1,72023678	1,72038484	1,4992244131863107	4	-0,605022132	0,00257924292
2	1	0	0	0	6204,12	1,73373818	1,7339983	1,5459967028970496	4	-0,602965355	0,00268075569
2	1	0	0	0	6205,47	1,74723935	1,74763155	1,5949757589648179	4	-0,600844622	0,00278743007
2	1	0	1	0	6206,82	1,76074076	1,76097429	1,6433895987768957	4	-0,598657548	0,00289396686
2	1	0	0	0	6208,17	1,77424192	1,77458739	1,6947591571758166	4	-0,596403658	0,00300749834
2	1	0	0	0	6209,52	1,78774309	1,78803051	1,7451283689588272	4	-0,59408164	0,00312034274
2	1	0	1	0	6210,87	1,80124426	1,80133295	1,7983874088774144	4	-0,59168911	0,00323949452
2	1	0	0	0	6212,22	1,81474662	1,81483722	1,8510621435282032	4	-0,589225292	0,00335937645
2	1	0	0	0	6213,57	1,82824683	1,82852948	1,9051793521891085	4	-0,586689174	0,00348367658
2	1	0	1	0	6214,92	1,84174812	1,84195244	1,9602190417547955	4	-0,584078789	0,00361063029
2	1	0	1	0	6216,27	1,8552494	1,85523498	2,0154735880593472	4	-0,581393659	0,00373917702
2	1	0	0	0	6217,62	1,86875069	1,86904871	2,0733254433919974	4	-0,578632414	0,00387514615
2	1	0	1	0	6218,97	1,8822521	1,88261187	2,1325986428807248	4	-0,575792134	0,00401485572
2	1	0	1	0	6220,32	1,89575326	1,89589441	2,1914823893457581	4	-0,572872519	0,00415481906
2	1	0	0	0	6221,67	1,90925443	1,90960801	2,2514644277592525	4	-0,5698722	0,00429941434
2	1	0	1	0	6223,02	1,92275584	1,92297077	2,3133831452578342	4	-0,566789627	0,00444856798
2	1	0	1	0	6224,37	1,936257	1,93672419	2,3752967442075315	4	-0,563623726	0,00460029487
2	1	0	0	0	6225,72	1,94975817	1,95020735	2,4382056991259251	4	-0,560373008	0,00475500664
2	1	0	0	0	6227,07	1,96325946	1,96358001	2,5021518170833587	4	-0,557037175	0,00491317548
2	1	0	1	0	6228,42	1,97676075	1,97702301	2,5660846432050093	4	-0,553614974	0,00507320836
2	1	0	0	0	6229,77	1,99026203	1,99046576	2,6335724933693782	4	-0,550103545	0,00524203572
2	1	0	0	0	6231,12	2,0037632	2,00401878	2,6977784869571514	4	-0,546504855	0,00540639879
2	1	0	1	0	6232,47	2,0172646	2,01737165	2,764073158303905	4	-0,542817056	0,00557616306
2	1	0	0	0	6233,82	2,03076601	2,03106499	2,8295816940565821	4	-0,539040327	0,00574706448
2	1	0	0	0	6235,17	2,04426694	2,04448795	2,8949566471079923	4	-0,535175264	0,00591870397
2	1	0	1	0	6236,53	2,05776834	2,05826163	2,9605958983302118	4	-0,531220973	0,00609368086
2	1	0	1	0	6237,88	2,07126975	2,07149458	3,0276412306879904	4	-0,527179122	0,00627174228
2	1	0	0	0	6239,23	2,08477068	2,08500695	3,0919453433404269	4	-0,523048162	0,00644672755
2	1	0	1	0	6240,58	2,09827185	2,09853029	3,1549870744347501	4	-0,518829703	0,00662083598
2	1	0	1	0	6241,93	2,11177325	2,11209321	3,218531942615904	4	-0,514527082	0,00679783942
2	1	0	0	0	6243,28	2,12527466	2,12551618	3,2792099441091123	4	-0,510139227	0,00697001396
2	1	0	1	0	6244,63	2,13877606	2,13891888	3,3389377842346765	4	-0,505670667	0,00714171724
2	1	0	1	0	6245,98	2,15227723	2,15245223	3,3945841677486906	4	-0,501123786	0,00730668008
2	1	0	0	0	6247,33	2,1657784	2,16576481	3,4478144012391424	4	-0,49650237	0,00746715488
2	1	0	1	0	6248,68	2,17928004	2,17941761	3,496113960182768	4	-0,491812348	0,00761949224
2	1	0	1	0	6250,03	2,19278073	2,19319177	3,5391567895809574	4	-0,487062037	0,00776204932
2	1	0	0	0	6251,38	2,20628214	2,20644426	3,5762331026295693	4	-0,482257277	0,00789075904
2	1	0	0	0	6252,73	2,21978331	2,22008753	3,6042313228050912	4	-0,477408499	0,00800170936
2	1	0	1	0	6254,08	2,23328471	2,23353052	3,6248546615242957	4	-0,472526044	0,0080962237
2	1	0	0	0	6255,43	2,24678588	2,2470839	3,6331826224923136	4	-0,467624158	0,00816406589
2	1	0	0	0	6256,78	2,26028728	2,2605567	3,6285959916810099	4	-0,46272105	0,00820264686
2	1	0	1	0	6258,13	2,27378845	2,27406979	3,6094288714230022	4	-0,457832068	0,00820809323
2	1	0	0	0	6259,48	2,28728986	2,28761268	3,5729733295738554	4	-0,452981144	0,00817357935
2	1	0	0	0	6260,83	2,30079103	2,30096555	3,5192125700414182	4	-0,44819054	0,00809758715
2	1	0	1	0	6262,18	2,31429243	2,31466937	3,4476166355113235	4	-0,443484634	0,00798009243
2	1	0	1	0	6263,53	2,32779288	2,3280108	3,3588252428789536	4	-0,43888703	0,00781938154
2	1	0	0	0	6264,88	2,34129477	2,34155464	3,2516191080212525	4	-0,43442148	0,00761384377
2	1	0	1	0	6266,23	2,35479593	2,35488749	3,1239831404139494	4	-0,430114597	0,00735662878
2	1	0	1	0	6267,58	2,3682971	2,36832047	2,9737013118962355	4	-0,425995946	0,00704267761
2	1	0	0	0	6268,93	2,38179851	2,38188362	2,8028114071736816	4	-0,422093362	0,00667597074
2	1	0	1	0	6270,28	2,39529967	2,39533663	2,6060596052557264	4	-0,418439299	0,00624239026
2	1	0	1	0	6271,63	2,40880084	2,40894985	2,3923958123971971	4	-0,415063173	0,00576316146
2	1	0	0	0	6272,98	2,42230225	2,42254305	2,1697648167610134	4	-0,41198346	0,00525634876
2	1	0	0	0	6274,33	2,43580246	2,43600416	1,9662239193900106	4	-0,409195721	0,0047897296
2	1	0	1	0	6275,68	2,44930506	2,44974995	1,8076753926773891	4	-0,406653821	0,00442835269
2	1	0	0	0	6277,03	2,46280622	2,46297193	1,6977715709557107	4	-0,404292077	0,00418156385
2	1	0	0	0	6278,38	2,47630715	2,4766655	1,6287780813872867	4	-0,402049571	0,00403393852
2	1	0	1	0	6279,73	2,48980856	2,4901886	1,5908848401159011	4	-0,399877667	0,00396160316
2	1	0	0	0	6281,08	2,50330973	2,50332093	1,575551855067415	4	-0,397741646	0,00394411199
2	1	0	0	0	6282,43	2,51681113	2,51704431	1,5763395447283949	4	-0,395615369	0,00396771636
2	1	0	1	0	6283,78	2,5303123	2,53047705	1,5913073395689354	4	-0,393477648	0,00402676687
2	1	0	0	0	6285,13	2,54381371	2,54409051	1,6163580088565651	4	-0,391312867	0,00411216123
2	1	0	0	0	6286,48	2,55731487	2,55734277	1,6523876835902557	4	-0,389106929	0,00422572158
2	1	0	1	0	6287,83	2,57081628	2,57109642	1,6959351673722266	4	-0,3868469	0,00436041271
2	1	0	1	0	6289,18	2,58431768	2,58438921	1,7471112267424669	4	-0,384522587	0,00451521529
2	1	0	0	0	6290,53	2,59781861	2,59804249	1,8066431439171229	4	-0,382122606	0,00469373586
2	1	0	1	0	6291,88	2,61132002	2,61160564	1,8712608472754512	4	-0,379639119	0,00488699554
2	1	0	1	0	6293,23	2,62482142	2,62511873	1,9402241247395722	4	-0,377065837	0,00509331888
2	1	0	0	0	6294,58	2,63832259	2,63858175	2,0141174203405754	4	-0,374395669	0,00531441346
2	1	0	1	0	6295,93	2,65182376	2,65205503	2,089521940176688	4	-0,371624857	0,00554152718
2	1	0	1	0	6297,28	2,66532493	2,66542745	2,1675756815820931	4	-0,368750781	0,00577751594
2	1	0	0	0	6298,63	2,67882609	2,67896056	2,2471589644749875	4	-0,365770757	0,00602005003
2	1	0	0	0	6299,98	2,69232774	2,69269395	2,3237343746340784	4	-0,362684399	0,00625710562
2	1	0	1	0	6301,33	2,70582867	2,70585632	2,4059164275725581	4	-0,359492689	0,00651006401
2	1	0	0	0	6302,68	2,71932983	2,71912885	2,4796149333318026	4	-0,356194466	0,00674239267
2	1	0	0	0	6304,03	2,73283124	2,73289251	2,5530183960994109	4	-0,352796555	0,00697712507
2	1	0	1	0	6305,38	2,74633265	2,7464757	2,6236541979014874	4	-0,349300623	0,00720580248
2	1	0	0	0	6306,73	2,75983381	2,75979829	2,6921240352094173	4	-0,345710486	0,00742971944
2	1	0	0	0	6308,08	2,77333498	2,77360225	2,7566748547057357	4	-0,342031479	0,00764591945
2	1	0	1	0	6309,43	2,78683639	2,78705525	2,8171458082894461	4	-0,338267833	0,00785154104
2	1	0	0	0	6310,78	2,80033755	2,80059814	2,87368467077612	4	-0,334425241	0,00804803614
2	1	0	0	0	6312,13	2,81383896	2,8141613	2,9258199619750086	4	-0,330509514	0,00823372975
2	1	0	1	0	6313,48	2,82734013	2,82758451	2,9748384418586867	4	-0,326524705	0,00841160677
2	1	0	1	0	6314,83	2,84084129	2,84098721	3,018816303461783	4	-0,322478384	0,00857641827
2	1	0	0	0	6316,18	2,8543427	2,8545804	3,059317044913776	4	-0,318374097	0,00873306673
2	1	0	1	0	6317,53	2,86784387	2,86796308	3,0954972027490515	4	-0,314218044	0,00887777191
2	1	0	1	0	6318,88	2,88134527	2,88178706	3,1278541733821254	4	-0,310016215	0,00901380926
2	1	0	0	0	6320,23	2,89484644	2,8948791	3,1541219949722221	4	-0,305773705	0,00913080201
2	1	0	1	0	6321,58	2,90834761	2,90854239	3,1763311189909658	4	-0,301498294	0,00923849363
2	1	0	1	0	6322,93	2,92184901	2,92190528	3,1940243430435782	4	-0,297196805	0,00933263637
2	1	0	0	0	6324,28	2,93535042	2,93573904	3,2089570400615488	4	-0,292873293	0,00942066032
2	1	0	1	0	6325,63	2,9488523	2,94917274	3,2183571990896954	4	-0,288533866	0,00949149113
2	1	0	1	0	6326,98	2,96235275	2,96244431	3,2237121301392621	4	-0,284184724	0,0095500676
2	1	0	0	0	6328,33	2,97585392	2,97579694	3,2233396656811238	4	-0,279831588	0,00959200412
2	1	0	0	0	6329,68	2,98935509	2,98960066	3,2196695829431219	4	-0,275480866	0,00962552615
2	1	0	1	0	6331,03	3,00285649	3,00285316	3,2122355327010086	4	-0,271138519	0,00964587182
2	1	0	0	0	6332,38	3,01635766	3,0164361	3,1994211959342048	4	-0,266809314	0,00965084974
2	1	0	0	0	6333,73	3,02985907	3,02994943	3,1839715366562086	4	-0,262499332	0,00964727253
2	1	0	1	0	6335,08	3,04336023	3,04358292	3,1668957409759386	4	-0,258211285	0,00963870995
2	1	0	0	0	6336,43	3,05686164	3,05699563	3,1446566576262304	4	-0,253949016	0,00961320195
2	1	0	0	0	6337,78	3,07036281	3,07046866	3,1189493425190304	4	-0,249720171	0,00957663637
2	1	0	1	0	6339,13	3,08386397	3,0839715	3,0939876455813613	4	-0,245524108	0,00954176951
2	1	0	1	0	6340,48	3,09736538	3,0975852	3,065215842798352	4	-0,241365358	0,00949476752
2	1	0	0	0	6341,83	3,11086679	3,11092782	3,0345926433801613	4	-0,237246111	0,00944039878
2	1	0	1	0	6343,19	3,12436795	3,12446094	3,0009425257643053	4	-0,233170748	0,00937632751
2	1	0	1	0	6344,54	3,13786888	3,13798356	2,9667504628499302	4	-0,229141563	0,00930961408
2	1	0	0	0	6345,89	3,15137005	3,15143681	2,9325325340032486	4	-0,225158066	0,00924169086
2	1	0	1	0	6347,24	3,16487122	3,16493988	2,895480481286832	4	-0,221222863	0,00916402135
2	1	0	1	0	6348,59	3,17837286	3,17852306	2,8574647375692912	4	-0,217338845	0,00908251759
2	1	0	0	0	6349,94	3,19187403	3,19213629	2,8169793672859632	4	-0,213507339	0,00899218209
2	1	0	1	0	6351,29	3,20537519	3,20556903	2,7779445860038141	4	-0,209728271	0,00890489295
2	1	0	1	0	6352,64	3,21887636	3,21913242	2,7328607322027238	4	-0,206007734	0,00879744068
2	1	0	0	0	6353,99	3,23237777	3,23265553	2,6863208388288768	4	-0,20234935	0,00868394971
2	1	0	0	0	6355,34	3,24587846	3,24607825	2,6379998444247549	4	-0,198754087	0,00856315438
2	1	0	1	0	6356,69	3,25938034	3,25958133	2,5896098657200771	4	-0,195223808	0,00844104402
2	1	0	0	0	6358,04	3,27288151	3,27314472	2,536741185312465	4	-0,191761136	0,00830312073
2	1	0	0	0	6359,39	3,28638291	3,28658724	2,4837565782169405	4	-0,188372001	0,00816308241
2	1	0	1	0	6360,74	3,29988408	3,29992986	2,4288992366443126	4	-0,185055047	0,00801519677
2	1	0	0	0	6362,09	3,31338525	3,31354356	2,3711672363181933	4	-0,181814164	0,007856966
2	1	0	0	0	6363,44	3,32688642	3,32688594	2,3108398492137638	4	-0,178653464	0,00768790068
2	1	0	1	0	6364,79	3,34038806	3,34051943	2,2502384191999939	4	-0,175574571	0,00751696527
2	1	0	1	0	6366,14	3,35388803	3,35408211	2,1872596081443517	4	-0,172579095	0,00733624818
2	1	0	0	0	6367,49	3,36739039	3,36750555	2,1239560463776144	4	-0,169667885	0,00715243397
2	1	0	1	0	6368,84	3,38089156	3,38093805	2,0617833280315018	4	-0,166841522	0,00697076181
2	1	0	1	0	6370,19	3,39439273	3,39464164	2,0022988623628989	4	-0,164098024	0,00679708691
2	1	0	0	0	6371,54	3,4078939	3,40830517	1,9436049914608448	4	-0,161433965	0,00662439875
2	1	0	1	0	6372,89	3,42139554	3,42167783	1,8880646812419142	4	-0,158846661	0,00646034908
2	1	0	1	0	6374,24	3,43489671	3,43517089	1,8336893040686794	4	-0,156334057	0,00629903609
2	1	0	0	0	6375,59	3,44839787	3,44869399	1,7835510286192042	4	-0,153891861	0,00615092181
2	1	0	1	0	6376,94	3,46189904	3,46210694	1,7358267785360368	4	-0,151515678	0,00600961782
2	1	0	1	0	6378,29	3,47540021	3,4755199	1,692359804486233	4	-0,149201497	0,00588183012
2	1	0	0	0	6379,64	3,48890185	3,48917317	1,6526067747424022	4	-0,146942869	0,0057662311
2	1	0	0	0	6380,99	3,50240374	3,50250554	1,6170513574252653	4	-0,144735381	0,00566373114
2	1	0	1	0	6382,34	3,51590419	3,51603866	1,5848928994188717	4	-0,142573565	0,00557254488
2	1	0	0	0	6383,69	3,52940559	3,52947187	1,5557896917064954	4	-0,140452996	0,00549111608
2	1	0	0	0	6385,04	3,54290676	3,54293466	1,530075165132681	4	-0,138369858	0,00542095629
2	1	0	1	0	6386,39	3,55640793	3,55652785	1,5080712710817642	4	-0,136318833	0,00536349742
2	1	0	0	0	6387,74	3,5699091	3,57002091	1,4883909085765472	4	-0,134295598	0,00531358644
2	1	0	0	0	6389,09	3,58341074	3,58352399	1,4714021502683536	4	-0,132296979	0,00527280476
2	1	0	1	0	6390,44	3,59691191	3,59741807	1,4590077111497504	4	-0,130317777	0,00524866069
2	1	0	1	0	6391,79	3,61041331	3,61059022	1,4485018610371904	4	-0,12835449	0,00522994669
2	1	0	0	0	6393,14	3,62391424	3,62410355	1,441828699782489	4	-0,126403451	0,00522533664
2	1	0	1	0	6394,49	3,63741541	3,63740563	1,4365879545609186	4	-0,124460004	0,00522545306
2	1	0	1	0	6395,84	3,65091705	3,6510694	1,4340755818411707	4	-0,122521646	0,00523590948
2	1	0	0	0	6397,19	3,66441822	3,66450191	1,4338177315269914	4	-0,120585285	0,00525422767
2	1	0	1	0	6398,54	3,67791939	3,67822552	1,4355130080754552	4	-0,118647389	0,00528014079
2	1	0	1	0	6399,89	3,69142056	3,69161868	1,4387576800460629	4	-0,116706677	0,00531134475
2	1	0	0	0	6401,24	3,70492172	3,70499134	1,4424937656149197	4	-0,114760965	0,00534442673
2	1	0	1	0	6402,59	3,71842408	3,7186141	1,4474702231133526	4	-0,11280936	0,00538258301
2	1	0	1	0	6403,94	3,73192453	3,73204756	1,452905759525791	4	-0,110850766	0,00542231323
2	1	0	0	0	6405,29	3,7454257	3,74562049	1,4592333153511062	4	-0,108883932	0,00546573428
2	1	0	0	0	6406,64	3,75892687	3,75901341	1,4658784419298102	4	-0,10690923	0,00551025663
2	1	0	1	0	6407,99	3,77242804	3,77257681	1,471806071698664	4	-0,104924947	0,00555250142
2	1	0	0	0	6409,34	3,78592944	3,7862103	1,4803312852357814	4	-0,102931224	0,00560484547
2	1	0	0	0	6410,69	3,79943085	3,79957247	1,4885102488721402	4	-0,10092663	0,00565570267
2	1	0	1	0	6412,04	3,81293178	3,81307554	1,4975364307562496	4	-0,098910071	0,0057102195
2	1	0	0	0	6413,39	3,82643342	3,8264184	1,5085186089078598	4	-0,0968797579	0,00577222323
2	1	0	0	0	6414,74	3,83993459	3,84019232	1,520447163532177	4	-0,0948347673	0,00583880953
2	1	0	1	0	6416,09	3,85343575	3,85364461	1,5335488291457306	4	-0,0927722082	0,0059097521
2	1	0	1	0	6417,44	3,86693645	3,86704755	1,5482386625855043	4	-0,0906911269	0,00598711241
2	1	0	0	0	6418,79	3,88043809	3,88061094	1,5646306127309763	4	-0,0885888785	0,0060717226
2	1	0	1	0	6420,14	3,89393973	3,89387345	1,5817277021706106	4	-0,086464189	0,0061590476
2	1	0	1	0	6421,49	3,9074409	3,90768719	1,6010591611266064	4	-0,0843150914	0,00625643833
2	1	0	0	0	6422,84	3,92094207	3,92112017	1,6212428323924541	4	-0,0821390599	0,00635708775
2	1	0	1	0	6424,19	3,93444324	3,93477321	1,6442233175039254	4	-0,0799338073	0,006469646
2	1	0	1	0	6425,54	3,9479444	3,94843698	1,6681402275959626	4	-0,0776973367	0,00658654654
2	1	0	0	0	6426,89	3,96144605	3,9615593	1,6945862838377542	4	-0,0754266605	0,00671320409
2	1	0	0	0	6428,24	3,97494578	3,97501063	1,7224139828429229	4	-0,0731197149	0,00684661372
2	1	0	1	0	6429,59	3,98844838	3,98833489	1,7524302694946528	4	-0,0707732439	0,00698927883
2	1	0	0	0	6430,94	4,00194931	4,00207806	1,7862291056662781	4	-0,0683839619	0,00714862812
2	1	0	0	0	6432,29	4,01545	4,01541233	1,8213471498439267	4	-0,0659486577	0,00731345965
2	1	0	1	0	6433,64	4,02895212	4,02910423	1,8595349670698269	4	-0,063463375	0,00749226008
2	1	0	0	0	6434,99	4,04245329	4,04247713	1,900982663656272	4	-0,0609242022	0,00768467877
2	1	0	0	0	6436,34	4,05595446	4,05604982	1,9450282113005725	4	-0,0583276227	0,00788913108
2	1	0	1	0	6437,69	4,06945562	4,06938267	1,993284019331135	4	-0,0556679443	0,00811143499
2	1	0	0	0	6439,04	4,08295727	4,0830965	2,0449551629523411	4	-0,05294092	0,00834974926
2	1	0	0	0	6440,39	4,09645844	4,09690046	2,0997123053918259	4	-0,050142739	0,00860231277
2	1	0	1	0	6441,74	4,1099596	4,11011267	2,1577916089445296	4	-0,0472673886	0,00886876695
2	1	0	0	0	6443,09	4,1234622	4,12353802	2,2203025281338141	4	-0,0443108678	0,00915550161
2	1	0	0	0	6444,44	4,13696241	4,13712883	2,2853879059354368	4	-0,041268982	0,00945494417
2	1	0	1	0	6445,79	4,15046358	4,15076208	2,3553483076393603	4	-0,0381356142	0,00977649074
2	1	0	1	0	6447,14	4,16396379	4,16409397	2,4274653953918416	4	-0,0349066816	0,0101081943
2	1	0	0	0	6448,49	4,17746592	4,17756748	2,5042214219768778	4	-0,0315767787	0,0104615539
2	1	0	1	0	6449,85	4,19096708	4,19118071	2,5848002843558822	4	-0,028140761	0,0108333649
2	0	0	1	1	6451,13	4,19616747	4,19630337	2,5514227586487834	4	-0,0248033982	0,0107065439
2	0	0	0	1	6452,48	4,1826663	4,18296051	2,3493076916784048	4	-0,0215022955	0,00982706156
2	0	0	0	1	6453,83	4,16916513	4,16933775	2,1719922423362662	4	-0,0184536073	0,00905576907
2	0	0	1	1	6455,18	4,15566397	4,15587425	2,0084037650376515	4	-0,0156340711	0,0083466731
2	0	0	0	1	6456,53	4,1421628	4,14239168	1,8557982842127459	4	-0,0130281365	0,0076874434
2	0	0	0	1	6457,88	4,12866163	4,12870789	1,7128179514159712	4	-0,0106215971	0,00707172509
2	0	0	1	1	6459,23	4,11516047	4,11525536	1,5791600203762464	4	-0,0084013138	0,00649864692
2	0	0	1	1	6460,58	4,10165977	4,10170507	1,4539314779443357	4	-0,00635618623	0,00596359791
2	0	0	0	1	6461,93	4,08815765	4,08840942	1,3360573078195258	4	-0,00447447458	0,00546234939
2	0	0	1	1	6463,28	4,07465649	4,07491636	1,2253900760163896	4	-0,00274678436	0,00499336189
2	0	0	1	1	6464,63	4,06115532	4,06126308	1,122344046831131	4	-0,00116380444	0,00455813436
2	0	0	0	1	6465,98	4,04765415	4,04768991	1,0250080861151192	4	0,000284102483	0,00414891494
2	0	0	1	1	6467,33	4,03415251	4,03433657	0,93397959414869197	4	0,00160512165	0,00376798795
2	0	0	1	1	6468,68	4,02065134	4,02078438	0,84880841926981709	4	0,0028070577	0,00341287558
2	0	0	0	1	6470,03	4,00715017	4,00737095	0,76915173418819725	4	0,00389796984	0,00308227632
2	0	0	1	1	6471,38	3,99364901	3,99365759	0,69482498041664525	4	0,0048847883	0,00277489307
2	0	0	1	1	6472,73	3,98014736	3,98020482	0,62556998866299814	4	0,00577468798	0,00248989672
2	0	0	0	1	6474,08	3,96664619	3,9668119	0,56077343318611296	4	0,00657420838	0,00222448283
2	0	0	1	1	6475,43	3,9531455	3,95333958	0,50093402040917747	4	0,0072893477	0,00198036223
2	0	0	1	1	6476,82	3,93924356	3,93937469	0,4427326424047369	4	0,0079428684	0,00174408976
2	0	0	0	1	6478,17	3,92574239	3,92613244	0,39114107113952378	4	0,00850420538	0,00153567165
2	0	0	0	1	6479,52	3,91224122	3,91241908	0,34400299874444685	4	0,0089989733	0,00134588394
2	0	0	1	1	6480,87	3,89874005	3,8986752	0,30082980683073312	4	0,00943295471	0,00117283768
2	0	0	0	1	6482,22	3,88523889	3,88557315	0,26162581991714794	4	0,00981133617	0,0010165663
2	0	0	0	1	6483,57	3,87173724	3,87192988	0,22547309387785731	4	0,0101389717	0,000873016019
2	0	0	1	1	6484,92	3,85823607	3,85852671	0,19264382372299814	4	0,0104202135	0,000743321318
2	0	0	0	1	6486,27	3,84473491	3,84478331	0,16258876064481866	4	0,0106590269	0,000625118555
2	0	0	0	1	6487,62	3,83123374	3,83129025	0,13476449352068154	4	0,0108587025	0,000516321918
2	0	0	1	1	6488,97	3,81773257	3,81775713	0,10902164639749845	4	0,0110223303	0,000416218158
2	0	0	1	1	6490,32	3,80423069	3,804353	0,084774370273578368	4	0,0111522609	0,000322511623
2	0	0	0	1	6491,67	3,79072976	3,79083157	0,062428590802786176	4	0,011250847	0,000236656269
2	0	0	1	1	6493,06	3,77682877	3,7771275	0,040486902444778541	4	0,0113215847	0,0001529242
2	0	0	1	1	6494,41	3,76332736	3,76366472	0,020508964318044774	4	0,011361992	7,71888663E-005
2	0	0	0	1	6495,80	3,74942589	3,74959016	0,00055952007710402195	4	0,0113762664	2,09797099E-006
2	0	0	1	1	6497,19	3,73552465	3,73573661	-0,017238374130101818	4	0,011364216	6,43980238E-005
2	0	0	1	1	6498,54	3,72202349	3,72208309	-0,034172210512527501	4	0,0113285454	0,000127191801
2	0	0	0	1	6499,89	3,70852232	3,70892096	-0,051022119897728205	4	0,0112700276	0,000189237006
2	0	0	0	1	6501,24	3,69502163	3,69531775	-0,066900200766907891	4	0,0111895967	0,000247217511
2	0	0	1	1	6502,59	3,68151951	3,68169427	-0,082244751548084198	4	0,011087995	0,000302800036
2	0	0	0	1	6503,94	3,66801834	3,6682415	-0,09728938523524777	4	0,0109660625	0,000356880948
2	0	0	0	1	6505,33	3,65411735	3,65407681	-0,11188743620490027	4	0,0108201131	0,000408845284
2	0	0	1	1	6506,68	3,64061594	3,64065385	-0,12578650187545781	4	0,0106590502	0,000457945105
2	0	0	0	1	6508,03	3,62711453	3,6273613	-0,13918569660745514	4	0,010479508	0,000504876836
2	0	0	0	1	6509,38	3,61361337	3,61386824	-0,15220159847134074	4	0,0102821477	0,000550036493
2	0	0	1	1	6510,73	3,6001122	3,60025501	-0,16476621296412032	4	0,0100673912	0,000593200384
2	0	0	0	1	6512,08	3,58661103	3,58671188	-0,17729782968914742	4	0,00983582437	0,000635916251
2	0	0	0	1	6513,43	3,57310939	3,57368994	-0,18895662797149315	4	0,00958791282	0,000675272371
2	0	0	1	1	6514,78	3,55960822	3,55974579	-0,20078539739673341	4	0,00932411291	0,000714744965
2	0	0	0	1	6516,13	3,54610729	3,54645324	-0,21186774051264256	4	0,00904489774	0,000751379062
2	0	0	0	1	6517,48	3,53260589	3,53273964	-0,22284300376971578	4	0,00875079539	0,000787246332
2	0	0	1	1	6518,83	3,51910472	3,51916647	-0,23342820396646813	4	0,00844225008	0,000821472728
2	0	0	1	1	6520,18	3,50560308	3,50587392	-0,24351744920325747	4	0,00811976939	0,000853741483
2	0	0	0	1	6521,53	3,49210191	3,49215031	-0,25311573788834173	4	0,00778370071	0,000883918197
2	0	0	1	1	6522,88	3,47860074	3,47873735	-0,26262542217349072	4	0,00743444543	0,000913604861
2	0	0	1	1	6524,23	3,46509957	3,46513414	-0,27222900783332803	4	0,00707254652	0,000943310035
2	0	0	0	1	6525,58	3,45159841	3,45185161	-0,28102676104754208	4	0,0066982382	0,000970062683
2	0	0	1	1	6526,93	3,43809676	3,43823862	-0,28977865904259213	4	0,00631207554	0,000996328192
2	0	0	1	1	6528,28	3,42459559	3,42472529	-0,29806411910491712	4	0,00591445155	0,00102078775
2	0	0	0	1	6529,63	3,41109467	3,41122246	-0,30588809726759878	4	0,00550582493	0,0010434523
2	0	0	0	1	6530,98	3,39759326	3,39788961	-0,31390587442244032	4	0,00508663105	0,00106661755
2	0	0	1	1	6532,33	3,38409185	3,3842063	-0,32129567318285491	4	0,00465718657	0,00108733086
2	0	0	0	1	6533,68	3,37059045	3,3707335	-0,32850032571392826	4	0,00421783095	0,00110728701
2	0	0	0	1	6535,03	3,35708952	3,35718012	-0,33534907782450362	4	0,00376908272	0,0011258272
2	0	0	1	1	6536,38	3,34358811	3,34358692	-0,34209225365581638	4	0,00331108901	0,00114381523
2	0	0	0	1	6537,73	3,33008671	3,33007383	-0,34842399158515034	4	0,00284434343	0,00116027764
2	0	0	0	1	6539,08	3,31658554	3,31661105	-0,35456155845895501	4	0,0023692199	0,00117594283
2	0	0	1	1	6540,43	3,30308437	3,30308771	-0,36044931792033274	4	0,00188592274	0,00119059568
2	0	0	1	1	6541,78	3,28958321	3,28990531	-0,36579292864335277	4	0,00139498501	0,00120342406
2	0	0	0	1	6543,13	3,27608204	3,27632236	-0,37147191562689754	4	0,000896613754	0,00121706177
2	0	0	1	1	6544,48	3,26258039	3,26284909	-0,37655981544715635	4	0,000391127804	0,0012286579
2	0	0	1	1	6545,83	3,24907923	3,2492559	-0,38133743102662285	4	-0,000121200108	0,00123906287
2	0	0	0	1	6547,18	3,23557806	3,2356329	-0,38599684097183264	4	-0,000640142418	0,00124894409
2	0	0	1	1	6548,53	3,22207689	3,22235036	-0,39076398499310195	4	-0,00116539432	0,00125917851
2	0	0	1	1	6549,88	3,20857573	3,20861673	-0,39519414988656896	4	-0,00169660454	0,00126802654
2	0	0	0	1	6551,23	3,19507408	3,19546461	-0,39929322898388	4	-0,00223375252	0,00127592741
2	0	0	0	1	6552,58	3,18157387	3,18185306	-0,40361557519871558	4	-0,00277646072	0,0012842454
2	0	0	1	1	6553,94	3,16807175	3,168468	-0,40740864956751424	4	-0,00332464417	0,00129086128
2	0	0	0	1	6555,29	3,15457058	3,15451431	-0,41140294820070445	4	-0,00387804979	0,00129777647
2	0	0	0	1	6556,64	3,14106941	3,14114165	-0,41509101850291066	4	-0,00443657627	0,00130385964
2	0	0	1	1	6557,99	3,12756777	3,1277988	-0,41883162440111296	4	-0,00500003435	0,00131002103
2	0	0	0	1	6559,34	3,11406708	3,11453652	-0,42211318202316762	4	-0,00556835579	0,00131468696
2	0	0	0	1	6560,34	3,10396647	3,10432196	-0,42600735276937485	4	-0,00599294901	0,00132246397