File: Experimentelles/Rohdaten/Batteriemessungen/AlteZelle/Studenten_Batterietests/Sonstige/ZView-Export/LiCoO2 vs Li_02_CV_C01_loop9.txt
EC-Lab ASCII FILE
Nb header lines : 3
mode	ox/red	error	control changes	counter inc.	time/s	control/V	Ewe/V	<I>/mA	cycle number	(Q-Qo)/C	P/W
2	0	0	1	0	9761,05	3,10516667	3,1059258	-0,91768693923950195	10	0	0,00285026757
2	0	0	0	0	9762,23	3,09336519	3,09363532	-0,77096067244807821	10	-0,000943057821	0,00238507125
2	0	0	0	0	9763,43	3,08136368	3,08149576	-0,76086455086866957	10	-0,00186218123	0,00234460086
2	0	0	1	0	9764,63	3,06936288	3,0696969	-0,75395201457043277	10	-0,00277195894	0,00231440412
2	0	0	0	0	9765,83	3,05736184	3,05750656	-0,74745293632163085	10	-0,0036735211	0,0022853422
2	0	0	0	0	9767,03	3,04536033	3,04542732	-0,74144651042297664	10	-0,00456745038	0,00225802138
2	0	0	1	0	9768,23	3,03335953	3,03341794	-0,7352409271212928	10	-0,00545396795	0,00223029312
2	0	0	1	0	9769,43	3,02135825	3,02152872	-0,72927688946947494	10	-0,00633306103	0,0022035311
2	0	0	0	0	9770,63	3,00935698	3,00946951	-0,72351994334409574	10	-0,00720529817	0,00217741122
2	0	0	0	0	9771,83	2,99735594	2,99750018	-0,71797883495067507	10	-0,00807065517	0,00215214165
2	0	0	1	0	9773,03	2,98535466	2,98539042	-0,71263545611873485	10	-0,00892963912	0,00212749513
2	0	0	1	0	9774,23	2,97335386	2,97337103	-0,70756643063699174	10	-0,00978236366	0,00210385746
2	0	0	0	0	9775,43	2,96135283	2,96164227	-0,70284309191629466	10	-0,0106294192	0,00208156975
2	0	0	1	0	9776,63	2,94935131	2,94966292	-0,69810401868075238	10	-0,0114707407	0,00205917144
2	0	0	1	0	9777,83	2,93735051	2,9376235	-0,69385401159524915	10	-0,0123065207	0,00203828188
2	0	0	0	0	9779,03	2,92534924	2,9256742	-0,68938769850259264	10	-0,0131372055	0,00201692386
2	0	0	0	0	9780,23	2,91334796	2,91346455	-0,6854485222138473	10	-0,0139627587	0,00199702987
2	0	0	1	0	9781,43	2,90134716	2,90149522	-0,68149607007702246	10	-0,0147836274	0,00197735755
2	0	0	1	0	9782,63	2,88934588	2,88977647	-0,67784704221412634	10	-0,0155999083	0,00195882632
2	0	0	0	0	9783,83	2,87734461	2,87757659	-0,67430054116994227	10	-0,0164121408	0,00194035145
2	0	0	0	0	9785,03	2,86534452	2,86558938	-0,67130540546596864	10	-0,0172203425	0,00192368566
2	0	0	1	0	9786,23	2,85334253	2,85335732	-0,66855083514626035	10	-0,0180250201	0,00190761441
2	0	0	0	0	9787,43	2,8413415	2,84127784	-0,66563363947595456	10	-0,0188260935	0,00189125014
2	0	0	0	0	9788,63	2,82934046	2,82947874	-0,66291119266922573	10	-0,0196236614	0,00187569309
2	0	0	1	0	9789,83	2,81733918	2,81739926	-0,66023792962854349	10	-0,0204180963	0,00186015386
2	0	0	1	0	9791,03	2,80533814	2,80558038	-0,65766364615410522	10	-0,021209389	0,00184512825
2	0	0	0	0	9792,23	2,79333687	2,79368138	-0,6549876731199529	10	-0,0219977628	0,00182982686
2	0	0	0	0	9793,43	2,78133607	2,7818222	-0,65297126521666944	10	-0,0227832533	0,00181644992
2	0	0	1	0	9794,63	2,76933479	2,76961231	-0,6507688937708736	10	-0,0235661473	0,00180237752
2	0	0	1	0	9795,83	2,75733447	2,75734329	-0,64877247233105882	10	-0,024346482	0,00178888848
2	0	0	0	0	9797,03	2,74533248	2,74556351	-0,64688221924006938	10	-0,0251244903	0,00177605625
2	0	0	1	0	9798,23	2,73333144	2,73355412	-0,64497391243154918	10	-0,0259003863	0,00176307105
2	0	0	1	0	9799,43	2,72133017	2,72166491	-0,64326047416155635	10	-0,0266739856	0,00175073941
2	0	0	0	0	9800,63	2,70932913	2,70942497	-0,64165977869803469	10	-0,0274458844	0,00173852907
2	0	0	0	0	9801,83	2,69732809	2,69769645	-0,6401281331976279	10	-0,0282157604	0,00172687136
2	0	0	1	0	9803,03	2,68532681	2,68562675	-0,63874022290110771	10	-0,0289840177	0,00171541783
2	0	0	1	0	9804,23	2,67332578	2,67338681	-0,63767081204180928	10	-0,0297506507	0,00170474069
2	0	0	0	0	9805,43	2,6613245	2,6617384	-0,63654266375427328	10	-0,0305158887	0,00169430999
2	0	0	1	0	9806,63	2,6493237	2,64943838	-0,63531703703726451	10	-0,0312797092	0,00168323331
2	0	0	1	0	9807,83	2,63732243	2,63761926	-0,63432501039157427	10	-0,0320421234	0,00167310785
2	0	0	0	0	9809,03	2,62532139	2,62541938	-0,63318202598020429	10	-0,0328033455	0,0016623683
2	0	0	0	0	9810,23	2,61332035	2,6135807	-0,63236844834561152	10	-0,0335632712	0,001652746
2	0	0	1	0	9811,43	2,60131907	2,60153103	-0,63124720674629133	10	-0,0343221612	0,00164220924
2	0	0	1	0	9812,63	2,5893178	2,58957171	-0,63028807720790515	10	-0,0350797027	0,00163217622
2	0	0	0	0	9813,83	2,57731676	2,57738209	-0,62921178232257741	10	-0,0358361863	0,00162171922
2	0	0	0	0	9815,03	2,56531477	2,56547046	-0,62837557256263565	10	-0,0365914255	0,00161207898
2	0	0	1	0	9816,23	2,55331445	2,55355382	-0,6273483134185271	10	-0,037345551	0,00160196773
2	0	0	0	0	9817,43	2,54131341	2,54143405	-0,62613115940864	10	-0,038098447	0,00159127102
2	0	0	0	0	9818,63	2,52931213	2,52945471	-0,62505096755921933	10	-0,03884992	0,00158103812
2	0	0	1	0	9819,83	2,51731133	2,51765585	-0,62379858689382669	10	-0,0396001786	0,00157051021
2	0	0	1	0	9821,03	2,50531006	2,50554609	-0,62236483565842342	10	-0,0403488949	0,00155936379
2	0	0	0	0	9822,23	2,49330902	2,4935267	-0,62088491146763584	10	-0,0410959683	0,00154819305
2	0	0	0	0	9823,43	2,48130798	2,48140693	-0,61972826455409574	10	-0,0418411791	0,00153779797
2	0	0	1	0	9824,63	2,46930671	2,46975875	-0,6181473500716201	10	-0,0425845757	0,00152667484
2	0	0	0	0	9825,83	2,45730543	2,45768929	-0,61621074611321178	10	-0,0433258303	0,00151445461
2	0	0	0	0	9827,03	2,44530439	2,44556952	-0,61403019136438886	10	-0,0440644883	0,00150165346
2	0	0	1	0	9828,23	2,43330336	2,43364048	-0,61160240539660122	10	-0,0448005348	0,00148842041
2	0	0	1	0	9829,43	2,42130232	2,42170095	-0,60894303862005427	10	-0,0455334224	0,00147467793
2	0	0	0	0	9830,63	2,40930104	2,40939093	-0,60600716077412326	10	-0,046263054	0,00146010821
2	0	0	0	0	9831,83	2,39729977	2,39757204	-0,6026067341056969	10	-0,046988856	0,00144479307
2	0	0	1	0	9833,03	2,38529897	2,38546228	-0,59899503753210048	10	-0,0477105342	0,00142888003
2	0	0	1	0	9834,23	2,37329817	2,37355328	-0,59517752180145946	10	-0,0484276488	0,00141268561
2	0	0	0	0	9835,43	2,36129665	2,361624	-0,59079535864293581	10	-0,0491399206	0,00139523647
2	0	0	1	0	9836,63	2,34929562	2,34954453	-0,5861610658466816	10	-0,0498469882	0,00137721153
2	0	0	1	0	9837,83	2,33729434	2,33727431	-0,58112424534435008	10	-0,0505480543	0,00135824678
2	0	0	0	0	9839,03	2,32529306	2,32533503	-0,57575797584528755	10	-0,0512430966	0,00133883022
2	0	0	0	0	9840,23	2,31329203	2,3136065	-0,56974965551247149	10	-0,0519312471	0,00131817651
2	0	0	1	0	9841,43	2,30129099	2,30155683	-0,56385100291420941	10	-0,0526125729	0,00129773514
2	0	0	1	0	9842,63	2,28928995	2,28963804	-0,55773358109096717	10	-0,0532864407	0,00127700798
2	0	0	0	0	9843,83	2,27728868	2,27772856	-0,55145852888623904	10	-0,053952679	0,00125607289
2	0	0	1	0	9845,03	2,26528668	2,26558685	-0,54456681502228224	10	-0,0546109565	0,00123376341
2	0	0	1	0	9846,23	2,2532866	2,25347924	-0,53773812825481037	10	-0,0552610159	0,00121178175
2	0	0	0	0	9847,43	2,24128532	2,2414701	-0,53083522183199872	10	-0,0559029318	0,00118985132
2	0	0	0	0	9848,63	2,22928429	2,22950077	-0,52398278533170739	10	-0,0565364249	0,00116822007
2	0	0	1	0	9849,84	2,21728325	2,21770191	-0,51690833782777101	10	-0,0571617261	0,00114634866
2	0	0	1	0	9851,04	2,20528197	2,20541167	-0,51025944637755629	10	-0,0577786937	0,00112533208
2	0	0	0	0	9852,24	2,1932807	2,19347239	-0,50336838156605882	10	-0,0583876558	0,00110412459
2	0	0	0	0	9853,44	2,1812799	2,18159342	-0,49705624828736038	10	-0,0589884929	0,00108437461
2	0	0	1	0	9854,64	2,16927862	2,16952395	-0,49057568671802797	10	-0,0595817752	0,00106431567
2	0	0	0	0	9855,84	2,15727687	2,15761518	-0,48425603769606342	10	-0,060167484	0,00104483822
2	0	0	0	0	9857,04	2,14527655	2,14566541	-0,47836169026171091	10	-0,0607458502	0,00102640409
2	0	0	1	0	9858,24	2,13327527	2,13358617	-0,47274415303642669	10	-0,0613173582	0,00100864039
2	0	0	1	0	9859,44	2,12127423	2,12143636	-0,4674076559022087	10	-0,0618822388	0,000991575653
2	0	0	0	0	9860,64	2,10927296	2,10962725	-0,46224502753466547	10	-0,0624410287	0,000975164701
2	0	0	0	0	9861,84	2,09727192	2,09739757	-0,4578157275294288	10	-0,062993966	0,000960221572
2	0	0	1	0	9863,04	2,08527088	2,08551836	-0,45342507151266086	10	-0,0635413527	0,000945626292
2	0	0	1	0	9864,24	2,07327008	2,0735507	-0,44939580278808576	10	-0,0640836135	0,000931844988
2	0	0	0	0	9865,44	2,06126881	2,06136918	-0,44564744752521338	10	-0,0646213144	0,000918643898
2	0	0	1	0	9866,64	2,04926753	2,0494101	-0,44218438615401555	10	-0,0651547238	0,000906217145
2	0	0	1	0	9867,84	2,03726625	2,03745079	-0,4391713255705936	10	-0,0656841695	0,000894789991
2	0	0	0	0	9869,04	2,02526522	2,02549171	-0,43630377110094054	10	-0,0662102029	0,000883729663
2	0	0	0	0	9870,24	2,01326418	2,01318121	-0,4337642326330151	10	-0,0667329356	0,000873245997
2	0	0	1	0	9871,44	2,0012629	2,00141263	-0,43155217931295462	10	-0,0672528148	0,000863713969
2	0	0	1	0	9872,64	1,98926198	1,98949349	-0,429620395104088	10	-0,0677701384	0,000854726997
2	0	0	0	0	9873,84	1,97726095	1,97755408	-0,4278130691188071	10	-0,0682852939	0,000846023497
2	0	0	1	0	9875,04	1,96525967	1,96546459	-0,42629475985964141	10	-0,0687986314	0,000837867265
2	0	0	1	0	9876,24	1,95325851	1,95383632	-0,4251622816858185	10	-0,0693102777	0,000830697536
2	0	0	0	0	9877,44	1,94125748	1,94163632	-0,42426682217046528	10	-0,0698208213	0,000823771872
2	0	0	0	0	9878,64	1,92925632	1,92950666	-0,42342169474189626	10	-0,0703302696	0,000816994987
2	0	0	1	0	9879,84	1,91725528	1,91761756	-0,42282798017064851	10	-0,0708391592	0,000810822356
2	0	0	1	0	9881,04	1,90525424	1,90536749	-0,42263855055595558	10	-0,0713473707	0,000805281743
2	0	0	0	0	9882,24	1,89325297	1,89341843	-0,42259490163996858	10	-0,0718553215	0,000800148991
2	0	0	0	0	9883,44	1,88125181	1,88160944	-0,42230581911280749	10	-0,0723629072	0,000794614607
2	0	0	1	0	9884,64	1,86925077	1,86946964	-0,4224608287525671	10	-0,0728705525	0,000789777667
2	0	0	0	0	9885,84	1,85724962	1,85743022	-0,42265297720829939	10	-0,0733783767	0,000785048411
2	0	0	0	0	9887,04	1,84524858	1,8451401	-0,42321431931729261	10	-0,073886551	0,000780889706
2	0	0	1	0	9888,24	1,83324754	1,8334316	-0,42363668264200352	10	-0,0743954107	0,000776708883
2	0	0	1	0	9889,44	1,82124627	1,82132173	-0,42446342840169882	10	-0,0749049932	0,000773084466
2	0	0	0	0	9890,64	1,80924511	1,8096031	-0,42533517054592576	10	-0,0754157156	0,000769687817
2	0	0	0	0	9891,84	1,79724395	1,79756367	-0,42657616315409542	10	-0,0759275407	0,000766797806
2	0	0	1	0	9893,04	1,78524292	1,7854141	-0,42767481086775661	10	-0,0764408708	0,000763576652
2	0	0	1	0	9894,24	1,77324188	1,77355492	-0,42899443286781478	10	-0,0769556388	0,0007608452
2	0	0	0	0	9895,44	1,7612406	1,7614454	-0,43054868886247456	10	-0,0774722844	0,000758388021
2	0	0	1	0	9896,64	1,74923956	1,74946606	-0,43219126590217094	10	-0,0779908672	0,000756103953
2	0	0	1	0	9897,84	1,73723841	1,73743665	-0,43402848610033651	10	-0,0785115138	0,000754097011
2	0	0	0	0	9899,04	1,72523725	1,72559762	-0,43572219352548378	10	-0,0790345147	0,000751881162
2	0	0	0	0	9900,24	1,71323621	1,71357834	-0,43813120340928614	10	-0,0795598775	0,000750772131
2	0	0	1	0	9901,44	1,70123518	1,70158863	-0,44045895229404211	10	-0,080087781	0,000749479921
2	0	0	1	0	9902,64	1,6892339	1,68965971	-0,44250659225508659	10	-0,0806181952	0,000747685554
2	0	0	0	0	9903,84	1,67723274	1,67741978	-0,44485873682424474	10	-0,0811514482	0,000746214821
2	0	0	1	0	9905,04	1,6652317	1,66511977	-0,44711546677475232	10	-0,0816874281	0,00074450078
2	0	0	1	0	9906,24	1,65323055	1,65359128	-0,44937699645136851	10	-0,0822260454	0,000743085868
2	0	0	0	0	9907,44	1,64122951	1,64162219	-0,45158068571860531	10	-0,0827673823	0,000741324853
2	0	0	0	0	9908,64	1,62922847	1,62971294	-0,45361967400337376	10	-0,0833112746	0,000739269832
2	0	0	1	0	9909,84	1,6172272	1,6176033	-0,45610572521885293	10	-0,0838579014	0,000737798109
2	0	0	1	0	9911,04	1,60522604	1,60542345	-0,45870336052030323	10	-0,0844075158	0,000736413116
2	0	0	0	0	9912,24	1,593225	1,59342432	-0,46123619377613069	10	-0,0849603042	0,000734944944
2	0	0	0	0	9913,44	1,58122385	1,58131456	-0,46388820636396666	10	-0,0855162069	0,000733553199
2	0	0	1	0	9914,64	1,56922281	1,56942546	-0,46668968489393594	10	-0,0860754326	0,000732434681
2	0	0	0	0	9915,84	1,55722177	1,55751634	-0,46973445313051341	10	-0,0866382718	0,000731619075
2	0	0	0	0	9917,04	1,54522061	1,54552698	-0,4728941242210567	10	-0,0872047395	0,000730870641
2	0	0	1	0	9918,24	1,53321946	1,53354776	-0,47629912896081805	10	-0,0877754092	0,000730427448
2	0	0	1	0	9919,44	1,52121818	1,52127779	-0,48020840606962701	10	-0,0883503258	0,000730530359
2	0	0	0	0	9920,64	1,50921726	1,50949883	-0,48441124148666822	10	-0,0889299139	0,000731218199
2	0	0	0	0	9921,84	1,49721611	1,49743938	-0,48845229359964474	10	-0,0895142481	0,000731427688
2	0	0	1	0	9923,04	1,48521495	1,4855603	-0,49286402901634573	10	-0,0901039019	0,000732179207
2	0	0	0	0	9924,24	1,47321391	1,47349083	-0,4974798337308055	10	-0,0906989351	0,000733031949
2	0	0	0	0	9925,44	1,46121264	1,46138108	-0,5026461854577047	10	-0,0912996307	0,00073455763
2	0	0	1	0	9926,64	1,44921148	1,44960237	-0,50777442737792986	10	-0,0919065997	0,00073607103
2	0	0	1	0	9927,84	1,43721056	1,43750262	-0,51354070783903258	10	-0,0925201103	0,000738216098
2	0	0	0	0	9929,04	1,4252094	1,42557359	-0,51959169252465133	10	-0,0931408256	0,000740716176
2	0	0	0	0	9930,24	1,41320825	1,41343379	-0,52616202567393498	10	-0,0937690064	0,000743695186
2	0	0	1	0	9931,44	1,40120709	1,40156484	-0,53313953941687853	10	-0,0944054574	0,000747229613
2	0	0	1	0	9932,64	1,38920605	1,38951528	-0,54052690897757926	10	-0,0950504616	0,000751070387
2	0	0	0	0	9933,84	1,3772049	1,37742579	-0,54849577726175533	10	-0,0957048535	0,000755512214
2	0	0	1	0	9935,04	1,36520374	1,36522591	-0,55706083060552557	10	-0,0963691249	0,000760513882
2	0	0	1	0	9936,24	1,35320258	1,35357738	-0,56644414815431078	10	-0,0970441625	0,000766725978
2	0	0	0	0	9937,44	1,34120154	1,34151781	-0,57650536174575539	10	-0,0977310538	0,00077339221
2	0	0	0	0	9938,64	1,32920027	1,32944834	-0,58787329494953152	10	-0,0984306931	0,000781547162
2	0	0	1	0	9939,84	1,31719923	1,31749904	-0,60012475991000794	10	-0,0991443098	0,00079066382
2	0	0	1	0	9941,04	1,30519819	1,30571032	-0,61332663164163571	10	-0,0998729691	0,000800826936
2	0	0	0	0	9942,24	1,29319704	1,29357064	-0,6274270264742281	10	-0,100618199	0,000811621197
2	0	0	0	0	9943,44	1,28119588	1,28155112	-0,64313178431863885	10	-0,10138119	0,000824206276
2	0	0	1	0	9944,64	1,26919484	1,26935112	-0,65954780516525299	10	-0,102163561	0,00083719776
2	0	0	0	0	9945,84	1,25719368	1,25741196	-0,67742671600232461	10	-0,10296651	0,000851804449
2	0	0	0	0	9947,04	1,24519253	1,24539256	-0,69623039243742822	10	-0,103791341	0,000867080176
2	0	0	1	0	9948,24	1,23319149	1,23351347	-0,7162501445661001	10	-0,104639694	0,000883504224
2	0	0	1	0	9949,44	1,22119033	1,22135377	-0,73725431955730112	10	-0,105512492	0,000900448358
2	0	0	0	0	9950,64	1,20918918	1,20950472	-0,75918502282972173	10	-0,106411174	0,0009182379
2	0	0	0	0	9951,84	1,19718814	1,19739509	-0,7818526197224873	10	-0,10733667	0,000936186465
2	0	0	1	0	9953,04	1,18518686	1,18537581	-0,80545872667183565	10	-0,108290091	0,000954771298
2	0	0	1	0	9954,24	1,17318606	1,1734072	-0,82990477884735014	10	-0,109272331	0,000973816263
2	0	0	0	0	9955,44	1,16118467	1,16165769	-0,8545368270327671	10	-0,11028403	0,00099267927
2	0	0	1	0	9956,65	1,14918363	1,1497587	-0,87995151088883366	10	-0,111326113	0,00101173192
2	0	0	1	0	9957,85	1,13718247	1,13771904	-0,9063751806194569	10	-0,112398982	0,00103120029
2	0	0	0	0	9959,05	1,12518132	1,12552941	-0,93325565507015002	10	-0,113503747	0,00105040672
2	0	0	0	0	9960,25	1,11318028	1,11350989	-0,96016805867354061	10	-0,114640437	0,00106915669
2	0	0	1	0	9961,45	1,10117912	1,10150051	-0,9879902352889367	10	-0,115810297	0,00108827173
2	0	0	1	0	9962,69	1,0887779	1,08883941	-1,0167207761357245	10	-0,117053732	0,00110704568
2	0	0	0	0	9963,89	1,07677686	1,07703054	-1,0459114713594317	10	-0,118292034	0,00112647854
2	0	0	1	0	9965,09	1,06477571	1,0649209	-1,0762115828692904	10	-0,119566284	0,00114608021
2	0	0	1	0	9966,29	1,05277467	1,05307209	-1,1075237002223802	10	-0,120877273	0,00116630225
2	0	0	0	0	9967,49	1,04077351	1,04123306	-1,1406731363385898	10	-0,122227177	0,0011877066
2	0	0	0	0	9968,69	1,02877223	1,02902317	-1,175192823323112	10	-0,12361744	0,00120930059
2	0	0	1	0	9969,89	1,01677132	1,01695359	-1,212410018779341	10	-0,125050962	0,00123296469
2	0	0	1	0	9971,09	1,00477016	1,00500441	-1,2516097752377373	10	-0,126530007	0,00125787337
2	1	0	1	0	9972,25	1,00677025	1,00699925	-1,1244885511696374	10	-0,12793915	0,00113235915
2	1	0	1	0	9973,45	1,01877141	1,01885831	-1,0004065170263283	10	-0,129208773	0,00101927249
2	1	0	0	0	9974,65	1,03077257	1,03106821	-0,90063571122785562	10	-0,130347148	0,00092861685
2	1	0	0	0	9975,85	1,04277372	1,04299724	-0,81394495970259046	10	-0,131374031	0,00084894232
2	1	0	1	0	9977,05	1,05477476	1,05511701	-0,7369275793122743	10	-0,132302925	0,000777544803
2	1	0	0	0	9978,25	1,0667758	1,06677544	-0,66891717445105318	10	-0,133144721	0,000713584421
2	1	0	0	0	9979,45	1,07877707	1,07905555	-0,60802829482903117	10	-0,133909196	0,000656096323
2	1	0	1	0	9980,65	1,09077811	1,09088445	-0,5537971442875769	10	-0,134604856	0,000604128698
2	1	0	1	0	9981,85	1,10277915	1,10298407	-0,50552875905608198	10	-0,13523899	0,00055759016
2	1	0	0	0	9983,09	1,11518037	1,11535442	-0,46172703771541542	10	-0,135837689	0,000514989311
2	1	0	0	0	9984,29	1,12718165	1,12743402	-0,42326325643807648	10	-0,136367276	0,000477201393
2	1	0	1	0	9985,49	1,13918269	1,139714	-0,38821097975596742	10	-0,136852816	0,000442449498
2	1	0	1	0	9986,69	1,15118384	1,15153289	-0,35696995738839776	10	-0,137298465	0,000411062647
2	1	0	0	0	9987,89	1,16318488	1,16339195	-0,32816582964733338	10	-0,137708053	0,000381785474
2	1	0	1	0	9989,09	1,17518604	1,17533112	-0,30190052759523226	10	-0,138084918	0,000354833086
2	1	0	1	0	9990,29	1,18718719	1,18757105	-0,2776781505284207	10	-0,138431668	0,000329762523
2	1	0	0	0	9991,49	1,19918823	1,19960046	-0,25605411082506358	10	-0,138751045	0,000307162642
2	1	0	0	0	9992,69	1,21118927	1,21138942	-0,23561697973248874	10	-0,139045075	0,000285423914
2	1	0	1	0	9993,89	1,22319055	1,22342885	-0,21713272008734474	10	-0,139315858	0,000265646435
2	1	0	1	0	9995,09	1,23519158	1,23548841	-0,19957438413985072	10	-0,139564991	0,000246571843
2	1	0	0	0	9996,29	1,24719262	1,24748766	-0,18384038257257386	10	-0,139794171	0,000229338606
2	1	0	1	0	9997,49	1,25919402	1,25957727	-0,16854100930504502	10	-0,140004709	0,000212290426
2	1	0	1	0	9998,69	1,27119505	1,27136612	-0,1548335607706881	10	-0,140197843	0,000196850146
2	1	0	0	0	9999,89	1,28319597	1,28336561	-0,14152720248481886	10	-0,140374988	0,000181631141
2	1	0	0	0	10001,09	1,29519725	1,29543507	-0,12950352032203227	10	-0,140536651	0,000167763399
2	1	0	1	0	10002,29	1,30719841	1,30760479	-0,11778820748440922	10	-0,140684038	0,000154020425
2	1	0	1	0	10003,49	1,31919944	1,31961429	-0,10702254421388125	10	-0,14081791	0,000141228476
2	1	0	0	0	10004,69	1,3312006	1,33123267	-0,096574636331449254	10	-0,140939087	0,000128563304
2	1	0	0	0	10005,89	1,34320164	1,34335244	-0,0871568746515552	10	-0,141048178	0,000117082403
2	1	0	1	0	10007,09	1,35520267	1,3553617	-0,07784537361779575	10	-0,141145945	0,00010550864
2	1	0	0	0	10008,29	1,36720395	1,36750138	-0,068707697714368525	10	-0,141232833	9,39578749E-005
2	1	0	0	0	10009,49	1,37920499	1,3793906	-0,060169139799351565	10	-0,141309544	8,29967466E-005
2	1	0	1	0	10010,69	1,39120615	1,39165044	-0,052453819080256038	10	-0,141376391	7,29973835E-005
2	1	0	1	0	10011,93	1,40360725	1,40395069	-0,044513613713206835	10	-0,141435742	6,24949171E-005
2	1	0	0	0	10013,13	1,41560853	1,41601002	-0,037034734569412365	10	-0,141484126	5,24415555E-005
2	1	0	0	0	10014,33	1,42760956	1,4279393	-0,030146555169873523	10	-0,141523942	4,30474502E-005
2	1	0	1	0	10015,53	1,43961072	1,44017923	-0,023290019501776794	10	-0,141555533	3,35418008E-005
2	1	0	0	0	10016,73	1,45161211	1,45195818	-0,017098732059668858	10	-0,141579196	2,48266442E-005
2	1	0	0	0	10017,93	1,46361291	1,46400762	-0,010619049622619059	10	-0,141595274	1,55463695E-005
2	1	0	1	0	10019,17	1,47601402	1,47627759	-0,0042364337023172992	10	-0,141604125	6,25415214E-006
2	1	0	1	0	10020,37	1,48801529	1,48827684	0,0018844138442849107	10	-0,141605556	2,80452946E-006
2	1	0	0	0	10021,57	1,50001633	1,50024629	0,0072614851451362483	10	-0,141599968	1,08940158E-005
2	1	0	0	0	10022,81	1,51241755	1,51269674	0,012619956881583906	10	-0,141587183	1,90901683E-005
2	1	0	1	0	10024,01	1,52441859	1,52472615	0,018117688038425171	10	-0,14156808	2,76245137E-005
2	1	0	1	0	10025,21	1,53641975	1,53692603	0,023249596638682618	10	-0,141542599	3,57329118E-005
2	1	0	0	0	10026,41	1,54842091	1,54863465	0,028515524812973952	10	-0,1415108	4,41601296E-005
2	1	0	1	0	10027,61	1,56042194	1,56077445	0,033274482780446758	10	-0,141472861	5,19339628E-005
2	1	0	1	0	10028,81	1,57242298	1,57269347	0,038515774048088589	10	-0,141428813	6,05735077E-005
2	1	0	0	0	10030,01	1,58442426	1,58486319	0,043712460426225619	10	-0,14137882	6,92782705E-005
2	1	0	0	0	10031,21	1,59642518	1,59679234	0,04878430926085753	10	-0,141322881	7,78984104E-005
2	1	0	1	0	10032,41	1,60842621	1,60890198	0,053501689282711482	10	-0,141261026	8,60789733E-005
2	1	0	1	0	10033,61	1,62042749	1,6207912	0,058517145769049869	10	-0,141193271	9,4844072E-005
2	1	0	0	0	10034,81	1,63242865	1,63283062	0,063264580967370419	10	-0,141119689	0,000103300343
2	1	0	0	0	10036,01	1,64442945	1,64458919	0,068255179837241382	10	-0,14104028	0,000112251728
2	1	0	1	0	10037,21	1,65643096	1,65681922	0,072923405270557632	10	-0,140954971	0,0001208209
2	1	0	0	0	10038,41	1,66843188	1,66872847	0,078014835249632678	10	-0,140863851	0,000130185581
2	1	0	0	0	10039,61	1,68043315	1,68094838	0,082792342524044109	10	-0,140766814	0,000139169657
2	1	0	1	0	10040,81	1,69243419	1,69262695	0,087785982526838669	10	-0,140663862	0,000148588922
2	1	0	1	0	10042,01	1,70443535	1,70462632	0,092518151989983027	10	-0,140555039	0,000157708884
2	1	0	0	0	10043,21	1,71643662	1,71666563	0,097572377553054259	10	-0,14044036	0,000167499151
2	1	0	0	0	10044,45	1,72883773	1,72909606	0,10246836207807064	10	-0,140315518	0,000177177644
2	1	0	1	0	10045,65	1,74083877	1,74100518	0,10759714494148875	10	-0,140188634	0,000187327183
2	1	0	0	0	10046,85	1,75283968	1,75318527	0,11227498281126213	10	-0,140055716	0,000196838853
2	1	0	0	0	10048,05	1,76484096	1,76524472	0,11738617799710482	10	-0,139916807	0,000207215329
2	1	0	1	0	10049,25	1,77684212	1,77720404	0,12276839942205675	10	-0,139771774	0,00021818449
2	1	0	1	0	10050,45	1,78884315	1,78932357	0,12797798546186323	10	-0,139620706	0,000228994031
2	1	0	0	0	10051,65	1,80084443	1,80092204	0,13290743995457888	10	-0,139463454	0,000239355941
2	1	0	0	0	10052,85	1,81284547	1,81334233	0,13824888578771333	10	-0,139300019	0,000250692567
2	1	0	1	0	10054,05	1,82484663	1,8250711	0,14330790921424821	10	-0,139130384	0,000261547131
2	1	0	1	0	10055,25	1,83684778	1,83702052	0,14858562997732272	10	-0,13895458	0,000272954843
2	1	0	0	0	10056,45	1,84884882	1,84922028	0,15356162295211139	10	-0,138772607	0,000283969275
2	1	0	1	0	10057,66	1,8608501	1,86115944	0,15873001562431392	10	-0,13858442	0,000295421865
2	1	0	1	0	10058,86	1,87285113	1,87309861	0,16376563999801885	10	-0,138390169	0,000306749193
2	1	0	0	0	10060,06	1,88485205	1,88507783	0,16902002746549728	10	-0,138189748	0,000318615901
2	1	0	0	0	10061,26	1,89685333	1,89696717	0,17371473224678448	10	-0,137983426	0,000329531147
2	1	0	1	0	10062,46	1,90885448	1,90900636	0,17871472142481526	10	-0,13777107	0,000341167528
2	1	0	1	0	10063,66	1,92085552	1,92126644	0,18339561259684454	10	-0,137552947	0,000352351839
2	1	0	0	0	10064,86	1,9328568	1,9331255	0,18828058677415037	10	-0,137329057	0,000363970001
2	1	0	1	0	10066,06	1,94485784	1,94502473	0,19254901975238054	10	-0,137099579	0,000374512601
2	1	0	1	0	10067,26	1,95685875	1,95715439	0,19714369849922698	10	-0,136864632	0,000385840656
2	1	0	0	0	10068,46	1,96886003	1,96912372	0,20174082298763098	10	-0,136624336	0,000397252647
2	1	0	0	0	10069,66	1,98086119	1,98133361	0,20626198733225466	10	-0,136378899	0,000408673804
2	1	0	1	0	10070,86	1,99286222	1,99298203	0,21012354269623667	10	-0,13612844	0,000418772455
2	1	0	1	0	10072,06	2,0048635	2,00512171	0,21433505035626422	10	-0,135873079	0,000429767853
2	1	0	0	0	10073,26	2,01686454	2,01689053	0,21793515444733203	10	-0,135613024	0,000439551339
2	1	0	0	0	10074,46	2,02886581	2,02911091	0,22195720396643104	10	-0,135348409	0,000450375781
2	1	0	1	0	10075,66	2,04086685	2,04103947	0,22516963242863587	10	-0,135079429	0,0004595801
2	1	0	0	0	10076,86	2,05286789	2,05338001	0,22892348522630813	10	-0,134806201	0,000470066909
2	1	0	0	0	10078,06	2,06486917	2,06489778	0,23199308648084483	10	-0,13452898	0,000479042006
2	1	0	1	0	10079,26	2,0768702	2,07727814	0,23525302903726653	10	-0,134247884	0,000488685968
2	1	0	1	0	10080,46	2,088871	2,08894682	0,2382171405479303	10	-0,133963019	0,000497622939
2	1	0	0	0	10081,66	2,10087228	2,10110641	0,24117059299411814	10	-0,133674696	0,000506725104
2	1	0	0	0	10082,86	2,11287332	2,11328626	0,24381781004679581	10	-0,133382842	0,000515256834
2	1	0	1	0	10084,06	2,12487459	2,12517548	0,24674469806874778	10	-0,133087635	0,000524375762
2	1	0	0	0	10085,26	2,13687658	2,13708425	0,24899734038901933	10	-0,132789195	0,000532128266
2	1	0	0	0	10086,46	2,14887667	2,14910412	0,25160231829310397	10	-0,132487774	0,0005407196
2	1	0	1	0	10087,66	2,16087794	2,16105318	0,2542611612783121	10	-0,132183343	0,000549471879
2	1	0	1	0	10088,86	2,17287898	2,17315292	0,25670102556856998	10	-0,1318762	0,000557850581
2	1	0	0	0	10090,06	2,18488026	2,18494153	0,2586217411638536	10	-0,131566361	0,000565073395
2	1	0	0	0	10091,26	2,19688153	2,19723153	0,26078457369779517	10	-0,131254077	0,000573004072
2	1	0	1	0	10092,46	2,20888233	2,20906067	0,26262252576028368	10	-0,13093932	0,000580149121
2	1	0	1	0	10093,66	2,22088337	2,22118044	0,26469901724097645	10	-0,130622312	0,000587944291
2	1	0	0	0	10094,86	2,23288441	2,23317981	0,26629716949537395	10	-0,130303055	0,000594689453
2	1	0	1	0	10096,06	2,24488568	2,24507856	0,2681246642799424	10	-0,129981607	0,000601960928
2	1	0	1	0	10097,26	2,25688696	2,25699806	0,26976283406838685	10	-0,129658192	0,00060885417
2	1	0	0	0	10098,46	2,268888	2,2690475	0,27147963883665738	10	-0,129332706	0,000616000209
2	1	0	0	0	10099,66	2,28088903	2,28128767	0,27285132254473776	10	-0,129005402	0,000622452353
2	1	0	1	0	10100,86	2,29289031	2,29317665	0,27439167521273066	10	-0,128676251	0,000629228598
2	1	0	1	0	10102,06	2,30489135	2,30502558	0,27558008309764182	10	-0,128345504	0,000635219156
2	1	0	0	0	10103,26	2,31689262	2,31710482	0,27702673454768957	10	-0,128013089	0,000641899998
2	1	0	1	0	10104,46	2,32889414	2,32900119	0,27796872685415862	10	-0,127679229	0,000647389505
2	1	0	1	0	10105,66	2,3408947	2,34117389	0,27922224556095853	10	-0,127343878	0,00065370783
2	1	0	0	0	10106,86	2,35289574	2,35313344	0,28062894808438877	10	-0,127007142	0,000660357357
2	1	0	0	0	10108,06	2,36489677	2,36512256	0,28199588290105203	10	-0,126669019	0,000666954846
2	1	0	1	0	10109,26	2,37689805	2,37719202	0,28287197230383843	10	-0,126329497	0,000672440976
2	1	0	1	0	10110,46	2,38889909	2,38920164	0,28413795749656944	10	-0,125988707	0,000678862853
2	1	0	0	0	10111,66	2,40090036	2,40111065	0,28498044400475875	10	-0,125646606	0,000684269588
2	1	0	0	0	10112,86	2,4129014	2,4130702	0,28634580162664224	10	-0,125303224	0,000690972549
2	1	0	1	0	10114,06	2,42490244	2,42482877	0,28695751105745603	10	-0,124958597	0,000695822819
2	1	0	0	0	10115,26	2,43690348	2,43710876	0,28828265878061331	10	-0,124612734	0,000702576188
2	1	0	0	0	10116,46	2,44890499	2,44902778	0,2890148195438089	10	-0,124265715	0,000707805331
2	1	0	1	0	10117,66	2,46090603	2,46125793	0,29016465980869997	10	-0,12391752	0,000714170048
2	1	0	1	0	10118,86	2,47290707	2,47317719	0,29093218051517946	10	-0,12356817	0,000719526841
2	1	0	0	0	10120,06	2,4849081	2,48518634	0,29204129373344134	10	-0,123217627	0,000725777005
2	1	0	0	0	10121,26	2,49690914	2,49721575	0,29280213623617965	10	-0,122865982	0,000731190084
2	1	0	1	0	10122,46	2,50891042	2,50910497	0,2937398934736848	10	-0,122513406	0,000737024238
2	1	0	1	0	10123,66	2,52091026	2,52116466	0,29449680664738522	10	-0,1221596	0,00074247492
2	1	0	0	0	10124,86	2,53291273	2,53309369	0,29554444768776557	10	-0,121804595	0,000748641789
2	1	0	1	0	10126,06	2,54491377	2,54516315	0,29686041983465293	10	-0,121448323	0,000755558198
2	1	0	1	0	10127,26	2,55691481	2,55720258	0,2980240685089175	10	-0,121090926	0,000762107898
2	1	0	0	0	10128,46	2,56891584	2,56928205	0,29891660530120045	10	-0,120732166	0,000768001075
2	1	0	0	0	10129,66	2,58091736	2,58108115	0,30016123969107776	10	-0,120372161	0,000774740533
2	1	0	1	0	10130,86	2,59291816	2,59305048	0,30128516730231514	10	-0,120010719	0,000781247625
2	1	0	1	0	10132,06	2,60491943	2,6050899	0,30260137429771251	10	-0,119647838	0,000788303791
2	1	0	0	0	10133,26	2,61692047	2,61735988	0,30377974819081466	10	-0,119283438	0,000795100932
2	1	0	0	0	10134,46	2,62892032	2,62946892	0,3052011644131616	10	-0,118917435	0,000802516995
2	1	0	1	0	10135,66	2,64092278	2,64125824	0,30661364931923661	10	-0,118549637	0,000809845806
2	1	0	0	0	10136,86	2,65292382	2,6531775	0,30847172012241939	10	-0,11817988	0,000818430213
2	1	0	0	0	10138,06	2,66492486	2,66482592	0,31013145359853888	10	-0,117808141	0,000826446339
2	1	0	1	0	10139,26	2,67692614	2,67704582	0,31226550384114125	10	-0,11743398	0,000835949089
2	1	0	1	0	10140,46	2,68892717	2,68911552	0,31423291773535264	10	-0,117057443	0,000845008646
2	1	0	0	0	10141,66	2,70092821	2,70100451	0,31671247157889114	10	-0,116678067	0,000855441787
2	1	0	0	0	10142,86	2,71292949	2,71296406	0,31888297984066138	10	-0,116295919	0,000865118054
2	1	0	1	0	10144,06	2,72493052	2,72516346	0,32158815984924646	10	-0,115910642	0,000876380305
2	1	0	1	0	10145,26	2,73693109	2,73720241	0,32444543173674931	10	-0,115522258	0,000888072827
2	1	0	0	0	10146,46	2,74893284	2,74924254	0,32756033415595667	10	-0,115130559	0,000900542829
2	1	0	1	0	10147,66	2,76093388	2,76108146	0,33028506782526714	10	-0,114735305	0,000911943964
2	1	0	1	0	10148,86	2,77293491	2,77322125	0,33377780470376186	10	-0,114336327	0,000925639702
2	1	0	0	0	10150,06	2,78493595	2,78529072	0,33722645517749018	10	-0,113933124	0,000939273741
2	1	0	0	0	10151,26	2,79693723	2,79721999	0,34140198739866355	10	-0,113525443	0,00095497648
2	1	0	1	0	10152,46	2,8089385	2,80916929	0,34547618955063264	10	-0,11311271	0,000970501103
2	1	0	1	0	10153,66	2,82094026	2,82109833	0,35086208737781069	10	-0,112694345	0,000989816501
2	1	0	0	0	10154,86	2,83294058	2,8332181	0,35648910134720243	10	-0,112269431	0,00101001142
2	1	0	1	0	10156,06	2,84494185	2,845047	0,36330753091412224	10	-0,111836948	0,00103362696
2	1	0	1	0	10157,26	2,85694289	2,85706639	0,37056974616522528	10	-0,111396022	0,0010587424
2	1	0	0	0	10158,46	2,86894417	2,8691659	0,37812451094699418	10	-0,110946059	0,00108490197
2	1	0	0	0	10159,66	2,88094521	2,88103509	0,38458558164226451	10	-0,11048764	0,0011080046
2	1	0	1	0	10160,86	2,89294624	2,89307451	0,39059137630586752	10	-0,110021673	0,00113001
2	1	0	1	0	10162,06	2,90494728	2,90526438	0,39520640345290304	10	-0,109549373	0,00114817906
2	1	0	0	0	10163,26	2,91694832	2,91714334	0,3998784354577456	10	-0,109071366	0,00116650271
2	1	0	1	0	10164,47	2,92894959	2,92929316	0,40494255768135014	10	-0,108587652	0,00118619541
2	1	0	1	0	10165,67	2,94095063	2,94130254	0,409910772616664	10	-0,108098216	0,00120567158
2	1	0	0	0	10166,87	2,95295191	2,95301127	0,41508205203960102	10	-0,107602619	0,00122574193
2	1	0	0	0	10168,07	2,96495295	2,96525121	0,42082246718928128	10	-0,107100561	0,00124784431
2	1	0	1	0	10169,27	2,97695398	2,97695994	0,42658808563525395	10	-0,106591552	0,00126993563
2	1	0	1	0	10170,47	2,98895502	2,98897934	0,43295280402526259	10	-0,106075294	0,00129408704
2	1	0	0	0	10171,67	3,00095654	3,00119925	0,43937157560139898	10	-0,105551317	0,00131864159
2	1	0	0	0	10172,87	3,01295757	3,01320863	0,44609725025172019	10	-0,105019324	0,00134418404
2	1	0	1	0	10174,07	3,02495861	3,02511787	0,45323673542588858	10	-0,104479052	0,00137109461
2	1	0	0	0	10175,27	3,03695965	3,0373776	0,46062497918804544	10	-0,103930064	0,00139909203
2	1	0	0	0	10176,47	3,04896069	3,04909635	0,46801503825311827	10	-0,103372276	0,00142702297
2	1	0	1	0	10177,67	3,06096196	3,0610559	0,47615898773073971	10	-0,102804974	0,00145754928
2	1	0	1	0	10178,87	3,072963	3,07309532	0,48431049302841165	10	-0,102228023	0,00148833229
2	1	0	0	0	10180,07	3,08496428	3,08524489	0,49311099853366611	10	-0,101640813	0,00152136816
2	1	0	0	0	10181,27	3,09696531	3,09728432	0,50181256172557555	10	-0,10104318	0,00155425619
2	1	0	1	0	10182,47	3,10896635	3,10924339	0,51133013206223411	10	-0,100434348	0,00158984982
2	1	0	0	0	10183,67	3,12096739	3,12116265	0,5210454276142009	10	-0,0998141542	0,00162626756
2	1	0	0	0	10184,87	3,13296866	3,13338256	0,53141282886887795	10	-0,0991822258	0,00166511966
2	1	0	1	0	10186,07	3,1449697	3,14507103	0,54140649394442522	10	-0,0985379964	0,00170276186
2	1	0	1	0	10187,27	3,15697074	3,15710068	0,55242009693756698	10	-0,0978812352	0,00174404588
2	1	0	0	0	10188,47	3,16897202	3,16906977	0,5631426135078055	10	-0,0972112864	0,00178463827
2	1	0	0	0	10189,67	3,18097305	3,18106914	0,57473904235909389	10	-0,0965280086	0,00182828458
2	1	0	1	0	10190,87	3,19297409	3,19307852	0,5859081271725417	10	-0,0958309248	0,00187085068
2	1	0	1	0	10192,07	3,20497489	3,20512795	0,5979078987339424	10	-0,0951199383	0,00191637129
2	1	0	0	0	10193,27	3,21697617	3,21729779	0,60964201685661926	10	-0,0943946838	0,0019613998
2	1	0	1	0	10194,47	3,2289772	3,2291069	0,62164746069659674	10	-0,0936550871	0,00200736616
2	1	0	1	0	10195,67	3,24097872	3,24102592	0,63370376623546125	10	-0,0929011479	0,00205385033
2	1	0	0	0	10196,87	3,25297952	3,25319576	0,64572542052095194	10	-0,0921326056	0,00210067118
2	1	0	0	0	10198,07	3,26498055	3,26539516	0,65755528413380198	10	-0,0913498551	0,00214717793
2	1	0	1	0	10199,27	3,27698207	3,27722454	0,66941605492805146	10	-0,0905528143	0,00219382672
2	1	0	1	0	10200,47	3,28898311	3,28925395	0,68065649519363827	10	-0,0897418782	0,00223885197
2	1	0	0	0	10201,67	3,30098438	3,30111289	0,69179331976920282	10	-0,088917166	0,00228368794
2	1	0	1	0	10202,87	3,31298542	3,31301188	0,70303232331449638	10	-0,0880792439	0,00232915441
2	1	0	1	0	10204,07	3,32498646	3,32525206	0,71374915990357478	10	-0,0872285366	0,00237339595
2	1	0	0	0	10205,27	3,3369875	3,33694053	0,72366308824469504	10	-0,0863652974	0,00241482072
2	1	0	0	0	10206,47	3,34898853	3,34911036	0,73339064993585088	10	-0,0854903236	0,00245620613
2	1	0	1	0	10207,67	3,36098957	3,3611598	0,74259061583628224	10	-0,0846038982	0,00249596569
2	1	0	1	0	10208,87	3,37299109	3,37332964	0,7514729951508352	10	-0,0837068111	0,00253496622
2	1	0	0	0	10210,07	3,38499188	3,38531899	0,75984331297998336	10	-0,0827992111	0,00257231202
2	1	0	1	0	10211,27	3,39699411	3,39718795	0,76786744238322726	10	-0,0818816945	0,00260859006
2	1	0	1	0	10212,47	3,40899444	3,40920758	0,7755057592876256	10	-0,080954954	0,00264386018
2	1	0	0	0	10213,67	3,42099547	3,42107654	0,78317030208805965	10	-0,0800188333	0,00267928559
2	1	0	0	0	10214,87	3,43299651	3,43325615	0,79020263471950963	10	-0,0790740922	0,00271296804
2	1	0	1	0	10216,07	3,44499779	3,44523597	0,7976711823915465	10	-0,0781203359	0,00274816551
2	1	0	1	0	10217,27	3,45699883	3,45734525	0,80487332865595814	10	-0,0771579668	0,00278272503
2	1	0	0	0	10218,47	3,46899986	3,46897388	0,81239530133704102	10	-0,0761865824	0,00281817815
2	1	0	0	0	10219,67	3,4810009	3,48116374	0,81965622088561216	10	-0,0752064586	0,00285335747
2	1	0	1	0	10220,87	3,49300194	3,49316287	0,82753469701856371	10	-0,0742168799	0,00289071351
2	1	0	0	0	10222,07	3,50500369	3,50530219	0,83591378349857331	10	-0,0732177868	0,00293013034
2	1	0	0	0	10223,27	3,51700425	3,51706147	0,84481547679752115	10	-0,072208859	0,00297126803
2	1	0	1	0	10224,47	3,52900529	3,52924109	0,85334089087943002	10	-0,0711892769	0,00301164575
2	1	0	1	0	10225,67	3,54100633	3,54150105	0,86298818793147443	10	-0,0701588169	0,00305627356
2	1	0	0	0	10226,87	3,55300784	3,55315971	0,87289711553603405	10	-0,0691164806	0,00310154282
2	1	0	0	0	10228,07	3,56500888	3,56520915	0,88402467469374106	10	-0,0680617541	0,00315173296
2	1	0	1	0	10229,27	3,57701015	3,57743907	0,89495634753257152	10	-0,0669935271	0,00320165185
2	1	0	1	0	10230,47	3,58901119	3,58927846	0,90739515268554176	10	-0,0659113899	0,00325689395
2	1	0	0	0	10231,67	3,60101223	3,60139775	0,92008748960991578	10	-0,0648139864	0,00331360102
2	1	0	1	0	10232,87	3,61301327	3,61313629	0,93366417381912115	10	-0,0637008697	0,00337345595
2	1	0	1	0	10234,07	3,62501431	3,62530637	0,94741240298996493	10	-0,0625714809	0,00343466015
2	1	0	0	0	10235,27	3,63701534	3,63695455	0,96188491893311309	10	-0,0614250042	0,00349833164
2	1	0	0	0	10236,47	3,64901662	3,64924479	0,9764748665814551	10	-0,0602611639	0,0035633957
2	1	0	1	0	10237,67	3,66101766	3,66126442	0,99215265735983846	10	-0,0590789728	0,00363253313
2	1	0	1	0	10238,90	3,6733191	3,67344427	1,0101479639609643	10	-0,0578465685	0,00371072232
2	1	0	0	0	10240,10	3,68532014	3,685534	1,0271582563097259	10	-0,056622941	0,00378562673
2	1	0	1	0	10241,30	3,69732189	3,69748378	1,0453313833515931	10	-0,0553783029	0,00386509579
2	1	0	1	0	10242,50	3,70932245	3,70958257	1,0643224709977685	10	-0,0541119091	0,00394819211
2	1	0	0	0	10243,70	3,72132349	3,7215116	1,0832427432760597	10	-0,0528227054	0,00403130054
2	1	0	0	0	10244,90	3,73332453	3,73330069	1,1028170688077781	10	-0,0515104458	0,00411714753
2	1	0	1	0	10246,10	3,74532557	3,74547005	1,1237858394160858	10	-0,0501736179	0,00420910632
2	1	0	1	0	10247,30	3,7573266	3,75763011	1,1450073548282181	10	-0,0488117784	0,00430251425
2	1	0	0	0	10248,50	3,76932788	3,76965952	1,167232959531244	10	-0,0474235453	0,00440007076
2	1	0	0	0	10249,70	3,78132892	3,78160882	1,1900088523204122	10	-0,046008449	0,00450014789
2	1	0	1	0	10250,90	3,79332995	3,79326749	1,213597973498203	10	-0,0445652418	0,00460350187
2	1	0	0	0	10252,10	3,80533147	3,80550718	1,2378428053731731	10	-0,0430933125	0,0047106198
2	1	0	0	0	10253,30	3,81733251	3,8173759	1,2626970962931696	10	-0,0415922105	0,00482018944
2	1	0	1	0	10254,50	3,82933354	3,82939577	1,2881935499608482	10	-0,0400605462	0,00493300287
2	1	0	1	0	10255,70	3,84133482	3,84145522	1,3144745659083128	10	-0,0384981409	0,00504949503
2	1	0	0	0	10256,90	3,85333586	3,85351467	1,3413914628326875	10	-0,0369035192	0,00516907172
2	1	0	0	0	10258,10	3,86533689	3,8655138	1,3689801429087947	10	-0,0352763757	0,00529181166
2	1	0	1	0	10259,30	3,87733793	3,87740302	1,3972046468406907	10	-0,0336152576	0,0054175253
2	1	0	0	0	10260,50	3,88933945	3,8893013	1,4263617004445824	10	-0,0319198184	0,00554755051
2	1	0	0	0	10261,70	3,90134001	3,90145206	1,4568421735117818	10	-0,0301889479	0,00568379974
2	1	0	1	0	10262,90	3,91334128	3,91357183	1,4871079670265299	10	-0,028421808	0,00581990369
2	1	0	1	0	10264,10	3,92534232	3,92570138	1,5188063072661536	10	-0,0266174804	0,00596238021
2	1	0	0	0	10265,30	3,93734336	3,93755007	1,5517221375678963	10	-0,0247741807	0,00610998366
2	1	0	0	0	10266,50	3,94934487	3,9496901	1,5860161477079018	10	-0,0228908099	0,00626427215
2	1	0	1	0	10267,70	3,96134591	3,96123815	1,6215891875326653	10	-0,0209652185	0,00642350083
2	1	0	1	0	10268,90	3,97334695	3,97345829	1,6592279287675994	10	-0,0189960133	0,00659287302
2	1	0	0	0	10270,10	3,98534822	3,98531723	1,6986778459201232	10	-0,0169802625	0,00676977029
2	1	0	1	0	10271,31	3,99734926	3,99745703	1,7403174011160906	10	-0,0149158798	0,00695684412
2	1	0	1	0	10272,51	4,0093503	4,00956678	1,7842936435093472	10	-0,0128003536	0,00715424446
2	1	0	0	0	10273,71	4,02135134	4,02147579	1,8306447900831664	10	-0,0106302369	0,00736189354
2	1	0	0	0	10274,91	4,03335238	4,03349543	1,8788823038339606	10	-0,0084036449	0,00757846329
2	1	0	1	0	10276,11	4,04535341	4,04549456	1,9300508027275357	10	-0,00611710316	0,00780801009
2	1	0	1	0	10277,31	4,05735445	4,05766439	1,9838539057721718	10	-0,00376773556	0,0080498131
2	1	0	0	0	10278,51	4,06935596	4,06936264	2,0402800738811386	10	-0,00135186024	0,00830263924
2	1	0	0	0	10279,71	4,08135605	4,08148146	2,1002137864178464	10	0,00113339489	0,00857198332
2	1	0	1	0	10280,91	4,09335804	4,09349203	2,1628863004346714	10	0,00369227305	0,00885375775
2	1	0	0	0	10282,11	4,10535955	4,10539055	2,229008423785367	10	0,00632855017	0,00915095024
2	1	0	0	0	10283,31	4,11736059	4,11750078	2,2984683414300262	10	0,00904557202	0,0094639454
2	1	0	1	0	10284,51	4,12936163	4,12935972	2,371898461754121	10	0,0118488036	0,00979442243
2	1	0	1	0	10285,71	4,14136267	4,14150953	2,449688632041216	10	0,0147421891	0,010145409
2	1	0	0	0	10286,91	4,1533637	4,15353918	2,5311791573961494	10	0,0177316964	0,0105133522
2	1	0	1	0	10288,11	4,1653657	4,16537666	2,617335257598313	10	0,0208221376	0,0109021869
2	1	0	1	0	10289,31	4,17736578	4,17785788	2,7076942392935274	10	0,0240177326	0,0113123618
2	1	0	0	0	10290,51	4,18936682	4,18966722	2,8031986200561149	10	0,0273256786	0,0117444694
2	0	0	0	1	10291,65	4,19916773	4,1993413	2,8614007743696349	10	0,0305753835	0,0120159984
2	0	0	1	1	10292,85	4,18716574	4,18726063	2,6189699962937709	10	0,0338501297	0,0109663103
2	0	0	1	1	10294,05	4,17516565	4,17523193	2,4220501761883427	10	0,0368717164	0,0101126209
2	0	0	0	1	10295,25	4,16316462	4,16337299	2,2399177613357696	10	0,0396666043	0,00932561327
2	0	0	0	1	10296,45	4,15116358	4,15118313	2,068506799017385	10	0,0422493331	0,00858675037
2	0	0	1	1	10297,65	4,13916254	4,13926363	1,9080774374306202	10	0,0446335264	0,00789803546
2	0	0	1	1	10298,85	4,1271615	4,12715435	1,7568018088738029	10	0,0468302406	0,00725059211
2	0	0	0	1	10300,05	4,11516047	4,1155057	1,6142330144842474	10	0,0488507897	0,00664338516
2	0	0	0	1	10301,25	4,1031599	4,1034565	1,478915451678848	10	0,0507044457	0,00606866507
2	0	0	1	1	10302,45	4,09115791	4,09137678	1,3515513322005682	10	0,0524011403	0,0055297059
2	0	0	0	1	10303,65	4,07915592	4,07930613	1,230800646346763	10	0,0539488532	0,00502081262
2	0	0	0	1	10304,85	4,06715536	4,06728792	1,117031704323983	10	0,0553555265	0,00454328954
2	0	0	1	1	10306,05	4,05515432	4,0551281	1,0095302288730891	10	0,0566294901	0,00409377459
2	0	0	1	1	10307,25	4,04315329	4,04345989	0,90720279887318605	10	0,0577775314	0,00366823818
2	0	0	0	1	10308,45	4,03115225	4,03111935	0,81087150797247526	10	0,0588070787	0,00326871988
2	0	0	0	1	10309,65	4,01915121	4,01936054	0,72003876495485478	10	0,0597241819	0,00289409538
2	0	0	1	1	10310,85	4,00715017	4,00717068	0,63452225690707789	10	0,0605355278	0,00254263892
2	0	0	0	1	10312,05	3,99514914	3,99532199	0,55326152096192006	10	0,0612468831	0,00221045781
2	0	0	0	1	10313,29	3,98274803	3,98270106	0,47333826202278214	10	0,0618822426	0,00188516476
2	0	0	1	1	10314,49	3,97074652	3,9710927	0,40093233234559379	10	0,062405739	0,00159213948
2	0	0	1	1	10315,69	3,95874548	3,95891237	0,33330258339022522	10	0,0628450438	0,00131951575
2	0	0	0	1	10316,89	3,94674444	3,94709349	0,26868272914240608	10	0,0632050782	0,00106051587
2	0	0	0	1	10318,09	3,93474317	3,93503404	0,20817047691283008	10	0,0634899735	0,000819157925
2	0	0	1	1	10319,29	3,92274213	3,92306519	0,15064735776589549	10	0,0637041628	0,000590999378
2	0	0	0	1	10320,49	3,91074204	3,91087341	0,096886083028276288	10	0,0638514012	0,000378909201
2	0	0	0	1	10321,73	3,89833999	3,89834452	0,043795021823219258	10	0,0639373288	0,00017072809
2	0	0	1	1	10322,93	3,88633895	3,88641524	-0,0045061471428198272	10	0,063959673	1,75127589E-005
2	0	0	1	1	10324,13	3,87433791	3,87430549	-0,05075025894135865	10	0,0639254153	0,000196622001
2	0	0	0	1	10325,33	3,86233664	3,86247659	-0,094426750205457434	10	0,0638370588	0,000364721112
2	0	0	0	1	10326,57	3,84993553	3,84998608	-0,1374717639215911	10	0,0636918768	0,000529264391
2	0	0	1	1	10327,77	3,83793449	3,83822727	-0,17758576044191933	10	0,0635013059	0,000681614503
2	0	0	1	1	10328,97	3,82593274	3,82590747	-0,21620017681082794	10	0,0632638708	0,000827161886
2	0	0	0	1	10330,17	3,81393194	3,81394792	-0,25308781846736838	10	0,0629815161	0,000965263753
2	0	0	1	1	10331,37	3,8019309	3,80203867	-0,28774505310381437	10	0,0626561642	0,00109401788
2	0	0	1	1	10332,57	3,78992987	3,79014969	-0,32189261470921427	10	0,0622895397	0,00122002116
2	0	0	0	1	10333,77	3,77792859	3,77813005	-0,35412206167044858	10	0,0618830621	0,00133791915
2	0	0	0	1	10334,97	3,76592755	3,76617122	-0,38607417450596858	10	0,0614382029	0,00145402143
2	0	0	1	1	10336,17	3,75392652	3,75432181	-0,41611483956997632	10	0,0609560162	0,00156222901
2	0	0	1	1	10337,37	3,74192548	3,74216247	-0,44609338743612218	10	0,0604378283	0,00166935392
2	0	0	0	1	10338,57	3,72992444	3,73011255	-0,47452945789943258	10	0,059884496	0,00177004829
2	0	0	1	1	10339,77	3,71792197	3,71836233	-0,50257974607766221	10	0,0592975281	0,0018687736
2	0	0	1	1	10340,97	3,70592213	3,706074	-0,52954677461336352	10	0,0586773492	0,00196253951
2	0	0	0	1	10342,17	3,69392061	3,69396424	-0,55614673656721926	10	0,0580249019	0,00205438607
2	0	0	0	1	10343,37	3,68191957	3,68189454	-0,58167796938990656	10	0,0573411956	0,00214167684
2	0	0	1	1	10344,57	3,66991854	3,66999578	-0,60698283975944013	10	0,0566268861	0,00222762441
2	0	0	1	1	10345,77	3,6579175	3,65799665	-0,63102007517591117	10	0,055882927	0,00230826926
2	0	0	0	1	10346,97	3,64591622	3,64618731	-0,65477395274986842	10	0,0551100746	0,00238742842
2	0	0	0	1	10348,17	3,63391519	3,63424826	-0,67824757207805952	10	0,0543092303	0,00246492005
2	0	0	1	1	10349,37	3,62191415	3,62208843	-0,700719248813888	10	0,0534811169	0,00253806706
2	0	0	0	1	10350,57	3,60991311	3,6101892	-0,72199428221210854	10	0,0526266806	0,00260653603
2	0	0	0	1	10351,77	3,59791207	3,59814978	-0,74293098831549286	10	0,0517469347	0,00267317705
2	0	0	1	1	10352,97	3,5859108	3,58606005	-0,76272326956192666	10	0,0508425906	0,00273517147
2	0	0	1	1	10354,17	3,57390976	3,57406092	-0,78191433288156813	10	0,049915012	0,00279460941
2	0	0	0	1	10355,37	3,56190872	3,562011	-0,79982113434622758	10	0,0489650667	0,00284897164
2	0	0	0	1	10356,57	3,54990721	3,55012226	-0,81710194175442125	10	0,0479940251	0,00290081184
2	0	0	1	1	10357,77	3,53790617	3,53808284	-0,83308166762193152	10	0,0470028818	0,00294751185
2	0	0	1	1	10358,97	3,52590561	3,52604222	-0,84839496346972966	10	0,0459931269	0,00299147656
2	0	0	0	1	10360,17	3,51390386	3,51404381	-0,86209497042000294	10	0,0449658707	0,0030294396
2	0	0	1	1	10361,37	3,50190282	3,5022552	-0,87515502329915674	10	0,0439224616	0,00306501612
2	0	0	1	1	10362,57	3,48990178	3,48999524	-0,88663455316176256	10	0,042864427	0,00309435045
2	0	0	0	1	10363,77	3,47790074	3,47808623	-0,8974472330883159	10	0,0417927951	0,00312139886
2	0	0	0	1	10364,97	3,46589971	3,46624684	-0,90645014463613376	10	0,0407093763	0,00314197992
2	0	0	1	1	10366,17	3,45389843	3,45422769	-0,9147098539397129	10	0,0396151766	0,00315961614
2	0	0	1	1	10367,37	3,44189739	3,44196725	-0,92217348050326464	10	0,0385120809	0,00317409099
2	0	0	0	1	10368,57	3,42989635	3,43000841	-0,9282121319944672	10	0,0374011137	0,00318377535
2	0	0	1	1	10369,77	3,41789579	3,41803956	-0,93242337534399411	10	0,0362839326	0,00318705989
2	0	0	1	1	10370,97	3,4058938	3,40594935	-0,93626907250533798	10	0,0351619199	0,00318888505
2	0	0	0	1	10372,17	3,39389277	3,39397025	-0,9383709306518231	10	0,0340363197	0,00318480306
2	0	0	0	1	10373,37	3,38189149	3,38218117	-0,94000312406569715	10	0,032908652	0,00317926076
2	0	0	1	1	10374,58	3,36989045	3,37009192	-0,94001425181826099	10	0,0317797661	0,00316793448
2	0	0	1	1	10375,78	3,35788941	3,35809207	-0,93964258239914854	10	0,030651316	0,00315540633
2	0	0	0	1	10376,98	3,34588838	3,34594274	-0,93782823470731725	10	0,0295240078	0,00313791959
2	0	0	0	1	10378,18	3,33388782	3,33393431	-0,93541769580888717	10	0,0283993836	0,00311862119
2	0	0	1	1	10379,38	3,3218863	3,32177353	-0,93190645209203277	10	0,0272780098	0,00309558213
2	0	0	0	1	10380,58	3,30988503	3,30983424	-0,92812279518694042	10	0,0261609796	0,00307193259
2	0	0	0	1	10381,78	3,29788399	3,29803514	-0,92304566440483354	10	0,0250494126	0,00304423715
2	0	0	1	1	10382,98	3,28588295	3,2859056	-0,91783766448497421	10	0,0239439029	0,00301592797
2	0	0	1	1	10384,18	3,27388144	3,27426696	-0,91163370416809997	10	0,0228452887	0,00298493216
2	0	0	0	1	10385,38	3,2618804	3,26220798	-0,9052196263025225	10	0,0217538718	0,0029530148
2	0	0	0	1	10386,58	3,24987912	3,25006795	-0,89893236942589632	10	0,0206705555	0,00292159128
2	0	0	1	1	10387,78	3,23787808	3,23802853	-0,89193676225841229	10	0,0195954889	0,00288811675
2	0	0	1	1	10388,98	3,22587824	3,22592139	-0,88414546463638643	10	0,0185293853	0,00285218377
2	0	0	0	1	10390,18	3,21387601	3,21375942	-0,87658394128084045	10	0,0174721815	0,00281712995
2	0	0	1	1	10391,38	3,20187497	3,20197034	-0,86862077564001267	10	0,016424356	0,00278129801
2	0	0	1	1	10392,58	3,18987393	3,19012141	-0,86062302129964147	10	0,0153863057	0,00274549192
2	0	0	0	1	10393,78	3,17787266	3,17815185	-0,85240299751361357	10	0,014357809	0,00270906626
2	0	0	0	1	10394,98	3,16587162	3,16604209	-0,84424476884305472	10	0,0133392373	0,00267291442
2	0	0	1	1	10396,18	3,15387058	3,15421367	-0,83571815770119411	10	0,0123304334	0,00263603358
2	0	0	1	1	10397,38	3,14186907	3,14187312	-0,82784358598292224	10	0,0113317436	0,00260097953
2	0	0	0	1	10398,58	3,12986803	3,13000417	-0,81934539042413056	10	0,0103427209	0,00256455457
2	0	0	0	1	10399,78	3,11786771	3,11784482	-0,81130525302346432	10	0,00936357491	0,0025295238
2	0	0	1	1	10400,97	3,10596633	3,10640669	-0,8032091998805591	10	0,00840218551	0,00249509444
2	0	0	1	1	10400,98	3,10576653	3,1061666	-0,80412873396506867	10	0,00838996656	0,00249775779