File: Experimentelles/Rohdaten/Batteriemessungen/AlteZelle/Studenten_Batterietests/Sonstige/ZView-Export/LiCoO2 vs Li_05_GCPL_C01_loop0.txt
EC-Lab ASCII FILE
Nb header lines : 3
mode	ox/red	error	control changes	Ns changes	counter inc.	Ns	time/s	control/V/mA	Ewe/V	dq/mA.h	<I>/mA	P/W	(Q-Qo)/mA.h	x	Capacity/mA.h
1	0	0	0	1	0	1	14641,14	-0,100000001	3,53030181	0	0	0	0	0	0
1	0	0	0	0	0	1	14891,14	-0,100000001	3,05703449	-0,00027771753168313037	-0,099978312616383706	0,000305637164	-0,0069415633131812915	0,00025899906024592998	0,0069415633131812915
1	0	0	0	0	0	1	15141,14	-0,100000001	2,65426564	-0,00027771730900307494	-0,099978232451562778	0,000265368784	-0,013884493719437146	0,00051804912857254816	0,013884493719437146
1	0	0	0	0	0	1	15391,14	-0,100000001	2,23977256	-0,00027771703628698982	-0,099978134273770944	0,000223928277	-0,020827420300795478	0,00077709905418709709	0,020827420300795478
1	0	0	0	0	0	1	15641,14	-0,100000001	1,72503006	-0,00027771703590949376	-0,099978134137872371	0,000172465283	-0,027770342347906387	0,0010361488106227782	0,027770342347906387
1	0	0	0	0	0	1	15891,14	-0,100000001	1,41857588	-0,00027771755008730624	-0,099978319241887104	0,000141826837	-0,034713273181575558	0,0012951988948967619	0,034713273181575558
1	0	0	0	0	0	1	16141,14	-0,100000001	1,32193661	-0,00027771856014016602	-0,099978682860921024	0,000132165485	-0,041656216104791078	0,0015542494302479747	0,041656216104791078
1	0	0	0	0	0	1	16391,14	-0,100000001	1,23759437	-0,00027771756062904992	-0,099978323036914867	0,000123732607	-0,048599159785158214	0,0018132999938495315	0,048599159785158214
1	0	0	0	0	0	1	16641,14	-0,100000001	1,15972531	-0,00027771800343899267	-0,099978482448496192	0,00011594758	-0,055542093101705651	0,0020723501707630416	0,055542093101705651
1	0	0	0	0	0	1	16891,14	-0,100000001	1,09986281	-0,00027771747504423066	-0,099978292226379558	0,000109962406	-0,062485020509851174	0,0023314001272261325	0,062485020509851174
1	0	0	0	0	0	1	17141,14	-0,100000001	1,06976926	-0,00027771723583754563	-0,099978206111971917	0,000106953608	-0,069427957871144538	0,002590450455054551	0,069427957871144538
1	0	0	0	0	0	1	17391,14	-0,100000001	1,07307267	-0,00027771647403472	-0,099977931862951373	0,000107283588	-0,076370891056115136	0,0028495006270587523	0,076370891056115136
1	0	0	0	0	0	1	17641,14	-0,100000001	1,08162713	-0,000277717020161036	-0,099978128468427507	0,000108139058	-0,083313819764971878	0,003108550632053127	0,083313819764971878
1	0	0	0	0	0	1	17891,14	-0,100000001	1,08531249	-0,00027771715710684659	-0,09997817776891991	0,000108507564	-0,090256745983573811	0,0033676005441327469	0,090256745983573811
1	0	0	0	0	0	1	18141,14	-0,100000001	1,09115553	-0,00027771730353848803	-0,099978230484311475	0,000109091801	-0,09719967668520087	0,0036266506234800621	0,09719967668520087
1	0	0	0	0	0	1	18391,14	-0,100000001	1,10007286	-0,00027771721715604269	-0,099978199386630771	0,000109983303	-0,10414261014537438	0,0038857008057524544	0,10414261014537438
1	0	0	0	0	0	1	18641,14	-0,100000001	1,10975397	-0,00027771712661907078	-0,099978166793320486	0,000110951165	-0,11108554082402098	0,0041447508842423366	0,11108554082402098
1	0	0	0	0	0	1	18891,14	-0,100000001	1,11832762	-0,00027771737507440976	-0,099978256237243597	0,000111808447	-0,11802847045607211	0,0044038009236823366	0,11802847045607211
1	0	0	0	0	0	1	19141,14	-0,100000001	1,12493443	-0,0002777171031244927	-0,099978158335272282	0,000112468872	-0,12497139621835453	0,0046628508187360621	0,12497139621835453
1	0	0	0	0	0	1	19391,14	-0,100000001	1,13016641	-0,00027771663464357456	-0,099977989682139712	0,000112991765	-0,13191431185152714	0,004921900335859081	0,13191431185152714
1	0	0	0	0	0	1	19641,14	-0,100000001	1,13400447	-0,0002777168850435151	-0,099978079826119398	0,000113375587	-0,13885723434309787	0,0051809501088781555	0,13885723434309787
1	0	0	0	0	0	1	19891,14	-0,100000001	1,13702154	-0,00027771733747588266	-0,09997824270177367	0,000113677415	-0,14580016665826042	0,0054400002484286496	0,14580016665826042
1	0	0	0	0	0	1	20141,14	-0,100000001	1,13938928	-0,00027771783675957056	-0,099978422443903514	0,000113914342	-0,15274310052573069	0,0056990504458978304	0,15274310052573069
1	0	0	0	0	0	1	20391,14	-0,100000001	1,1412605	-0,00027771681248396634	-0,099978053704681536	0,000114101007	-0,15968602849350714	0,005958100423241504	0,15968602849350714
1	0	0	0	0	0	1	20641,14	-0,100000001	1,14263535	-0,00027771676693401402	-0,099978037306698496	0,000114238443	-0,16662894778083606	0,0062171500767060083	0,16662894778083606
1	0	0	0	0	0	1	20891,14	-0,100000001	1,14389563	-0,00027771581775529517	-0,099977695602355558	0,000114364047	-0,17357185658311274	0,0064761993389591168	0,17357185658311274
1	0	0	0	0	0	1	21141,14	-0,100000001	1,1448313	-0,00027771690019013155	-0,099978085278901363	0,000114458038	-0,18051475854942464	0,0067352483461531878	0,18051475854942464
1	0	0	0	0	0	1	21391,14	-0,100000001	1,14538503	-0,00027771690246338646	-0,099978086097273152	0,000114513401	-0,18745767168852202	0,0069942977702189069	0,18745767168852202
1	0	0	0	0	0	1	21641,14	-0,100000001	1,14609158	-0,00027771709982843862	-0,099978157148692787	0,000114584123	-0,19440059137776592	0,007253347438679401	0,19440059137776592
1	0	0	0	0	0	1	21891,14	-0,100000001	1,14647341	-0,00027771667938803635	-0,099978005790146138	0,000114622126	-0,20134352804872778	0,0075123977407506214	0,20134352804872778
1	0	0	0	0	0	1	22141,14	-0,100000001	1,14675987	-0,0002777166094933119	-0,09997798062804503	0,000114650735	-0,20828645289568576	0,0077714476016523622	0,20828645289568576
1	0	0	0	0	0	1	22391,14	-0,100000001	1,14693177	-0,00027771707277496659	-0,099978147409442752	0,00011466811	-0,21522937546460637	0,0080304973775574643	0,21522937546460637
1	0	0	0	0	0	1	22641,14	-0,100000001	1,14717996	-0,0002777174458934201	-0,099978281732087629	0,000114693081	-0,2221723038495913	0,0082895473704677478	0,2221723038495913
1	0	0	0	0	0	1	22891,14	-0,100000001	1,14704633	-0,00027771728975739747	-0,099978225523118797	0,000114679657	-0,22911522852551366	0,0085485972249879181	0,22911522852551366
1	0	0	0	0	0	1	23141,14	-0,100000001	1,14677894	-0,00027771670810671315	-0,099978016128869914	0,000114652685	-0,23605816152932797	0,0088076473902329344	0,23605816152932797
1	0	0	0	0	0	1	23391,14	-0,100000001	1,14653075	-0,00027771613607058922	-0,09997781019586281	0,000114627634	-0,24300108596937203	0,009066697235952169	0,24300108596937203
1	0	0	0	0	0	1	23641,14	-0,100000001	1,14633977	-0,0002777167958377136	-0,099978047712030464	0,000114608811	-0,24994400487226426	0,0093257468750728243	0,24994400487226426
1	0	0	0	0	0	1	23891,14	-0,100000001	1,14611065	-0,0002777163306147688	-0,09997788023176832	0,000114585717	-0,25688692550674534	0,0095847965788013888	0,25688692550674534
1	0	0	0	0	0	1	24141,14	-0,100000001	1,1457479	-0,00027771635026443334	-0,099977887305647629	0,000114549453	-0,26382984110879763	0,0098438460947632666	0,26382984110879763
1	0	0	0	0	0	1	24391,14	-0,100000001	1,14523232	-0,00027771686124884422	-0,099978071260037773	0,000114498122	-0,27077275713646733	0,010102895626605502	0,27077275713646733
1	0	0	0	0	0	1	24641,14	-0,100000001	1,14488864	-0,00027771660449852547	-0,099977978829921907	0,000114463655	-0,27771567026583965	0,010361945050308368	0,27771567026583965
1	0	0	0	0	0	1	24891,14	-0,100000001	1,14429665	-0,00027771580299445325	-0,099977690288452403	0,000114404138	-0,2846585806749985	0,010620994372516408	0,2846585806749985
1	0	0	0	0	0	1	25141,14	-0,100000001	1,14401019	-0,00027771603123471139	-0,099977772454946317	0,000114375587	-0,29160148654039616	0,010880043525190613	0,29160148654039616
1	0	0	0	0	0	1	25391,14	-0,100000001	1,14360929	-0,00027771609328273267	-0,099977794792234253	0,000114335533	-0,29854438968239238	0,011139092576251046	0,29854438968239238
1	0	0	0	0	0	1	25641,14	-0,100000001	1,14311278	-0,00027771690287979114	-0,099978086247178842	0,000114286231	-0,30548728944407174	0,011398141501187312	0,30548728944407174
1	0	0	0	0	0	1	25891,14	-0,100000001	1,1425972	-0,00027771696435784301	-0,099978108379277786	0,00011423471	-0,31243020462015661	0,011657191001255774	0,31243020462015661
1	0	0	0	0	0	1	26141,14	-0,100000001	1,14190984	-0,0002777157837624351	-0,099977683364925786	0,000114165501	-0,31937310990433037	0,011916240132243733	0,31937310990433037
1	0	0	0	0	0	1	26391,14	-0,100000001	1,1412797	-0,00027771591709761155	-0,099977731365589888	0,000114102557	-0,32631600291038285	0,012175288805118477	0,32631600291038285
1	0	0	0	0	0	1	26641,14	-0,100000001	1,14074504	-0,00027771610341469446	-0,099977798439740557	0,00011404918	-0,33325890593254746	0,012434337851707835	0,33325890593254746
1	0	0	0	0	0	1	26891,14	-0,100000001	1,14015305	-0,00027771664346092278	-0,099977992856385101	0,000113990216	-0,34020181384697645	0,01269338708083415	0,34020181384697645
1	0	0	0	0	0	1	27141,14	-0,100000001	1,13956106	-0,00027771638314425942	-0,099977899142385165	0,000113930917	-0,34714472555218675	0,012952436451399616	0,34714472555218675
1	0	0	0	0	0	1	27391,14	-0,100000001	1,13885462	-0,00027771621357111469	-0,099977838096052314	0,000113860224	-0,3540876372248889	0,013211485820752158	0,3540876372248889
1	0	0	0	0	0	1	27641,14	-0,100000001	1,13820541	-0,00027771555606110227	-0,099977601392444979	0,000113795046	-0,36103053964228634	0,013470534844776837	0,36103053964228634
1	0	0	0	0	0	1	27891,14	-0,100000001	1,13767076	-0,00027771573267463178	-0,099977664973316378	0,000113741662	-0,36797343989158797	0,013729583787906947	0,36797343989158797
1	0	0	0	0	0	1	28141,14	-0,100000001	1,13688779	-0,000277716666991512	-0,099978001327397325	0,000113663766	-0,37491634624477235	0,013988632958781128	0,37491634624477235
1	0	0	0	0	0	1	28391,14	-0,100000001	1,13635314	-0,00027771666585364275	-0,099978000917764378	0,000113610316	-0,38185925842612198	0,014247682347111992	0,38185925842612198
1	0	0	0	0	0	1	28641,14	-0,100000001	1,13555121	-0,0002777159917789201	-0,099977758250861299	0,000113529866	-0,38880215051969728	0,014506730985940986	0,38880215051969728
1	0	0	0	0	0	1	28891,14	-0,100000001	1,13482559	-0,00027771627771233517	-0,099977861186891981	0,000113457434	-0,39574504233627322	0,014765779614434762	0,39574504233627322
1	0	0	0	0	0	1	29141,14	-0,100000001	1,13388991	-0,00027771576085686688	-0,099977675118921126	0,000113363676	-0,40268793098472448	0,015024828124721549	0,40268793098472448
1	0	0	0	0	0	1	29391,14	-0,100000001	1,13354623	-0,00027771689146219027	-0,099978082136842483	0,000113329777	-0,40963083683785728	0,015283877276938131	0,40963083683785728
1	0	0	0	0	0	1	29641,14	-0,100000001	1,13262963	-0,00027771550861373542	-0,099977584311392717	0,000113237576	-0,41657373999568461	0,015542926328589245	0,41657373999568461
1	0	0	0	0	0	1	29891,14	-0,100000001	1,13198042	-0,00027771544615841578	-0,099977561827477363	0,000113172646	-0,4235166296432425	0,015801974876154042	0,4235166296432425
1	0	0	0	0	0	1	30141,14	-0,100000001	1,13115931	-0,0002777158581171599	-0,099977710132627046	0,000113090719	-0,43045952057843738	0,016061023471762307	0,43045952057843738
1	0	0	0	0	0	1	30391,14	-0,100000001	1,13060558	-0,00027771639664098624	-0,099977904001206874	0,000113035574	-0,43740241939756646	0,016320072361530755	0,43740241939756646
1	0	0	0	0	0	1	30641,14	-0,100000001	1,12997544	-0,00027771655407175424	-0,099977960676284045	0,000112972637	-0,4443453201926375	0,016579121325024256	0,4443453201926375
1	0	0	0	0	0	1	30891,14	-0,100000001	1,12924981	-0,00027771653140170704	-0,099977952515066944	0,000112900081	-0,45128822142429594	0,016838170304807418	0,45128822142429594
1	0	0	0	0	0	1	31141,14	-0,100000001	1,12846696	-0,00027771599647444157	-0,09997775994124905	0,000112821603	-0,45823112219891923	0,017097219267537984	0,45823112219891923
1	0	0	0	0	0	1	31391,14	-0,100000001	1,12779868	-0,0002777157377993895	-0,099977666818229171	0,000112754678	-0,46517401835929946	0,017356268058104938	0,46517401835929946
1	0	0	0	0	0	1	31641,14	-0,100000001	1,1271112	-0,00027771648428878851	-0,099977935554416077	0,000112686248	-0,47211693011173792	0,017615317430432554	0,47211693011173792
1	0	0	0	0	0	1	31891,14	-0,100000001	1,12640476	-0,0002777161258219017	-0,099977806506335258	0,000112615475	-0,4790598338268688	0,017874366502877408	0,4790598338268688
1	0	0	0	0	0	1	32141,14	-0,100000001	1,12588918	-0,00027771618053565421	-0,099977826203286387	0,000112563954	-0,48600273296332019	0,018133415404485581	0,48600273296332019
1	0	0	0	0	0	1	32391,14	-0,100000001	1,12566006	-0,00027771518678880397	-0,099977468454415987	0,000112540642	-0,49294563073427699	0,018392464255145312	0,49294563073427699
1	0	0	0	0	0	1	32641,14	-0,100000001	1,12493443	-0,0002777157259931167	-0,099977662567970918	0,000112468319	-0,49988853004323328	0,018651513163189872	0,49988853004323328
1	0	0	0	0	0	1	32891,14	-0,100000001	1,12407517	-0,00027771622654878429	-0,09997784137133911	0,000112382608	-0,50683142909135814	0,018910562061502461	0,50683142909135814
1	0	0	0	0	0	1	33141,14	-0,100000001	1,12308216	-0,00027771596540220906	-0,099977747358572186	0,000112283225	-0,51377433441367162	0,019169611193913462	0,51377433441367162
1	0	0	0	0	0	1	33391,14	-0,100000001	1,12243295	-0,00027771662713380323	-0,099977985581945651	0,000112218586	-0,52071723500060973	0,019428660149641245	0,52071723500060973
1	0	0	0	0	0	1	33641,14	-0,100000001	1,12186015	-0,00027771583805440202	-0,099977701513361741	0,000112160997	-0,52766013239115392	0,01968770898610727	0,52766013239115392
1	0	0	0	0	0	1	33891,14	-0,100000001	1,12136364	-0,00027771517899177142	-0,099977464250815181	0,000112111091	-0,53460302253274682	0,019946757552105178	0,53460302253274682
1	0	0	0	0	0	1	34141,14	-0,100000001	1,12035167	-0,00027771554336696861	-0,099977595425885914	0,000112010064	-0,54154590921939885	0,020205805989194595	0,54154590921939885
1	0	0	0	0	0	1	34391,14	-0,100000001	1,11964512	-0,00027771545730903741	-0,099977564445030746	0,000111939393	-0,54848879131628947	0,020464854255033843	0,54848879131628947
1	0	0	0	0	0	1	34641,14	-0,100000001	1,11897683	-0,00027771552852582595	-0,09997759008307456	0,000111872607	-0,55543168042667136	0,020723902782555882	0,55543168042667136
1	0	0	0	0	0	1	34891,14	-0,100000001	1,11832762	-0,0002777151853193839	-0,099977466528755661	0,00011180756	-0,56237456083900128	0,020982950985541904	0,56237456083900128
1	0	0	0	0	0	1	35141,14	-0,100000001	1,11815572	-0,00027771537658737766	-0,09997753538523328	0,000111790454	-0,56931744448396736	0,021241999309141933	0,56931744448396736
1	0	0	0	0	0	1	35391,14	-0,100000001	1,11765921	-0,0002777161082546744	-0,09997779878545961	0,000111741108	-0,57626033517028896	0,021501047895464397	0,57626033517028896
1	0	0	0	0	0	1	35641,14	-0,100000001	1,1167618	-0,00027771540183698138	-0,099977544475090611	0,000111651105	-0,58320321952463066	0,021760096245532176	0,58320321952463066
1	0	0	0	0	0	1	35891,14	-0,100000001	1,11607432	-0,00027771461301255558	-0,099977260498297843	0,000111582056	-0,59014608960902886	0,02201914406316919	0,59014608960902886
1	0	0	0	0	0	1	36141,14	-0,100000001	1,1152724	-0,00027771625667065382	-0,099977852215212122	0,000111502537	-0,59708897878224346	0,022278192593035594	0,59708897878224346
1	0	0	0	0	0	1	36391,14	-0,100000001	1,11460412	-0,00027771602704789904	-0,099977769551020544	0,000111435635	-0,6040318836126432	0,022537241707092637	0,6040318836126432
1	0	0	0	0	0	1	36641,14	-0,100000001	1,11399305	-0,00027771552884454531	-0,09997759019781353	0,000111374342	-0,61097478140441472	0,022796290558528995	0,61097478140441472
1	0	0	0	0	0	1	36891,14	-0,100000001	1,11340106	-0,00027771627921859427	-0,099977860332470669	0,000111315458	-0,61791768097465152	0,023055339476322282	0,61791768097465152
1	0	0	0	0	0	1	37141,14	-0,100000001	1,11263728	-0,00027771607537733184	-0,09997778694961632	0,000111239016	-0,62486059192319373	0,023314388818655443	0,62486059192319373
1	0	0	0	0	0	1	37391,14	-0,100000001	1,11183536	-0,00027771540059935718	-0,099977544029545894	0,000111158566	-0,63180349303793702	0,023573437794076346	0,63180349303793702
1	0	0	0	0	0	1	37641,14	-0,100000001	1,11131978	-0,00027771570292032426	-0,09997765286509385	0,00011110714	-0,63874639291197171	0,023832486723204736	0,63874639291197171
1	0	0	0	0	0	1	37891,14	-0,100000001	1,1106323	-0,00027771534289543827	-0,09997752325613513	0,000111038265	-0,64568928510881229	0,024091535365886701	0,64568928510881229
1	0	0	0	0	0	1	38141,14	-0,100000001	1,11028862	-0,00027771639374643565	-0,099977901562493478	0,000111004323	-0,65263219402263437	0,024350584632301718	0,65263219402263437
1	0	0	0	0	0	1	38391,14	-0,100000001	1,10986853	-0,00027771611837587421	-0,099977802429091546	0,000110962217	-0,65957510066389197	0,024609633813924294	0,65957510066389197
1	0	0	0	0	0	1	38641,14	-0,100000001	1,10916197	-0,00027771591931871242	-0,099977730768513434	0,000110891495	-0,66651800032693568	0,024868682735180336	0,66651800032693568
1	0	0	0	0	0	1	38891,14	-0,100000001	1,10826457	-0,00027771602033740944	-0,099977767135244301	0,000110801819	-0,67346089552152154	0,025127731489712205	0,67346089552152154
1	0	0	0	0	0	1	39141,14	-0,100000001	1,10750079	-0,00027771566960919235	-0,099977640873086387	0,000110725319	-0,68040378027261722	0,025386779854583411	0,68040378027261722
1	0	0	0	0	0	1	39391,14	-0,100000001	1,10658419	-0,00027771653867512941	-0,099977953736823142	0,000110634021	-0,68734667698987955	0,025645828665928387	0,68734667698987955
1	0	0	0	0	0	1	39641,14	-0,100000001	1,10583949	-0,0002777153950813744	-0,09997754204307209	0,000110559115	-0,69428958121909555	0,025904877757554454	0,69428958121909555
1	0	0	0	0	0	1	39891,14	-0,100000001	1,10530484	-0,00027771573247719142	-0,099977663505566003	0,000110505796	-0,70123246513621581	0,026163926091308915	0,70123246513621581
1	0	0	0	0	0	1	40141,14	-0,100000001	1,10436916	-0,00027771488754782413	-0,09997735933099433	0,000110411915	-0,70817534302572877	0,026422974200165251	0,70817534302572877
1	0	0	0	0	0	1	40391,14	-0,100000001	1,1035099	-0,00027771547350163258	-0,099977570274364992	0,00011032624	-0,71511822466992474	0,026682022449113846	0,71511822466992474
1	0	0	0	0	0	1	40641,14	-0,100000001	1,10307074	-0,00027771423621020384	-0,099977124849451469	0,000110281842	-0,72206109525131034	0,026941070285294122	0,72206109525131034
1	0	0	0	0	0	1	40891,14	-0,100000001	1,10207784	-0,00027771550341240237	-0,099977581042242099	0,000110183079	-0,72900396980955098	0,027200118269856205	0,72900396980955098
1	0	0	0	0	0	1	41141,14	-0,100000001	1,10129488	-0,00027771430841833354	-0,099977150844378125	0,000110104324	-0,73594683720471552	0,027459165987154288	0,73594683720471552
1	0	0	0	0	0	1	41391,14	-0,100000001	1,10058844	-0,00027771520634326669	-0,099977474097353459	0,000110034052	-0,74288970745483648	0,027718213810974634	0,74288970745483648
1	0	0	0	0	0	1	41641,14	-0,100000001	1,09967184	-0,00027771462723447213	-0,099977265618187802	0,000109942186	-0,74983257832578509	0,027977261657958893	0,74983257832578509
1	0	0	0	0	0	1	41891,14	-0,100000001	1,09944272	-0,00027771557663712237	-0,099977607403141248	0,000109919652	-0,75677545926698752	0,028236309880677859	0,75677545926698752
1	0	0	0	0	0	1	42141,14	-0,100000001	1,09919453	-0,00027771551120984886	-0,099977583849322829	0,000109894812	-0,76371835192815283	0,028495358540684403	0,76371835192815283
1	0	0	0	0	0	1	42391,14	-0,100000001	1,0984689	-0,00027771536344289779	-0,099977530653220544	0,000109822206	-0,77066123069255347	0,028754406682183965	0,77066123069255347
1	0	0	0	0	0	1	42641,14	-0,100000001	1,09780049	-0,00027771505223752723	-0,099977418619287347	0,000109755259	-0,77760410865707213	0,029013454793838861	0,77760410865707213
1	0	0	0	0	0	1	42891,14	-0,100000001	1,09696043	-0,00027771516100358634	-0,099977457775068544	0,000109671317	-0,78454698292813402	0,02927250276768592	0,78454698292813402
1	0	0	0	0	0	1	43141,14	-0,100000001	1,0960629	-0,0002777156306285825	-0,099977626840066854	0,000109581764	-0,79148985390810906	0,029531550618738093	0,79148985390810906
1	0	0	0	0	0	1	43391,14	-0,100000001	1,09526098	-0,0002777145698517561	-0,099977244960410061	0,000109501176	-0,79843272513529011	0,029790598479013869	0,79843272513529011
1	0	0	0	0	0	1	43641,14	-0,100000001	1,09445894	-0,00027771442148006621	-0,099977191546601805	0,000109420929	-0,80537558634199501	0,030049645965412198	0,80537558634199501
1	0	0	0	0	0	1	43891,14	-0,100000001	1,09390521	-0,00027771492200096448	-0,099977371734124851	0,00010936577	-0,81231845149558016	0,030308693599073939	0,81231845149558016
1	0	0	0	0	0	1	44141,14	-0,100000001	1,09348512	-0,00027771472893862259	-0,099977302231681894	0,000109323693	-0,81926132443234893	0,03056774152313673	0,81926132443234893
1	0	0	0	0	0	1	44391,14	-0,100000001	1,09304595	-0,00027771469848396048	-0,099977291268003558	0,000109279776	-0,82620419485673434	0,030826789353459117	0,82620419485673434
1	0	0	0	0	0	1	44641,14	-0,100000001	1,09235847	-0,00027771441256710227	-0,099977188337934784	0,000109210931	-0,83314706422428211	0,031085837144349466	0,83314706422428211
1	0	0	0	0	0	1	44891,14	-0,100000001	1,09193838	-0,00027771468919184474	-0,099977287922841894	0,000109169036	-0,84008994181175053	0,031344885241936115	0,84008994181175053
1	0	0	0	0	0	1	45141,14	-0,100000001	1,09109819	-0,00027771512089918058	-0,099977443337482509	0,000109085209	-0,84703281614746189	0,031603933218195322	0,84703281614746189
1	0	0	0	0	0	1	45391,14	-0,100000001	1,09083092	-0,00027771453660395411	-0,099977232991201382	0,000109058259	-0,85397568814481856	0,031862981107207386	0,85397568814481856
1	0	0	0	0	0	1	45641,14	-0,100000001	1,09031534	-0,00027771556718481914	-0,099977604000312077	0,000109007116	-0,86091856812250829	0,032122029293976403	0,86091856812250829
1	0	0	0	0	0	1	45891,14	-0,100000001	1,0898571	-0,0002777151858939065	-0,099977466735583795	0,000108961154	-0,86786145054489958	0,032381077571960512	0,86786145054489958
1	0	0	0	0	0	1	46141,14	-0,100000001	1,0896852	-0,00027771565815144115	-0,099977636748295962	0,00010894415	-0,87480433241023949	0,032640125829160294	0,87480433241023949
1	0	0	0	0	0	1	46391,14	-0,100000001	1,08943701	-0,00027771498753751315	-0,099977395327282342	0,000108919077	-0,88174721174852339	0,032899173992072211	0,88174721174852339
1	0	0	0	0	0	1	46641,14	-0,100000001	1,08899784	-0,00027771531423926355	-0,099977512939912269	0,000108875298	-0,88869008565499661	0,033158221952315981	0,88869008565499661
1	0	0	0	0	0	1	46891,14	-0,100000001	1,08857775	-0,00027771515419541133	-0,099977455324125555	0,000108833236	-0,89563296312130675	0,033417270045382042	0,89563296312130675
1	0	0	0	0	0	1	47141,14	-0,100000001	1,08825314	-0,00027771516983376608	-0,099977460953933261	0,000108800785	-0,90257584025611571	0,033676318126079354	0,90257584025611571
1	0	0	0	0	0	1	47391,14	-0,100000001	1,08813858	-0,00027771510666732986	-0,099977438214016269	0,000108789311	-0,90951872647621107	0,033935366545760915	0,90951872647621107
1	0	0	0	0	0	1	47641,14	-0,100000001	1,08747017	-0,00027771579019104442	-0,09997768428255305	0,00010872275	-0,9164616079389719	0,03419441478793993	0,9164616079389719
1	0	0	0	0	0	1	47891,14	-0,100000001	1,08706915	-0,00027771565127082995	-0,09997763427127593	0,000108682601	-0,92340448516277747	0,034453462871957824	0,92340448516277747
1	0	0	0	0	0	1	48141,14	-0,100000001	1,08684003	-0,0002777145025216871	-0,09997722072158528	0,000108659246	-0,93034737197315136	0,034712511313663469	0,93034737197315136
1	0	0	0	0	0	1	48391,14	-0,100000001	1,08647728	-0,00027771618291901219	-0,099977825664621184	0,000108623637	-0,93729025282457651	0,03497155953303273	0,93729025282457651
1	0	0	0	0	0	1	48641,14	-0,100000001	1,08615267	-0,00027771555182503331	-0,099977598470789197	0,000108590939	-0,94423313656556006	0,03523060786021529	0,94423313656556006
1	0	0	0	0	0	1	48891,14	-0,100000001	1,08584714	-0,00027771627954435018	-0,099977860449742784	0,000108560671	-0,9511760278296809	0,03548965646809623	0,9511760278296809
1	0	0	0	0	0	1	49141,14	-0,100000001	1,08561802	-0,00027771592376919258	-0,099977732370686285	0,000108537628	-0,95811892539836826	0,035748705311209018	0,95811892539836826
1	0	0	0	0	0	1	49391,14	-0,100000001	1,08525515	-0,00027771660936747987	-0,099977979186069261	0,000108501619	-0,96506182356597338	0,036007754176668224	0,96506182356597338
1	0	0	0	0	0	1	49641,14	-0,100000001	1,08500695	-0,00027771620952172413	-0,099977835241597466	0,000108476648	-0,97200472560318835	0,036266803186507789	0,97200472560318835
1	0	0	0	0	0	1	49891,14	-0,100000001	1,08485425	-0,00027771616251849466	-0,09997781832043488	0,000108461361	-0,97894763445471795	0,036525852450598592	0,97894763445471795
1	0	0	0	0	0	1	50141,14	-0,100000001	1,08481598	-0,00027771616559310093	-0,099977819427293146	0,000108457534	-0,9858905396283017	0,036784901577460288	0,9858905396283017
1	0	0	0	0	0	1	50391,14	-0,100000001	1,08420503	-0,00027771590560467706	-0,099977725831460723	0,000108396351	-0,99283343637361344	0,037043950389851821	0,99283343637361344
1	0	0	0	0	0	1	50641,14	-0,100000001	1,08374667	-0,0002777162790538536	-0,099977860273164019	0,000108350672	-0,99977634519207168	0,037302999652708691	0,99977634519207168
1	1	0	1	0	0	2	50881,14	0,100000001	1,33553219	0,00027782471934995718	0,10001689877968859	0,000133575784	-0,99310855449671386	0,037054215416924947	0,006667790695357655
1	1	0	1	0	0	2	51131,14	0,100000001	1,44830668	0,00027782486969936224	0,10001695290547432	0,000144855221	-0,98616293227534477	0,036795064913357274	0,013613412916726541
1	1	0	1	0	0	2	51381,14	0,100000001	1,53629601	0,0002778251110062831	0,10001703977596566	0,000153655783	-0,97921731806607117	0,036535914708731654	0,02055902712600016
1	1	0	1	0	0	2	51631,14	0,100000001	1,60511398	0,00027782477264892723	0,10001691796731778	0,000160538548	-0,97227169831956966	0,036276764297504608	0,027504646872501814
1	1	0	1	0	0	2	51881,14	0,100000001	1,65758681	0,00027782456037153805	0,10001684154745781	0,000165786594	-0,96532608416630285	0,036017614094968672	0,034450261025768602
1	1	0	1	0	0	2	52131,14	0,100000001	1,698259	0,00027782409273543296	0,10001667319846029	0,000169854218	-0,95838047419506701	0,035758464048469939	0,041395870997004614
1	1	0	1	0	0	2	52381,14	0,100000001	1,73094952	0,00027782387572485542	0,10001659507465251	0,000173123684	-0,95143487000385203	0,035499314217631558	0,048341475188219693
1	1	0	1	0	0	2	52631,14	0,100000001	1,75833154	0,00027782438164825242	0,1000167772070751	0,00017586266	-0,94448925938119629	0,035240164146827469	0,05528708581087527
1	1	0	1	0	0	2	52881,14	0,100000001	1,7819711	0,00027782375449024963	0,10001655143019454	0,000178226604	-0,93754364188122714	0,034981013819421574	0,062232703310844326
1	1	0	1	0	0	2	53131,14	0,100000001	1,80270815	0,00027782474845275283	0,10001690925669501	0,0001803013	-0,93059803424496858	0,034721863860043981	0,069178310947103168
1	1	0	1	0	0	2	53381,14	0,100000001	1,82142115	0,00027782440821122794	0,10001678676974627	0,000182172691	-0,92365242889654003	0,034462713986028397	0,076123916295531674
1	1	0	1	0	0	2	53631,14	0,100000001	1,8387593	0,00027782316719864806	0,10001634000521837	0,00018390597	-0,91670683575722253	0,034203564567551174	0,083069509434849421
1	1	0	1	0	0	2	53881,14	0,100000001	1,85462713	0,00027782425916857187	0,10001673311439021	0,000185493744	-0,90976124382188928	0,033944415193996205	0,090015101370182707
1	1	0	1	0	0	2	54131,14	0,100000001	1,86957848	0,00027782417650272451	0,1000167033546852	0,000186989069	-0,90281563393464819	0,033685265150631437	0,096960711257423795
1	1	0	1	0	0	2	54381,14	0,100000001	1,88370872	0,00027782431837047139	0,10001675442707397	0,000188402439	-0,89587002029997568	0,033426114967444947	0,10390632489209624
1	1	0	1	0	0	2	54631,14	0,100000001	1,89738071	0,00027782497270198333	0,10001698998641784	0,000189770304	-0,88892440690521907	0,033166964793210048	0,11085193828685296
1	1	0	1	0	0	2	54881,14	0,100000001	1,91000235	0,00027782471033930781	0,10001689553585482	0,000191032508	-0,88197879122998272	0,032907814533887386	0,11779755396208918
1	1	0	1	0	0	2	55131,14	0,100000001	1,92239499	0,00027782432265538307	0,10001675596964218	0,000192271706	-0,87503317879282061	0,032648664395381632	0,12474316639925133
1	1	0	1	0	0	2	55381,14	0,100000001	1,93408108	0,00027782383144605491	0,10001657913428437	0,000193440166	-0,86808757552366886	0,032389514598946662	0,13168876966840318
1	1	0	1	0	0	2	55631,14	0,100000001	1,94536614	0,00027782427047027478	0,10001673718300323	0,000194569177	-0,86114196949748262	0,032130364699643034	0,1386343756945895
1	1	0	1	0	0	2	55881,14	0,100000001	1,95615482	0,00027782436342164877	0,10001677064549778	0,000195648288	-0,85419636645001664	0,031871214911479462	0,14557997874205562
1	1	0	1	0	0	2	56131,14	0,100000001	1,96667612	0,00027782452756994301	0,10001682973888362	0,000196700712	-0,84725074581639667	0,031612064467152838	0,15252559937567552
1	1	0	1	0	0	2	56381,14	0,100000001	1,97715914	0,00027782454740049107	0,10001683687788093	0,000197749207	-0,84030513087122957	0,031352914235070042	0,15947121432084259
1	1	0	1	0	0	2	56631,14	0,100000001	1,98712671	0,00027782402339246541	0,10001664823499203	0,000198745751	-0,8333595299076695	0,031093764524659795	0,16641681528440282
1	1	0	1	0	0	2	56881,14	0,100000001	1,99724698	0,00027782350169784496	0,10001646042492901	0,000199757575	-0,8264139340630281	0,030834615005243296	0,17336241112904422
1	1	0	1	0	0	2	57131,14	0,100000001	2,00765371	0,0002778242373698288	0,10001672526684269	0,000200798953	-0,81946833619884672	0,03057546541047504	0,18030800899322541
1	1	0	1	0	0	2	57381,14	0,100000001	2,01792693	0,00027782393699387715	0,1000166171315003	0,000201826231	-0,81252273292665651	0,030316315613926707	0,18725361226541558
1	1	0	1	0	0	2	57631,14	0,100000001	2,02900195	0,00027782408368960019	0,10001666994196051	0,000202934025	-0,80557712057043558	0,030057165478440973	0,19419922462163658
1	1	0	1	0	0	2	57881,14	0,100000001	2,04099345	0,00027782400511163808	0,10001664165389419	0,000204133306	-0,79863151084866394	0,02979801544125008	0,2011448343434081
1	1	0	1	0	0	2	58131,14	0,100000001	2,05403543	0,00027782477773312067	0,10001691979762741	0,000205438293	-0,79168590392822618	0,029538865508580723	0,20809044126384618
1	1	0	1	0	0	2	58381,14	0,100000001	2,06921577	0,00027782432559132579	0,10001675702658155	0,000206956247	-0,784740290830512	0,029279715345428883	0,21503605436156016
1	1	0	1	0	0	2	58631,14	0,100000001	2,0867641	0,00027782396616538362	0,10001662763324262	0,000208711106	-0,77779468698226138	0,029020565527386957	0,22198165820981088
1	1	0	1	0	0	2	58881,14	0,100000001	2,107692	0,0002778236452353497	0,10001651209843062	0,000210804006	-0,77084909630616922	0,028761416200815978	0,22892724888590288
1	1	0	1	0	0	2	59131,14	0,100000001	2,13230538	0,00027782401971436211	0,10001664691087483	0,00021326603	-0,7639035031233376	0,028502266780715171	0,23587284206873488
1	1	0	1	0	0	2	59381,14	0,100000001	2,1592865	0,00027782374676441155	0,10001654864889282	0,000215964377	-0,75695791083507827	0,028243117393992067	0,24281843435699434
1	1	0	1	0	0	2	59631,14	0,100000001	2,18598104	0,00027782289937262733	0,10001624358785106	0,000218633606	-0,75001232269992115	0,02798396816222679	0,24976402249215149
1	1	0	1	0	0	2	59881,14	0,100000001	2,20948696	0,00027782336262944672	0,10001641036030574	0,000220984948	-0,74306673711843981	0,027724819025742586	0,25670960807363296
1	1	0	1	0	0	2	60131,14	0,100000001	2,22850561	0,00027782394922938614	0,10001662153628354	0,000222887596	-0,73612114372205478	0,027465669597673821	0,26365520147001792
1	1	0	1	0	0	2	60381,14	0,100000001	2,24368596	0,00027782347884650029	0,10001645219844494	0,000224405507	-0,72917555234927091	0,027206520245108333	0,27060079284280179
1	1	0	1	0	0	2	60631,14	0,100000001	2,25634599	0,00027782472828527293	0,10001690199640226	0,000225672731	-0,72222995166342899	0,026947370545060131	0,27754639352864368
1	1	0	1	0	0	2	60881,14	0,100000001	2,26755452	0,00027782374029937715	0,10001654632148045	0,000226792967	-0,71528434724930406	0,026688220705904675	0,28449199794276909
1	1	0	1	0	0	2	61131,14	0,100000001	2,27765584	0,00027782410417083235	0,10001667731520406	0,000227803568	-0,70833873728457075	0,02642907065964856	0,29143760790750246
1	1	0	1	0	0	2	61381,14	0,100000001	2,28676414	0,00027782322810755837	0,10001636193242602	0,000228713834	-0,7013931374583081	0,026169920991672413	0,29838320773376506
1	1	0	1	0	0	2	61631,14	0,100000001	2,29587245	0,00027782457951332131	0,10001684843849978	0,000229625934	-0,69444753621986176	0,025910771271005795	0,30532880897221158
1	1	0	1	0	0	2	61881,14	0,100000001	2,3045032	0,00027782412886371216	0,10001668620464077	0,000230488775	-0,68750192611233242	0,02565162121942177	0,31227441907974112
1	1	0	1	0	0	2	62131,14	0,100000001	2,31328678	0,00027782442051089475	0,10001679119762632	0,000231367521	-0,68055632143899264	0,025392471370594656	0,31922002375308077
1	1	0	1	0	0	2	62381,14	0,100000001	2,32210875	0,00027782320731464362	0,10001635444697672	0,000232248858	-0,67361071288808013	0,025133321377090099	0,32616563230399302
1	1	0	1	0	0	2	62631,14	0,100000001	2,33104515	0,00027782360156294374	0,1000164963763645	0,000233142971	-0,66666511289065702	0,024874171702727725	0,33311123230141606
1	1	0	1	0	0	2	62881,14	0,100000001	2,34009624	0,00027782349863358669	0,10001645932179603	0,000234048144	-0,65971951317119565	0,024615022038736477	0,34005683202087757
1	1	0	1	0	0	2	63131,14	0,100000001	2,34929991	0,00027782400505989789	0,10001664163526773	0,000234969091	-0,65277391694965402	0,024355872505257322	0,34700242824241882
1	1	0	1	0	0	2	63381,14	0,100000001	2,35917187	0,00027782333392981024	0,10001640002843662	0,000235955871	-0,64582832208897254	0,02409672302255369	0,35394802310310035
1	1	0	1	0	0	2	63631,14	0,100000001	2,36910129	0,0002778239628887839	0,10001662645366672	0,00023694952	-0,63888273616540083	0,023837573873305632	0,36089360902667245
1	1	0	1	0	0	2	63881,14	0,100000001	2,3792026	0,00027782387294827238	0,10001659407508264	0,000237959743	-0,63193714196482611	0,023578424415231469	0,36783920322724723
1	1	0	1	0	0	2	64131,14	0,100000001	2,38955188	0,00027782433102321293	0,10001675898206093	0,000238995228	-0,62499153463480435	0,023319274467279984	0,37478481055726848
1	1	0	1	0	0	2	64381,14	0,100000001	2,40011144	0,00027782407395458883	0,10001666643735642	0,000240051144	-0,61804593535180288	0,023060124819573642	0,38173040984027002
1	1	0	1	0	0	2	64631,14	0,100000001	2,41074729	0,0002778244731057849	0,10001681013178672	0,000241115253	-0,6111003400383497	0,022800975319976483	0,38867600515372301
1	1	0	1	0	0	2	64881,14	0,100000001	2,42142129	0,0002778248183346457	0,10001693441417638	0,00024218313	-0,60415472942994176	0,022541825249704003	0,39562161576213075
1	1	0	1	0	0	2	65131,14	0,100000001	2,43238187	0,00027782478995993734	0,10001692419928139	0,000243279355	-0,59720911671208205	0,02228267510072504	0,40256722847999008
1	1	0	1	0	0	2	65381,14	0,100000001	2,44294143	0,00027782419340395267	0,10001670943912731	0,000244334951	-0,59026350088632448	0,022023524835786227	0,40951284430574784
1	1	0	1	0	0	2	65631,14	0,100000001	2,4536345	0,00027783067469588589	0,10001706602360195	0,000245405332	-0,58331784222381491	0,021764372972550602	0,41645850296825741
1	1	0	1	0	0	2	65881,15	0,100000001	2,46394563	0,00027782995565028656	0,10001680754372242	0,000246435986	-0,5763720839052464	0,021505217391013434	0,42340426128682586
1	1	0	1	0	0	2	66131,15	0,100000001	2,47414231	0,00027783002311322426	0,10001683181243517	0,000247455871	-0,56942633559129242	0,021246062182761878	0,43035000960077971
1	1	0	1	0	0	2	66381,16	0,100000001	2,48420548	0,00027783069011775984	0,10001707157420251	0,000248462951	-0,5624805777505527	0,020986906619053142	0,43729576744151968
1	1	0	1	0	0	2	66631,16	0,100000001	2,49405837	0,0002778312587762872	0,10001727637571534	0,000249448931	-0,55553480503591603	0,020727750500379312	0,44424154015615642
1	1	0	1	0	0	2	66881,17	0,100000001	2,5033958	0,00027783040436647002	0,10001696907952061	0,000250382058	-0,54858904550799328	0,020468594873719507	0,45118729968407891
1	1	0	1	0	0	2	67131,17	0,100000001	2,51263762	0,00027782974314151539	0,10001673086975651	0,000251305813	-0,54164329450651462	0,020209439565192794	0,45813305068555731
1	1	0	1	0	0	2	67381,18	0,100000001	2,52205157	0,00027783053407404157	0,10001701540073858	0,000252248079	-0,53469754494251418	0,01995028431030033	0,4650788002495577
1	1	0	1	0	0	2	67631,18	0,100000001	2,53125525	0,00027783043847978115	0,1000169812296652	0,000253168517	-0,52775178288832915	0,019691128589382282	0,47202456230374272
1	1	0	1	0	0	2	67881,19	0,100000001	2,54034448	0,00027782994573273594	0,10001680397347475	0,000254077138	-0,52080603663807981	0,019431973458130323	0,47897030855399219
1	1	0	1	0	0	2	68131,19	0,100000001	2,54912806	0,00027782889798490534	0,10001642646686376	0,000254954677	-0,51386029491343667	0,019172818495734819	0,48591605027863514
1	1	0	1	0	0	2	68381,20	0,100000001	2,55817914	0,00027782965710138278	0,10001669969565707	0,000255860621	-0,50691455113592512	0,018913663456744032	0,49286179405614675
1	1	0	1	0	0	2	68631,20	0,100000001	2,56661892	0,00027783000187948346	0,10001682418590442	0,000256705069	-0,49996880403860397	0,018654508293886685	0,49980754115346797
1	1	0	1	0	0	2	68881,21	0,100000001	2,57511616	0,00027782955713777082	0,1000166640832161	0,000257554522	-0,49302306342869274	0,018395353373083328	0,50675328176337907
1	1	0	1	0	0	2	69131,21	0,100000001	2,58328891	0,00027782962342806992	0,10001668757408618	0,000258371991	-0,48607733141015808	0,018136198772835779	0,51369901378191354
1	1	0	1	0	0	2	69381,22	0,100000001	2,59128976	0,0002778295728402833	0,10001666937623269	0,000259172171	-0,47913160133507981	0,0178770442451012	0,52064474385699168
1	1	0	1	0	0	2	69631,22	0,100000001	2,5988512	0,00027782986340961523	0,10001677434122992	0,000259928725	-0,47218586366212128	0,017617889433879494	0,52759048152995027
1	1	0	1	0	0	2	69881,23	0,100000001	2,60624099	0,00027783092009193363	0,10001715464285346	0,000260668807	-0,46524011311170797	0,01735873414218264	0,53453623208036352
1	1	0	1	0	0	2	70131,23	0,100000001	2,61384082	0,00027783037141379382	0,10001695684420675	0,000261428417	-0,4582943523594233	0,017099578469840246	0,54148199283264806
1	1	0	1	0	0	2	70381,24	0,100000001	2,62077212	0,00027782950720687702	0,10001664589421394	0,000262120826	-0,45134860438036787	0,016840423274084211	0,5484277408117033
1	1	0	1	0	0	2	70631,24	0,100000001	2,62764645	0,00027782887922351555	0,10001642003774259	0,000262807793	-0,44440287006106016	0,016581268587991725	0,55537347513101101
1	1	0	1	0	0	2	70881,25	0,100000001	2,63484502	0,00027782879730479584	0,10001639030657181	0,000263527676	-0,4374571422698535	0,016322114145471466	0,56231920292221779
1	1	0	1	0	0	2	71131,25	0,100000001	2,64219666	0,00027782894497033622	0,10001644333354736	0,000264263101	-0,43051140741475456	0,016062959439387891	0,56926493777731667
1	1	0	1	0	0	2	71381,26	0,100000001	2,64996839	0,00027782927355708346	0,10001656193447693	0,000265040726	-0,42356567428790368	0,015803804797787578	0,57621067090416768
1	1	0	1	0	0	2	71631,26	0,100000001	2,65852284	0,00027782869627285338	0,10001635417797003	0,000265895767	-0,41661994533987686	0,015544650312104803	0,58315639985219456
1	1	0	1	0	0	2	71881,27	0,100000001	2,66900587	0,00027782957289285133	0,100016669381476	0,000266945077	-0,40967421574872301	0,015285495802426099	0,59010212944334874
1	1	0	1	0	0	2	72131,27	0,100000001	2,68084478	0,00027782968419334954	0,10001670944973667	0,000268129283	-0,40272847567574726	0,015026340901656525	0,5970478695163241
1	1	0	1	0	0	2	72381,28	0,100000001	2,69707537	0,00027782999294499555	0,10001682097071667	0,000269752898	-0,39578272492531366	0,01476718560249664	0,60399362026675802
1	1	0	1	0	0	2	72631,28	0,100000001	2,71804166	0,0002778295633548664	0,1000166663016783	0,00027184948	-0,38883698377558432	0,014508030661551942	0,6109393614164873
1	1	0	1	0	0	2	72881,29	0,100000001	2,74677944	0,00027782975931217277	0,10001673649197851	0,00027472392	-0,38189123898274054	0,014248875584677744	0,6178851062093312
1	1	0	1	0	0	2	73131,29	0,100000001	2,78504562	0,00027782955145463347	0,10001666174741038	0,000278550957	-0,37494549997883642	0,013989720723796672	0,62483084521323546
1	1	0	1	0	0	2	73381,30	0,100000001	2,83650637	0,00027782938259467478	0,10001660124777893	0,000283697736	-0,36799976378101459	0,013730565967614301	0,63177658141105741
1	1	0	1	0	0	2	73631,30	0,100000001	2,90563011	0,00027782986883736323	0,10001677612984637	0,000290611759	-0,36105402295910426	0,01347141103890097	0,63872232223296781
1	1	0	1	0	0	2	73881,31	0,100000001	2,99671268	0,00027783016010622179	0,10001688077440221	0,000299721869	-0,35410827174478451	0,01321225572243287	0,64566807344728755
1	1	0	1	0	0	2	74131,31	0,100000001	3,08279252	0,00027782969449998605	0,10001671339175307	0,000308330782	-0,34716253598407507	0,012953100982559752	0,65261380920799693
1	1	0	1	0	0	2	74381,32	0,100000001	3,1564033	0,00027782984905151859	0,10001676917008861	0,000315693265	-0,34021679695742048	0,012693946120829824	0,65955954823465152
1	1	0	1	0	0	2	74631,32	0,100000001	3,21657157	0,0002778298253644672	0,10001676032505781	0,000321711064	-0,33327104236694605	0,012434790678392854	0,66650530282512614
1	1	0	1	0	0	2	74881,33	0,100000001	3,25229812	0,00027782899338296723	0,10001646076291438	0,000325283356	-0,3263253057774953	0,012175635907598282	0,67345103941457677
1	1	0	1	0	0	2	75131,33	0,100000001	3,26793671	0,0002778300941226383	0,10001685739394826	0,000326848764	-0,31937956677833312	0,011916481046894136	0,68039677841373888
1	1	0	1	0	0	2	75381,34	0,100000001	3,27242398	0,00027783063960903219	0,10001705376400514	0,000327298214	-0,31243381526507187	0,011657325719272125	0,68734252992700019
1	1	0	1	0	0	2	75631,34	0,100000001	3,27326417	0,00027783009195079405	0,10001685623951533	0,000327381596	-0,30548805883750477	0,011398170208290758	0,69428828635456717
1	1	0	1	0	0	2	75881,35	0,100000001	3,2731688	0,00027783105271557965	0,10001720211149494	0,000327373185	-0,29854229023667661	0,011139014243108656	0,70123405495539533
1	1	0	1	0	0	2	76131,35	0,100000001	3,27330232	0,00027783066805120973	0,10001706400298672	0,000327386078	-0,29159652088321203	0,010879858249844675	0,7081798243088599
1	1	0	1	0	0	2	76381,36	0,100000001	3,27452445	0,00027783089648476902	0,10001714615011824	0,000327508576	-0,28465075688894909	0,010620702456539714	0,71512558830312269
1	1	0	1	0	0	2	76631,36	0,100000001	3,27652955	0,00027783077741124563	0,10001710299923627	0,000327708985	-0,27770500165264512	0,010361546990005976	0,72207134353942694
1	1	0	1	0	0	2	76881,37	0,100000001	3,27996659	0,00027783053910069997	0,10001701735933386	0,000328052469	-0,2707592493124672	0,010102391631530595	0,72901709587960486
1	1	0	1	0	0	2	77131,37	0,100000001	3,28433919	0,00027782954155736499	0,10001665847438085	0,000328488619	-0,26381349370072582	0,0098432361509887821	0,73596285149134618
1	1	0	1	0	0	2	77381,38	0,100000001	3,29002953	0,00027783004208323024	0,10001683842624755	0,000329058355	-0,25686775735508378	0,00958408138929104	0,74290858783698803
1	1	0	1	0	0	2	77631,38	0,100000001	3,29713297	0,00027782992235157229	0,10001679518500226	0,000329768664	-0,24992201225185363	0,009324926300835913	0,74985433294021811
1	1	0	1	0	0	2	77881,38	0,100000001	3,3055346	0,00027783004674687981	0,10001684026798837	0,000330609124	-0,24297626459059622	0,0090657711169373453	0,75680008060147546
1	1	0	1	0	0	2	78131,39	0,100000001	3,31548309	0,00027782971548123491	0,10001672108457238	0,000331603747	-0,23603051493029219	0,0088066158584516621	0,76374583026177946
1	1	0	1	0	0	2	78381,39	0,100000001	3,32644343	0,00027783027918347056	0,10001692364194664	0,000332700642	-0,2290847656261177	0,0085474606132536512	0,7706915795659543
1	1	0	1	0	0	2	78631,40	0,100000001	3,33908439	0,00027783095780097776	0,10001716793825629	0,000333965756	-0,22213900967640848	0,0082883051201018048	0,77763733551566349
1	1	0	1	0	0	2	78881,40	0,100000001	3,35342455	0,00027782982633842362	0,10001676099237168	0,000335398654	-0,21519325028288038	0,0080291494984564454	0,78458309490919155
1	1	0	1	0	0	2	79131,41	0,100000001	3,36950254	0,00027783098930989702	0,1000171796456784	0,000337008154	-0,2082474857306679	0,0077699936843336346	0,7915288594614039
1	1	0	1	0	0	2	79381,41	0,100000001	3,38766193	0,00027783110394618579	0,1000172205494913	0,000338824524	-0,20130170749717197	0,0075108373597437453	0,79847463769489984
1	1	0	1	0	0	2	79631,42	0,100000001	3,40820789	0,00027783004013780086	0,10001683766172334	0,000340878178	-0,19435594416849098	0,0072516815912725402	0,80542040102358067
1	1	0	1	0	0	2	79881,42	0,100000001	3,43045354	0,00027783085791725251	0,10001713235457574	0,000343104126	-0,18741017757599456	0,0069925257010239949	0,81236616761607744
1	1	0	1	0	0	2	80131,43	0,100000001	3,45474219	0,00027783144239046506	0,1000173426012608	0,000345534121	-0,18046439814864211	0,0067333693318897126	0,81931194704343002
1	1	0	1	0	0	2	80381,43	0,100000001	3,47968006	0,00027783126293909226	0,10001727778697066	0,000348028116	-0,17351861808110598	0,0064742129388693184	0,82625772711096627
1	1	0	1	0	0	2	80631,44	0,100000001	3,50534368	0,0002778307685334649	0,1000171000268496	0,000350594317	-0,1665728369519656	0,00621505650623904	0,83320350824010675
1	1	0	1	0	0	2	80881,44	0,100000001	3,53112197	0,00027783051149836842	0,10001700764507758	0,000353172247	-0,15962705501546784	0,0059559000434851725	0,84014929017660454
1	1	0	1	0	0	2	81131,45	0,100000001	3,55611706	0,00027783068857797318	0,10001707108625701	0,000355672411	-0,15268129502566726	0,0056967443995920864	0,84709505016640525
1	1	0	1	0	0	2	81381,45	0,100000001	3,57971835	0,00027783108261972669	0,10001721287211778	0,00035803346	-0,14573552036009178	0,0054375882081261043	0,85404082483198131
1	1	0	1	0	0	2	81631,46	0,100000001	3,6015439	0,00027783041168997683	0,10001697171476662	0,000360215519	-0,13878975708054733	0,0051784324414882509	0,8609865881115255
1	1	0	1	0	0	2	81881,46	0,100000001	3,62132621	0,00027783031916949488	0,10001693840921565	0,000362193969	-0,13184400059869197	0,0049192769284813165	0,86793234459338086
1	1	0	1	0	0	2	82131,47	0,100000001	3,63916087	0,00027783054756331773	0,10001702025576323	0,000363978033	-0,12489824682923051	0,0046601215166774451	0,87487809836284237
1	1	0	1	0	0	2	82381,47	0,100000001	3,65541053	0,00027782961636905872	0,10001668503347453	0,000365602056	-0,11795249952735811	0,0044009663461880166	0,88182384566471475
1	1	0	1	0	0	2	82631,48	0,100000001	3,66986537	0,00027783042172756461	0,10001697532939115	0,000367048837	-0,11100674645864651	0,0041418109605300646	0,88876959873342605
1	1	0	1	0	0	2	82881,48	0,100000001	3,68305993	0,00027783043496393494	0,1000169800140517	0,000368368521	-0,10406098270589344	0,00388265517623616	0,89571536248617971
1	1	0	1	0	0	2	83131,49	0,100000001	3,69489884	0,0002778293869785137	0,10001660245451054	0,000369551242	-0,097115225930350746	0,0036234996522713562	0,90266111926172224
1	1	0	1	0	0	2	83381,49	0,100000001	3,7057066	0,00027782948274289574	0,10001663707687581	0,000370632304	-0,09016947520672096	0,0033643443541115597	0,90960686998535181
1	1	0	1	0	0	2	83631,50	0,100000001	3,71538782	0,0002778305822726753	0,10001703312332454	0,000371602073	-0,083223720553258022	0,0031051889093244051	0,91655262463881498
1	1	0	1	0	0	2	83881,50	0,100000001	3,72464871	0,00027782958183106451	0,10001667274441859	0,000372526963	-0,076277965885621197	0,0028460334640084026	0,92349837930645146
1	1	0	1	0	0	2	84131,51	0,100000001	3,73285961	0,00027783069319981667	0,10001707268372106	0,0003733497	-0,069332218477196365	0,0025868782895433606	0,93044412671487616
1	1	0	1	0	0	2	84381,51	0,100000001	3,74040198	0,00027783024100297024	0,10001691019064862	0,00037410346	-0,062386458159047872	0,0023277226333991709	0,9373898870330249
1	1	0	1	0	0	2	84631,52	0,100000001	3,74714255	0,00027782994615327981	0,10001680412603187	0,000374777213	-0,055440708056289466	0,0020685673584049203	0,94433563713578317
1	1	0	1	0	0	2	84881,52	0,100000001	3,75367308	0,00027782898840142624	0,10001645896857629	0,000375429081	-0,048494982286751437	0,0018094129913158381	0,95128136290532122
1	1	0	1	0	0	2	85131,53	0,100000001	3,75987887	0,0002778292429736919	0,10001655061379933	0,000376050128	-0,041549249300593472	0,0015502583549649638	0,95822709589147942
1	1	0	1	0	0	2	85381,53	0,100000001	3,76576018	0,00027782925765961408	0,10001655627204586	0,000376638374	-0,034603520616219859	0,0012911038791194474	0,96517282457585293
1	1	0	1	0	0	2	85631,54	0,100000001	3,77139306	0,0002778301094782849	0,10001686292070749	0,000377202901	-0,027657785698345725	0,0010319491706936451	0,97211855949372723
1	1	0	1	0	0	2	85881,54	0,100000001	3,7766633	0,00027783006830389299	0,10001684772447056	0,000377729972	-0,020712041257143187	0,00077279410693965594	0,97906430393492992
1	1	0	1	0	0	2	86131,55	0,100000001	3,78206706	0,00027782912592920989	0,10001650854323853	0,000378269149	-0,013766301958373597	0,0005136392350567543	0,98601004323369958
1	1	0	1	0	0	2	86381,55	0,100000001	3,78710818	0,00027782953433609674	0,10001665587361131	0,000378773897	-0,0068205650361600013	0,00025448445184635197	0,99295578015591322
1	1	0	1	0	0	2	86631,56	0,100000001	3,79174829	0,00027782979340975478	0,10001674899041586	0,000379238336	0,00012516352507745256	-4,6700194047890074E-006	0,99990150871715072
1	1	0	1	0	0	2	86641,14	0,100000001	3,79190111	0,00026610527083981366	0,10001662142829163	0,00037925315	0,00039126879591726624	-1,4598764842164294E-005	1,0001676139879904