File: Experimentelles/Rohdaten/Batteriemessungen/AlteZelle/Studenten_Batterietests/Sonstige/ZView-Export/LiCoO2 vs Li_01_OCV_C01.txt
EC-Lab ASCII FILE
Nb header lines : 48

Open Circuit Voltage

Run on channel : 1 (SN 6985)
Grouped channel(s) : 1
User :
CE vs. WE compliance from -10 V to 10 V
Electrode connection : standard
Ewe ctrl range : min = 0,00 V, max = 5,00 V
Acquisition started on : 01.22.2015 12:12:33
Saved on :
	File : LiCoO2 vs Li_01_OCV_C01.mpr
	Directory : C:\Hupfer\Studenten Batterietests\
	Host : 192.168.0.2
Device : VMP3 (SN 0324)
Address : 192.168.0.1
EC-Lab for windows v10.33 (software)
Internet server v10.33 (firmware)
Command interpretor v10.32 (firmware)
Electrode material : LATP vs Li
Initial state : charged
Electrolyte : DME:Diox 1:2, 1M LiTFSi
Comments : LATP als Elektrode, normaler Seperator und Elektrolyt, Goldschicht teilweise vorhanden, elektrolytschonend, Probe2
Mass of active material : 0,001 mg
 at x = 0,000
Molecular weight of active material (at x = 0) : 0,001 g/mol
Atomic weight of intercalated ion : 0,001 g/mol
Acquisition started at : xo = 0,000
Number of e- transfered per intercalated ion : 1
for DX = 1, DQ = 26,801 mA.h
Battery capacity : 0,000 A.h
Reference electrode : Li+/Li (-3,020 V)
Electrode surface area : 0,001 cm²
Characteristic mass : 0,001 g
Create one data file per loop
tR (h:m:s)          1:00:0,0000
dER/dt (mV/h)       0,0
dER (mV)            0,00
dtR (s)             5,0000
E range min (V)     0,000
E range max (V)     5,000

Number of loops : 1
Loop 0 from point number 0 to 720

mode	error	time/s	Ewe/V
3	1	0,0000	3,12883139
3	0	5,0000	3,12881231
3	0	10,0000	3,12871671
3	0	15,0000	3,12877417
3	0	20,0000	3,12873578
3	0	25,0000	3,12864041
3	0	30,0000	3,12862134
3	0	35,0000	3,12854481
3	0	40,0000	3,12843037
3	0	45,0000	3,12846851
3	0	50,0000	3,12844944
3	0	55,0000	3,12825847
3	0	60,0000	3,12831569
3	0	65,0000	3,128335
3	0	70,0000	3,12818217
3	0	75,0000	3,128335
3	0	80,0000	3,12827754
3	0	85,0000	3,12818217
3	0	90,0000	3,12810564
3	0	95,0000	3,12801027
3	0	100,0000	3,12804842
3	0	105,0000	3,12789559
3	0	110,0000	3,12791491
3	0	115,0000	3,12802935
3	0	120,0000	3,12789559
3	0	125,0000	3,12780023
3	0	130,0000	3,1278193
3	0	135,0000	3,12783837
3	0	140,0000	3,12778115
3	0	145,0000	3,12774301
3	0	150,0000	3,1276474
3	0	155,0000	3,12762833
3	0	160,0000	3,12755203
3	0	165,0000	3,12753296
3	0	170,0000	3,12749481
3	0	175,0000	3,12745643
3	0	180,0000	3,12751389
3	0	185,0000	3,12738013
3	0	190,0000	3,12749481
3	0	195,0000	3,12734199
3	0	200,0000	3,12726545
3	0	205,0000	3,12720823
3	0	210,0000	3,12717009
3	0	215,0000	3,12717009
3	0	220,0000	3,12707472
3	0	225,0000	3,12707472
3	0	230,0000	3,12713194
3	0	235,0000	3,12713194
3	0	240,0000	3,12694097
3	0	245,0000	3,12694097
3	0	250,0000	3,12692189
3	0	255,0000	3,12678814
3	0	260,0000	3,12680721
3	0	265,0000	3,12673092
3	0	270,0000	3,12696004
3	0	275,0000	3,12665462
3	0	280,0000	3,12659717
3	0	285,0000	3,12661624
3	0	290,0000	3,12655902
3	0	295,0000	3,12652087
3	0	300,0000	3,12644458
3	0	305,0000	3,12644458
3	0	310,0000	3,12638712
3	0	315,0000	3,12638712
3	0	320,0000	3,1263299
3	0	325,0000	3,12631083
3	0	330,0000	3,12629175
3	0	335,0000	3,12608171
3	0	340,0000	3,12611985
3	0	345,0000	3,12611985
3	0	350,0000	3,12602448
3	0	355,0000	3,12610078
3	0	360,0000	3,12592888
3	0	365,0000	3,12600541
3	0	370,0000	3,12604356
3	0	375,0000	3,12583351
3	0	380,0000	3,12575698
3	0	385,0000	3,12575698
3	0	390,0000	3,12579536
3	0	395,0000	3,12579536
3	0	400,0000	3,12571883
3	0	405,0000	3,12562346
3	0	410,0000	3,12562346
3	0	415,0000	3,12562346
3	0	420,0000	3,12550879
3	0	425,0000	3,12550879
3	0	430,0000	3,12541342
3	0	435,0000	3,12531781
3	0	440,0000	3,12552786
3	0	445,0000	3,12531781
3	0	450,0000	3,12526059
3	0	455,0000	3,12524152
3	0	460,0000	3,12522244
3	0	465,0000	3,12522244
3	0	470,0000	3,12529874
3	0	475,0000	3,12505054
3	0	480,0000	3,12506962
3	0	485,0000	3,12497425
3	0	490,0000	3,12495518
3	0	495,0000	3,12482142
3	0	500,0000	3,12485957
3	0	505,0000	3,1248405
3	0	510,0000	3,1248405
3	0	515,0000	3,1247642
3	0	520,0000	3,1247642
3	0	525,0000	3,1247642
3	0	530,0000	3,12474513
3	0	535,0000	3,1246686
3	0	540,0000	3,12457323
3	0	545,0000	3,12457323
3	0	550,0000	3,12455416
3	0	555,0000	3,12451601
3	0	560,0000	3,12443948
3	0	565,0000	3,1244967
3	0	570,0000	3,12428665
3	0	575,0000	3,12432504
3	0	580,0000	3,1242485
3	0	585,0000	3,12428665
3	0	590,0000	3,12415314
3	0	595,0000	3,12415314
3	0	600,0000	3,12403846
3	0	605,0000	3,12400031
3	0	610,0000	3,1240766
3	0	615,0000	3,12400031
3	0	620,0000	3,12396216
3	0	625,0000	3,12386656
3	0	630,0000	3,12386656
3	0	635,0000	3,12377119
3	0	640,0000	3,12379026
3	0	645,0000	3,12363744
3	0	650,0000	3,1236949
3	0	655,0000	3,12379026
3	0	660,0000	3,1236949
3	0	665,0000	3,12354207
3	0	670,0000	3,12365651
3	0	675,0000	3,12361836
3	0	680,0000	3,12348485
3	0	685,0000	3,12350392
3	0	690,0000	3,12342739
3	0	695,0000	3,1234467
3	0	700,0000	3,12337017
3	0	705,0000	3,1232748
3	0	710,0000	3,12329388
3	0	715,0000	3,12325573
3	0	720,0000	3,1231792
3	0	725,0000	3,1231792
3	0	730,0000	3,1231029
3	0	735,0000	3,1230073
3	0	740,0000	3,12312198
3	0	745,0000	3,1230073
3	0	750,0000	3,12289286
3	0	755,0000	3,12295008
3	0	760,0000	3,12298822
3	0	765,0000	3,12287378
3	0	770,0000	3,12287378
3	0	775,0000	3,12277818
3	0	780,0000	3,12274003
3	0	785,0000	3,12272096
3	0	790,0000	3,12264466
3	0	795,0000	3,1225872
3	0	800,0000	3,12262559
3	0	805,0000	3,12254906
3	0	810,0000	3,12249184
3	0	815,0000	3,12251091
3	0	820,0000	3,12249184
3	0	825,0000	3,12237716
3	0	830,0000	3,12249184
3	0	835,0000	3,12230086
3	0	840,0000	3,1222055
3	0	845,0000	3,12212896
3	0	850,0000	3,12228179
3	0	855,0000	3,12207174
3	0	860,0000	3,12207174
3	0	865,0000	3,12207174
3	0	870,0000	3,1220336
3	0	875,0000	3,1219573
3	0	880,0000	3,12193799
3	0	885,0000	3,12199545
3	0	890,0000	3,12189984
3	0	895,0000	3,1217854
3	0	900,0000	3,12188077
3	0	905,0000	3,12180448
3	0	910,0000	3,12170887
3	0	915,0000	3,12176633
3	0	920,0000	3,12155628
3	0	925,0000	3,1216135
3	0	930,0000	3,12153721
3	0	935,0000	3,12146068
3	0	940,0000	3,12149882
3	0	945,0000	3,12134624
3	0	950,0000	3,12140346
3	0	955,0000	3,12147975
3	0	960,0000	3,12130785
3	0	965,0000	3,12134624
3	0	970,0000	3,12130785
3	0	975,0000	3,12132716
3	0	980,0000	3,1210978
3	0	985,0000	3,12107873
3	0	990,0000	3,12119341
3	0	995,0000	3,12105966
3	0	1000,0000	3,12096429
3	0	1005,0000	3,12096429
3	0	1010,0000	3,12094522
3	0	1015,0000	3,1210978
3	0	1020,0000	3,12092614
3	0	1025,0000	3,12083054
3	0	1030,0000	3,12083054
3	0	1035,0000	3,12073517
3	0	1040,0000	3,12079239
3	0	1045,0000	3,12065864
3	0	1050,0000	3,12063956
3	0	1055,0000	3,12062049
3	0	1060,0000	3,12050605
3	0	1065,0000	3,12062049
3	0	1070,0000	3,12039137
3	0	1075,0000	3,1203723
3	0	1080,0000	3,12056327
3	0	1085,0000	3,12035322
3	0	1090,0000	3,120296
3	0	1095,0000	3,12035322
3	0	1100,0000	3,120296
3	0	1105,0000	3,1202004
3	0	1110,0000	3,1201241
3	0	1115,0000	3,12008595
3	0	1120,0000	3,12018132
3	0	1125,0000	3,12000942
3	0	1130,0000	3,12004781
3	0	1135,0000	3,12000942
3	0	1140,0000	3,11987591
3	0	1145,0000	3,11985683
3	0	1150,0000	3,11999035
3	0	1155,0000	3,12000942
3	0	1160,0000	3,1197803
3	0	1165,0000	3,11983776
3	0	1170,0000	3,11974216
3	0	1175,0000	3,1197803
3	0	1180,0000	3,11970401
3	0	1185,0000	3,11955118
3	0	1190,0000	3,11957026
3	0	1195,0000	3,11955118
3	0	1200,0000	3,11953211
3	0	1205,0000	3,11939836
3	0	1210,0000	3,11947489
3	0	1215,0000	3,11941767
3	0	1220,0000	3,11936021
3	0	1225,0000	3,11936021
3	0	1230,0000	3,11922669
3	0	1235,0000	3,11915016
3	0	1240,0000	3,11926484
3	0	1245,0000	3,11922669
3	0	1250,0000	3,11905479
3	0	1255,0000	3,11916924
3	0	1260,0000	3,11901665
3	0	1265,0000	3,11897826
3	0	1270,0000	3,11890197
3	0	1275,0000	3,11892104
3	0	1280,0000	3,11888289
3	0	1285,0000	3,11878753
3	0	1290,0000	3,11876822
3	0	1295,0000	3,1188066
3	0	1300,0000	3,11873007
3	0	1305,0000	3,11874914
3	0	1310,0000	3,11859655
3	0	1315,0000	3,11871099
3	0	1320,0000	3,11865377
3	0	1325,0000	3,11848187
3	0	1330,0000	3,11857748
3	0	1335,0000	3,11834836
3	0	1340,0000	3,11836743
3	0	1345,0000	3,11844373
3	0	1350,0000	3,11842465
3	0	1355,0000	3,1182909
3	0	1360,0000	3,11832905
3	0	1365,0000	3,11827183
3	0	1370,0000	3,11815739
3	0	1375,0000	3,11827183
3	0	1380,0000	3,11817646
3	0	1385,0000	3,11813831
3	0	1390,0000	3,11798549
3	0	1395,0000	3,11796641
3	0	1400,0000	3,11796641
3	0	1405,0000	3,11792827
3	0	1410,0000	3,11787081
3	0	1415,0000	3,11787081
3	0	1420,0000	3,11781359
3	0	1425,0000	3,11773729
3	0	1430,0000	3,11779451
3	0	1435,0000	3,11775637
3	0	1440,0000	3,11769891
3	0	1445,0000	3,11764169
3	0	1450,0000	3,11766076
3	0	1455,0000	3,11750817
3	0	1460,0000	3,11766076
3	0	1465,0000	3,11745071
3	0	1470,0000	3,11746979
3	0	1475,0000	3,11741257
3	0	1480,0000	3,11750817
3	0	1485,0000	3,11735535
3	0	1490,0000	3,11733627
3	0	1495,0000	3,11727881
3	0	1500,0000	3,11739349
3	0	1505,0000	3,11725974
3	0	1510,0000	3,11722159
3	0	1515,0000	3,11701155
3	0	1520,0000	3,11701155
3	0	1525,0000	3,11712623
3	0	1530,0000	3,11701155
3	0	1535,0000	3,11701155
3	0	1540,0000	3,11699247
3	0	1545,0000	3,11701155
3	0	1550,0000	3,11687803
3	0	1555,0000	3,11676335
3	0	1560,0000	3,11683965
3	0	1565,0000	3,1168015
3	0	1570,0000	3,11672521
3	0	1575,0000	3,11666799
3	0	1580,0000	3,11670613
3	0	1585,0000	3,11676335
3	0	1590,0000	3,11659145
3	0	1595,0000	3,11647701
3	0	1600,0000	3,11659145
3	0	1605,0000	3,11649609
3	0	1610,0000	3,11643887
3	0	1615,0000	3,11640048
3	0	1620,0000	3,11636233
3	0	1625,0000	3,11643887
3	0	1630,0000	3,11619043
3	0	1635,0000	3,11624789
3	0	1640,0000	3,11613321
3	0	1645,0000	3,11632419
3	0	1650,0000	3,11615229
3	0	1655,0000	3,11605692
3	0	1660,0000	3,11609507
3	0	1665,0000	3,11605692
3	0	1670,0000	3,11596131
3	0	1675,0000	3,11592317
3	0	1680,0000	3,11594224
3	0	1685,0000	3,11592317
3	0	1690,0000	3,11598039
3	0	1695,0000	3,11575127
3	0	1700,0000	3,1158278
3	0	1705,0000	3,11567497
3	0	1710,0000	3,11567497
3	0	1715,0000	3,11563683
3	0	1720,0000	3,11561775
3	0	1725,0000	3,11556029
3	0	1730,0000	3,11550307
3	0	1735,0000	3,11561775
3	0	1740,0000	3,11544585
3	0	1745,0000	3,11538863
3	0	1750,0000	3,115484
3	0	1755,0000	3,115484
3	0	1760,0000	3,1153121
3	0	1765,0000	3,1153121
3	0	1770,0000	3,11525488
3	0	1775,0000	3,11517859
3	0	1780,0000	3,11517859
3	0	1785,0000	3,11508298
3	0	1790,0000	3,11502576
3	0	1795,0000	3,11523581
3	0	1800,0000	3,11504483
3	0	1805,0000	3,11504483
3	0	1810,0000	3,11500669
3	0	1815,0000	3,11493015
3	0	1820,0000	3,11493015
3	0	1825,0000	3,11489201
3	0	1830,0000	3,11485386
3	0	1835,0000	3,11481571
3	0	1840,0000	3,11473942
3	0	1845,0000	3,11472011
3	0	1850,0000	3,11473942
3	0	1855,0000	3,11466289
3	0	1860,0000	3,11456752
3	0	1865,0000	3,11475849
3	0	1870,0000	3,11447191
3	0	1875,0000	3,11452937
3	0	1880,0000	3,11445284
3	0	1885,0000	3,11451006
3	0	1890,0000	3,11443377
3	0	1895,0000	3,11431932
3	0	1900,0000	3,11428094
3	0	1905,0000	3,11426187
3	0	1910,0000	3,11431932
3	0	1915,0000	3,1141665
3	0	1920,0000	3,11422372
3	0	1925,0000	3,11426187
3	0	1930,0000	3,11414742
3	0	1935,0000	3,11408997
3	0	1940,0000	3,1139946
3	0	1945,0000	3,11408997
3	0	1950,0000	3,11387992
3	0	1955,0000	3,11393738
3	0	1960,0000	3,11397552
3	0	1965,0000	3,11386085
3	0	1970,0000	3,1138227
3	0	1975,0000	3,1138227
3	0	1979,9999	3,11378455
3	0	1984,9999	3,11378455
3	0	1989,9999	3,11351728
3	0	1994,9999	3,1136508
3	0	1999,9999	3,11359358
3	0	2004,9999	3,1136508
3	0	2009,9999	3,11359358
3	0	2014,9999	3,11355543
3	0	2019,9999	3,11353636
3	0	2024,9999	3,11347914
3	0	2029,9999	3,11346006
3	0	2034,9999	3,11332631
3	0	2039,9999	3,11326909
3	0	2044,9999	3,11338353
3	0	2049,9999	3,11323071
3	0	2054,9999	3,11325002
3	0	2059,9999	3,11325002
3	0	2064,9999	3,11326909
3	0	2069,9999	3,11315441
3	0	2074,9999	3,11311626
3	0	2079,9999	3,11300159
3	0	2084,9999	3,11298251
3	0	2089,9999	3,11300159
3	0	2094,9999	3,11292529
3	0	2099,9999	3,11292529
3	0	2104,9999	3,11290622
3	0	2109,9999	3,11277246
3	0	2114,9999	3,11282992
3	0	2119,9999	3,11281061
3	0	2124,9999	3,11273432
3	0	2129,9999	3,1126771
3	0	2134,9999	3,11269617
3	0	2139,9999	3,1126771
3	0	2144,9999	3,11263895
3	0	2149,9999	3,11263895
3	0	2154,9999	3,11265802
3	0	2159,9999	3,11246705
3	0	2164,9999	3,11258149
3	0	2169,9999	3,11240983
3	0	2174,9999	3,11239052
3	0	2179,9999	3,11237144
3	0	2184,9999	3,11240983
3	0	2189,9999	3,11237144
3	0	2194,9999	3,11221886
3	0	2199,9999	3,112257
3	0	2204,9999	3,11206603
3	0	2209,9999	3,11223793
3	0	2214,9999	3,11210418
3	0	2219,9999	3,11212325
3	0	2224,9999	3,11204696
3	0	2229,9999	3,11197066
3	0	2234,9999	3,11200881
3	0	2239,9999	3,11197066
3	0	2244,9999	3,11198974
3	0	2249,9999	3,11195135
3	0	2254,9999	3,11176062
3	0	2259,9999	3,11179876
3	0	2264,9999	3,11168408
3	0	2269,9999	3,1117413
3	0	2274,9999	3,11156964
3	0	2279,9999	3,11156964
3	0	2284,9999	3,11166501
3	0	2289,9999	3,11158872
3	0	2294,9999	3,11143589
3	0	2299,9999	3,11145496
3	0	2304,9999	3,11160779
3	0	2309,9999	3,1113596
3	0	2314,9999	3,11147404
3	0	2319,9999	3,11126399
3	0	2324,9999	3,11134052
3	0	2329,9999	3,1113596
3	0	2334,9999	3,11134052
3	0	2339,9999	3,11120677
3	0	2344,9999	3,11116862
3	0	2349,9999	3,11116862
3	0	2354,9999	3,11114955
3	0	2359,9999	3,11107302
3	0	2364,9999	3,11122584
3	0	2369,9999	3,11107302
3	0	2374,9999	3,11111116
3	0	2379,9999	3,11095858
3	0	2384,9999	3,11107302
3	0	2389,9999	3,1108439
3	0	2394,9999	3,11078668
3	0	2399,9999	3,11080575
3	0	2404,9999	3,11063385
3	0	2409,9999	3,1108439
3	0	2414,9999	3,11071038
3	0	2419,9999	3,11063385
3	0	2424,9999	3,11071038
3	0	2429,9999	3,11061478
3	0	2434,9999	3,110672
3	0	2439,9999	3,11051941
3	0	2444,9999	3,11055756
3	0	2449,9999	3,11044288
3	0	2454,9999	3,11051941
3	0	2459,9999	3,1104238
3	0	2464,9999	3,11048126
3	0	2469,9999	3,11027122
3	0	2474,9999	3,11023283
3	0	2479,9999	3,11021376
3	0	2484,9999	3,11027122
3	0	2489,9999	3,11023283
3	0	2494,9999	3,11029029
3	0	2499,9999	3,11021376
3	0	2504,9999	3,11008024
3	0	2509,9999	3,11013746
3	0	2514,9999	3,11000371
3	0	2519,9999	3,10994649
3	0	2524,9999	3,10998464
3	0	2529,9999	3,11000371
3	0	2534,9999	3,10992742
3	0	2539,9999	3,10992742
3	0	2544,9999	3,10985112
3	0	2549,9999	3,10983181
3	0	2554,9999	3,10973644
3	0	2559,9999	3,10967922
3	0	2564,9999	3,10979366
3	0	2569,9999	3,10958362
3	0	2574,9999	3,10964108
3	0	2579,9999	3,10958362
3	0	2584,9999	3,1095264
3	0	2589,9999	3,10941172
3	0	2594,9999	3,10966015
3	0	2599,9999	3,10933542
3	0	2604,9999	3,1094501
3	0	2609,9999	3,10941172
3	0	2614,9999	3,10931635
3	0	2619,9999	3,10924006
3	0	2624,9999	3,10933542
3	0	2629,9999	3,10931635
3	0	2634,9999	3,10922098
3	0	2639,9999	3,1091826
3	0	2644,9999	3,1091063
3	0	2649,9999	3,10912538
3	0	2654,9999	3,10901093
3	0	2659,9999	3,10903001
3	0	2664,9999	3,10903001
3	0	2669,9999	3,10899162
3	0	2674,9999	3,10899162
3	0	2679,9999	3,10891533
3	0	2684,9999	3,10885811
3	0	2689,9999	3,10878181
3	0	2694,9999	3,1087625
3	0	2699,9999	3,10885811
3	0	2704,9999	3,10878181
3	0	2709,9999	3,10880089
3	0	2714,9999	3,10866714
3	0	2719,9999	3,10872436
3	0	2724,9999	3,10862899
3	0	2729,9999	3,10860991
3	0	2734,9999	3,10855246
3	0	2739,9999	3,10839987
3	0	2744,9999	3,10838079
3	0	2749,9999	3,10843801
3	0	2754,9999	3,10839987
3	0	2759,9999	3,10838079
3	0	2764,9999	3,10830426
3	0	2769,9999	3,10843801
3	0	2774,9999	3,10826612
3	0	2779,9999	3,10824704
3	0	2784,9999	3,10830426
3	0	2789,9999	3,10811329
3	0	2794,9999	3,10818982
3	0	2799,9999	3,10809422
3	0	2804,9999	3,10803699
3	0	2809,9999	3,10809422
3	0	2814,9999	3,10805607
3	0	2819,9999	3,10788417
3	0	2824,9999	3,10788417
3	0	2829,9999	3,10788417
3	0	2834,9999	3,10790324
3	0	2839,9999	3,1076932
3	0	2844,9999	3,10794163
3	0	2849,9999	3,10759783
3	0	2854,9999	3,10771227
3	0	2859,9999	3,10763597
3	0	2864,9999	3,10765505
3	0	2869,9999	3,10757875
3	0	2874,9999	3,10755968
3	0	2879,9999	3,10750222
3	0	2884,9999	3,1076169
3	0	2889,9999	3,10738778
3	0	2894,9999	3,10738778
3	0	2899,9999	3,10742593
3	0	2904,9999	3,10731149
3	0	2909,9999	3,10740685
3	0	2914,9999	3,10729241
3	0	2919,9999	3,10729241
3	0	2924,9999	3,10723495
3	0	2929,9999	3,10717773
3	0	2934,9999	3,10723495
3	0	2939,9999	3,10723495
3	0	2944,9999	3,10713959
3	0	2949,9999	3,10698676
3	0	2954,9999	3,10706306
3	0	2959,9999	3,10685301
3	0	2964,9999	3,10706306
3	0	2969,9999	3,10689139
3	0	2974,9999	3,10700583
3	0	2979,9999	3,10692954
3	0	2984,9999	3,10687232
3	0	2989,9999	3,10675764
3	0	2994,9999	3,10692954
3	0	2999,9999	3,10675764
3	0	3004,9999	3,10662389
3	0	3009,9999	3,10666227
3	0	3014,9999	3,10656667
3	0	3019,9999	3,10650945
3	0	3024,9999	3,10662389
3	0	3029,9999	3,10654759
3	0	3034,9999	3,10643291
3	0	3039,9999	3,10652852
3	0	3044,9999	3,10645223
3	0	3049,9999	3,1064713
3	0	3054,9999	3,10635662
3	0	3059,9999	3,10622287
3	0	3064,9999	3,10641384
3	0	3069,9999	3,10620379
3	0	3074,9999	3,10631847
3	0	3079,9999	3,10620379
3	0	3084,9999	3,10614657
3	0	3089,9999	3,10620379
3	0	3094,9999	3,10610843
3	0	3099,9999	3,10597467
3	0	3104,9999	3,10605121
3	0	3109,9999	3,10603213
3	0	3114,9999	3,10605121
3	0	3119,9999	3,10584116
3	0	3124,9999	3,10593653
3	0	3129,9999	3,10589838
3	0	3134,9999	3,10587931
3	0	3139,9999	3,10591745
3	0	3144,9999	3,10582209
3	0	3149,9999	3,10584116
3	0	3154,9999	3,10574555
3	0	3159,9999	3,10574555
3	0	3164,9999	3,10559297
3	0	3169,9999	3,10555458
3	0	3174,9999	3,10555458
3	0	3179,9999	3,10555458
3	0	3184,9999	3,10561204
3	0	3189,9999	3,10544014
3	0	3194,9999	3,10544014
3	0	3199,9999	3,10540199
3	0	3204,9999	3,10534453
3	0	3209,9999	3,10540199
3	0	3214,9999	3,10538292
3	0	3219,9999	3,10534453
3	0	3224,9999	3,10523009
3	0	3229,9999	3,10536361
3	0	3234,9999	3,10515356
3	0	3239,9999	3,10524917
3	0	3244,9999	3,10515356
3	0	3249,9999	3,10505819
3	0	3254,9999	3,10515356
3	0	3259,9999	3,10517287
3	0	3264,9999	3,10509634
3	0	3269,9999	3,10494351
3	0	3274,9999	3,10490537
3	0	3279,9999	3,10482907
3	0	3284,9999	3,10484815
3	0	3289,9999	3,10475278
3	0	3294,9999	3,10481
3	0	3299,9999	3,10479093
3	0	3304,9999	3,10479093
3	0	3309,9999	3,1046381
3	0	3314,9999	3,10479093
3	0	3319,9999	3,1046381
3	0	3324,9999	3,10459995
3	0	3329,9999	3,10465717
3	0	3334,9999	3,10465717
3	0	3339,9999	3,10444713
3	0	3344,9999	3,10454273
3	0	3349,9999	3,10438991
3	0	3354,9999	3,10440898
3	0	3359,9999	3,10431337
3	0	3364,9999	3,10437083
3	0	3369,9999	3,10427523
3	0	3374,9999	3,10425615
3	0	3379,9999	3,1042943
3	0	3384,9999	3,10431337
3	0	3389,9999	3,10417986
3	0	3394,9999	3,10419893
3	0	3399,9999	3,1042943
3	0	3404,9999	3,10414171
3	0	3409,9999	3,10410333
3	0	3414,9999	3,10396981
3	0	3419,9999	3,10400796
3	0	3424,9999	3,10398889
3	0	3429,9999	3,10385513
3	0	3434,9999	3,10393167
3	0	3439,9999	3,10377884
3	0	3444,9999	3,10385513
3	0	3449,9999	3,10379791
3	0	3454,9999	3,10387421
3	0	3459,9999	3,10379791
3	0	3464,9999	3,10368347
3	0	3469,9999	3,10366416
3	0	3474,9999	3,10377884
3	0	3479,9999	3,10360694
3	0	3484,9999	3,1034925
3	0	3489,9999	3,10360694
3	0	3494,9999	3,10356879
3	0	3499,9999	3,1034925
3	0	3504,9999	3,10351157
3	0	3509,9999	3,1034925
3	0	3514,9999	3,10347342
3	0	3519,9999	3,10345411
3	0	3524,9999	3,10333967
3	0	3529,9999	3,1033206
3	0	3534,9999	3,10326338
3	0	3539,9999	3,10333967
3	0	3544,9999	3,10333967
3	0	3549,9999	3,10318685
3	0	3554,9999	3,10326338
3	0	3559,9999	3,10320592
3	0	3564,9999	3,10309148
3	0	3569,9999	3,1030724
3	0	3574,9999	3,1029768
3	0	3579,9999	3,1030724
3	0	3584,9999	3,10316777
3	0	3589,9999	3,10295773
3	0	3594,9999	3,10293865
3	0	3599,9999	3,10291958