File: Experimentelles/Rohdaten/Batteriemessungen/AlteZelle/Studenten_Batterietests/Sonstige/ZView-Export/LiCoO2 vs Li_02_CV_C01_loop8.txt
EC-Lab ASCII FILE
Nb header lines : 3
mode	ox/red	error	control changes	counter inc.	time/s	control/V	Ewe/V	<I>/mA	cycle number	(Q-Qo)/C	P/W
2	0	0	1	0	9120,94	3,10506654	3,10552502	-0,86595839262008666	9	0	0,0026892554
2	0	0	0	0	9122,07	3,09376502	3,0938859	-0,73436230840161485	9	-0,000858926389	0,00227203313
2	0	0	0	0	9123,22	3,08226371	3,08255816	-0,72549308432887117	9	-0,00169848837	0,00223637465
2	0	0	1	0	9124,37	3,07076287	3,07082939	-0,7203374109230935	9	-0,00253065652	0,00221203337
2	0	0	1	0	9125,52	3,05926156	3,05940008	-0,71495773167323763	9	-0,00335651333	0,00218734168
2	0	0	0	0	9126,67	3,04776073	3,04782319	-0,71016405693565683	9	-0,00417655706	0,00216445443
2	0	0	1	0	9127,82	3,03625965	3,03639531	-0,70541266875962445	9	-0,00499103032	0,00214191177
2	0	0	1	0	9128,97	3,02475858	3,02480674	-0,70052424942453939	9	-0,00579987653	0,00211895048
2	0	0	0	0	9130,12	3,0132575	3,01340914	-0,69596008940910362	9	-0,00660356553	0,00209721248
2	0	0	0	0	9131,27	3,00175643	3,00197077	-0,69141519457722906	9	-0,00740178255	0,00207560812
2	0	0	1	0	9132,42	2,99025536	2,9903326	-0,68713307147845632	9	-0,00819519535	0,00205475651
2	0	0	1	0	9133,57	2,97875428	2,97881436	-0,68307252709443661	9	-0,00898368098	0,00203474634
2	0	0	0	0	9134,72	2,96725321	2,96762705	-0,67892386189972595	9	-0,00976763759	0,00201479276
2	0	0	0	0	9135,87	2,95575213	2,95609903	-0,67552541568875405	9	-0,0105469953	0,00199691998
2	0	0	1	0	9137,02	2,94425106	2,94472098	-0,67167721300696218	9	-0,0113220913	0,00197790191
2	0	0	1	0	9138,17	2,93274999	2,93312263	-0,66824395970131085	9	-0,0120930094	0,00196004147
2	0	0	0	0	9139,32	2,92124915	2,92137361	-0,66508010821417152	9	-0,0128602851	0,00194294751
2	0	0	0	0	9140,47	2,90974712	2,9100647	-0,66155810688413824	9	-0,013623789	0,00192517694
2	0	0	1	0	9141,62	2,89824677	2,89839745	-0,65883324233194253	9	-0,014383561	0,00190956064
2	0	0	0	0	9142,77	2,88674498	2,88697958	-0,65585834907936653	9	-0,0151402391	0,00189344969
2	0	0	0	0	9143,92	2,87524462	2,87542129	-0,65300407105435981	9	-0,0158936027	0,00187766179
2	0	0	1	0	9145,07	2,86374331	2,86391306	-0,65055226099987878	9	-0,0166441351	0,00186312513
2	0	0	1	0	9146,22	2,85224247	2,85240483	-0,64820800287028211	9	-0,017391691	0,00184895168
2	0	0	0	0	9147,37	2,84074116	2,84091687	-0,646257641880464	9	-0,0181367341	0,00183596427
2	0	0	0	0	9148,52	2,82924032	2,82943892	-0,64403899293392896	9	-0,0188790578	0,00182226894
2	0	0	1	0	9149,68	2,81773901	2,81793046	-0,64192585383231206	9	-0,0196191054	0,00180890237
2	0	0	1	0	9150,83	2,80623817	2,80630207	-0,6398707698099319	9	-0,0203567408	0,00179567072
2	0	0	0	0	9151,98	2,79473686	2,79502463	-0,63816065325712141	9	-0,0210922677	0,0017836747
2	0	0	0	0	9153,13	2,78323603	2,78359652	-0,63627292603875315	9	-0,0218254961	0,00177112711
2	0	0	1	0	9154,28	2,77173495	2,77211833	-0,63443505205214029	9	-0,0225568116	0,00175872899
2	0	0	1	0	9155,43	2,76023388	2,76038957	-0,63267549189428429	9	-0,023286121	0,00174643088
2	0	0	0	0	9156,58	2,74873281	2,7490921	-0,6311338930390793	9	-0,0240137391	0,00173504523
2	0	0	1	0	9157,73	2,73723078	2,73730302	-0,63009723289939674	9	-0,0247397572	0,00172476703
2	0	0	1	0	9158,88	2,72573066	2,72600555	-0,62884903963034406	9	-0,0254640803	0,001714246
2	0	0	0	0	9160,03	2,71422958	2,71442723	-0,62738199702774541	9	-0,0261870101	0,00170298282
2	0	0	0	0	9161,18	2,70272851	2,70289922	-0,62618978942433933	9	-0,0269083735	0,00169252791
2	0	0	1	0	9162,33	2,69122744	2,69123054	-0,62505040830001229	9	-0,0276284553	0,00168215472
2	0	0	1	0	9163,48	2,67972636	2,6797924	-0,62399553895617459	9	-0,0283472687	0,00167217851
2	0	0	0	0	9164,63	2,66822529	2,66842484	-0,62305892833197965	9	-0,029064985	0,00166258588
2	0	0	0	0	9165,78	2,65672421	2,65694666	-0,62207816261798323	9	-0,0297814328	0,00165282853
2	0	0	1	0	9166,93	2,64522314	2,64535809	-0,62075317821775578	9	-0,0304968413	0,00164211448
2	0	0	1	0	9168,08	2,63372231	2,63398051	-0,61977724513659994	9	-0,031211013	0,00163248123
2	0	0	0	0	9169,23	2,62222099	2,6226728	-0,61920783839499366	9	-0,0319242626	0,00162397954
2	0	0	0	0	9170,38	2,61071992	2,61090422	-0,61857040754209254	9	-0,0326363519	0,00161502813
2	0	0	1	0	9171,53	2,59921885	2,59942603	-0,61733769997954189	9	-0,0333474278	0,00160472374
2	0	0	0	0	9172,68	2,58771658	2,58810782	-0,61652975186527654	9	-0,0340575092	0,00159564544
2	0	0	0	0	9173,83	2,57621646	2,57647967	-0,61533348510662656	9	-0,0347664244	0,00158539426
2	0	0	1	0	9174,98	2,56471562	2,56495166	-0,61443279854332288	9	-0,0354743674	0,00157599046
2	0	0	1	0	9176,13	2,55321431	2,55333328	-0,61354715594401114	9	-0,0361810625	0,00156659039
2	0	0	0	0	9177,28	2,54171348	2,54184508	-0,61238110251724762	9	-0,036886625	0,00155657786
2	0	0	0	0	9178,43	2,53021216	2,53054738	-0,6111026021341495	9	-0,0375907533	0,00154642412
2	0	0	1	0	9179,58	2,51871133	2,51875854	-0,6096341828815657	9	-0,0382935889	0,00153552135
2	0	0	1	0	9180,73	2,50721025	2,50742078	-0,60856133063013427	9	-0,0389948413	0,0015259193
2	0	0	0	0	9181,88	2,49570942	2,4961834	-0,60683701513335104	9	-0,0396943279	0,00151477649
2	0	0	0	0	9183,03	2,48420811	2,48438454	-0,60552169801667328	9	-0,0403918177	0,00150434871
2	0	0	1	0	9184,18	2,47270703	2,47292638	-0,60338344161088384	9	-0,0410875231	0,00149212289
2	0	0	1	0	9185,33	2,46120596	2,46158862	-0,60138005623593933	9	-0,0417808518	0,00148035027
2	0	0	0	0	9186,48	2,44970489	2,45021081	-0,59916704986244352	9	-0,042471949	0,00146808557
2	0	0	0	0	9187,63	2,43820333	2,43845224	-0,59654133528632064	9	-0,0431602933	0,0014546375
2	0	0	1	0	9188,78	2,42670274	2,42690372	-0,59405978024005888	9	-0,0438456908	0,00144172588
2	0	0	0	0	9189,93	2,41520143	2,41530538	-0,5908623385739817	9	-0,0445278734	0,00142711296
2	0	0	0	0	9191,08	2,40370059	2,4039073	-0,58762605534866458	9	-0,0452065207	0,00141259853
2	0	0	1	0	9192,23	2,39219928	2,392349	-0,58441035589203328	9	-0,0458812937	0,00139811356
2	0	0	1	0	9193,38	2,38069844	2,38084102	-0,58052986689532864	9	-0,046551697	0,00138214929
2	0	0	0	0	9194,53	2,36919713	2,36940289	-0,57655257281536794	9	-0,0472177453	0,00136608537
2	0	0	0	0	9195,68	2,35769629	2,35784459	-0,57223812971885126	9	-0,0478786826	0,00134924857
2	0	0	1	0	9196,83	2,34619522	2,34634662	-0,56723888264968992	9	-0,0485344715	0,00133093901
2	0	0	1	0	9197,98	2,33469415	2,33480835	-0,56229801243171008	9	-0,0491846241	0,00131285808
2	0	0	0	0	9199,13	2,32319307	2,3235209	-0,55690669997905709	9	-0,0498290509	0,00129398436
2	0	0	0	0	9200,28	2,311692	2,31197238	-0,55155949977536966	9	-0,0504671633	0,00127519039
2	0	0	1	0	9201,43	2,30019093	2,30053449	-0,54602180514484646	9	-0,051099021	0,00125614204
2	0	0	1	0	9202,58	2,2886889	2,28921604	-0,53970218192013683	9	-0,0517240949	0,00123549486
2	0	0	0	0	9203,73	2,27718878	2,27764845	-0,53402827850853466	9	-0,0523422807	0,0012163287
2	0	0	1	0	9204,88	2,26568699	2,26596856	-0,52773374023330624	9	-0,0529534779	0,00119582808
2	0	0	1	0	9206,03	2,25418663	2,25433135	-0,52164333298181466	9	-0,0535574667	0,00117595692
2	0	0	0	0	9207,18	2,24268532	2,24299359	-0,51537965176006214	9	-0,0541543774	0,0011559932
2	0	0	0	0	9208,33	2,23118448	2,23138523	-0,50918035705884358	9	-0,0547439158	0,00113617757
2	0	0	1	0	9209,48	2,21968341	2,21980715	-0,50285488972440448	9	-0,0553264096	0,00111624086
2	0	0	1	0	9210,63	2,20818257	2,20830894	-0,49667141089836806	9	-0,0559017025	0,00109680393
2	0	0	0	0	9211,78	2,19668126	2,19697094	-0,49056309663380282	9	-0,056470193	0,00107775291
2	0	0	0	0	9212,93	2,18518019	2,18546295	-0,48479618427033254	9	-0,0570317172	0,00105950411
2	0	0	1	0	9214,08	2,17367911	2,17410493	-0,47900112532079309	9	-0,0575867891	0,00104139873
2	0	0	1	0	9215,23	2,16217804	2,16218591	-0,47387699798370432	9	-0,058135353	0,00102461013
2	0	0	0	0	9216,38	2,15067673	2,15089822	-0,46851242892444134	9	-0,0586777851	0,00100772257
2	0	0	0	0	9217,53	2,13917589	2,13940048	-0,46341911765436358	9	-0,0592142045	0,000991439098
2	0	0	1	0	9218,68	2,12767458	2,12809253	-0,45875148537258157	9	-0,0597450845	0,000976265583
2	0	0	0	0	9219,83	2,11617255	2,11674309	-0,45421997677602822	9	-0,0602706671	0,000961466983
2	0	0	0	0	9220,98	2,10467243	2,10488582	-0,4499879037030041	9	-0,060791105	0,000947173161
2	0	0	1	0	9222,13	2,0931716	2,09343767	-0,44597293917710701	9	-0,061307013	0,000933616539
2	0	0	1	0	9223,28	2,08167052	2,08196974	-0,442063928116112	9	-0,0618182793	0,000920363702
2	0	0	0	0	9224,43	2,07016945	2,07046151	-0,43864912524198598	9	-0,0623256825	0,000908206159
2	0	0	0	0	9225,58	2,05866838	2,05890346	-0,43557384004816544	9	-0,0628292933	0,0008968045
2	0	0	1	0	9226,73	2,0471673	2,04739499	-0,43308868150537274	9	-0,0633294806	0,000886703609
2	0	0	1	0	9227,88	2,03566623	2,03582692	-0,43030642888819283	9	-0,0638264343	0,000876029429
2	0	0	0	0	9229,03	2,02416515	2,02435851	-0,42802127109219693	9	-0,0643206388	0,00086646853
2	0	0	0	0	9230,18	2,01266408	2,01279044	-0,42568642025192781	9	-0,0648122132	0,000856817584
2	0	0	1	0	9231,33	2,00116277	2,00155282	-0,42413495092963418	9	-0,0653015226	0,000848928525
2	0	0	1	0	9232,48	1,98966205	1,98970389	-0,42251130923007942	9	-0,0657887682	0,000840672408
2	0	0	0	0	9233,63	1,97816098	1,97838616	-0,42080190218985082	9	-0,0662743002	0,000832508667
2	0	0	1	0	9234,78	1,9666599	1,96691823	-0,4196835379737136	9	-0,0667584911	0,000825483177
2	0	0	1	0	9235,93	1,95515871	1,95568073	-0,41844651289284198	9	-0,0672412962	0,000818347791
2	0	0	0	0	9237,08	1,94365764	1,94385171	-0,41797871794551699	9	-0,0677233189	0,000812488666
2	0	0	0	0	9238,23	1,93215656	1,93233359	-0,41786067917322176	9	-0,0682044849	0,000807446253
2	0	0	1	0	9239,38	1,92065549	1,92093563	-0,41724993474781427	9	-0,068685241	0,000801510294
2	0	0	1	0	9240,53	1,90915442	1,90934741	-0,41696816263720435	9	-0,0691655502	0,000796137087
2	0	0	0	0	9241,68	1,89765334	1,89808977	-0,41682629768426163	9	-0,0696457401	0,000791173719
2	0	0	0	0	9242,83	1,88615227	1,88630068	-0,41678911137084198	9	-0,070125781	0,000786189572
2	0	0	1	0	9243,98	1,87465119	1,87484276	-0,4171878130485607	9	-0,0706059486	0,000782161544
2	0	0	1	0	9245,13	1,86315	1,86333466	-0,41737116345514912	9	-0,0710863993	0,000777702138
2	0	0	0	0	9246,28	1,85164893	1,85197699	-0,41770382551476358	9	-0,0715673342	0,000773577893
2	0	0	0	0	9247,43	1,84014809	1,84031832	-0,41812015759448326	9	-0,0720488727	0,000769474194
2	0	0	1	0	9248,58	1,82864702	1,82877004	-0,4191470965743065	9	-0,0725312456	0,000766523648
2	0	0	1	0	9249,73	1,81714559	1,81752288	-0,42027560634547891	9	-0,0730145276	0,000763860531
2	0	0	0	0	9250,88	1,80564475	1,80592418	-0,42126421428595859	9	-0,0734989196	0,000760771218
2	0	0	1	0	9252,03	1,79414368	1,79434586	-0,42247623034442349	9	-0,0739846379	0,000758068461
2	0	0	1	0	9253,18	1,7826426	1,78286779	-0,42348607722670016	9	-0,0744717643	0,000755019661
2	0	0	0	0	9254,33	1,77114153	1,77143991	-0,42502298066392627	9	-0,0749605373	0,000752902648
2	0	0	0	0	9255,48	1,75964046	1,75999177	-0,42676190302396755	9	-0,0754510611	0,000751097454
2	0	0	1	0	9256,64	1,74813938	1,74829316	-0,4285597349517065	9	-0,0759436041	0,00074924808
2	0	0	1	0	9257,79	1,73663831	1,73690534	-0,43032324484859885	9	-0,0764381737	0,00074743072
2	0	0	0	0	9258,94	1,72513723	1,72573805	-0,43202751968056077	9	-0,0769350007	0,000745566329
2	0	0	0	0	9260,09	1,71363604	1,7139591	-0,43441959517076787	9	-0,0774341077	0,000744577439
2	0	0	1	0	9261,24	1,70213521	1,70251107	-0,43650974736859462	9	-0,0779356509	0,000743162702
2	0	0	1	0	9262,39	1,69063413	1,69110334	-0,43909678328782323	9	-0,0784397125	0,000742558041
2	0	0	0	0	9263,54	1,67913306	1,67915392	-0,44138911521683232	9	-0,078946501	0,000741160242
2	0	0	0	0	9264,69	1,66763186	1,66767585	-0,44355587707832454	9	-0,0794558972	0,000739707437
2	0	0	1	0	9265,84	1,65613079	1,65632808	-0,44572292842591834	9	-0,0799680129	0,000738263421
2	0	0	0	0	9266,99	1,64462972	1,64511073	-0,44766503882904838	9	-0,0804826468	0,000736458576
2	0	0	0	0	9268,14	1,63312864	1,63339198	-0,45002887692923462	9	-0,0809996948	0,000735073583
2	0	0	1	0	9269,29	1,62162757	1,62192392	-0,45233431334296883	9	-0,0815193579	0,000733651861
2	0	0	1	0	9270,44	1,6101265	1,61055601	-0,45462680188939021	9	-0,0820418	0,000732201908
2	0	0	0	0	9271,59	1,59862542	1,59888744	-0,45761189625288346	9	-0,0825672671	0,00073166989
2	0	0	0	0	9272,74	1,58712435	1,58737934	-0,4600649100417904	9	-0,0830956176	0,000730297528
2	0	0	1	0	9273,89	1,57562315	1,57586122	-0,46284458972513677	9	-0,0836271197	0,000729378837
2	0	0	1	0	9275,04	1,56412232	1,56429291	-0,46609748698150176	9	-0,0841617659	0,000729113002
2	0	0	0	0	9276,19	1,55262125	1,55292523	-0,46886824769899251	9	-0,0846999735	0,000728117302
2	0	0	0	0	9277,34	1,54112017	1,54133689	-0,47225444763898893	9	-0,0852418095	0,000727903214
2	0	0	1	0	9278,49	1,5296191	1,52992904	-0,47560785803943872	9	-0,085787721	0,000727646286
2	0	0	1	0	9279,64	1,5181179	1,51843071	-0,4793672484035305	9	-0,0863376781	0,000727885927
2	0	0	0	0	9280,79	1,50661683	1,50669205	-0,48337729259704608	9	-0,0868921503	0,000728300714
2	0	0	1	0	9281,94	1,49511576	1,49548459	-0,48714353935793088	9	-0,0874512121	0,000728515675
2	0	0	1	0	9283,09	1,4836148	1,48410678	-0,49206389455745824	9	-0,0880150869	0,000730275351
2	0	0	0	0	9284,24	1,47211373	1,47243822	-0,496437826814752	9	-0,0885841474	0,000730974018
2	0	0	0	0	9285,39	1,46061265	1,46122074	-0,50130270716423821	9	-0,0891585723	0,000732513901
2	0	0	1	0	9286,54	1,44911146	1,4493618	-0,50666020732993824	9	-0,089738898	0,000734333938
2	0	0	1	0	9287,69	1,43761039	1,43802392	-0,51230896140138381	9	-0,0903253257	0,000736712536
2	0	0	0	0	9288,84	1,42610943	1,42625523	-0,51814316632226374	9	-0,0909185261	0,000739004405
2	0	0	0	0	9289,99	1,41460848	1,41490746	-0,52429014863446624	9	-0,0915186256	0,000741822063
2	0	0	1	0	9291,14	1,40310729	1,40318871	-0,53104765278597555	9	-0,092126444	0,00074516004
2	0	0	1	0	9292,29	1,39160621	1,39204133	-0,53820016312723418	9	-0,0927422121	0,000749196857
2	0	0	0	0	9293,44	1,38010514	1,38049316	-0,54592026428630016	9	-0,0933666825	0,000753639208
2	0	0	0	0	9294,59	1,36860406	1,3687644	-0,55450629675760909	9	-0,0940000936	0,000758988492
2	0	0	1	0	9295,74	1,35710299	1,35726643	-0,56333045118178048	9	-0,0946435109	0,000764589524
2	0	0	1	0	9296,89	1,34560263	1,34573841	-0,5730320826971008	9	-0,0952976644	0,000771151274
2	0	0	0	0	9298,04	1,33410084	1,3343904	-0,58350840909406541	9	-0,0959634483	0,000778628048
2	0	0	1	0	9299,19	1,32259977	1,32293236	-0,59494959174965875	9	-0,0966418833	0,000787078054
2	0	0	1	0	9300,34	1,31109858	1,31128383	-0,60731328480566477	9	-0,0973336995	0,00079636008
2	0	0	0	0	9301,49	1,2995975	1,30006635	-0,62045924163734157	9	-0,0980404466	0,000806638156
2	0	0	0	0	9302,64	1,28809655	1,28840792	-0,63465365006898726	9	-0,0987629443	0,00081769278
2	0	0	1	0	9303,79	1,27659547	1,27697992	-0,64991444163024333	9	-0,0995027795	0,000829927681
2	0	0	1	0	9304,94	1,2650944	1,26546168	-0,66647420326868813	9	-0,100260697	0,000843397574
2	0	0	0	0	9306,09	1,25359333	1,25393355	-0,68465249085178035	9	-0,101038389	0,000858508749
2	0	0	0	0	9307,24	1,24209225	1,2424053	-0,70306976884603674	9	-0,101836815	0,000873497629
2	0	0	1	0	9308,39	1,23059106	1,23102748	-0,72267202629397606	9	-0,102657311	0,000889629126
2	0	0	1	0	9309,54	1,21908998	1,21939898	-0,74281784115980186	9	-0,103500791	0,000905791298
2	0	0	0	0	9310,69	1,20758891	1,20767021	-0,76440239107857318	9	-0,104368418	0,00092314597
2	0	0	0	0	9311,84	1,19608772	1,19627321	-0,78678562501423949	9	-0,105261058	0,000941210543
2	0	0	1	0	9312,99	1,18458688	1,18494463	-0,80936931104709939	9	-0,106179528	0,000959057827
2	0	0	0	0	9314,14	1,17308581	1,17324603	-0,83286460551123302	9	-0,107124835	0,000977155054
2	0	0	0	0	9315,29	1,16158462	1,16199851	-0,85679767125596838	9	-0,108097374	0,000995597569
2	0	0	1	0	9316,44	1,15008366	1,15032995	-0,88186683723082381	9	-0,109098293	0,00101443788
2	0	0	1	0	9317,59	1,13858259	1,13910246	-0,90756365532676314	9	-0,110127792	0,00103380799
2	0	0	0	0	9318,74	1,12708163	1,1274941	-0,93330357689410624	9	-0,111186936	0,00105229428
2	0	0	0	0	9319,89	1,11558044	1,11586571	-0,95961899403482765	9	-0,11227601	0,00107080594
2	0	0	1	0	9321,04	1,10407937	1,10436749	-0,98658383172005235	9	-0,113396034	0,00108955114
2	0	0	1	0	9322,23	1,09217823	1,09241819	-1,0147332120686805	9	-0,114587516	0,00110851298
2	0	0	0	0	9323,38	1,08067715	1,08083987	-1,0432980048159757	9	-0,115771681	0,00112763804
2	0	0	0	0	9324,53	1,06917608	1,06927156	-1,0723959592481478	9	-0,116988927	0,00114668254
2	0	0	1	0	9325,68	1,057675	1,05789387	-1,102839909183487	9	-0,118240744	0,00116668758
2	0	0	1	0	9326,83	1,0461731	1,04640508	-1,1345590058053077	9	-0,119528472	0,00118720834
2	0	0	0	0	9327,98	1,03467286	1,0347873	-1,1679671242212315	9	-0,120853558	0,00120859756
2	0	0	1	0	9329,13	1,02317178	1,02339935	-1,2037396232287118	9	-0,122218154	0,00123190635
2	0	0	1	0	9330,28	1,01167083	1,01179087	-1,2407620834807602	9	-0,123624176	0,00125539175
2	0	0	0	0	9331,43	1,00021982	1,00041318	-1,2804061232341666	9	-0,125068337	0,00128093513
2	1	0	1	0	9332,53	1,0107708	1,01097906	-1,0935840650151163	9	-0,126359761	0,00110559061
2	1	0	1	0	9333,68	1,02227175	1,02266753	-0,98659545307358349	9	-0,127552435	0,00100895914
2	1	0	0	0	9334,83	1,03377271	1,03397536	-0,8946761945262551	9	-0,128632143	0,000925073167
2	1	0	0	0	9335,98	1,04527354	1,04542315	-0,81415263028485005	9	-0,129613176	0,000851134013
2	1	0	1	0	9337,13	1,05677497	1,05702162	-0,74157686096926592	9	-0,130506083	0,000783862779
2	1	0	0	0	9338,28	1,06827605	1,06849968	-0,67689397030820506	9	-0,131320179	0,000723260979
2	1	0	0	0	9339,43	1,07977712	1,07993782	-0,61853468635429952	9	-0,132063657	0,000667979009
2	1	0	1	0	9340,58	1,0912782	1,09157622	-0,56644840848942656	9	-0,13274385	0,000618321588
2	1	0	1	0	9341,73	1,10277915	1,10312438	-0,51987028401345018	9	-0,133367062	0,000573481608
2	1	0	0	0	9342,92	1,11468041	1,11498356	-0,47705832868814822	9	-0,133958802	0,000531912199
2	1	0	0	0	9344,07	1,12618148	1,12660193	-0,43892953544855117	9	-0,134484246	0,000494498876
2	1	0	1	0	9345,22	1,13768256	1,13805997	-0,40485940159608979	9	-0,134968132	0,000460754294
2	1	0	1	0	9346,37	1,14918351	1,14979863	-0,3732281325695417	9	-0,135414302	0,000429137202
2	1	0	0	0	9347,52	1,16068459	1,16116655	-0,34482129508008621	9	-0,13582623	0,000400394958
2	1	0	0	0	9348,67	1,17218578	1,17235386	-0,31884090152258701	9	-0,136206761	0,000373794377
2	1	0	1	0	9349,82	1,18368685	1,18403244	-0,29451125076351123	9	-0,136558652	0,000348710862
2	1	0	1	0	9350,97	1,19518685	1,19553971	-0,2728152635955401	9	-0,136884034	0,000326161477
2	1	0	0	0	9352,12	1,206689	1,20690846	-0,25241048991059235	9	-0,137185171	0,000304636371
2	1	0	1	0	9353,27	1,21819007	1,21843672	-0,2337855008275569	9	-0,137463748	0,000284852838
2	1	0	1	0	9354,42	1,22969115	1,23000491	-0,21635459743750563	9	-0,137721434	0,000266117218
2	1	0	0	0	9355,57	1,24119222	1,2413528	-0,19991393798651824	9	-0,137959749	0,000248163735
2	1	0	0	0	9356,72	1,2526933	1,25302124	-0,18490934818207005	9	-0,138179883	0,000231695347
2	1	0	1	0	9357,88	1,26419449	1,26451945	-0,17016248090658358	9	-0,13838312	0,000215173772
2	1	0	1	0	9359,03	1,27569556	1,27575696	-0,15717750562665379	9	-0,138570651	0,000200520299
2	1	0	0	0	9360,18	1,2871964	1,2873553	-0,14455272354340854	9	-0,138743281	0,000186090721
2	1	0	0	0	9361,33	1,29869747	1,29899383	-0,13263258815277368	9	-0,138901815	0,000172288914
2	1	0	1	0	9362,48	1,31019855	1,31065238	-0,12125452340114906	9	-0,139047161	0,000158922528
2	1	0	1	0	9363,63	1,32169974	1,32222056	-0,11082592210732445	9	-0,139179945	0,000146536317
2	1	0	0	0	9364,78	1,33320081	1,33339798	-0,10102636010075616	9	-0,139300987	0,000134708345
2	1	0	0	0	9365,93	1,34470189	1,34506643	-0,091599413484800832	9	-0,139410719	0,000123207297
2	1	0	1	0	9367,08	1,35620296	1,35646439	-0,08276179159292951	9	-0,139509931	0,00011226342
2	1	0	0	0	9368,23	1,36770391	1,36793256	-0,074022056651301901	9	-0,139598921	0,000101257181
2	1	0	0	0	9369,38	1,37920499	1,37955081	-0,065442339090320051	9	-0,139678344	9,02810352E-005
2	1	0	1	0	9370,53	1,39070618	1,39100897	-0,057665433986888448	9	-0,139748499	8,02131326E-005
2	1	0	1	0	9371,72	1,40260732	1,40281785	-0,05003791197668761	9	-0,139811769	7,01940735E-005
2	1	0	0	0	9372,87	1,41410828	1,41427588	-0,042480935488128922	9	-0,13986446	6,00797612E-005
2	1	0	0	0	9374,02	1,42560935	1,42582417	-0,035743337027573344	9	-0,13990894	5,09637139E-005
2	1	0	1	0	9375,17	1,43711054	1,43749273	-0,029060917605723603	9	-0,139945656	4,17748561E-005
2	1	0	1	0	9376,32	1,4486115	1,44908106	-0,022744201046104224	9	-0,139974773	3,29581926E-005
2	1	0	0	0	9377,47	1,46011257	1,46040881	-0,016708924687312275	9	-0,139996648	2,44018611E-005
2	1	0	0	0	9378,62	1,47161365	1,47197711	-0,010446552388505837	9	-0,1400114	1,53770852E-005
2	1	0	1	0	9379,81	1,48351479	1,48383605	-0,0041991203615907443	9	-0,140019566	6,23080632E-006
2	1	0	1	0	9380,96	1,49501586	1,49531412	0,0019694911413049939	9	-0,140020654	2,94500796E-006
2	1	0	0	0	9382,11	1,50651681	1,50662184	0,0073521437637585485	9	-0,140015304	1,10769006E-005
2	1	0	1	0	9383,30	1,51841807	1,51874149	0,012705794244538965	9	-0,1400031	1,92968164E-005
2	1	0	1	0	9384,45	1,52991915	1,53008926	0,017922004553838659	9	-0,139985025	2,74222675E-005
2	1	0	0	0	9385,60	1,54142022	1,54172778	0,023092072583191654	9	-0,139960885	3,56016899E-005
2	1	0	0	0	9386,75	1,5529213	1,55313563	0,028108469103850896	9	-0,1399308	4,36562659E-005
2	1	0	1	0	9387,90	1,56442225	1,56490445	0,033330400746005242	9	-0,139894903	5,21588918E-005
2	1	0	1	0	9389,05	1,57592332	1,57632232	0,038308349195479706	9	-0,139853135	6,03863045E-005
2	1	0	0	0	9390,20	1,5874244	1,58783042	0,043178577858877075	9	-0,139805734	6,85602572E-005
2	1	0	0	0	9391,35	1,59892547	1,59906816	0,047818294202443213	9	-0,139752567	7,6464712E-005
2	1	0	1	0	9392,50	1,61042655	1,61075664	0,053048757525781645	9	-0,139693767	8,54486352E-005
2	1	0	1	0	9393,65	1,62192762	1,62214446	0,058075426728464666	9	-0,139629349	9,42067345E-005
2	1	0	0	0	9394,80	1,63342869	1,63398337	0,062956573907285926	9	-0,139559343	0,000102869992
2	1	0	0	0	9395,95	1,64493001	1,64542139	0,067906619540166963	9	-0,139483705	0,000111735004
2	1	0	1	0	9397,10	1,65643096	1,65676939	0,072540113217352435	9	-0,139402449	0,000120182238
2	1	0	0	0	9398,25	1,66793203	1,66846788	0,077470712421927539	9	-0,139315575	0,000129257402
2	1	0	0	0	9399,40	1,67943311	1,67960525	0,082294143619947251	9	-0,139223054	0,000138221672
2	1	0	1	0	9400,55	1,69093394	1,69093287	0,087405872744663155	9	-0,139124796	0,000147797458
2	1	0	1	0	9401,70	1,70243502	1,70268154	0,092300782038364557	9	-0,13902089	0,000157158836
2	1	0	0	0	9402,85	1,71393621	1,71427	0,096917107817716787	9	-0,138911337	0,000166142083
2	1	0	0	0	9404,04	1,72583735	1,72601855	0,10230450499026723	9	-0,138791904	0,000176579473
2	1	0	1	0	9405,19	1,73733842	1,7377274	0,10759767001339493	9	-0,138670683	0,00018697542
2	1	0	1	0	9406,34	1,7488395	1,74927557	0,1125248275542008	9	-0,138543665	0,000196836932
2	1	0	0	0	9407,49	1,76034057	1,76069355	0,11749895568937042	9	-0,138410866	0,00020687966
2	1	0	0	0	9408,64	1,77184165	1,7721014	0,12249484126611267	9	-0,138272226	0,000217073277
2	1	0	1	0	9409,79	1,78334284	1,78365958	0,12755511309175472	9	-0,13812767	0,000227514902
2	1	0	1	0	9410,94	1,79484272	1,79502642	0,13278390436719944	9	-0,137977317	0,000238350622
2	1	0	0	0	9412,09	1,80634499	1,80647576	0,13795150866887213	9	-0,137820944	0,000249206059
2	1	0	1	0	9413,24	1,81784582	1,8182143	0,1429696991108359	9	-0,137658641	0,000259949564
2	1	0	1	0	9414,39	1,82934701	1,82932162	0,14790662052109837	9	-0,137490436	0,000270568766
2	1	0	0	0	9415,54	1,84084809	1,84102011	0,15337517411292813	9	-0,137316272	0,000282366789
2	1	0	0	0	9416,69	1,85234916	1,85245812	0,15857721647868515	9	-0,137136221	0,00029375765
2	1	0	1	0	9417,84	1,86385024	1,86403644	0,16382341335217142	9	-0,136950254	0,000305372814
2	1	0	1	0	9418,99	1,87535131	1,87556458	0,16889886379552355	9	-0,136758476	0,00031678073
2	1	0	0	0	9420,14	1,88685238	1,88715303	0,17362029928093149	9	-0,136560857	0,000327648071
2	1	0	0	0	9421,29	1,89835346	1,89860106	0,17858849089437446	9	-0,136357591	0,000339068298
2	1	0	1	0	9422,44	1,90985453	1,91018951	0,18345766196337808	9	-0,136148617	0,000350438902
2	1	0	1	0	9423,59	1,92135572	1,92164755	0,18832878252336061	9	-0,135934174	0,000361901533
2	1	0	0	0	9424,74	1,9328568	1,93328595	0,19292450021021056	9	-0,135714233	0,000372978218
2	1	0	0	0	9425,89	1,94435787	1,9444232	0,19720981332162957	9	-0,135489076	0,000383459323
2	1	0	1	0	9427,04	1,95585871	1,95624208	0,20196178392507091	9	-0,13525866	0,000395086128
2	1	0	0	0	9428,19	1,96735978	1,96779025	0,2061216879325607	9	-0,135023266	0,000405604253
2	1	0	0	0	9429,34	1,97886097	1,9792484	0,21058669337071523	9	-0,134783	0,000416803377
2	1	0	1	0	9430,49	1,99036205	1,99069631	0,21457677466484438	9	-0,134537935	0,000427157182
2	1	0	1	0	9431,64	2,001863	2,00231481	0,21853152918629302	9	-0,134288341	0,000437568902
2	1	0	0	0	9432,79	2,01336408	2,0135622	0,22225803959493805	9	-0,134034231	0,000447530387
2	1	0	0	0	9433,94	2,02486515	2,02503037	0,22573625366203488	9	-0,133775905	0,000457122776
2	1	0	1	0	9435,09	2,03636622	2,03689957	0,22930637925552854	9	-0,133513376	0,000467074075
2	1	0	1	0	9436,24	2,0478673	2,04821706	0,23283680303332675	9	-0,133246928	0,000476900314
2	1	0	0	0	9437,39	2,05936837	2,05958486	0,23578335957912077	9	-0,132976577	0,000485615834
2	1	0	0	0	9438,54	2,07086968	2,07124352	0,23925652106602957	9	-0,132702649	0,000495558546
2	1	0	1	0	9439,69	2,08237076	2,08298206	0,24215276896332672	9	-0,132425144	0,000504399883
2	1	0	1	0	9440,84	2,09387112	2,09390926	0,24486372076366326	9	-0,132144392	0,000512722414
2	1	0	0	0	9441,99	2,10537291	2,10576797	0,24800620065070688	9	-0,13186039	0,000522243499
2	1	0	1	0	9443,14	2,11687422	2,11738586	0,25049945356042502	9	-0,131573126	0,000530403981
2	1	0	1	0	9444,29	2,12837505	2,12864375	0,25310232078966877	9	-0,131282926	0,000538764696
2	1	0	0	0	9445,44	2,13987589	2,14021206	0,25540089436496349	9	-0,130989745	0,000546612078
2	1	0	0	0	9446,59	2,1513772	2,15177035	0,25772821716964278	9	-0,130693868	0,000554571918
2	1	0	1	0	9447,74	2,16287804	2,1631484	0,26013243485552518	9	-0,130395219	0,000562705041
2	1	0	1	0	9448,89	2,17437935	2,17443609	0,26210396923124746	9	-0,130094096	0,000569928321
2	1	0	0	0	9450,04	2,18588018	2,18606424	0,2644578703523912	9	-0,129790545	0,000578121922
2	1	0	0	0	9451,19	2,19738126	2,19747233	0,2662135420832783	9	-0,129484847	0,000584996887
2	1	0	1	0	9452,34	2,20888233	2,20897055	0,26812051779900957	9	-0,129176885	0,000592270342
2	1	0	1	0	9453,49	2,22038364	2,22048855	0,26989873948817398	9	-0,128866866	0,000599307066
2	1	0	0	0	9454,64	2,23188448	2,23230743	0,27182685250105808	9	-0,128554821	0,000606801128
2	1	0	0	0	9455,79	2,24338508	2,24366426	0,27340905005355155	9	-0,128240809	0,00061343814
2	1	0	1	0	9456,94	2,25488663	2,25502324	0,27482287089029888	9	-0,127924919	0,00061973196
2	1	0	0	0	9458,09	2,26638818	2,26670337	0,27631565534675984	9	-0,127607152	0,000626325607
2	1	0	0	0	9459,24	2,27788877	2,27824998	0,27760959013054842	9	-0,12728779	0,000632464071
2	1	0	1	0	9460,39	2,28938985	2,28966808	0,27903725773406496	9	-0,126966685	0,000638902711
2	1	0	1	0	9461,54	2,30089092	2,30096555	0,28077464985350666	9	-0,126644179	0,000646052824
2	1	0	0	0	9462,69	2,312392	2,31285477	0,28184893393578592	9	-0,126320139	0,000651875627
2	1	0	0	0	9463,84	2,32389307	2,3241322	0,28296977654099421	9	-0,125994787	0,000657659199
2	1	0	1	0	9465,00	2,33539414	2,33567071	0,28398931034219722	9	-0,125668079	0,000663305516
2	1	0	1	0	9466,15	2,34689522	2,3467977	0,28525467605019549	9	-0,125340104	0,000669435016
2	1	0	0	0	9467,30	2,35839629	2,35877705	0,2864596608560528	9	-0,125010863	0,000675694493
2	1	0	0	0	9468,45	2,3698976	2,37006474	0,28738806039715747	9	-0,124680348	0,000681128295
2	1	0	1	0	9469,60	2,38139844	2,3816328	0,28822978578197402	9	-0,124348655	0,000686457497
2	1	0	1	0	9470,75	2,39289975	2,39328146	0,28910627060880147	9	-0,124015801	0,000691912661
2	1	0	0	0	9471,90	2,40440059	2,40486002	0,29022554284892979	9	-0,123681769	0,000697951822
2	1	0	0	0	9473,05	2,41590142	2,41630578	0,2916360723285929	9	-0,123346612	0,000704681908
2	1	0	1	0	9474,20	2,42740273	2,42767572	0,29242821705217101	9	-0,123010367	0,000709920889
2	1	0	0	0	9475,35	2,43890405	2,43924403	0,29335790096471738	9	-0,122672975	0,000715571514
2	1	0	0	0	9476,50	2,45040488	2,45068192	0,29406332053865024	9	-0,122334585	0,000720655662
2	1	0	1	0	9477,65	2,46190619	2,46212983	0,29506609705276877	9	-0,121995077	0,000726491038
2	1	0	1	0	9478,80	2,47340703	2,47384858	0,29617179363655488	9	-0,121654585	0,000732684159
2	1	0	0	0	9479,95	2,4849081	2,48514605	0,29682112089358202	9	-0,121313058	0,000737643859
2	1	0	0	0	9481,10	2,49640918	2,49637365	0,29765986876251782	9	-0,12097057	0,000743070268
2	1	0	1	0	9482,25	2,50791049	2,50813246	0,29821132969421613	9	-0,120627239	0,000747953542
2	1	0	1	0	9483,40	2,51941133	2,51957059	0,29938549889872499	9	-0,120282836	0,000754322915
2	1	0	0	0	9484,55	2,5309124	2,53114891	0,30045861448161261	9	-0,119937353	0,0007605055
2	1	0	0	0	9485,70	2,54241347	2,54252672	0,30138951796107014	9	-0,119590841	0,000766290876
2	1	0	1	0	9486,85	2,55391455	2,554075	0,30222996991748544	9	-0,119243234	0,000771917985
2	1	0	1	0	9488,00	2,56541586	2,56560397	0,30314325444061741	9	-0,118894547	0,000777745561
2	1	0	0	0	9489,15	2,57691669	2,57719159	0,30411529222813626	9	-0,118544713	0,00078376336
2	1	0	1	0	9490,30	2,58841777	2,58866954	0,30512770886222528	9	-0,118193731	0,000789874815
2	1	0	1	0	9491,45	2,59991884	2,60011744	0,30632732226513235	9	-0,117841527	0,000796487031
2	1	0	0	0	9492,60	2,61141992	2,61170602	0,30741393798962214	9	-0,117487997	0,000802874856
2	1	0	0	0	9493,75	2,62292099	2,6231339	0,30842892336659136	9	-0,117133111	0,00080905034
2	1	0	1	0	9494,90	2,63442206	2,63461208	0,31005013260679904	9	-0,116776668	0,000816861808
2	1	0	1	0	9496,05	2,64592314	2,64598989	0,31150422307352256	9	-0,116418697	0,00082423701
2	1	0	0	0	9497,20	2,65742445	2,65750813	0,31315032485872326	9	-0,116058953	0,000832199526
2	1	0	0	0	9498,35	2,66892529	2,66896629	0,31502157240174554	9	-0,115697369	0,000840781955
2	1	0	1	0	9499,50	2,6804266	2,68052459	0,31670310464687693	9	-0,115333579	0,000848930445
2	1	0	1	0	9500,65	2,69192743	2,69192243	0,31868446610557523	9	-0,114967622	0,000857873878
2	1	0	0	0	9501,80	2,70342875	2,70362091	0,32076253633325267	9	-0,114599161	0,000867220282
2	1	0	0	0	9502,95	2,71492863	2,71513844	0,32331004099920288	9	-0,114228174	0,000877831539
2	1	0	1	0	9504,10	2,72643089	2,72658706	0,32577053170340877	9	-0,113854364	0,000888241688
2	1	0	0	0	9505,25	2,73793173	2,73813534	0,32793945609591949	9	-0,113477774	0,000897942635
2	1	0	0	0	9506,40	2,7494328	2,7495532	0,33093626129751373	9	-0,113098256	0,000909926835
2	1	0	1	0	9507,55	2,76093388	2,76116157	0,33361197278524288	9	-0,112715542	0,000921156548
2	1	0	1	0	9508,70	2,77243495	2,77273989	0,33685032511129978	9	-0,11232949	0,000933998323
2	1	0	0	0	9509,85	2,78393602	2,78421831	0,34028586256317792	9	-0,111939721	0,000947430148
2	1	0	0	0	9511,00	2,7954371	2,79571629	0,34371826774440704	9	-0,111546054	0,000960938749
2	1	0	1	0	9512,15	2,80693817	2,80714417	0,34767680242657747	9	-0,111147903	0,00097597891
2	1	0	1	0	9513,30	2,81843925	2,81865263	0,35210376628674547	9	-0,11074502	0,000992458197
2	1	0	0	0	9514,45	2,82994032	2,83019066	0,35719175101257773	9	-0,110336453	0,00101092074
2	1	0	0	0	9515,60	2,84144139	2,84153819	0,3632724079458649	9	-0,109921612	0,00103225245
2	1	0	1	0	9516,75	2,85294247	2,85330725	0,36958334905405722	9	-0,109499447	0,00105453481
2	1	0	1	0	9517,90	2,86444306	2,86461353	0,37683991135705376	9	-0,109069601	0,00107950065
2	1	0	0	0	9519,05	2,87594461	2,87597251	0,38340600727436499	9	-0,108631797	0,00110266509
2	1	0	1	0	9520,20	2,88744569	2,88794208	0,38925599531891386	9	-0,108186752	0,00112414872
2	1	0	1	0	9521,35	2,89894676	2,89947009	0,39466399746015667	9	-0,107735455	0,00114431651
2	1	0	0	0	9522,50	2,91044784	2,9105773	0,39868418468783238	9	-0,107278556	0,00116040115
2	1	0	0	0	9523,65	2,92194891	2,92208552	0,40338480379432384	9	-0,106816784	0,00117872492
2	1	0	1	0	9524,80	2,93344998	2,93368387	0,40781838974604947	9	-0,106349669	0,00119641027
2	1	0	1	0	9525,95	2,9449513	2,94512177	0,41244897898286579	9	-0,105877295	0,00121471251
2	1	0	0	0	9527,10	2,95645213	2,95692086	0,41752361382047277	9	-0,105399199	0,00123458426
2	1	0	0	0	9528,25	2,96795344	2,9683187	0,42273089274143053	9	-0,104915291	0,00125480001
2	1	0	1	0	9529,40	2,97945428	2,97931552	0,42867546357835187	9	-0,104425102	0,00127715943
2	1	0	1	0	9530,55	2,99095559	2,99116445	0,43441889248788224	9	-0,103928447	0,00129941839
2	1	0	0	0	9531,70	3,00245643	3,0026226	0,4403237537480873	9	-0,103424869	0,00132212602
2	1	0	0	0	9532,85	3,01395774	3,01412058	0,44644603769605376	9	-0,102914356	0,00134564214
2	1	0	1	0	9534,00	3,02545857	3,02565908	0,45323978488643846	9	-0,102396443	0,00137134909
2	1	0	1	0	9535,15	3,03695941	3,03708625	0,45987446480356198	9	-0,101870894	0,00139667839
2	1	0	0	0	9536,30	3,04846072	3,04862499	0,46680322832738285	9	-0,10133756	0,00142310804
2	1	0	1	0	9537,45	3,0599618	3,06003284	0,47388351242989171	9	-0,100795962	0,00145009917
2	1	0	1	0	9538,60	3,07146287	3,07167172	0,4811869744832311	9	-0,100246005	0,00147804839
2	1	0	0	0	9539,75	3,08296394	3,0831697	0,48919461046656032	9	-0,0996870697	0,00150827004
2	1	0	0	0	9540,90	3,09446502	3,09476805	0,49762653295571456	9	-0,0991191342	0,00154003873
2	1	0	1	0	9542,05	3,10596609	3,10623622	0,5058804798560832	9	-0,098541677	0,00157138426
2	1	0	1	0	9543,20	3,11746716	3,11779451	0,51439275266602458	9	-0,0979544744	0,00160377088
2	1	0	0	0	9544,35	3,128968	3,12914205	0,52326891493673069	9	-0,097357139	0,00163738278
2	1	0	0	0	9545,50	3,14046836	3,14058948	0,5325617800064496	9	-0,0967494473	0,0016725579
2	1	0	1	0	9546,65	3,15197015	3,15224862	0,54205876697475885	9	-0,096130982	0,00170870405
2	1	0	1	0	9547,80	3,16347051	3,16364503	0,55163096459937312	9	-0,0955015197	0,00174516451
2	1	0	0	0	9548,95	3,17497253	3,1750443	0,56156080728396838	9	-0,0948607475	0,0017829804
2	1	0	1	0	9550,10	3,18647361	3,18670297	0,57158273831009818	9	-0,0942083672	0,00182146439
2	1	0	1	0	9551,25	3,19797468	3,1980505	0,58209613741686003	9	-0,0935442001	0,00186157285
2	1	0	0	0	9552,40	3,20947576	3,20969915	0,59296083915978714	9	-0,0928679332	0,0019032259
2	1	0	0	0	9553,55	3,22097683	3,22111726	0,60346654864648922	9	-0,0921796262	0,00194383657
2	1	0	1	0	9554,70	3,2324779	3,23269534	0,61405170972769434	9	-0,0914790109	0,00198504212
2	1	0	1	0	9555,85	3,24397898	3,24442458	0,62463541266818995	9	-0,0907662064	0,0020265826
2	1	0	0	0	9557,00	3,25548005	3,2558322	0,63508170299852826	9	-0,0900411084	0,00206771935
2	1	0	0	0	9558,15	3,26698112	3,26717997	0,64596263847003494	9	-0,0893038586	0,00211047614
2	1	0	1	0	9559,30	3,2784822	3,27856755	0,65623100070903373	9	-0,0885543674	0,00215149764
2	1	0	1	0	9560,45	3,28998327	3,29009581	0,66651831318934464	9	-0,0877930224	0,00219290913
2	1	0	0	0	9561,60	3,30148435	3,30154395	0,67637837848936397	9	-0,087019816	0,00223309291
2	1	0	0	0	9562,75	3,3129847	3,31289172	0,68668146166405466	9	-0,086235173	0,00227490137
2	1	0	1	0	9563,90	3,32448649	3,32459044	0,69631427914524838	9	-0,0854393467	0,00231495989
2	1	0	0	0	9565,05	3,33598733	3,33618879	0,70565203577280038	9	-0,0846325979	0,00235418836
2	1	0	0	0	9566,20	3,3474884	3,34763694	0,71462244975070106	9	-0,0838154256	0,00239229645
2	1	0	1	0	9567,35	3,35898948	3,35911512	0,72329384523133427	9	-0,0829879344	0,00242962735
2	1	0	1	0	9568,50	3,37049055	3,37081361	0,73157822837432102	9	-0,082150735	0,00246601389
2	1	0	0	0	9569,65	3,38199162	3,38210106	0,73964403631786714	9	-0,0813039914	0,00250155083
2	1	0	0	0	9570,80	3,3934927	3,39366961	0,74768571679790784	9	-0,0804480687	0,00253739837
2	1	0	1	0	9571,96	3,40499377	3,40514779	0,75522660991797901	9	-0,0795831233	0,00257165823
2	1	0	1	0	9573,11	3,41649485	3,41664577	0,76251624928166528	9	-0,0787095577	0,00260524801
2	1	0	0	0	9574,26	3,42799592	3,42822409	0,77009217099596941	9	-0,0778273568	0,00264004851
2	1	0	0	0	9575,41	3,43949699	3,43980217	0,77729783486574707	9	-0,0769369602	0,00267375074
2	1	0	1	0	9576,56	3,45099807	3,45130038	0,78461887470135846	9	-0,0760380477	0,00270795543
2	1	0	1	0	9577,71	3,46249819	3,46286798	0,79227759438202304	9	-0,0751308873	0,00274355267
2	1	0	0	0	9578,86	3,47400045	3,47409606	0,79952726854632243	9	-0,0742149428	0,00277763442
2	1	0	1	0	9580,01	3,48550153	3,48558426	0,80704172886908058	9	-0,0732902884	0,00281301187
2	1	0	1	0	9581,16	3,4970026	3,49706244	0,81476018391549235	9	-0,0723569095	0,00284926733
2	1	0	0	0	9582,31	3,50850368	3,50865078	0,82309989382823194	9	-0,0714141354	0,00288797007
2	1	0	0	0	9583,46	3,52000475	3,52023911	0,83169569571812826	9	-0,070461899	0,00292776781
2	1	0	1	0	9584,61	3,53150582	3,53162694	0,84045915833363866	9	-0,0694994852	0,00296818814
2	1	0	1	0	9585,76	3,5430069	3,54314518	0,85023963637650035	9	-0,0685266554	0,00301252236
2	1	0	0	0	9586,91	3,55450797	3,55464315	0,85987506341189146	9	-0,0675427392	0,003056549
2	1	0	0	0	9588,06	3,56600904	3,56635213	0,87030716147273421	9	-0,0665473118	0,00310382177
2	1	0	1	0	9589,21	3,57751012	3,57771993	0,88132528650263706	9	-0,0655394793	0,00315313507
2	1	0	1	0	9590,36	3,58901119	3,58934832	0,89289872224131981	9	-0,0645188987	0,00320492452
2	1	0	0	0	9591,51	3,60051227	3,60076594	0,90500625160833075	9	-0,063484408	0,00325871562
2	1	0	0	0	9592,66	3,61201262	3,61230445	0,91740410700764314	9	-0,0624358691	0,00331394305
2	1	0	1	0	9593,81	3,62351418	3,62380242	0,93036531532804019	9	-0,0613722727	0,00337146013
2	1	0	0	0	9594,96	3,63501525	3,63514042	0,94398563479383795	9	-0,0602934472	0,00343152042
2	1	0	0	0	9596,11	3,64651632	3,64656854	0,95782613257566989	9	-0,0591989756	0,00349277863
2	1	0	1	0	9597,26	3,6580174	3,6580565	0,97292403442163968	9	-0,058087945	0,00355901103
2	1	0	1	0	9598,41	3,66951847	3,66951442	0,9879573943714295	9	-0,0569600053	0,003625324
2	1	0	0	0	9599,59	3,68131948	3,68139362	1,0052513706808277	9	-0,0557833053	0,00370072597
2	1	0	0	0	9600,74	3,69282055	3,69300199	1,0222978709886438	9	-0,054616984	0,00377534796
2	1	0	1	0	9601,89	3,70432162	3,70444989	1,039049725048244	9	-0,0534311011	0,00384910754
2	1	0	1	0	9603,04	3,7158227	3,71604848	1,0566953051214405	9	-0,0522254184	0,00392673118
2	1	0	0	0	9604,19	3,72732377	3,72747612	1,0747851055736355	9	-0,0509987026	0,00400623586
2	1	0	0	0	9605,34	3,73882484	3,7388041	1,0933972146982925	9	-0,0497513115	0,00408799807
2	1	0	1	0	9606,49	3,75032592	3,75037265	1,1134500236560925	9	-0,0484813266	0,00417585252
2	1	0	1	0	9607,64	3,76182723	3,76198077	1,1333322198882243	9	-0,0471885055	0,00426357379
2	1	0	0	0	9608,79	3,77332807	3,77344894	1,1545710495362744	9	-0,0458720662	0,0043567149
2	1	0	1	0	9609,94	3,78482938	3,78503704	1,1760410433635115	9	-0,0445310548	0,00445135869
2	1	0	1	0	9611,09	3,79633045	3,79623461	1,1982487191756536	9	-0,0431651436	0,00454883324
2	1	0	0	0	9612,24	3,80783153	3,80800319	1,2209773296490365	9	-0,0417731553	0,00464948546
2	1	0	0	0	9613,39	3,8193326	3,81932092	1,2445690448706338	9	-0,0403549522	0,00475340849
2	1	0	1	0	9614,54	3,83083367	3,83097959	1,2683143531903616	9	-0,0389091969	0,00485888636
2	1	0	1	0	9615,69	3,84233475	3,84253764	1,2925840519989507	9	-0,0374360755	0,0049668029
2	1	0	0	0	9616,84	3,85383582	3,85417628	1,317737366383275	9	-0,0359338969	0,00507879211
2	1	0	0	0	9617,99	3,86533689	3,8656745	1,343691426018868	9	-0,0344027095	0,00519427378
2	1	0	1	0	9619,14	3,87683797	3,87715268	1,3703861683607066	9	-0,0328409821	0,00531319622
2	1	0	1	0	9620,29	3,88833904	3,88857079	1,3979839934036101	9	-0,031248644	0,00543615967
2	1	0	0	0	9621,44	3,89984012	3,90010834	1,4254254369686059	9	-0,0296243131	0,00555931358
2	1	0	0	0	9622,59	3,91134191	3,91154695	1,4540628955534237	9	-0,0279675964	0,00568763539
2	1	0	1	0	9623,74	3,92284226	3,92318511	1,4834175355111565	9	-0,0262775887	0,00581972161
2	1	0	0	0	9624,89	3,93434381	3,93455362	1,5143682632258157	9	-0,024552606	0,00595836295
2	1	0	0	0	9626,04	3,94584417	3,94629145	1,5464658966908845	9	-0,0227920488	0,00610280503
2	1	0	1	0	9627,19	3,95734525	3,95763946	1,5794397213806733	9	-0,0209936667	0,00625085318
2	1	0	1	0	9628,34	3,96884632	3,96893716	1,6141114464650544	9	-0,0191564746	0,00640630675
2	1	0	0	0	9629,49	3,98034739	3,98043537	1,6507203218837533	9	-0,0172776468	0,00657058554
2	1	0	0	0	9630,64	3,99184847	3,9919436	1,6895714942365907	9	-0,015355831	0,00674467394
2	1	0	1	0	9631,79	4,00334978	4,00358152	1,7311769084384067	9	-0,0133879697	0,00693090772
2	1	0	1	0	9632,94	4,01485109	4,01482964	1,7739144905159846	9	-0,0113720223	0,00712196436
2	1	0	0	0	9634,09	4,02635193	4,02663803	1,819443882753447	9	-0,00930492207	0,00732624205
2	1	0	1	0	9635,24	4,03785467	4,03794622	1,8665849663262931	9	-0,00718428334	0,00753716985
2	1	0	1	0	9636,39	4,04935408	4,04952431	1,9169998882959264	9	-0,00500797667	0,00776293781
2	1	0	0	0	9637,54	4,06085587	4,06108236	1,9701633741380035	9	-0,00277191028	0,00800099596
2	1	0	0	0	9638,69	4,07235622	4,07242012	2,0253295556952509	9	-0,000473838823	0,00824799296
2	1	0	1	0	9639,84	4,08385754	4,08418941	2,083608933808577	9	0,00189013162	0,00850985385
2	1	0	1	0	9640,99	4,09535837	4,0955267	2,1449540220200909	9	0,00432255212	0,00878471602
2	1	0	0	0	9642,14	4,10685921	4,10703468	2,2098582051694394	9	0,00682788529	0,00907596387
2	1	0	0	0	9643,29	4,11836052	4,1186738	2,2781473683814186	9	0,00940885581	0,00938294549
2	1	0	1	0	9644,44	4,12986135	4,13005114	2,3497941171129533	9	0,0120706623	0,00970476959
2	1	0	1	0	9645,59	4,14136267	4,14150953	2,4253553953021728	9	0,014816721	0,0100446325
2	1	0	0	0	9646,74	4,1528635	4,15301752	2,5044029280543258	9	0,0176523644	0,0104008289
2	1	0	0	0	9647,89	4,16436481	4,16440535	2,588038911422097	9	0,0205812342	0,010777643
2	1	0	1	0	9649,04	4,17586565	4,17614412	2,6755544443925174	9	0,0236088466	0,0111735007
2	1	0	1	0	9650,19	4,18736601	4,18783236	2,7674803601486096	9	0,0267391689	0,0115897441
2	1	0	0	0	9651,34	4,1988678	4,19915056	2,8634107808272019	9	0,0299782883	0,0120238932
2	0	0	0	1	9652,43	4,19016743	4,19033003	2,6580100759809824	9	0,0329909213	0,0111379391
2	0	0	1	1	9653,58	4,17866611	4,17885065	2,4681822589288131	9	0,0359361805	0,0103141647
2	0	0	0	1	9654,73	4,16716385	4,16758156	2,292906332955745	9	0,0386719853	0,00955587439
2	0	0	0	1	9655,88	4,15566397	4,15570402	2,128379162400961	9	0,0412120149	0,00884491391
2	0	0	1	1	9657,03	4,14416265	4,14438534	1,973078381903183	9	0,0435683019	0,00817719754
2	0	0	1	1	9658,18	4,13266182	4,13275766	1,8255800406138042	9	0,0457500666	0,00754468003
2	0	0	0	1	9659,33	4,12116051	4,12115955	1,685838685681424	9	0,0477677397	0,00694761006
2	0	0	0	1	9660,48	4,10965967	4,11007214	1,5544652159636208	9	0,0496294349	0,00638896413
2	0	0	1	1	9661,63	4,09815836	4,09817314	1,4295227366189174	9	0,0513438433	0,00585843157
2	0	0	1	1	9662,78	4,08665752	4,08692598	1,3112531670679654	9	0,0529180393	0,00535899447
2	0	0	0	1	9663,93	4,07515621	4,07538748	1,1986530832946318	9	0,0543597378	0,00488497596
2	0	0	0	1	9665,08	4,06365538	4,06373882	1,0916231768205744	9	0,0556750484	0,0044360715
2	0	0	1	1	9666,23	4,05215406	4,05229092	0,99098518366614746	9	0,0568713695	0,00401576003
2	0	0	0	1	9667,38	4,0406518	4,04066181	0,89497078680352794	9	0,0579543188	0,00361627433
2	0	0	0	1	9668,53	4,02915239	4,02931499	0,80471016094088282	9	0,0589299388	0,00324243074
2	0	0	1	1	9669,68	4,0176506	4,01808834	0,71811909682161088	9	0,059804	0,00288546598
2	0	0	1	1	9670,83	4,00615025	4,00636864	0,63686335536961856	9	0,0605819002	0,0025515093
2	0	0	0	1	9671,98	3,99464869	3,99468017	0,55967264017090022	9	0,0612688847	0,00223571318
2	0	0	0	1	9673,16	3,98284793	3,98302174	0,48405940116693638	9	0,0618839189	0,0019280191
2	0	0	1	1	9674,32	3,97134662	3,97149324	0,41532094124704602	9	0,0623998195	0,00164944434
2	0	0	1	1	9675,47	3,95984554	3,95999551	0,34994576141859123	9	0,0628384724	0,00138578366
2	0	0	0	1	9676,62	3,94834447	3,94853711	0,28807893255725491	9	0,0632043257	0,00113749038
2	0	0	0	1	9677,77	3,9368434	3,93698907	0,2298940526476745	9	0,0635009706	0,000905090361
2	0	0	1	1	9678,92	3,92534232	3,92574143	0,17481451116812739	9	0,0637324229	0,000686276588
2	0	0	1	1	9680,07	3,91384125	3,91400266	0,1227035175931328	9	0,0639019385	0,000480261893
2	0	0	0	1	9681,22	3,90234017	3,9024446	0,072979072322292954	9	0,0640131012	0,000284796784
2	0	0	1	1	9682,41	3,89043784	3,89048481	0,024156457511171514	9	0,0640699938	9,39803285E-005
2	0	0	1	1	9683,56	3,87893796	3,87922764	-0,019822370920640707	9	0,0640717223	7,68954924E-005
2	0	0	0	1	9684,71	3,86743689	3,86754894	-0,062040471918104909	9	0,064023748	0,000239944566
2	0	0	0	1	9685,90	3,85553598	3,85563993	-0,10342260892502963	9	0,0639243275	0,000398760341
2	0	0	1	1	9687,05	3,84403491	3,84421182	-0,14169384492561198	9	0,0637824982	0,000544701179
2	0	0	1	1	9688,20	3,83253384	3,83264375	-0,17817114673865398	9	0,0635975972	0,00068286655
2	0	0	0	1	9689,35	3,82103276	3,82127571	-0,21289555029943584	9	0,0633716956	0,000813532621
2	0	0	0	1	9690,50	3,80953169	3,8097477	-0,24635314716336643	9	0,0631064326	0,000938543351
2	0	0	1	1	9691,65	3,79803061	3,79809904	-0,27863427313665533	9	0,0628034696	0,00105828058
2	0	0	1	1	9692,80	3,78652954	3,78681159	-0,3093360917797936	9	0,0624642707	0,00117139751
2	0	0	0	1	9693,95	3,77502847	3,77541351	-0,33942734636366458	9	0,0620902665	0,00128147856
2	0	0	0	1	9695,10	3,76352739	3,76365471	-0,36811441353832698	9	0,0616826676	0,0013854556
2	0	0	1	1	9696,25	3,75202632	3,75247741	-0,39579915208742022	9	0,0612424202	0,00148522737
2	0	0	0	1	9697,40	3,74052405	3,7404964	-0,42323069945910771	9	0,0607706383	0,00158309296
2	0	0	0	1	9698,55	3,72902393	3,72915077	-0,44876917249833427	9	0,0602682419	0,00167352788
2	0	0	1	1	9699,70	3,71752286	3,71764207	-0,4745290901822352	9	0,059736345	0,00176412927
2	0	0	1	1	9700,85	3,70602179	3,70628405	-0,49921498851229715	9	0,0591754802	0,0018502326
2	0	0	0	1	9702,00	3,69452071	3,69458556	-0,52333243377506733	9	0,0585863329	0,00193349645
2	0	0	0	1	9703,15	3,68301964	3,68305779	-0,54682023543864224	9	0,0579698458	0,00201397063
2	0	0	1	1	9704,30	3,67151856	3,67165971	-0,56970417189101344	9	0,0573265925	0,00209175982
2	0	0	1	1	9705,45	3,66001749	3,66007113	-0,59260899775351117	9	0,0566573665	0,00216899114
2	0	0	0	1	9706,60	3,64851642	3,6487639	-0,61427808708200883	9	0,0559626296	0,0022413556
2	0	0	0	1	9707,75	3,63701534	3,63690472	-0,63534283063685005	9	0,0552433431	0,00231068139
2	0	0	1	1	9708,90	3,62551427	3,6254766	-0,65574051470806259	9	0,0544999428	0,002377372
2	0	0	1	1	9710,05	3,6140132	3,61440945	-0,67602362468218227	9	0,0537334159	0,00244342629
2	0	0	0	1	9711,20	3,60251212	3,60278106	-0,6952705204797312	9	0,0529441461	0,00250490755
2	0	0	1	1	9712,35	3,59101033	3,59127164	-0,71352471994803149	9	0,0521330945	0,00256246119
2	0	0	1	1	9713,50	3,57951021	3,57969475	-0,73137063005318464	9	0,051301267	0,0026180835
2	0	0	0	1	9714,65	3,56800914	3,56822681	-0,74807250561813325	9	0,0504492745	0,00266929227
2	0	0	0	1	9715,80	3,55650806	3,55677843	-0,76469743469108928	9	0,0495782457	0,00271985936
2	0	0	1	1	9716,95	3,54500699	3,54533076	-0,78050057590008141	9	0,0486889482	0,0027671326
2	0	0	1	1	9718,10	3,53350592	3,53343129	-0,794788456832368	9	0,0477826372	0,00280833035
2	0	0	0	1	9719,25	3,52200484	3,52229428	-0,80823281283179686	9	0,0468600355	0,00284683378
2	0	0	0	1	9720,40	3,51050377	3,51075602	-0,82066139609863603	9	0,0459225588	0,00288114185
2	0	0	1	1	9721,55	3,4990027	3,49922776	-0,83239936859657472	9	0,0449709818	0,00291275489
2	0	0	1	1	9722,70	3,48750162	3,48763943	-0,84329060899714752	9	0,044006817	0,00294109364
2	0	0	0	1	9723,85	3,47600055	3,47593069	-0,85275820797930637	9	0,0430307053	0,00296412851
2	0	0	0	1	9725,00	3,46449947	3,46469307	-0,86121372816463552	9	0,0420442447	0,00298384135
2	0	0	1	1	9726,15	3,4529984	3,45334554	-0,8687737397849577	9	0,0410482362	0,00300017581
2	0	0	1	1	9727,30	3,44149685	3,44175816	-0,875584293053568	9	0,040044155	0,00301354937
2	0	0	0	1	9728,45	3,42999601	3,43005824	-0,88161390771468454	9	0,0390331	0,00302398694
2	0	0	1	1	9729,60	3,41849494	3,41848016	-0,88589821164807245	9	0,0380160324	0,00302842539
2	0	0	1	1	9730,75	3,40699387	3,40718246	-0,88949743130554995	9	0,0369944796	0,00303068012
2	0	0	0	1	9731,90	3,39549279	3,39558411	-0,89194466980795187	9	0,035969127	0,00302867312
2	0	0	0	1	9733,05	3,38399172	3,38400555	-0,8935832815865687	9	0,0349414684	0,00302389078
2	0	0	1	1	9734,20	3,37249064	3,37275815	-0,89490507108470042	9	0,0339120068	0,00301829842
2	0	0	1	1	9735,35	3,36098957	3,36117959	-0,89486153485874458	9	0,0328822769	0,00300779031
2	0	0	0	1	9736,50	3,3494885	3,34953141	-0,89404246583580621	9	0,031852711	0,00299462327
2	0	0	0	1	9737,65	3,33798742	3,33809328	-0,8923524552956233	9	0,0308246594	0,00297875563
2	0	0	1	1	9738,80	3,32648635	3,32647467	-0,89033035157869018	9	0,0297985766	0,00296166143
2	0	0	1	1	9739,95	3,31498528	3,31500721	-0,88759646068016806	9	0,0287756491	0,00294238864
2	0	0	0	1	9741,10	3,30348444	3,30360889	-0,8842529232303296	9	0,0277561843	0,00292122574
2	0	0	0	1	9742,25	3,29198265	3,29217935	-0,87994958316800973	9	0,0267411768	0,00289695174
2	0	0	1	1	9743,40	3,28048229	3,2806828	-0,87537382325778522	9	0,0257311575	0,00287182396
2	0	0	0	1	9744,55	3,2689805	3,26905465	-0,87021019418833664	9	0,0247264877	0,00284476462
2	0	0	0	1	9745,70	3,25748014	3,25772667	-0,86477478252103347	9	0,0237280838	0,0028171998
2	0	0	1	1	9746,85	3,24597907	3,24605799	-0,85922603464374886	9	0,0227358583	0,00278909761
2	0	0	1	1	9748,00	3,234478	3,23472047	-0,85315450529257574	9	0,0217506364	0,00275971624
2	0	0	0	1	9749,15	3,22297692	3,2231524	-0,84651818467925107	9	0,0207722783	0,0027284571
2	0	0	0	1	9750,30	3,21147585	3,21163368	-0,8403135758514217	9	0,0198015366	0,00269877934
2	0	0	1	1	9751,45	3,19997478	3,20018601	-0,83359227050095795	9	0,0188382324	0,00266765035
2	0	0	1	1	9752,60	3,1884737	3,18851709	-0,82690003141760998	9	0,0178828798	0,00263658492
2	0	0	0	1	9753,75	3,17697263	3,17708945	-0,82018764627476416	9	0,0169352889	0,0026058096
2	0	0	0	1	9754,90	3,16547155	3,16558123	-0,8128876459474377	9	0,0159957223	0,00257326197
2	0	0	1	1	9756,05	3,15397024	3,15402293	-0,80602724788089562	9	0,0150640411	0,00254222844
2	0	0	1	1	9757,20	3,14246917	3,14246488	-0,79894924431067674	9	0,0141405314	0,00251066987
2	0	0	0	1	9758,35	3,13096809	3,13127708	-0,7919316375628105	9	0,0132249184	0,00247975742
2	0	0	1	1	9759,50	3,11946607	3,11972833	-0,78526170872697242	9	0,0123171769	0,00244980329
2	0	0	1	1	9760,65	3,10796618	3,1084013	-0,77815014201526899	9	0,0114175258	0,00241880282
2	0	0	1	1	9760,88	3,10566664	3,10576558	-0,77810999751091008	9	0,0112438621	0,00241662725