File: Experimentelles/Rohdaten/Batteriemessungen/AlteZelle/Studenten_Batterietests/Sonstige/ZView-Export/LiCoO2 vs Li_02_CV_C01_loop1.txt
EC-Lab ASCII FILE
Nb header lines : 3
mode	ox/red	error	control changes	counter inc.	time/s	control/V	Ewe/V	<I>/mA	cycle number	(Q-Qo)/C	P/W
2	0	0	1	0	4340,22	3,10266638	3,10327935	-0,43024680018424986	2	0	0,00133517606
2	0	0	0	0	4341,55	3,08936477	3,08971572	-0,35733620085132678	2	-0,000488501915	0,00110406731
2	0	0	1	0	4342,90	3,07586312	3,07600236	-0,35713592156146944	2	-0,000971497095	0,00109855097
2	0	0	1	0	4344,25	3,06236219	3,06236887	-0,35705532723416941	2	-0,00145454449	0,0010934351
2	0	0	0	0	4345,60	3,04886079	3,04895592	-0,35766021030334106	2	-0,0019378959	0,00109049026
2	0	0	1	0	4346,95	3,03535843	3,03558183	-0,3575069289624855	2	-0,00242147315	0,00108524156
2	0	0	1	0	4348,30	3,02185822	3,02193999	-0,35797980000885856	2	-0,00290518021	0,00108179345
2	0	0	0	0	4349,65	3,00835705	3,00839686	-0,35783207346685158	2	-0,00338914245	0,00107650086
2	0	0	0	0	4351,00	2,99485564	2,99473333	-0,35825254752611091	2	-0,0038732437	0,0010728708
2	0	0	1	0	4352,35	2,98135448	2,9813807	-0,35834603733383206	2	-0,00435766438	0,00106836599
2	0	0	0	0	4353,70	2,96785331	2,96818829	-0,35847992279256416	2	-0,00484238844	0,00106403593
2	0	0	0	0	4355,05	2,9543519	2,95483541	-0,35849907637263411	2	-0,00532734487	0,00105930574
2	0	0	1	0	4356,40	2,94085073	2,94113231	-0,35875024413690061	2	-0,0058127814	0,0010551319
2	0	0	0	0	4357,75	2,92734838	2,92750835	-0,35944515105226227	2	-0,00629865471	0,00105227868
2	0	0	0	0	4359,10	2,9138484	2,91380525	-0,35967489091368954	2	-0,00678491779	0,00104802253
2	0	0	1	0	4360,45	2,90034676	2,90054274	-0,36002313493130214	2	-0,00727150589	0,00104426243
2	0	0	1	0	4361,80	2,88684559	2,88744068	-0,36041769882043174	2	-0,00775863091	0,00104068476
2	0	0	0	0	4363,15	2,87334442	2,87352681	-0,36081338673830035	2	-0,00824632123	0,00103680696
2	0	0	1	0	4364,50	2,85984302	2,86005378	-0,36129796621389651	2	-0,00873460062	0,00103333162
2	0	0	1	0	4365,85	2,84634185	2,84634042	-0,36155834731956384	2	-0,00922329165	0,00102911808
2	0	0	0	0	4367,20	2,83284068	2,83313799	-0,36198034781652186	2	-0,00971268024	0,00102554029
2	0	0	1	0	4368,55	2,81933951	2,81955457	-0,36241121062387994	2	-0,010202596	0,00102183816
2	0	0	1	0	4369,90	2,80583835	2,80592108	-0,36298652645200493	2	-0,0106930193	0,0010185116
2	0	0	0	0	4371,25	2,79233694	2,79260874	-0,36335267887140346	2	-0,0111840069	0,00101470191
2	0	0	0	0	4372,60	2,77883601	2,77916694	-0,36378087566234285	2	-0,0116755525	0,00101100781
2	0	0	1	0	4373,95	2,76533437	2,76532173	-0,36433278357920608	2	-0,0121677974	0,00100749731
2	0	0	0	0	4375,30	2,75183296	2,75204945	-0,36464861555335392	2	-0,0126606813	0,00100353104
2	0	0	0	0	4376,65	2,73833179	2,73836589	-0,36533207197984077	2	-0,0131540727	0,00100041286
2	0	0	1	0	4378,00	2,72483039	2,72496319	-0,36550731312793958	2	-0,0136481384	0,000995993963
2	0	0	0	0	4379,35	2,71132922	2,71134973	-0,36600197285103328	2	-0,0141429184	0,000992359361
2	0	0	0	0	4380,70	2,69782782	2,69829798	-0,36625529181522688	2	-0,014638206	0,000988265965
2	0	0	1	0	4382,05	2,68432665	2,68456435	-0,36713695789997811	2	-0,0151343262	0,000985602732
2	0	0	0	0	4383,40	2,6708262	2,67073011	-0,36752725516485184	2	-0,0156310666	0,000981566147
2	0	0	0	0	4384,76	2,65732431	2,65750813	-0,36816894977043168	2	-0,0161285959	0,00097841199
2	0	0	1	0	4386,11	2,64382291	2,64394498	-0,368675382963072	2	-0,0166268963	0,000974757422
2	0	0	1	0	4387,46	2,63032174	2,63046193	-0,36917670785139123	2	-0,0171259325	0,000971105299
2	0	0	0	0	4388,81	2,61682057	2,61710906	-0,37002419843338605	2	-0,017625751	0,000968393695
2	0	0	1	0	4390,16	2,60331941	2,60356593	-0,37049856913896896	2	-0,0181264337	0,000964617473
2	0	0	1	0	4391,51	2,58981776	2,58992267	-0,37120515014976218	2	-0,0186277106	0,000961392652
2	0	0	0	0	4392,86	2,5763166	2,57651973	-0,37162134920557312	2	-0,0191298854	0,000957489712
2	0	0	1	0	4394,21	2,56281543	2,56301665	-0,37235594261437658	2	-0,0196329188	0,000954354473
2	0	0	1	0	4395,56	2,54931426	2,54946375	-0,37288955513698464	2	-0,0201367587	0,000950668415
2	0	0	0	0	4396,91	2,53581285	2,53590035	-0,37342437752522528	2	-0,0206414498	0,000946966989
2	0	0	0	0	4398,26	2,52231097	2,52271819	-0,37408950345074874	2	-0,0211468972	0,000943722378
2	0	0	1	0	4399,61	2,50881052	2,50894451	-0,37462105904705779	2	-0,0216531549	0,000939903432
2	0	0	0	0	4400,96	2,49530911	2,49540114	-0,3752774563618009	2	-0,0221600235	0,000936467783
2	0	0	0	0	4402,31	2,48180795	2,48193836	-0,37561527647388538	2	-0,0226675197	0,000932253955
2	0	0	1	0	4403,66	2,46830654	2,46872616	-0,37578174285590624	2	-0,023175763	0,000927702233
2	0	0	0	0	4405,01	2,45480537	2,45510268	-0,37614884568999283	2	-0,0236846153	0,00092348404
2	0	0	0	0	4406,36	2,44130397	2,44174004	-0,37663342454470784	2	-0,024193896	0,000919640937
2	0	0	1	0	4407,71	2,42780304	2,42806649	-0,37710935684541888	2	-0,0247038063	0,000915646611
2	0	0	1	0	4409,06	2,41430187	2,41437149	-0,37723674705909184	2	-0,025214063	0,000910789648
2	0	0	0	0	4410,41	2,40080023	2,40116072	-0,37772889792298246	2	-0,0257247314	0,000906987814
2	0	0	1	0	4411,76	2,38729882	2,38759756	-0,37772840944429299	2	-0,0262355823	0,000901863445
2	0	0	1	0	4413,11	2,37379766	2,37408447	-0,37817633260662362	2	-0,0267466791	0,000897822552
2	0	0	0	0	4414,46	2,36029649	2,3605516	-0,3779878897281984	2	-0,0272579528	0,000892259937
2	0	0	1	0	4415,81	2,34679532	2,3470583	-0,37802958426376179	2	-0,0277692284	0,000887257454
2	0	0	1	0	4417,16	2,33329391	2,33348513	-0,3779129692508528	2	-0,028280301	0,00088185427
2	0	0	0	0	4418,51	2,31979275	2,31998205	-0,37764203509626259	2	-0,0287913214	0,000876122736
2	0	0	1	0	4419,86	2,30629182	2,30661941	-0,37755474789689082	2	-0,0293019805	0,000870875083
2	0	0	1	0	4421,21	2,29279041	2,29312634	-0,37700726953335149	2	-0,0298120957	0,000864525326
2	0	0	0	0	4422,56	2,27928901	2,27968335	-0,37688049930147846	2	-0,0303217992	0,000859168184
2	0	0	0	0	4423,91	2,2657876	2,26578951	-0,37613424387139635	2	-0,0308308657	0,000852241006
2	0	0	1	0	4425,26	2,25228643	2,25258708	-0,37590778075779443	2	-0,0313392244	0,000846765004
2	0	0	0	0	4426,61	2,23878527	2,23915434	-0,37505853401186682	2	-0,0318468288	0,000839813962
2	0	0	0	0	4427,96	2,22528386	2,22548079	-0,37426382924119706	2	-0,03235358	0,000832916936
2	0	0	1	0	4429,31	2,21178269	2,21204805	-0,37344003600689389	2	-0,0328595266	0,000826067291
2	0	0	0	0	4430,66	2,19828129	2,19859505	-0,3727100552059719	2	-0,0333646238	0,000819438486
2	0	0	0	0	4432,01	2,18478012	2,18508196	-0,37236442145270662	2	-0,0338686556	0,000813646766
2	0	0	1	0	4433,36	2,17127895	2,17143869	-0,37153514707461043	2	-0,0343718678	0,000806765805
2	0	0	1	0	4434,71	2,15777802	2,15794635	-0,37105146010352346	2	-0,0348740593	0,000800709124
2	0	0	0	0	4436,06	2,14427638	2,14448285	-0,37038242296936685	2	-0,0353755243	0,000794278749
2	0	0	1	0	4437,41	2,13077521	2,13081908	-0,36991376134877421	2	-0,0358761251	0,000788219273
2	0	0	1	0	4438,76	2,11727405	2,11777735	-0,36931764691447277	2	-0,0363759957	0,000782132556
2	0	0	0	0	4440,11	2,1037724	2,10405374	-0,3687356453544153	2	-0,036875166	0,00077583961
2	0	0	1	0	4441,46	2,09027123	2,09067106	-0,36793177567111981	2	-0,0373737887	0,000769224309
2	0	0	1	0	4442,81	2,07677007	2,07721829	-0,36783382769984608	2	-0,037871588	0,000764071185
2	0	0	0	0	4444,16	2,0632689	2,06343436	-0,36788495218691789	2	-0,038369216	0,000759106479
2	0	0	1	0	4445,51	2,04976845	2,05007291	-0,36752108349749338	2	-0,0388664566	0,000753445027
2	0	0	1	0	4446,86	2,03626633	2,03651857	-0,36742917246495654	2	-0,0393633768	0,000748276361
2	0	0	0	0	4448,21	2,02276492	2,02288532	-0,36718464169340928	2	-0,0398601629	0,000742772419
2	0	0	0	0	4449,56	2,00926399	2,00948215	-0,3673049102071673	2	-0,0403568372	0,00073809264
2	0	0	1	0	4450,91	1,99576259	1,99607944	-0,36752615248163603	2	-0,040853709	0,000733611407
2	0	0	0	0	4452,26	1,98226142	1,98263669	-0,3676895295890681	2	-0,0413508192	0,000728994724
2	0	0	0	0	4453,61	1,96876001	1,96905339	-0,36781018925830714	2	-0,0418483838	0,000724237878
2	0	0	1	0	4454,96	1,95525885	1,95565045	-0,36829923962553402	2	-0,0423467308	0,000720264565
2	0	0	0	0	4456,31	1,94175744	1,94216752	-0,36961311994430976	2	-0,0428461321	0,000717850577
2	0	0	0	0	4457,66	1,92825615	1,92845416	-0,37037977615060934	2	-0,0433465876	0,000714260445
2	0	0	1	0	4459,01	1,91475499	1,91500127	-0,37161656570000102	2	-0,0438485593	0,000711646222
2	0	0	1	0	4460,36	1,90125358	1,90153825	-0,37282770235712314	2	-0,0443520881	0,000708946143
2	0	0	0	0	4461,71	1,88775241	1,88798511	-0,37421376064109338	2	-0,0448575504	0,000706510036
2	0	0	1	0	4463,06	1,87425125	1,87442207	-0,37610986828804083	2	-0,0453650616	0,000704988663
2	0	0	1	0	4464,41	1,86075008	1,86109924	-0,37764165721212973	2	-0,045874767	0,000702828576
2	0	0	0	0	4465,76	1,84724867	1,84750593	-0,37989620134855341	2	-0,0463869832	0,000701860467
2	0	0	1	0	4467,11	1,83374751	1,83394289	-0,38163536678378752	2	-0,0469020009	0,000699897471
2	0	0	1	0	4468,46	1,8202461	1,82078052	-0,38442360439027469	2	-0,0474199206	0,000699951022
2	0	0	0	0	4469,81	1,80674493	1,80701685	-0,38659174235848147	2	-0,0479411706	0,000698577787
2	0	0	1	0	4471,16	1,79324365	1,7936542	-0,38940731366164896	2	-0,0484660007	0,00069846207
2	0	0	1	0	4472,51	1,77974224	1,77994072	-0,39226996712386586	2	-0,0489944667	0,000698217307
2	0	0	0	0	4473,86	1,76624107	1,76651776	-0,39507513291512986	2	-0,0495269485	0,000697907235
2	0	0	0	0	4475,21	1,75273967	1,75299466	-0,39846307272091418	2	-0,0500634387	0,000698503631
2	0	0	1	0	4476,56	1,73923874	1,73944151	-0,40155107698713798	2	-0,0506043546	0,000698474585
2	0	0	0	0	4477,91	1,72573733	1,72618902	-0,40454428689554202	2	-0,0511496626	0,000698319927
2	0	0	0	0	4479,26	1,71223617	1,71247542	-0,40794235110903789	2	-0,051699616	0,000698591233
2	0	0	1	0	4480,61	1,69873476	1,69887245	-0,41199247833962272	2	-0,0522544421	0,000699922675
2	0	0	0	0	4481,96	1,68523359	1,6854192	-0,41579363867640672	2	-0,0528143644	0,000700786593
2	0	0	0	0	4483,31	1,67173231	1,67191637	-0,41961844218894931	2	-0,053379517	0,000701566925
2	0	0	1	0	4484,66	1,65823102	1,65833306	-0,42393586194763642	2	-0,0539501719	0,000703026832
2	0	0	1	0	4486,01	1,64472973	1,64497042	-0,42796150424207194	2	-0,0545262657	0,000703983998
2	0	0	0	0	4487,36	1,63122833	1,63135707	-0,4328443931105248	2	-0,0551083311	0,00070612377
2	0	0	1	0	4488,71	1,6177274	1,61800432	-0,43721358819554278	2	-0,055696521	0,000707413477
2	0	0	1	0	4490,06	1,60422599	1,60467172	-0,44222355975458963	2	-0,0562910959	0,000709623622
2	0	0	0	0	4491,42	1,59072483	1,59116864	-0,44718889581660461	2	-0,0568924025	0,000711552973
2	0	0	1	0	4492,77	1,57722342	1,57742512	-0,45238330448046368	2	-0,0575007014	0,000713600777
2	0	0	1	0	4494,12	1,56372225	1,56399214	-0,45817730513711827	2	-0,0581162646	0,000716585724
2	0	0	0	0	4495,47	1,55022097	1,55047929	-0,46372903526450317	2	-0,0587395914	0,000719002273
2	0	0	0	0	4496,82	1,53671956	1,53689563	-0,47018028521839386	2	-0,0593710169	0,000722618017
2	0	0	1	0	4498,17	1,52321851	1,52354324	-0,47644317367424691	2	-0,0600109212	0,000725881779
2	0	0	0	0	4499,52	1,50971711	1,50987983	-0,48369202887018669	2	-0,060659878	0,000730316853
2	0	0	0	0	4500,87	1,49621618	1,49654722	-0,49053699895739558	2	-0,0613182001	0,00073411176
2	0	0	1	0	4502,22	1,48271477	1,48295391	-0,49785406189039437	2	-0,0619865656	0,000738294621
2	0	0	0	0	4503,57	1,46921349	1,46958125	-0,50563782049963814	2	-0,062665455	0,000743075856
2	0	0	0	0	4504,92	1,4557122	1,45609832	-0,51426869460071155	2	-0,0633554608	0,000748825783
2	0	0	1	0	4506,27	1,44221091	1,4425751	-0,52361027446265318	2	-0,0640574172	0,000755347137
2	0	0	0	0	4507,62	1,42870975	1,42902195	-0,5331519221266112	2	-0,0647720769	0,000761885778
2	0	0	0	0	4508,97	1,41520834	1,41541862	-0,54363070599113786	2	-0,0654999912	0,000769464998
2	0	0	1	0	4510,32	1,40170705	1,40183544	-0,55423136707395315	2	-0,0662422255	0,00077694119
2	0	0	1	0	4511,67	1,38820577	1,38821208	-0,56608838029205843	2	-0,0669993535	0,000785850745
2	0	0	0	0	4513,02	1,37470472	1,3751601	-0,57815491346021466	2	-0,0677726641	0,000795055588
2	0	0	1	0	4514,37	1,36120343	1,36133635	-0,59124253566066547	2	-0,0685629547	0,000804879935
2	0	0	1	0	4515,72	1,34770226	1,34793341	-0,60545892035588582	2	-0,0693717226	0,000816118321
2	0	0	0	0	4517,07	1,33420086	1,33445048	-0,62070441183944602	2	-0,0702005848	0,000828299322
2	0	0	1	0	4518,42	1,32069957	1,32097769	-0,6371794476484265	2	-0,07105086	0,000841699832
2	0	0	1	0	4519,77	1,30719841	1,30755472	-0,65407367050647731	2	-0,0719233379	0,000855237129
2	0	0	0	0	4521,12	1,293697	1,29401159	-0,67249963603293133	2	-0,0728196353	0,000870222342
2	0	0	0	0	4522,47	1,28019583	1,2804985	-0,69220422503228019	2	-0,0737415254	0,00088636647
2	0	0	1	0	4523,82	1,26669443	1,26705563	-0,71326989928881267	2	-0,0746910423	0,000903752632
2	0	0	0	0	4525,17	1,25319338	1,25347245	-0,73604859054709862	2	-0,0756701753	0,000922616629
2	0	0	0	0	4526,52	1,23969197	1,24005961	-0,75975616943711974	2	-0,0766806677	0,000942142971
2	0	0	1	0	4527,87	1,22619081	1,22654641	-0,78507841409495066	2	-0,077724807	0,000962935097
2	0	0	0	0	4529,22	1,21268952	1,21307361	-0,81217680871487014	2	-0,0788045749	0,000985230203
2	0	0	0	0	4530,57	1,19918835	1,19939995	-0,84207484871149414	2	-0,0799224824	0,00100998452
2	0	0	1	0	4531,92	1,18568707	1,18587697	-0,8729342874139552	2	-0,081081301	0,00103519263
2	0	0	0	0	4533,27	1,17218518	1,17241287	-0,90658299406702272	2	-0,0822836608	0,00106288958
2	0	0	0	0	4534,62	1,15868449	1,15900123	-0,94201365796228134	2	-0,083532311	0,00109179504
2	0	0	1	0	4535,97	1,14518309	1,14550817	-0,98059714057793306	2	-0,0848312527	0,00112328201
2	0	0	1	0	4537,36	1,13128197	1,13165414	-1,0226500900462306	2	-0,0862243176	0,00115728623
2	0	0	0	0	4538,71	1,11778069	1,11779034	-1,067623768933121	2	-0,087636292	0,00119337952
2	0	0	1	0	4540,06	1,1042794	1,10444772	-1,1163606643676731	2	-0,089111194	0,00123296201
2	0	0	1	0	4541,41	1,09077811	1,09103489	-1,1696958669150882	2	-0,0906549394	0,00127617898
2	0	0	0	0	4542,76	1,07727683	1,07743156	-1,2282346325616054	2	-0,0922743455	0,00132333871
2	0	0	1	0	4544,11	1,06377554	1,06403887	-1,2912253051375302	2	-0,0939760506	0,00137391395
2	0	0	1	0	4545,46	1,05027425	1,0504055	-1,3611172043407968	2	-0,0957670659	0,00142972497
2	0	0	0	0	4546,81	1,03677309	1,03683221	-1,4360371514533981	2	-0,0976560265	0,00148892961
2	0	0	0	0	4548,16	1,0232718	1,0236901	-1,5176024120301043	2	-0,0996501446	0,00155355455
2	0	0	1	0	4549,51	1,00977063	1,0098964	-1,6045681840429715	2	-0,101758078	0,00162044761
2	0	0	0	0	4550,86	0,996269345	0,996643901	-1,6970103128502813	2	-0,103987716	0,00169131497
2	0	0	0	0	4552,21	0,982768178	0,983140886	-1,7970558175196326	2	-0,106347166	0,00176675909
2	0	0	1	0	4553,56	0,969266891	0,969818294	-1,9061087065686806	2	-0,108848043	0,00184857915
2	0	0	0	0	4554,91	0,955765545	0,956104755	-2,0274812821298874	2	-0,111503802	0,00193848449
2	0	0	0	0	4556,26	0,942264378	0,942561567	-2,1657877545803821	2	-0,114333577	0,0020413883
2	0	0	1	0	4557,61	0,928762972	0,928928196	-2,3308579201499667	2	-0,117367372	0,00216519972
2	0	0	0	0	4558,96	0,915261805	0,915555418	-2,5287903888771978	2	-0,120645732	0,00231524766
2	0	0	0	0	4560,31	0,901760578	0,901922107	-2,7672002060959766	2	-0,124218017	0,00249579898
2	0	0	1	0	4561,66	0,888259292	0,888689756	-3,0385818351060173	2	-0,128135815	0,00270035653
2	0	0	1	0	4563,01	0,874758005	0,874915957	-3,3381568714976314	2	-0,132438958	0,00292060664
2	0	0	0	0	4564,36	0,861256838	0,861362875	-3,6608493911723379	2	-0,13716355	0,0031533197
2	0	0	1	0	4565,71	0,847755551	0,847940028	-4,0034816848735059	2	-0,142338023	0,00339471246
2	0	0	1	0	4567,06	0,834254265	0,834637463	-4,3643187843263149	2	-0,147986338	0,00364262401
2	0	0	0	0	4568,41	0,820752978	0,821024179	-4,7406760379672122	2	-0,154133543	0,00389220961
2	0	0	1	0	4569,76	0,807251632	0,807430863	-5,1315959257384237	2	-0,160799265	0,00414340897
2	0	0	1	0	4571,11	0,793750465	0,793737352	-5,5267427886525696	2	-0,167995304	0,00438678218
2	0	0	0	0	4572,46	0,780249238	0,780555129	-5,9184781548877658	2	-0,175724477	0,00461969851
2	0	0	0	0	4573,81	0,766747952	0,766881645	-6,2942468573650099	2	-0,183971584	0,00482694246
2	0	0	1	0	4575,16	0,753246725	0,753679395	-6,6468475311994701	2	-0,192712545	0,00500959205
2	0	0	0	0	4576,51	0,739745498	0,740186393	-6,9741602167487168	2	-0,201914161	0,00516217854
2	0	0	0	0	4577,86	0,726244211	0,726522923	-7,261464486519543	2	-0,211526155	0,00527562061
2	0	0	1	0	4579,21	0,712742925	0,712989807	-7,5380559414625203	2	-0,221522689	0,00537455687
2	0	0	0	0	4580,56	0,699241638	0,699436665	-7,7932606240113677	2	-0,231877267	0,00545089226
2	0	0	0	0	4581,91	0,685740411	0,68590349	-8,0221664309501926	2	-0,242556244	0,00550243212
2	0	0	1	0	4583,26	0,672239125	0,672310293	-8,2431577170888768	2	-0,25353992	0,00554195978
2	0	0	0	0	4584,61	0,658737957	0,659007668	-8,4583606829245965	2	-0,264817595	0,0055741244
2	0	0	0	0	4585,96	0,645236611	0,645414412	-8,6719724908470822	2	-0,276381254	0,00559701584
2	0	0	1	0	4587,31	0,631735384	0,631971598	-8,8940813442071373	2	-0,288239986	0,00562080694
2	0	0	1	0	4588,66	0,618234158	0,618438482	-9,1299107273420083	2	-0,300406367	0,00564628793
2	0	0	0	0	4590,01	0,604732871	0,604785025	-9,3773461480935437	2	-0,312898576	0,00567127857
2	0	0	1	0	4591,36	0,591231585	0,591432333	-9,6351147790749747	2	-0,325733572	0,00569851836
2	0	0	1	0	4592,71	0,577730358	0,57781899	-9,897445653875648	2	-0,338920414	0,00571893202
2	0	0	0	0	4594,09	0,563929081	0,564336002	-10,155468814074936	2	-0,352760315	0,00573109649
2	0	0	1	0	4595,44	0,550427794	0,55064255	-10,392114798227922	2	-0,366640419	0,00572234066
2	0	0	1	0	4596,79	0,536926508	0,53700918	-10,634690187871421	2	-0,380838245	0,00571092637
2	0	0	0	0	4598,15	0,523425281	0,523676574	-10,86170793324709	2	-0,395351797	0,00568802189
2	0	0	0	0	4599,50	0,509924054	0,510193586	-11,080488229791328	2	-0,410166115	0,00565319415
2	1	0	0	0	4600,77	0,502823353	0,503166378	-11,109414006272957	2	-0,424345672	0,00558988377
2	1	0	1	0	4602,12	0,51632458	0,516398787	-10,600157089531421	2	-0,43899855	0,00547390804
2	1	0	1	0	4603,47	0,52982533	0,529889941	-10,10706775438095	2	-0,452970624	0,00535563333
2	1	0	0	0	4604,82	0,543327153	0,543444872	-9,6327188983559322	2	-0,466293037	0,0052348515
2	1	0	1	0	4606,17	0,55682838	0,557198584	-9,1802805239955494	2	-0,478987753	0,00511523942
2	1	0	1	0	4607,52	0,570329607	0,570641458	-8,7507850155234624	2	-0,491086602	0,00499356072
2	1	0	0	0	4608,87	0,583830893	0,584104419	-8,3367704028885043	2	-0,502619088	0,00486954441
2	1	0	1	0	4610,22	0,59733218	0,597717762	-7,9446764190991667	2	-0,513608813	0,00474867411
2	1	0	1	0	4611,57	0,610833406	0,611341059	-7,5666625325878694	2	-0,524075925	0,00462581171
2	1	0	0	0	4612,92	0,624334693	0,624713778	-7,2089129065473971	2	-0,534048319	0,00450350717
2	1	0	1	0	4614,27	0,63783592	0,638196766	-6,866846519211904	2	-0,543546319	0,00438239938
2	1	0	1	0	4615,62	0,651337266	0,65181005	-6,5374423712491994	2	-0,552590132	0,00426117051
2	1	0	0	0	4616,97	0,664838493	0,665112674	-6,2224028743803648	2	-0,561201215	0,00413859915
2	1	0	0	0	4618,32	0,67833972	0,678766072	-5,9168734587729114	2	-0,569392204	0,00401617307
2	1	0	1	0	4619,67	0,691840947	0,692018509	-5,6268847646812787	2	-0,577181995	0,00389390835
2	1	0	0	0	4621,02	0,705342233	0,705551624	-5,3456564346949344	2	-0,584585667	0,00377163664
2	1	0	0	0	4622,37	0,71884352	0,719124854	-5,0781763978302477	2	-0,591619134	0,00365184294
2	1	0	1	0	4623,76	0,732744813	0,733028829	-4,8239726399381907	2	-0,598500013	0,00353611098
2	1	0	0	0	4625,11	0,74624604	0,746451735	-4,5787573928634234	2	-0,604845345	0,00341782137
2	1	0	0	0	4626,46	0,759747326	0,759984791	-4,342450032631561	2	-0,610864341	0,00330019603
2	1	0	1	0	4627,81	0,773248553	0,773568094	-4,1126887127757216	2	-0,616570354	0,00318144471
2	1	0	1	0	4629,16	0,786749899	0,787020981	-3,8952129011352883	2	-0,621973574	0,00306561426
2	1	0	0	0	4630,51	0,800251067	0,800584137	-3,6822409766415738	2	-0,627087235	0,00294794375
2	1	0	1	0	4631,86	0,813752294	0,814027011	-3,4766415531436653	2	-0,631917953	0,00283008022
2	1	0	1	0	4633,21	0,82725358	0,827710509	-3,2796269344786848	2	-0,636476398	0,00271458179
2	1	0	0	0	4634,56	0,840754867	0,840792477	-3,0916215858111827	2	-0,640775323	0,00259941211
2	1	0	1	0	4635,91	0,854256094	0,854526162	-2,9096174680938349	2	-0,644824266	0,00248634419
2	1	0	1	0	4637,26	0,86775738	0,867948949	-2,7329478580504762	2	-0,648630559	0,00237205927
2	1	0	0	0	4638,61	0,881258667	0,881502211	-2,5634314461300854	2	-0,652203977	0,00225967052
2	1	0	1	0	4639,96	0,894761324	0,895037293	-2,4006343478251181	2	-0,655552745	0,00214865734
2	1	0	1	0	4641,31	0,90826124	0,908598483	-2,2434977913896362	2	-0,658685446	0,0020384388
2	1	0	0	0	4642,66	0,921762407	0,92222178	-2,0919434285412208	2	-0,661610365	0,00192923576
2	1	0	0	0	4644,01	0,935263634	0,935624599	-1,9502082274605853	2	-0,664337754	0,00182466279
2	1	0	1	0	4645,36	0,94876498	0,948947251	-1,8075891615202035	2	-0,666872919	0,00171530677
2	1	0	0	0	4646,71	0,962266207	0,962430239	-1,6725458589692899	2	-0,669220209	0,00160970876
2	1	0	0	0	4648,06	0,975767374	0,975953281	-1,5429874767238925	2	-0,671389461	0,00150588364
2	1	0	1	0	4649,41	0,98926872	0,989606678	-1,4191699869309814	2	-0,673387647	0,00140442012
2	1	0	0	0	4650,76	1,00276995	1,00285912	-1,2985787702103445	2	-0,675221145	0,00130229152
2	1	0	0	0	4652,11	1,01627111	1,01636219	-1,1834595523153766	2	-0,676895142	0,00120282359
2	1	0	1	0	4653,46	1,0297724	1,02984512	-1,0719579324747146	2	-0,678415954	0,00110395066
2	1	0	1	0	4654,81	1,04327369	1,04352856	-0,96449647160868326	2	-0,679788828	0,00100647961
2	1	0	0	0	4656,16	1,05677497	1,05688131	-0,86219108756631565	2	-0,681020439	0,000911233656
2	1	0	1	0	4657,51	1,07027626	1,07055473	-0,76351346882681165	2	-0,682116449	0,000817382941
2	1	0	1	0	4658,86	1,08377755	1,08399761	-0,66938371971870579	2	-0,683082163	0,000725610356
2	1	0	0	0	4660,21	1,09727871	1,0974406	-0,57900952703009075	2	-0,683923423	0,000635428587
2	1	0	1	0	4661,60	1,11117995	1,11147487	-0,4912404334172624	2	-0,684665322	0,000546001422
2	1	0	1	0	4662,95	1,12468123	1,12506831	-0,40853292557100576	2	-0,685271144	0,000459627452
2	1	0	0	0	4664,30	1,13818252	1,13856125	-0,32926457445137158	2	-0,685767412	0,000374887895
2	1	0	1	0	4665,65	1,15168381	1,15188384	-0,25327403385502656	2	-0,686159015	0,000291742268
2	1	0	1	0	4667,00	1,16518521	1,16540694	-0,18113439301184099	2	-0,68645066	0,000211095277
2	1	0	0	0	4668,35	1,17868638	1,17901003	-0,11264829807138677	2	-0,686647534	0,000132813468
2	1	0	0	0	4669,74	1,19258761	1,19283402	-0,045363857459354509	2	-0,686755657	5,41115514E-005
2	1	0	1	0	4671,09	1,2060889	1,20617652	0,01702329108957193	2	-0,686773598	2,05330944E-005
2	1	0	0	0	4672,44	1,21959019	1,21997046	0,076391299158179443	2	-0,686709464	9,3195129E-005
2	1	0	0	0	4673,83	1,23349142	1,23387444	0,13476935459766538	2	-0,686561763	0,000166288461
2	1	0	1	0	4675,18	1,24699259	1,24738753	0,18872786961340672	2	-0,68634218	0,000235416795
2	1	0	0	0	4676,53	1,26049387	1,26080036	0,24134758433016602	2	-0,686050773	0,000304291112
2	1	0	0	0	4677,88	1,27399528	1,27423322	0,29085764684714374	2	-0,685690463	0,000370620488
2	1	0	1	0	4679,23	1,28749645	1,28780639	0,33951537854348499	2	-0,685263872	0,000437230075
2	1	0	1	0	4680,58	1,30099797	1,30144036	0,38622076452989338	2	-0,684772968	0,000502643292
2	1	0	0	0	4681,93	1,31449902	1,31483245	0,4314274702531584	2	-0,684219956	0,000567254843
2	1	0	1	0	4683,28	1,32800031	1,32826543	0,47561339583868813	2	-0,683606684	0,000631740841
2	1	0	1	0	4684,63	1,34150171	1,34167826	0,51839798952763226	2	-0,68293494	0,00069552334
2	1	0	0	0	4685,98	1,35500276	1,35513115	0,55983872261519085	2	-0,682205975	0,000758654904
2	1	0	1	0	4687,33	1,36850405	1,36852384	0,60089569740618304	2	-0,681421041	0,00082234008
2	1	0	1	0	4688,68	1,38200521	1,38218737	0,64098709402605939	2	-0,68058145	0,000885964255
2	1	0	0	0	4690,03	1,3955065	1,39563024	0,68088562274351539	2	-0,679687798	0,00095026457
2	1	0	1	0	4691,38	1,40900779	1,40913332	0,71994257563103936	2	-0,678740859	0,00101449504
2	1	0	1	0	4692,73	1,42250907	1,42281675	0,75901102414354598	2	-0,677741289	0,0010799336
2	1	0	0	0	4694,08	1,43601036	1,43634987	0,79726841518034419	2	-0,676689565	0,00114515633
2	1	0	0	0	4695,43	1,44951165	1,4498328	0,83633492762843533	2	-0,675585866	0,00121254579
2	1	0	1	0	4696,78	1,46301293	1,46330595	0,87447979580610637	2	-0,674430132	0,00127963151
2	1	0	0	0	4698,14	1,47651422	1,47674882	0,9130633814881257	2	-0,673222363	0,00134836533
2	1	0	0	0	4699,49	1,49001539	1,49041224	0,95151039430250611	2	-0,671962976	0,0014181427
2	1	0	1	0	4700,84	1,50351655	1,50370467	0,99026796128600486	2	-0,670651257	0,00148907059
2	1	0	0	0	4702,23	1,51741803	1,51750851	1,0317799948776747	2	-0,669244409	0,00156573497
2	1	0	0	0	4703,58	1,53091931	1,5310415	1,0715669520820166	2	-0,66782397	0,00164061342
2	1	0	1	0	4704,93	1,54442048	1,54476523	1,111216399197776	2	-0,666349769	0,00171656848
2	1	0	1	0	4706,28	1,55792093	1,55804706	1,1516073532597701	2	-0,664821446	0,00179425848
2	1	0	0	0	4707,63	1,57142293	1,5717212	1,1931487775097302	2	-0,663238049	0,00187529717
2	1	0	1	0	4708,98	1,5849241	1,58515394	1,2344268662855038	2	-0,661598563	0,00195675669
2	1	0	1	0	4710,33	1,59842539	1,598647	1,2766260923817718	2	-0,659902573	0,00204087445
2	1	0	0	0	4711,68	1,61192667	1,6122402	1,3197759591663853	2	-0,658148527	0,00212779595
2	1	0	1	0	4713,03	1,62542796	1,62587345	1,3644162630662269	2	-0,656335592	0,00221836823
2	1	0	1	0	4714,38	1,63892925	1,63936663	1,4096740776052013	2	-0,654462099	0,00231097266
2	1	0	0	0	4715,73	1,65243053	1,65286958	1,4557318755735942	2	-0,652526855	0,00240613497
2	1	0	1	0	4717,08	1,6659317	1,66622221	1,501756903404991	2	-0,650529504	0,00250226073
2	1	0	1	0	4718,43	1,67943311	1,67951488	1,5498251601432749	2	-0,648468852	0,0026029544
2	1	0	0	0	4719,78	1,69293427	1,69312823	1,5985969007015194	2	-0,646342635	0,00270662946
2	1	0	0	0	4721,13	1,70643568	1,70661116	1,64807408799728	2	-0,644150198	0,00281262165
2	1	0	1	0	4722,48	1,71993673	1,72012424	1,6988276659200566	2	-0,641889989	0,00292219454
2	1	0	0	0	4723,83	1,73343801	1,73372746	1,749821721265711	2	-0,639561176	0,0030337139
2	1	0	0	0	4725,18	1,7469393	1,7473408	1,8033657868703158	2	-0,637162268	0,00315109454
2	1	0	1	0	4726,53	1,76044059	1,76056325	1,8574312260995357	2	-0,634689748	0,00327012525
2	1	0	0	0	4727,88	1,77394187	1,77436709	1,9112971810003056	2	-0,632144392	0,00339134294
2	1	0	0	0	4729,23	1,78744304	1,78774965	1,9675513387968141	2	-0,629525185	0,00351748918
2	1	0	1	0	4730,58	1,80094445	1,80124283	2,0252244826406205	2	-0,626829147	0,00364792114
2	1	0	1	0	4731,93	1,81444466	1,81486487	2,0829553717866771	2	-0,624055326	0,00378028257
2	1	0	0	0	4733,28	1,82794702	1,82792819	2,1431436898807661	2	-0,621202469	0,00391751295
2	1	0	1	0	4734,63	1,84144795	1,84146118	2,2019831805179421	2	-0,618268609	0,00405486673
2	1	0	1	0	4735,98	1,85494936	1,8549341	2,2631027686099171	2	-0,615253329	0,0041979067
2	1	0	0	0	4737,33	1,86845064	1,86877787	2,3254036239037888	2	-0,612154126	0,00434566289
2	1	0	1	0	4738,68	1,88195193	1,88214064	2,38959928788244	2	-0,608969986	0,00449756207
2	1	0	1	0	4740,03	1,89545321	1,89567387	2,451082408428185	2	-0,605700314	0,00464645308
2	1	0	0	0	4741,38	1,90895438	1,90933728	2,5166857199122493	2	-0,602345467	0,00480520166
2	1	0	1	0	4742,73	1,92245579	1,92275023	2,5828521351019552	2	-0,598900914	0,00496617937
2	1	0	1	0	4744,08	1,93595695	1,93634343	2,6508268676698208	2	-0,595366895	0,00513291126
2	1	0	0	0	4745,43	1,94945836	1,94976628	2,7183388111491952	2	-0,591741264	0,00530012557
2	1	0	0	0	4746,78	1,96295953	1,96320915	2,7867970659086954	2	-0,588024795	0,00547106564
2	1	0	1	0	4748,13	1,9764607	1,97669208	2,8558168113231587	2	-0,584214568	0,00564507069
2	1	0	0	0	4749,48	1,98996186	1,98998487	2,9243516350785901	2	-0,580311775	0,00581941567
2	1	0	0	0	4750,83	2,00346327	2,00364804	2,9931177490701299	2	-0,576315999	0,0059971544
2	1	0	1	0	4752,18	2,01696467	2,01711106	3,0621443645407782	2	-0,572225392	0,00617668545
2	1	0	0	0	4753,53	2,03046584	2,03071427	3,1346132506926861	2	-0,568040907	0,00636550365
2	1	0	0	0	4754,88	2,04396701	2,04446793	3,1990322458247251	2	-0,563765645	0,00654031895
2	1	0	1	0	4756,23	2,05746818	2,05783057	3,2674931374688826	2	-0,559399664	0,00672394736
2	1	0	0	0	4757,58	2,0709703	2,07129407	3,3345664161501248	2	-0,554942667	0,00690686749
2	1	0	0	0	4758,93	2,08447099	2,08467627	3,3940933297077824	2	-0,550398529	0,00707558589
2	1	0	1	0	4760,28	2,09797215	2,09835982	3,4555800768236365	2	-0,545771718	0,00725105032
2	1	0	1	0	4761,63	2,11147308	2,11165237	3,512849715848759	2	-0,541066766	0,00741791725
2	1	0	0	0	4762,98	2,12497449	2,12529564	3,5687337828179226	2	-0,536286354	0,00758461421
2	1	0	1	0	4764,33	2,13847566	2,13864827	3,6116359755396845	2	-0,531436265	0,00772401923
2	1	0	1	0	4765,68	2,15197706	2,15211129	3,6520460608104768	2	-0,526531637	0,00785961002
2	1	0	0	0	4767,03	2,16547823	2,16561437	3,6854111788173504	2	-0,521575809	0,00798117928
2	1	0	1	0	4768,38	2,17897964	2,1790874	3,7095687497158829	2	-0,516582131	0,00808347482
2	1	0	1	0	4769,73	2,1924808	2,19277072	3,7205244898796083	2	-0,511566699	0,00815825723
2	1	0	0	0	4771,08	2,20598221	2,20618367	3,7191397224863322	2	-0,506542146	0,00820510555
2	1	0	0	0	4772,43	2,21948361	2,2196064	3,700818259268999	2	-0,501530051	0,0082143601
2	1	0	1	0	4773,78	2,23298454	2,23310924	3,6680974289774752	2	-0,496553212	0,00819126237
2	1	0	0	0	4775,13	2,24648595	2,24667263	3,6168223656714035	2	-0,491632909	0,00812581554
2	1	0	0	0	4776,48	2,25998735	2,26013565	3,5503588604430266	2	-0,486792594	0,008024293
2	1	0	1	0	4777,83	2,27348852	2,273839	3,4650875243047776	2	-0,482055902	0,00787905138
2	1	0	0	0	4779,18	2,28698969	2,28724194	3,358039836088816	2	-0,477448016	0,0076806494
2	1	0	0	0	4780,53	2,30049086	2,30079532	3,2367318309843469	2	-0,472994059	0,0074470574
2	1	0	1	0	4781,88	2,31399202	2,31432819	3,0944161266088435	2	-0,468717217	0,00716149434
2	1	0	1	0	4783,23	2,32749343	2,32780147	2,9298160001635507	2	-0,464648336	0,00682003004
2	1	0	0	0	4784,58	2,3409946	2,34110379	2,7401633200546093	2	-0,460817099	0,0064150067
2	1	0	1	0	4785,93	2,35449576	2,35451674	2,5266611799597741	2	-0,457257628	0,00594906602
2	1	0	1	0	4787,28	2,36799717	2,36808991	2,2982293758541344	2	-0,453997791	0,00544241397
2	1	0	0	0	4788,63	2,38149858	2,38184333	2,0661268544693776	2	-0,451052248	0,00492119044
2	1	0	1	0	4789,98	2,39499998	2,39520597	1,8661012543986227	2	-0,448403418	0,0044696969
2	1	0	1	0	4791,33	2,40850091	2,40876913	1,7265593390911818	2	-0,445985019	0,00415888289
2	1	0	0	0	4792,68	2,42200232	2,42209196	1,64318816550076	2	-0,443715006	0,00397995301
2	1	0	0	0	4794,03	2,43550372	2,43574572	1,6019612220476774	2	-0,441527516	0,00390197011
2	1	0	1	0	4795,38	2,44900489	2,44928861	1,5880915392190218	2	-0,439375728	0,00388969458
2	1	0	0	0	4796,73	2,46250606	2,46280169	1,592698376004897	2	-0,437229663	0,00392250018
2	1	0	0	0	4798,08	2,47600722	2,4762845	1,612474248434104	2	-0,435066938	0,00399294496
2	1	0	1	0	4799,43	2,48950863	2,48964715	1,6430419671038781	2	-0,432869047	0,00409059459
2	1	0	0	0	4800,78	2,5030098	2,50316048	1,682719309503831	2	-0,43062371	0,00421211636
2	1	0	0	0	4802,13	2,51651144	2,51661325	1,7291627389689274	2	-0,428320318	0,00435163407
2	1	0	1	0	4803,48	2,53001237	2,53035688	1,7822518702596355	2	-0,425950319	0,00450973306
2	1	0	0	0	4804,84	2,54351354	2,54365969	1,8427622492114733	2	-0,423502445	0,00468736002
2	1	0	0	0	4806,19	2,55701494	2,55730295	1,9088229841242211	2	-0,420969337	0,0048814388
2	1	0	1	0	4807,54	2,57051635	2,57086587	1,9818250065048525	2	-0,418342859	0,00509500643
2	1	0	1	0	4808,89	2,58401752	2,58416867	2,0605490468442458	2	-0,415614575	0,00532480609
2	1	0	0	0	4810,24	2,59751868	2,59751153	2,1432841351876598	2	-0,412776202	0,00556720514
2	1	0	1	0	4811,59	2,61101985	2,61107445	2,2323444088300058	2	-0,409821838	0,00582881738
2	1	0	1	0	4812,94	2,62452102	2,62479806	2,3237057129541974	2	-0,406746536	0,00609925808
2	1	0	0	0	4814,29	2,63802242	2,6382308	2,4179406898716992	2	-0,403545022	0,00637908559
2	1	0	1	0	4815,64	2,65152359	2,65143323	2,5128359707693245	2	-0,400215626	0,00666261697
2	1	0	1	0	4816,99	2,665025	2,66498637	2,6110215342293142	2	-0,396754891	0,00695833704
2	1	0	0	0	4818,34	2,67852616	2,67869997	2,7074003623177597	2	-0,393163204	0,0072523132
2	1	0	1	0	4819,69	2,69202852	2,69236398	2,8014419863548454	2	-0,389443249	0,00754250167
2	1	0	1	0	4821,04	2,70552874	2,7056458	2,8946304122606906	2	-0,38559708	0,0078318445
2	1	0	0	0	4822,39	2,7190299	2,71920896	2,9845593112210464	2	-0,381626964	0,00811564084
2	1	0	0	0	4823,74	2,73253131	2,73278236	3,0723300172636794	2	-0,377537429	0,00839600898
2	1	0	1	0	4825,09	2,74603271	2,74639559	3,1552668809890675	2	-0,373331815	0,00866561104
2	1	0	0	0	4826,44	2,75953388	2,75955772	3,2338675744831418	2	-0,369017363	0,00892404467
2	1	0	0	0	4827,79	2,77303505	2,7733717	3,308634950468928	2	-0,364600182	0,00917607453
2	1	0	1	0	4829,14	2,78653622	2,78666425	3,3776012559731898	2	-0,36008504	0,00941224024
2	1	0	0	0	4830,49	2,80003786	2,80037928	3,4398895521809152	2	-0,355480999	0,00963299535
2	1	0	0	0	4831,84	2,81353879	2,81374025	3,4964253331224032	2	-0,350797713	0,00983803254
2	1	0	1	0	4833,19	2,82703996	2,82727337	3,5465151394407002	2	-0,34604159	0,0100269681
2	1	0	1	0	4834,54	2,84054136	2,84064627	3,5910471156239578	2	-0,341222644	0,0102008944
2	1	0	0	0	4835,89	2,85404253	2,85433984	3,629004770268992	2	-0,336346388	0,0103584128
2	1	0	1	0	4837,24	2,86754394	2,86787295	3,6598532237112538	2	-0,331424057	0,0104959942
2	1	0	1	0	4838,59	2,88104534	2,88116527	3,6844910234213018	2	-0,326464742	0,0106156273
2	1	0	0	0	4839,94	2,89454627	2,89483881	3,7042839129765818	2	-0,321474999	0,0107233049
2	1	0	1	0	4841,29	2,90804768	2,90838218	3,717590416471161	2	-0,316462904	0,0108121736
2	1	0	1	0	4842,64	2,92154884	2,92152429	3,7221415713429453	2	-0,311438978	0,0108743273
2	1	0	0	0	4843,99	2,93505001	2,93524766	3,7266201364497248	2	-0,306409031	0,0109385531
2	1	0	0	0	4845,34	2,94855022	2,94872999	3,7219601409169555	2	-0,301380187	0,0109750554
2	1	0	1	0	4846,69	2,96205282	2,96221375	3,7126262920598093	2	-0,296360105	0,0109975925
2	1	0	0	0	4848,04	2,97555399	2,97561646	3,6994170298178944	2	-0,291354597	0,0110080466
2	1	0	0	0	4849,39	2,98905516	2,98898911	3,6821321000655443	2	-0,286369979	0,0110058524
2	1	0	1	0	4850,74	3,00255656	3,00272274	3,6600383569796691	2	-0,281412989	0,0109900804
2	1	0	0	0	4852,09	3,01605773	3,01621604	3,6338967693348678	2	-0,276489317	0,010960618
2	1	0	0	0	4853,44	3,0295589	3,02979922	3,6047644627591046	2	-0,271603137	0,010921713
2	1	0	1	0	4854,79	3,0430603	3,04306149	3,5714659666021741	2	-0,266757727	0,0108681908
2	1	0	1	0	4856,14	3,05656123	3,05680442	3,5369767978389286	2	-0,26195845	0,0108118467
2	1	0	0	0	4857,49	3,07006288	3,07024813	3,4986881377796237	2	-0,257208437	0,010741841
2	1	0	1	0	4858,84	3,08356404	3,08354068	3,4600520581006931	2	-0,252509624	0,0106692109
2	1	0	1	0	4860,19	3,09706521	3,09736466	3,4193591487904378	2	-0,247865349	0,0105910022
2	1	0	0	0	4861,54	3,11056638	3,11080742	3,375414793690041	2	-0,243277416	0,0105002653
2	1	0	1	0	4862,89	3,12406778	3,12420011	3,3276464144388742	2	-0,238750994	0,0103962328
2	1	0	1	0	4864,24	3,13756895	3,13759279	3,280311888704695	2	-0,234289333	0,0102922833
2	1	0	0	0	4865,59	3,15107012	3,15116596	3,2250247548023763	2	-0,229897052	0,0101625882
2	1	0	1	0	4866,94	3,16457152	3,16475916	3,1671420906980787	2	-0,225579739	0,0100232419
2	1	0	1	0	4868,29	3,17807269	3,17815185	3,1052954656382355	2	-0,221343696	0,00986910053
2	1	0	0	0	4869,64	3,1915741	3,19190574	3,0375707447528877	2	-0,217194289	0,00969563983
2	1	0	1	0	4870,99	3,20507574	3,20531011	2,9657469040594682	2	-0,213141218	0,00950613897
2	1	0	1	0	4872,34	3,21857667	3,21878147	2,8871767582992678	2	-0,209189057	0,00929319113
2	1	0	0	0	4873,69	3,23207784	3,23228455	2,799861118197441	2	-0,205348611	0,00904994737
2	1	0	0	0	4875,04	3,245579	3,24562693	2,7118553953866122	2	-0,201624811	0,00880167075
2	1	0	1	0	4876,39	3,25908017	3,25942111	2,615001480405528	2	-0,198028207	0,00852339063
2	1	0	0	0	4877,74	3,27258134	3,27280378	2,5135504379868509	2	-0,194564655	0,0082263574
2	1	0	0	0	4879,09	3,28608298	3,28637695	2,4077143066873107	2	-0,191242665	0,00791265722
2	1	0	1	0	4880,44	3,29958415	3,29958892	2,2972378830115126	2	-0,188065842	0,00757994084
2	1	0	0	0	4881,79	3,31308532	3,31322241	2,1895725298672915	2	-0,185035542	0,00725454092
2	1	0	0	0	4883,14	3,32658648	3,32667565	2,0824754474063667	2	-0,182151973	0,00692772027
2	1	0	1	0	4884,49	3,34008765	3,3402586	1,9806456981847626	2	-0,179408476	0,00661586877
2	1	0	1	0	4885,84	3,35358858	3,35377908	1,8859128947974771	2	-0,176798284	0,00632493524
2	1	0	0	0	4887,19	3,36709046	3,36705446	1,8005654029548131	2	-0,174309835	0,00606260169
2	1	0	1	0	4888,54	3,38059163	3,38100863	1,7232882380485606	2	-0,171931371	0,00582645228
2	1	0	1	0	4889,89	3,3940928	3,39416075	1,6558344084769488	2	-0,169651195	0,00562016806
2	1	0	0	0	4891,24	3,40759397	3,40777397	1,5952815798421725	2	-0,167456761	0,00543635897
2	1	0	1	0	4892,59	3,42109537	3,42118692	1,5424474806835242	2	-0,165338501	0,0052770013
2	1	0	1	0	4893,94	3,43459678	3,43479013	1,4955187588930096	2	-0,163287863	0,00513679301
2	1	0	0	0	4895,29	3,44809771	3,4482832	1,4554564912493021	2	-0,161295727	0,00501882611
2	1	0	1	0	4896,64	3,46159935	3,46176624	1,4204971846193048	2	-0,159353867	0,00491742929
2	1	0	1	0	4897,99	3,47510052	3,47510862	1,3901383696744834	2	-0,157456666	0,00483088195
2	1	0	0	0	4899,34	3,48860168	3,48883224	1,3641505592192224	2	-0,155597001	0,00475929258
2	1	0	0	0	4900,69	3,50210285	3,50223517	1,3416390179966858	2	-0,15377073	0,0046987352
2	1	0	1	0	4902,04	3,51560402	3,51573825	1,3231522083903347	2	-0,151971772	0,00465185661
2	1	0	0	0	4903,39	3,52910566	3,52932119	1,3069484606385195	2	-0,150195777	0,00461264094
2	1	0	0	0	4904,74	3,54260683	3,54276443	1,2954031440118925	2	-0,148438722	0,00458930805
2	1	0	1	0	4906,09	3,556108	3,55648756	1,2854521113137416	2	-0,146695957	0,00457169442
2	1	0	0	0	4907,44	3,56960917	3,56971025	1,2790364104633509	2	-0,144964069	0,00456578936
2	1	0	0	0	4908,79	3,58311033	3,5832932	1,2750243044768758	2	-0,143239439	0,00456878589
2	1	0	1	0	4910,14	3,59661198	3,59682655	1,2744533087437339	2	-0,14151752	0,00458398741
2	1	0	1	0	4911,49	3,61011314	3,61031961	1,2760465306540336	2	-0,139795408	0,00460693566
2	1	0	0	0	4912,85	3,62361431	3,62381244	1,2793974870194997	2	-0,1380696	0,00463629654
2	1	0	1	0	4914,20	3,63711548	3,63740563	1,2857470692445875	2	-0,136337444	0,00467678346
2	1	0	1	0	4915,55	3,65061665	3,65063787	1,293379626236856	2	-0,134595945	0,00472166063
2	1	0	0	0	4916,90	3,66411829	3,66419125	1,303050641901792	2	-0,132842392	0,00477462681
2	1	0	1	0	4918,25	3,67761946	3,67777491	1,3138605154429861	2	-0,131075248	0,00483208336
2	1	0	1	0	4919,60	3,69112039	3,6913178	1,3244461932530021	2	-0,129294112	0,00488895178
2	1	0	0	0	4920,95	3,70462179	3,70476055	1,3357719952861408	2	-0,127497435	0,00494871521
2	1	0	1	0	4922,30	3,71812248	3,7181325	1,3474563075376427	2	-0,125685349	0,00501002092
2	1	0	1	0	4923,65	3,73162436	3,73190713	1,3592336211974429	2	-0,123857468	0,00507253362
2	1	0	0	0	4925,00	3,74512553	3,7451396	1,3717615315690654	2	-0,122012876	0,00513743842
2	1	0	0	0	4926,35	3,7586267	3,75879288	1,3853246929744874	2	-0,120151304	0,00520714838
2	1	0	1	0	4927,70	3,77212834	3,7724359	1,3997156868378245	2	-0,118270434	0,00528033776
2	1	0	0	0	4929,05	3,78562951	3,78590918	1,4153131116181594	2	-0,116369672	0,00535824709
2	1	0	0	0	4930,40	3,79913068	3,79935241	1,4320913512880584	2	-0,11444737	0,00544101978
2	1	0	1	0	4931,75	3,81263185	3,81290531	1,449924475513399	2	-0,112501226	0,00552842487
2	1	0	0	0	4933,10	3,82613301	3,82630849	1,4698732839897222	2	-0,110528886	0,00562418858
2	1	0	0	0	4934,45	3,83963466	3,83972096	1,4913692132880278	2	-0,108528897	0,00572644174
2	1	0	1	0	4935,80	3,85313582	3,85335422	1,5151601023972016	2	-0,106497981	0,00583844865
2	1	0	1	0	4937,15	3,86663699	3,8668673	1,5407350168873827	2	-0,104434416	0,00595781766
2	1	0	0	0	4938,50	3,88013816	3,88013959	1,568649320552744	2	-0,10233447	0,00608657813
2	1	0	1	0	4939,85	3,89363933	3,89368296	1,5986658415446691	2	-0,100195557	0,00622469792
2	1	0	1	0	4941,20	3,90714097	3,90740657	1,6313143068303635	2	-0,0980144218	0,00637420826
2	1	0	0	0	4942,55	3,92064214	3,92081952	1,6662150584161331	2	-0,0957875475	0,00653292844
2	1	0	1	0	4943,90	3,9341433	3,9344027	1,7042340772847382	2	-0,093511425	0,00670514302
2	1	0	1	0	4945,25	3,94764447	3,94781566	1,7454925756901491	2	-0,0911823586	0,00689088274
2	1	0	0	0	4946,60	3,96114588	3,96125817	1,790102436517671	2	-0,0887945965	0,00709105795
2	1	0	0	0	4947,95	3,97464657	3,97474194	1,8392469028255968	2	-0,0863440409	0,00731053157
2	1	0	1	0	4949,30	3,98814821	3,98806405	1,891467425351337	2	-0,0838252679	0,00754329329
2	1	0	0	0	4950,65	4,00164938	4,00174713	1,9492265619337523	2	-0,0812322274	0,00780031178
2	1	0	0	0	4952,00	4,01515102	4,01547813	2,0115806449425619	2	-0,078558445	0,00807745848
2	1	0	1	0	4953,35	4,02865219	4,0288434	2,0799752995371888	2	-0,0757963806	0,00837989431
2	1	0	0	0	4954,70	4,04215336	4,04224634	2,1535592898726534	2	-0,0729382262	0,00870521739
2	1	0	0	0	4956,05	4,05565453	4,05578947	2,2330116896579638	2	-0,0699767694	0,00905662496
2	1	0	1	0	4957,40	4,06915617	4,06933308	2,317448622857527	2	-0,0669044033	0,00943046995
2	1	0	0	0	4958,75	4,08265734	4,08275557	2,4078356667111328	2	-0,063712962	0,00983060431
2	1	0	0	0	4960,10	4,0961585	4,09639883	2,5050061140209366	2	-0,0603961088	0,010261504
2	1	0	1	0	4961,45	4,10965967	4,11014271	2,6069693826139043	2	-0,056944102	0,0107150162
2	1	0	1	0	4962,80	4,12315989	4,12335205	2,714191899875023	2	-0,0533518009	0,0111915683
2	1	0	0	0	4964,15	4,13666248	4,13701868	2,8262949188550336	2	-0,0496108234	0,0116924345
2	1	0	1	0	4965,50	4,15016365	4,15014029	2,9437744611253318	2	-0,0457142703	0,0122170774
2	1	0	1	0	4966,85	4,16366386	4,1639328	3,0676031094530298	2	-0,0416554883	0,0127732931
2	1	0	0	0	4968,20	4,17716551	4,17736673	3,1966616821785754	2	-0,0374258645	0,0133536281
2	1	0	1	0	4969,55	4,19066715	4,19072962	3,3309765718877242	2	-0,0330185704	0,0139592225
2	0	0	1	1	4970,86	4,19616747	4,19616318	3,3309432553748269	2	-0,0285930261	0,0139771812
2	0	0	0	1	4972,21	4,1826663	4,18295097	3,0895862293740102	2	-0,0242644139	0,012923588
2	0	0	0	1	4973,56	4,16916513	4,169137	2,867083486790456	2	-0,0202469826	0,0119532635
2	0	0	1	1	4974,91	4,15566397	4,15570402	2,6570565191407952	2	-0,0165206268	0,0110419402
2	0	0	0	1	4976,26	4,1421628	4,14228106	2,4579486877967862	2	-0,0130701382	0,0101815145
2	0	0	0	1	4977,61	4,12866163	4,12866783	2,269406709820032	2	-0,00988159422	0,00936962664
2	0	0	1	1	4978,96	4,11516047	4,11532545	2,0908174390594166	2	-0,00694054319	0,00860439427
2	0	0	1	1	4980,31	4,10165977	4,10182476	1,9207991511156131	2	-0,00423504598	0,0078787813
2	0	0	0	1	4981,66	4,08815765	4,08848953	1,7601454854011536	2	-0,0017524251	0,00719633652
2	0	0	1	1	4983,01	4,07465649	4,0747261	1,6074468487252746	2	0,000518790272	0,00654990552
2	0	0	1	1	4984,36	4,06115532	4,06114244	1,4628143059089814	2	0,00258873263	0,00594069716
2	0	0	0	1	4985,71	4,04765415	4,0476594	1,325867639544109	2	0,00446940865	0,00536666065
2	0	0	1	1	4987,06	4,03415251	4,03420687	1,1970360338067034	2	0,0061705648	0,00482909102
2	0	0	1	1	4988,41	4,02065134	4,020854	1,0752812388042638	2	0,00770232826	0,00432354864
2	0	0	0	1	4989,76	4,00715017	4,00739098	0,96072653215378163	2	0,00907504279	0,00385000673
2	0	0	1	1	4991,11	3,99364901	3,99388814	0,85306076084573939	2	0,0102976356	0,0034070292
2	0	0	1	1	4992,46	3,98014736	3,98005414	0,75194596281895974	2	0,0113793956	0,00299278554
2	0	0	0	1	4993,81	3,96664619	3,96663165	0,65830326561505664	2	0,0123296445	0,00261124666
2	0	0	1	1	4995,16	3,9531455	3,95318913	0,57096205960477862	2	0,0131574217	0,00225712103
2	0	0	1	1	4996,55	3,93924356	3,93938494	0,48662552749738144	2	0,013890543	0,00191700528
2	0	0	0	1	4997,90	3,92574239	3,9260323	0,41198568868761146	2	0,014495072	0,00161746913
2	0	0	0	1	4999,25	3,91224122	3,91236877	0,3445713121909639	2	0,0150037743	0,00134809001
2	0	0	1	1	5000,60	3,89874005	3,89885545	0,28348641959019094	2	0,0154259689	0,00110527256
2	0	0	0	1	5001,95	3,88523889	3,88551307	0,22919469598370323	2	0,0157702547	0,00089053897
2	0	0	0	1	5003,30	3,87173724	3,87189984	0,18050526645189757	2	0,0160451084	0,000698898337
2	0	0	1	1	5004,65	3,85823607	3,8583467	0,13737959038310987	2	0,0162581094	0,000530058111
2	0	0	0	1	5006,00	3,84473491	3,84481311	0,098985189610781837	2	0,0164161604	0,000380579557
2	0	0	0	1	5007,35	3,83123374	3,83116007	0,064608187007252122	2	0,0165250041	0,000247524295
2	0	0	1	1	5008,74	3,81733251	3,81752658	0,032395009756631507	2	0,0165912379	0,000123668811
2	0	0	0	1	5010,11	3,80363035	3,80371737	0,0041436683030612704	2	0,0166152865	1,57613431E-005
2	0	0	0	1	5011,52	3,7895298	3,789819	-0,022267512914064979	2	0,0166017525	8,43898451E-005
2	0	0	1	1	5012,87	3,77602863	3,77635574	-0,044989989284658918	2	0,0165554341	0,000169898209
2	0	0	1	1	5014,22	3,76252747	3,76279259	-0,066502046907165542	2	0,0164793283	0,000250233395
2	0	0	0	1	5015,58	3,74902582	3,74907923	-0,08583706491238752	2	0,0163757708	0,000321809959
2	0	0	1	1	5016,97	3,73512459	3,73522544	-0,10391233159073926	2	0,0162426122	0,000388135988
2	0	0	1	1	5018,32	3,72162342	3,72162199	-0,1208259483488905	2	0,0160895195	0,0004496685
2	0	0	0	1	5019,67	3,70812225	3,70853972	-0,13745477496801573	2	0,0159138087	0,000509756501
2	0	0	1	1	5021,02	3,69462109	3,69496679	-0,1526736719533801	2	0,0157168321	0,000564124144
2	0	0	1	1	5022,37	3,68111944	3,68132329	-0,16757934804384922	2	0,0154995797	0,000616913778
2	0	0	0	1	5023,72	3,66761827	3,66758943	-0,18143484326234762	2	0,0152629539	0,000665428524
2	0	0	0	1	5025,07	3,65411735	3,65434718	-0,19519142395195965	2	0,015007684	0,000713297224
2	0	0	1	1	5026,42	3,64061594	3,64078426	-0,20813920116052032	2	0,014734542	0,000757789938
2	0	0	0	1	5027,77	3,62711453	3,62723088	-0,22053319169208419	2	0,0144440969	0,000799924775
2	0	0	0	1	5029,12	3,61361337	3,61395836	-0,23281556103999491	2	0,0141371852	0,000841385743
2	0	0	1	1	5030,47	3,6001122	3,60037518	-0,24422922963276573	2	0,0138141597	0,000879316882
2	0	0	0	1	5031,82	3,58661103	3,58682227	-0,2559347435987248	2	0,0134756695	0,000917992438
2	0	0	0	1	5033,17	3,57310939	3,57329917	-0,26646786811761603	2	0,0131223174	0,000952169416
2	0	0	1	1	5034,52	3,55960822	3,55981612	-0,27721576803984771	2	0,0127545372	0,0009868372
2	0	0	0	1	5035,87	3,54610729	3,54624271	-0,28703867848139718	2	0,0123728914	0,0010179088
2	0	0	0	1	5037,22	3,53260589	3,53290009	-0,29686005747256237	2	0,0119778719	0,0010487769
2	0	0	1	1	5038,57	3,51910472	3,51923656	-0,30627682424771277	2	0,011569961	0,00107786059
2	0	0	1	1	5039,92	3,50560308	3,50604463	-0,31508746789768294	2	0,0111497389	0,00110471074
2	0	0	0	1	5041,27	3,49210191	3,49227071	-0,32343379322749978	2	0,0107176267	0,00112951838
2	0	0	1	1	5042,62	3,47860074	3,47892809	-0,33171262436856883	2	0,0102740675	0,00115400436
2	0	0	1	1	5043,97	3,46509957	3,46511436	-0,34002846060320826	2	0,00981955696	0,00117823749
2	0	0	0	1	5045,32	3,45159841	3,45188189	-0,34748816622110778	2	0,00935441256	0,00119948806
2	0	0	1	1	5046,67	3,43809676	3,43859935	-0,35493770994556506	2	0,00887919869	0,00122048857
2	0	0	1	1	5048,02	3,42459559	3,42473531	-0,36185535237503565	2	0,00839438755	0,0012392588
2	0	0	0	1	5049,37	3,41109467	3,41119242	-0,36838349909521683	2	0,00790042523	0,00125662703
2	0	0	0	1	5050,72	3,39759326	3,39778948	-0,37504347902722637	2	0,00739766331	0,00127431878
2	0	0	1	1	5052,07	3,38409185	3,38429642	-0,38086126123865504	2	0,00688655348	0,00128894742
2	0	0	0	1	5053,42	3,37059045	3,37090373	-0,38674906811987328	2	0,00636741053	0,00130369386
2	0	0	0	1	5054,77	3,35708952	3,35718012	-0,39218259633829075	2	0,00584083749	0,0013166276
2	0	0	1	1	5056,12	3,34358811	3,34364676	-0,39747593132778982	2	0,00530704763	0,00132901908
2	0	0	0	1	5057,47	3,33008671	3,33010364	-0,40213776131471194	2	0,00476652524	0,00133916037
2	0	0	0	1	5058,82	3,31658554	3,31674099	-0,40682311697552717	2	0,00421971222	0,00134932692
2	0	0	1	1	5060,17	3,30308437	3,30299759	-0,4111188747920096	2	0,00366682489	0,00135792466
2	0	0	1	1	5061,52	3,28958321	3,28995419	-0,41489392951561754	2	0,00310837268	0,00136498199
2	0	0	0	1	5062,87	3,27608204	3,27623224	-0,41904999719311853	2	0,00254464499	0,0013729051
2	0	0	1	1	5064,22	3,26258039	3,26274872	-0,42234989115968346	2	0,001976036	0,00137802155
2	0	0	1	1	5065,57	3,24907923	3,24915552	-0,4254511293644711	2	0,00140285352	0,00138235686
2	0	0	0	1	5066,92	3,23557806	3,23565245	-0,42833393284430163	2	0,000825370604	0,00138593977
2	0	0	1	1	5068,27	3,22207689	3,22226977	-0,4313555406406535	2	0,000243950228	0,00138994388
2	0	0	1	1	5069,62	3,20857573	3,20883727	-0,43391335864240954	2	-0,000340976432	0,0013923574
2	0	0	0	1	5070,97	3,19507408	3,19526362	-0,43625853676349101	2	-0,000929369999	0,00139396102
2	0	0	0	1	5072,32	3,18157387	3,18204236	-0,43860275919428915	2	-0,00152083416	0,00139565254
2	0	0	1	1	5073,67	3,16807175	3,16819763	-0,44052025256678509	2	-0,00211513811	0,00139565521
2	0	0	0	1	5075,02	3,15457058	3,15485501	-0,44267141632735776	2	-0,00271214591	0,00139656418
2	0	0	0	1	5076,37	3,14106941	3,1411612	-0,44424485461786566	2	-0,00331151905	0,00139544473
2	0	0	1	1	5077,72	3,12756777	3,12802935	-0,44608806756635565	2	-0,00391316833	0,00139537652
2	0	0	0	1	5079,07	3,11406708	3,11423588	-0,44721152788648941	2	-0,00451699691	0,00139272213
2	0	0	1	1	5080,14	3,10326648	3,10351992	-0,44968426227569581	2	-0,00499847904	0,00139560411