File: Experimentelles/Rohdaten/Batteriemessungen/AlteZelle/Studenten_Batterietests/Sonstige/ZView-Export/LiCoO2 vs Li_05_GCPL_C01_loop3.txt
EC-Lab ASCII FILE
Nb header lines : 3
mode	ox/red	error	control changes	Ns changes	counter inc.	Ns	time/s	control/V/mA	Ewe/V	dq/mA.h	<I>/mA	P/W	(Q-Qo)/mA.h	x	Capacity/mA.h
1	0	0	1	1	0	1	141462,59	-0,100000001	4,19570208	0	0	0	0	0	0
1	0	0	1	0	0	1	141562,59	-0,100000001	3,95898247	-0,00027771726053083933	-0,099978198148294067	0,00039581192	-0,0027757934461305414	0,00010356858556911149	0,0027757934461305414
1	0	0	1	0	0	1	141662,59	-0,100000001	3,92581463	-0,00027771736507862806	-0,099978235785492109	0,000392496033	-0,0055529668958322752	0,00020718866092689872	0,0055529668958322752
1	0	0	1	0	0	1	141762,59	-0,100000001	3,90410376	-0,00027771675026209818	-0,099978014451575987	0,000390324538	-0,0083301374590085491	0,0003108086285845401	0,0083301374590085491
1	0	0	1	0	0	1	141862,59	-0,100000001	3,88705182	-0,00027771671131542986	-0,099978000430777587	0,000388619665	-0,01110730067737267	0,00041442832219736474	0,01110730067737267
1	0	0	1	0	0	1	141962,59	-0,100000001	3,87271166	-0,00027771697332254714	-0,099978094753325056	0,00038718633	-0,013884465015891843	0,00051804805760468058	0,013884465015891843
1	0	0	1	0	0	1	142062,59	-0,100000001	3,86003256	-0,00027771698463087283	-0,099978098824321664	0,000385918713	-0,016661628613732246	0,00062166776537627558	0,016661628613732246
1	0	0	1	0	0	1	142162,59	-0,100000001	3,84872842	-0,00027771581546506947	-0,09997767792469833	0,000384786923	-0,019438794941226131	0,000725287574994912	0,019438794941226131
1	0	0	1	0	0	1	142262,59	-0,100000001	3,83820724	-0,00027771632910561229	-0,099977862835264806	0,000383735751	-0,022215954044314621	0,00082890711506126989	0,022215954044314621
1	0	0	1	0	0	1	142362,59	-0,100000001	3,82854509	-0,00027771548269937434	-0,099977558129066816	0,000382768601	-0,024993115932264992	0,0009325267590345687	0,024993115932264992
1	0	0	1	0	0	1	142462,59	-0,100000001	3,8192842	-0,0002777168173583017	-0,099978038606205491	0,000381844555	-0,02777028580806271	0,001036146701045192	0,02777028580806271
1	0	0	1	0	0	1	142562,59	-0,100000001	3,81051946	-0,00027771666603245667	-0,099977984128909786	0,000380968064	-0,030547450783743526	0,0011397664602258653	0,030547450783743526
1	0	0	1	0	0	1	142662,59	-0,100000001	3,80236602	-0,0002777159691200488	-0,099977733240482214	0,000380151934	-0,033324618028526413	0,0012433863040697877	0,033324618028526413
1	0	0	1	0	0	1	142762,59	-0,100000001	3,79425073	-0,00027771740522773728	-0,099978250243824781	0,000379342557	-0,036101781664193408	0,0013470060132527437	0,036101781664193408
1	0	0	1	0	0	1	142862,59	-0,100000001	3,7866509	-0,00027771687757016883	-0,099978060282474266	0,000378582015	-0,038878952126831123	0,0014506259771591565	0,038878952126831123
1	0	0	1	0	0	1	142962,59	-0,100000001	3,77903199	-0,00027771613639510339	-0,099977793459492454	0,000377819291	-0,041656116041244621	0,001554245696742519	0,041656116041244621
1	0	0	1	0	0	1	143062,59	-0,100000001	3,77183318	-0,0002777159876090785	-0,099977739896531853	0,00037709935	-0,044433279324071565	0,0016578653927605386	0,044433279324071565
1	0	0	1	0	0	1	143162,59	-0,100000001	3,7647109	-0,00027771602432264221	-0,099977753113412736	0,000376387325	-0,047210440577374022	0,0017614850130542704	0,047210440577374022
1	0	0	1	0	0	1	143262,59	-0,100000001	3,75770307	-0,00027771572997007104	-0,099977647146503706	0,000375686301	-0,049987596220918285	0,0018651044240403821	0,049987596220918285
1	0	0	1	0	0	1	143362,59	-0,100000001	3,75098157	-0,00027771641889587043	-0,099977895159752666	0,000375015254	-0,052764756857189331	0,0019687240213118422	0,052764756857189331
1	0	0	1	0	0	1	143462,59	-0,100000001	3,74429846	-0,00027771619259566067	-0,099977813691689894	0,000374346768	-0,055541915867385638	0,0020723435579122678	0,055541915867385638
1	0	0	1	0	0	1	143562,59	-0,100000001	3,73767257	-0,0002777156910147104	-0,099977633122576051	0,000373683666	-0,058319075415330918	0,0021759631145768307	0,058319075415330918
1	0	0	1	0	0	1	143662,59	-0,100000001	3,73119926	-0,00027771549887499875	-0,099977563952290701	0,000373036222	-0,061096232954988352	0,0022795825963094736	0,061096232954988352
1	0	0	1	0	0	1	143762,59	-0,100000001	3,72470713	-0,00027771681577795085	-0,09997803803727927	0,000372388924	-0,063873395092373798	0,0023832022495895309	0,063873395092373798
1	0	0	1	0	0	1	143862,59	-0,100000001	3,71827197	-0,00027771642559063101	-0,099977897569866099	0,000371745002	-0,066650565233696154	0,0024868222015072349	0,066650565233696154
1	0	0	1	0	0	1	143962,59	-0,100000001	3,7120471	-0,00027771600752861962	-0,099977747067565555	0,000371122092	-0,069427728044857472	0,0025904418799267757	0,069427728044857472
1	0	0	1	0	0	1	144062,59	-0,100000001	3,70576477	-0,00027771687075785466	-0,099978057830041549	0,000370495167	-0,072204891697400448	0,0026940615897393971	0,072204891697400448
1	0	0	1	0	0	1	144162,59	-0,100000001	3,69957805	-0,00027771639113914637	-0,099977885167333568	0,000369875983	-0,074982061629284454	0,0027976815338426755	0,074982061629284454
1	0	0	1	0	0	1	144262,59	-0,100000001	3,69354415	-0,0002777164980740183	-0,099977923663881434	0,000369272864	-0,077759227910181594	0,0029013013417227251	0,077759227910181594
1	0	0	1	0	0	1	144362,59	-0,100000001	3,68733835	-0,00027771615530302128	-0,099977800266341811	0,000368651963	-0,08053639010433632	0,0030049209971209197	0,08053639010433632
1	0	0	1	0	0	1	144462,59	-0,100000001	3,68111324	-0,00027771559256646368	-0,099977597681212787	0,00036802885	-0,08331355122451305	0,003108540612447552	0,08331355122451305
1	0	0	1	0	0	1	144562,59	-0,100000001	3,67494559	-0,00027771673343951501	-0,099978008395447014	0,000367413741	-0,086090715482495181	0,0032121603448499226	0,086090715482495181
1	0	0	1	0	0	1	144662,59	-0,100000001	3,66872072	-0,00027771606447092362	-0,09997776756679177	0,000366790511	-0,088867878233075021	0,0033157800210090861	0,088867878233075021
1	0	0	1	0	0	1	144762,59	-0,100000001	3,66257215	-0,00027771670472373565	-0,099977998057768051	0,000366176624	-0,091645039894756634	0,0034193996565399936	0,091645039894756634
1	0	0	1	0	0	1	144862,59	-0,100000001	3,6564045	-0,00027771655859094525	-0,09997794544997175	0,000365559798	-0,094422204573021875	0,0035230194046236922	0,094422204573021875
1	0	0	1	0	0	1	144962,59	-0,100000001	3,65016055	-0,00027771664693247942	-0,099977977252919066	0,000364935666	-0,097199371542201997	0,003626639238184505	0,097199371542201997
1	0	0	1	0	0	1	145062,59	-0,100000001	3,64406919	-0,00027771700028164518	-0,099978104458598835	0,000364327134	-0,099976536665070682	0,0037302590028569555	0,099976536665070682
1	0	0	1	0	0	1	145162,59	-0,100000001	3,63771057	-0,0002777171684160001	-0,09997816498695712	0,000363691623	-0,10275370559401755	0,0038338789095393005	0,10275370559401755
1	0	0	1	0	0	1	145262,59	-0,100000001	3,63119936	-0,00027771746236665379	-0,099978270809175898	0,000363041036	-0,10553087381912381	0,0039374987899604064	0,10553087381912381
1	0	0	1	0	0	1	145362,59	-0,100000001	3,62503171	-0,00027771671716413565	-0,099978002536311347	0,000362423423	-0,1083080448591985	0,0040411187754117683	0,1083080448591985
1	0	0	1	0	0	1	145462,59	-0,100000001	3,61855841	-0,00027771725410554144	-0,099978195835187187	0,00036177694	-0,11108521689585662	0,0041447387980469984	0,11108521689585662
1	0	0	1	0	0	1	145562,59	-0,100000001	3,61214256	-0,0002777170081002017	-0,099978107273278746	0,000361135171	-0,11386238650849942	0,0042483587302389587	0,11386238650849942
1	0	0	1	0	0	1	145662,59	-0,100000001	3,60557389	-0,00027771719399715462	-0,099978174196171315	0,000360478705	-0,11663955581654922	0,0043519786510661434	0,11663955581654922
1	0	0	1	0	0	1	145762,59	-0,100000001	3,59900522	-0,00027771609146479104	-0,099977777284582528	0,000359820551	-0,11941672111366216	0,004455598422239881	0,11941672111366216
1	0	0	1	0	0	1	145862,59	-0,100000001	3,59224558	-0,00027771580274734234	-0,099977673346317274	0,000359144353	-0,12219387743012382	0,0045592178583334451	0,12219387743012382
1	0	0	1	0	0	1	145962,59	-0,100000001	3,58554339	-0,00027771611126139763	-0,099977784411359782	0,000358474674	-0,12497103745415621	0,0046628374327614592	0,12497103745415621
1	0	0	1	0	0	1	146062,59	-0,100000001	3,57855463	-0,00027771671131874122	-0,09997800043196969	0,000357776735	-0,12774820152521482	0,0047664571581894605	0,12774820152521482
1	0	0	1	0	0	1	146162,59	-0,100000001	3,57156587	-0,00027771687744102544	-0,099978060235982643	0,000357078214	-0,13052537068369054	0,0048700770734358368	0,13052537068369054
1	0	0	1	0	0	1	146262,59	-0,100000001	3,56459618	-0,00027771676206505962	-0,099978018700641446	0,000356381264	-0,13330253883581925	0,0049736969511340506	0,13330253883581925
1	0	0	1	0	0	1	146362,59	-0,100000001	3,55758834	-0,00027771664186525677	-0,099977975428719194	0,000355680473	-0,1360797076394544	0,0050773168531408474	0,1360797076394544
1	0	0	1	0	0	1	146462,59	-0,100000001	3,5504086	-0,00027771641418668957	-0,099977893464447821	0,000354962365	-0,13885687632561664	0,0051809367507645709	0,13885687632561664
1	0	0	1	0	0	1	146562,59	-0,100000001	3,54298067	-0,00027771745336304109	-0,099978267567875853	0,000354221062	-0,1416340466862737	0,0052845567108659482	0,1416340466862737
1	0	0	1	0	0	1	146662,59	-0,100000001	3,53564835	-0,00027771607209659286	-0,099977770312032282	0,000353486248	-0,14441120986408349	0,0053881764029656365	0,14441120986408349
1	0	0	1	0	0	1	146762,59	-0,100000001	3,52808666	-0,00027771615516187418	-0,099977800215528883	0,000352730334	-0,14718837087020221	0,0054917960140366106	0,14718837087020221
1	0	0	1	0	0	1	146862,59	-0,100000001	3,520468	-0,00027771631711224717	-0,099977858517654029	0,000351968862	-0,14996553340858118	0,0055954156822782758	0,14996553340858118
1	0	0	1	0	0	1	146962,59	-0,100000001	3,51273441	-0,00027771615677865014	-0,099977800797568128	0,000351195456	-0,15274269803523501	0,0056990354284362829	0,15274269803523501
1	0	0	1	0	0	1	147062,59	-0,100000001	3,50477195	-0,00027771568983917434	-0,09997763269938313	0,000350398797	-0,15551985874828755	0,0058026550285725645	0,15551985874828755
1	0	0	1	0	0	1	147162,59	-0,100000001	3,49684739	-0,00027771497026623952	-0,099977373653167142	0,000349605631	-0,15829701177168902	0,0059062743417976256	0,15829701177168902
1	0	0	1	0	0	1	147262,59	-0,100000001	3,48871303	-0,00027771571499605974	-0,09997764175586048	0,000348793314	-0,16107416628134765	0,0060098937104769395	0,16107416628134765
1	0	0	1	0	0	1	147362,59	-0,100000001	3,48034954	-0,00027771569882912771	-0,09997763593576585	0,000347957131	-0,16385132341145203	0,0061135131769286067	0,16385132341145203
1	0	0	1	0	0	1	147462,59	-0,100000001	3,47190952	-0,00027771559064628349	-0,099977596989948032	0,000347113179	-0,16662848203773894	0,0062171326992048563	0,16662848203773894
1	0	0	1	0	0	1	147562,59	-0,100000001	3,46348858	-0,00027771608605815306	-0,099977775338193178	0,000346271874	-0,1694056428398591	0,0063207523026643699	0,1694056428398591
1	0	0	1	0	0	1	147662,59	-0,100000001	3,45472407	-0,00027771540191438464	-0,099977529046475072	0,000345394772	-0,17218280193642333	0,0064243718424872998	0,17218280193642333
1	0	0	1	0	0	1	147762,59	-0,100000001	3,44601679	-0,00027771642208803034	-0,099977896308930061	0,000344525499	-0,17495996505833597	0,0065279915325013901	0,17495996505833597
1	0	0	1	0	0	1	147862,59	-0,100000001	3,43704224	-0,00027771650100085469	-0,099977924717542387	0,000343628344	-0,17773712877177837	0,0066316112445862502	0,17773712877177837
1	0	0	1	0	0	1	147962,59	-0,100000001	3,42783856	-0,0002777164894272056	-0,099977920551029363	0,000342708168	-0,18051429335978723	0,0067352309893023629	0,18051429335978723
1	0	0	1	0	0	1	148062,59	-0,100000001	3,41863465	-0,00027771590825087494	-0,099977711327583066	0,000341787265	-0,18329145366114685	0,0068388505740778266	0,18329145366114685
1	0	0	1	0	0	1	148162,59	-0,100000001	3,40929723	-0,0002777167112479607	-0,099978000406488717	0,00034085472	-0,18606862160732202	0,006942470444091639	0,18606862160732202
1	0	0	1	0	0	1	148262,59	-0,100000001	3,39974999	-0,00027771700040954682	-0,099978104504643418	0,000339900551	-0,18884579187926877	0,0070460904008831155	0,18884579187926877
1	0	0	1	0	0	1	148362,59	-0,100000001	3,38999248	-0,00027771669679052301	-0,099977995201811942	0,000338924641	-0,19162296041161133	0,0071497102927676198	0,19162296041161133
1	0	0	1	0	0	1	148462,59	-0,100000001	3,38012028	-0,00027771652950801786	-0,099977934980119514	0,000337937439	-0,19440012134902944	0,0072533299012752806	0,19440012134902944
1	0	0	1	0	0	1	148562,59	-0,100000001	3,37011456	-0,00027771673907670714	-0,099978010424835853	0,000336937344	-0,19717728689984499	0,0073569496819150054	0,19717728689984499
1	0	0	1	0	0	1	148662,59	-0,100000001	3,35984159	-0,00027771734049419565	-0,09997822693509783	0,000335910998	-0,19995445536707728	0,0074605695713701594	0,19995445536707728
1	0	0	1	0	0	1	148762,59	-0,100000001	3,34932017	-0,0002777171388073928	-0,099978154327860173	0,000334858836	-0,20273162387990925	0,007564189462526697	0,20273162387990925
1	0	0	1	0	0	1	148862,59	-0,100000001	3,33885622	-0,00027771626177471542	-0,099977838596145715	0,000333811622	-0,20550879008951718	0,0076678092677468506	0,20550879008951718
1	0	0	1	0	0	1	148962,59	-0,100000001	3,32818222	-0,00027771600878693994	-0,099977747520560794	0,000332744152	-0,20828595176002147	0,007771428903606944	0,20828595176002147
1	0	0	1	0	0	1	149062,59	-0,100000001	3,31724072	-0,00027771731737628582	-0,09997821861265161	0,000331651827	-0,2110631203874881	0,0078750487990406554	0,2110631203874881
1	0	0	1	0	0	1	149162,59	-0,100000001	3,30603218	-0,00027771725781551667	-0,099978197175433677	0,000330531126	-0,21384028956974234	0,0079786687151742387	0,21384028956974234
1	0	0	1	0	0	1	149262,59	-0,100000001	3,29474688	-0,00027771706388269862	-0,099978127354974502	0,000329402625	-0,21661746171224797	0,0080822887417587827	0,21661746171224797
1	0	0	1	0	0	1	149362,59	-0,100000001	3,28334737	-0,00027771742138804659	-0,099978256056879629	0,000328263355	-0,21939463496145379	0,0081859088096357965	0,21939463496145379
1	0	0	1	0	0	1	149462,59	-0,100000001	3,27187133	-0,00027771690482563446	-0,099978070094440346	0,000327115384	-0,22217180688475382	0,0082895288280414848	0,22217180688475382
1	0	0	1	0	0	1	149562,59	-0,100000001	3,25978422	-0,00027771758404167162	-0,099978314612175475	0,00032590772	-0,2249489828750336	0,0083931489981916544	0,2249489828750336
1	0	0	1	0	0	1	149662,59	-0,100000001	3,24762082	-0,00027771688325206438	-0,099978062327956339	0,000324690831	-0,22772615944913507	0,0084967691901249971	0,22772615944913507
1	0	0	1	0	0	1	149762,59	-0,100000001	3,23509455	-0,00027771766481921078	-0,099978343692085018	0,000323439395	-0,23050333410731437	0,0086003893105727066	0,23050333410731437
1	0	0	1	0	0	1	149862,59	-0,100000001	3,22245359	-0,00027771671319297616	-0,099978001106694157	0,000322174456	-0,23328050473364717	0,0087040092805868019	0,23328050473364717
1	0	0	1	0	0	1	149962,59	-0,100000001	3,20952654	-0,00027771652638084358	-0,099977933854336947	0,000320881838	-0,23605767242768189	0,0088076291411929165	0,23605767242768189
1	0	0	1	0	0	1	150062,59	-0,100000001	3,19635105	-0,00027771664778764048	-0,099977977560776998	0,000319564715	-0,2388348383538569	0,0089112489358378048	0,2388348383538569
1	0	0	1	0	0	1	150162,59	-0,100000001	3,18283176	-0,00027771722192110288	-0,09997818424879113	0,000318213744	-0,24161200929994288	0,0090148689177823232	0,24161200929994288
1	0	0	1	0	0	1	150262,59	-0,100000001	3,16915989	-0,00027771657944636214	-0,099977952957920653	0,000316846126	-0,24438917765709747	0,0091184888031303283	0,24438917765709747
1	0	0	1	0	0	1	150362,59	-0,100000001	3,15533519	-0,00027771683317381472	-0,099978044299789286	0,000315464247	-0,24716634638630179	0,0092221087023600102	0,24716634638630179
1	0	0	1	0	0	1	150462,59	-0,100000001	3,14120483	-0,00027771713487431405	-0,099978152911952038	0,000314051867	-0,2499435174554681	0,0093257286888968205	0,2499435174554681
1	0	0	1	0	0	1	150562,59	-0,100000001	3,12652087	-0,00027771718288668326	-0,099978170196402266	0,000312583841	-0,25272068605617094	0,0094293485833319386	0,25272068605617094
1	0	0	1	0	0	1	150662,59	-0,100000001	3,11153126	-0,00027771715627652074	-0,099978160616745254	0,000311085169	-0,25549786054286266	0,0095329686973812186	0,25549786054286266
1	0	0	1	0	0	1	150762,59	-0,100000001	3,0964272	-0,0002777172552202311	-0,099978196236475418	0,000309575204	-0,25827503138764774	0,0096365886755460621	0,25827503138764774
1	0	0	1	0	0	1	150862,59	-0,100000001	3,08061671	-0,00027771785062924026	-0,099978410583685158	0,000307995157	-0,26105220917082118	0,0097402089125915046	0,26105220917082118
1	0	0	1	0	0	1	150962,59	-0,100000001	3,06461525	-0,00027771633346502979	-0,099977864404654861	0,000306393689	-0,26382938361034285	0,0098438290248808064	0,26382938361034285
1	0	0	1	0	0	1	151062,59	-0,100000001	3,04817438	-0,00027771602059528234	-0,099977751771563392	0,000304749614	-0,26660654879603984	0,009947448791897463	0,26660654879603984
1	0	0	1	0	0	1	151162,59	-0,100000001	3,03123736	-0,0002777159701850679	-0,099977733623889037	0,000303056237	-0,26938370991984038	0,010051068407359306	0,26938370991984038
1	0	0	1	0	0	1	151262,59	-0,100000001	3,01366997	-0,00027771525916746922	-0,099977477657593562	0,000301299122	-0,27216086916580438	0,010154687952756541	0,27216086916580438
1	0	0	1	0	0	1	151362,59	-0,100000001	2,99572086	-0,00027771590181688467	-0,099977709011346918	0,000299505307	-0,27493802821258227	0,010258307490721874	0,27493802821258227
1	0	0	1	0	0	1	151462,59	-0,100000001	2,97702694	-0,00027771628816881114	-0,099977848098018701	0,000297636754	-0,27771518671082106	0,010361927008220477	0,27771518671082106
1	0	0	1	0	0	1	151562,59	-0,100000001	2,95795107	-0,00027771694685974051	-0,099978085226716173	0,000295730279	-0,28049235092602646	0,01046554673902679	0,28049235092602646
1	0	0	1	0	0	1	151662,59	-0,100000001	2,93824506	-0,0002777169393495553	-0,099978082523049907	0,000293760095	-0,28326951985794995	0,010569166645820197	0,28326951985794995
1	0	0	1	0	0	1	151762,59	-0,100000001	2,91800451	-0,00027771777489284675	-0,099978383318587776	0,000291737379	-0,28604669076929805	0,010672786626468598	0,28604669076929805
1	0	0	1	0	0	1	151862,59	-0,100000001	2,89696193	-0,00027771717123563091	-0,099978166002024064	0,000289632939	-0,28882386164483661	0,010776406605780894	0,28882386164483661
1	0	0	1	0	0	1	151962,59	-0,100000001	2,87549925	-0,00027771622305156458	-0,099977824655813594	0,000287486153	-0,29160102796326272	0,0108800264150612	0,29160102796326272
1	0	0	1	0	0	1	152062,59	-0,100000001	2,85348272	-0,00027771703719016579	-0,099978117745664179	0,000285285845	-0,29437819664305754	0,010983646312447347	0,29437819664305754
1	0	0	1	0	0	1	152162,59	-0,100000001	2,8306644	-0,00027771701590261523	-0,099978110082147187	0,000283004483	-0,29715536887307072	0,011087266342296915	0,29715536887307072
1	0	0	1	0	0	1	152262,59	-0,100000001	2,80733037	-0,00027771688511263994	-0,09997806299776343	0,000280671462	-0,29993254015429331	0,011190886336745829	0,29993254015429331
1	0	0	1	0	0	1	152362,59	-0,100000001	2,78346181	-0,00027771642111448774	-0,099977895958454784	0,000278284657	-0,30270970476107853	0,011294506082162514	0,30270970476107853
1	0	0	1	0	0	1	152462,59	-0,100000001	2,75900126	-0,0002777165783652001	-0,099977952568702374	0,000275839295	-0,30548686835903731	0,011398125789938525	0,30548686835903731
1	0	0	1	0	0	1	152562,59	-0,100000001	2,73392963	-0,00027771631296310157	-0,099977857023961856	0,000273332436	-0,30826403167609805	0,011501745487233853	0,30826403167609805
1	0	0	1	0	0	1	152662,59	-0,100000001	2,70874333	-0,00027771639663436342	-0,099977887145611418	0,000270814431	-0,31104120265663354	0,011605365470463728	0,31104120265663354
1	0	0	1	0	0	1	152762,59	-0,100000001	2,68286991	-0,00027771685446633232	-0,099978051965094426	0,000268228119	-0,31381836947470054	0,011708985298386307	0,31381836947470054
1	0	0	1	0	0	1	152862,59	-0,100000001	2,65699625	-0,00027771739773203926	-0,099978247540718323	0,000265641836	-0,31659554104834362	0,011812605303745822	0,31659554104834362
1	0	0	1	0	0	1	152962,59	-0,100000001	2,63060713	-0,00027771666371325651	-0,099977983293997875	0,000263002788	-0,31937270890627283	0,011916225170467059	0,31937270890627283
1	0	0	1	0	0	1	153062,59	-0,100000001	2,60410333	-0,00027771731129412851	-0,099978216423075315	0,000260353612	-0,32214988318921894	0,012019845276914314	0,32214988318921894
1	0	0	1	0	0	1	153162,59	-0,100000001	2,57740855	-0,00027771641499963069	-0,099977893757106586	0,000257683889	-0,32492705275394989	0,012123465207318618	0,32492705275394989
1	0	0	1	0	0	1	153262,59	-0,100000001	2,55052304	-0,00027771735441312192	-0,099978231945910515	0,00025499679	-0,32770422470789414	0,012227085226867682	0,32770422470789414
1	0	0	1	0	0	1	153362,59	-0,100000001	2,523561	-0,00027771723812032074	-0,099978190080508646	0,000252301048	-0,33048139743365824	0,012330705275214384	0,33048139743365824
1	0	0	1	0	0	1	153462,59	-0,100000001	2,49646521	-0,00027771682463751898	-0,099978041226723302	0,000249591714	-0,33325857000016154	0,01243432531761885	0,33325857000016154
1	0	0	1	0	0	1	153562,59	-0,100000001	2,46900678	-0,00027771639300054976	-0,099977885837438694	0,000246846088	-0,33603573959754675	0,012537945249241526	0,33603573959754675
1	0	0	1	0	0	1	153662,59	-0,100000001	2,44120455	-0,00027771652929567632	-0,09997793490367657	0,000244066585	-0,33881290418388602	0,012641564993895344	0,33881290418388602
1	0	0	1	0	0	1	153762,59	-0,100000001	2,41296339	-0,00027771698965587549	-0,099978100633322355	0,000241243499	-0,34159007478062221	0,01274518496280515	0,34159007478062221
1	0	0	1	0	0	1	153862,59	-0,100000001	2,38399625	-0,00027771665107169088	-0,099977978743034944	0,000238347129	-0,34436724502311968	0,012848804918497835	0,34436724502311968
1	0	0	1	0	0	1	153962,59	-0,100000001	2,35355902	-0,00027771668873147834	-0,099977992300556314	0,000235304105	-0,34714441521587462	0,012952424872334558	0,34714441521587462
1	0	0	1	0	0	1	154062,59	-0,100000001	2,32115507	-0,00027771812041476371	-0,099978507706458419	0,00023206562	-0,34992158914416435	0,01305604496554911	0,34992158914416435
1	0	0	1	0	0	1	154162,59	-0,100000001	2,28611588	-0,00027771723371951117	-0,099978188496217434	0,000228561723	-0,352698765253232	0,013159665140131413	0,352698765253232
1	0	0	1	0	0	1	154262,59	-0,100000001	2,24735308	-0,00027771788284762038	-0,099978422182300198	0,00022468681	-0,35547593896708205	0,01326328522534493	0,35547593896708205
1	0	0	1	0	0	1	154362,59	-0,100000001	2,20326304	-0,00027771746186870666	-0,099978270629914957	0,000220278424	-0,35825311617211034	0,013366905440818998	0,35825311617211034
1	0	0	1	0	0	1	154462,59	-0,100000001	2,15317702	-0,00027771880771468083	-0,099978755134389862	0,000215271953	-0,36103029653640115	0,013470525774169403	0,36103029653640115
1	0	0	1	0	0	1	154562,59	-0,100000001	2,09678984	-0,00027771752617011466	-0,099978293778418227	0,000209633465	-0,36380747634399002	0,013574146086748506	0,36380747634399002
1	0	0	1	0	0	1	154662,59	-0,100000001	2,03444505	-0,0002777184220113688	-0,099978616281219264	0,000203400996	-0,36658465351127405	0,013677766300814288	0,36658465351127405
1	0	0	1	0	0	1	154762,59	-0,100000001	1,96826196	-0,00027771707894114982	-0,099978132776016064	0,000196783149	-0,36936182939819437	0,013781386467107976	0,36936182939819437
1	0	0	1	0	0	1	154862,59	-0,100000001	1,90055144	-0,00027771612000672352	-0,099977787559676621	0,000190012928	-0,37213899927565766	0,013885006409180744	0,37213899927565766
1	0	0	1	0	0	1	154962,59	-0,100000001	1,83448303	-0,00027771645579569872	-0,099977908443688781	0,00018340777	-0,3749161655798503	0,013988626217929979	0,3749161655798503
1	0	0	1	0	0	1	155062,59	-0,100000001	1,77255726	-0,00027771613066022598	-0,099977791394936909	0,000177216367	-0,37769332801973434	0,014092245882496666	0,37769332801973434
1	0	0	1	0	0	1	155162,59	-0,100000001	1,71725845	-0,00027771655445090598	-0,099977943959557837	0,000171687963	-0,38047049179432358	0,014195865596862997	0,38047049179432358
1	0	0	1	0	0	1	155262,59	-0,100000001	1,66425097	-0,00027771622500775587	-0,099977825360042355	0,000166388199	-0,38324765483568717	0,014299485283871696	0,38324765483568717
1	0	0	1	0	0	1	155362,59	-0,100000001	1,61485243	-0,00027771630473021005	-0,099977854060121357	0,000161449483	-0,38602482230466259	0,014403105136080541	0,38602482230466259
1	0	0	1	0	0	1	155462,59	-0,100000001	1,5713352	-0,00027771637758654029	-0,099977880288396147	0,000157098766	-0,38880198889535277	0,014506724955519386	0,38880198889535277
1	0	0	1	0	0	1	155562,59	-0,100000001	1,53442466	-0,0002777163468764888	-0,099977869232779354	0,000153408502	-0,39157915636057805	0,01461034480758831	0,39157915636057805
1	0	0	1	0	0	1	155662,59	-0,100000001	1,50509489	-0,00027771708449100454	-0,099978134773963456	0,000150476582	-0,39435632375387418	0,014713964656973462	0,39435632375387418
1	1	0	0	0	0	2	155752,08	0,100000001	2,31441355	0,00027782364215039549	0,10001649552534218	0,000231479527	-0,39295286452521702	0,014661599706181261	0,0019447681006909245
1	1	0	0	0	0	2	155852,08	0,100000001	2,58277321	0,00027782376113409798	0,10001653835946838	0,00025832004	-0,39017462705684365	0,014557939930856246	0,0047230055690643693
1	1	0	0	0	0	2	155952,08	0,100000001	2,72218513	0,0002778232183729609	0,10001634296548962	0,000272263016	-0,38739639227465946	0,014454280255756563	0,0075012403512485325
1	1	0	0	0	0	2	156052,08	0,100000001	2,82247162	0,00027782420169644886	0,10001669696188989	0,000282294292	-0,38461815302157261	0,014350620413841488	0,010279479604335296
1	1	0	0	0	0	2	156152,08	0,100000001	2,90137172	0,00027782423385315469	0,10001670853830219	0,00029018565	-0,38183991421763418	0,014246960588684746	0,013057718408273741
1	1	0	0	0	0	2	156252,08	0,100000001	2,96560717	0,00027782465070030758	0,10001685860325373	0,000296610699	-0,37906167177847725	0,014143300627893115	0,015835960847430762
1	1	0	0	0	0	2	156352,08	0,100000001	3,01974106	0,00027782327283422154	0,10001636257154037	0,000302023516	-0,37628343261552806	0,014039640789341197	0,018614200010379984
1	1	0	0	0	0	2	156452,08	0,100000001	3,06782222	0,00027782329264448749	0,10001636970439933	0,000306832429	-0,37350519850492102	0,01393598113929896	0,021392434120987024
1	1	0	0	0	0	2	156552,08	0,100000001	3,11363077	0,0002778235776403712	0,10001647230173709	0,000311414362	-0,37072696345476928	0,013832321454201046	0,024170669171138765
1	1	0	0	0	0	2	156652,08	0,100000001	3,15880942	0,00027782357647311357	0,1000164718815244	0,000315932964	-0,36794872710445862	0,013728661720592456	0,02694890552144953
1	1	0	0	0	0	2	156752,08	0,100000001	3,20440793	0,00027782327134700282	0,10001636203614173	0,000320493215	-0,36517049341893658	0,01362500208641071	0,029727139206971565
1	1	0	0	0	0	2	156852,08	0,100000001	3,24960566	0,00027782282904990848	0,10001620280921267	0,000325013214	-0,36239226005602669	0,013521342464266058	0,032505372569881382
1	1	0	0	0	0	2	156952,08	0,100000001	3,29310393	0,00027782296403994163	0,10001625140561699	0,000329363917	-0,35961402985191379	0,01341768295998037	0,035283602773994208
1	1	0	0	0	0	2	157052,08	0,100000001	3,33341312	0,00027782239977808461	0,10001604826905158	0,000333394797	-0,35683580199524838	0,013314023543281101	0,038061830630659642
1	1	0	0	0	0	2	157152,08	0,100000001	3,3703618	0,00027782328613061043	0,10001636735823963	0,000337091333	-0,35405757387267168	0,013210364116660326	0,040840058753236301
1	1	0	0	0	0	2	157252,08	0,100000001	3,40352964	0,00027782284204206531	0,1000162074863884	0,000340408122	-0,35127934465680499	0,013106704649247432	0,043618287969102867
1	1	0	0	0	0	2	157352,08	0,100000001	3,43310761	0,00027782277711273894	0,10001618411416325	0,000343366322	-0,34850111609684736	0,013003045206307387	0,046396516529060467
1	1	0	0	0	0	2	157452,08	0,100000001	3,45978332	0,00027782280137679645	0,10001619284689389	0,000346034358	-0,34572288527971443	0,012899385679149094	0,049174747346193414
1	1	0	0	0	0	2	157552,08	0,100000001	3,48361373	0,00027782381266438301	0,1000165569103681	0,000348419038	-0,34294464926270918	0,012795725957976579	0,05195298336319872
1	1	0	0	0	0	2	157652,08	0,100000001	3,50513363	0,00027782307253488237	0,10001629046378955	0,000350570452	-0,34016641737404621	0,012692066390838058	0,054731215251861747
1	1	0	0	0	0	2	157752,08	0,100000001	3,5245533	0,00027782341451901533	0,10001641357805814	0,000352513191	-0,33738818466654733	0,012588406793147674	0,05750944795936055
1	1	0	0	0	0	2	157852,08	0,100000001	3,54229236	0,00027782308315899635	0,10001629428846998	0,000354286953	-0,33460995452900966	0,012484747291345994	0,060287678096898304
1	1	0	0	0	0	2	157952,08	0,100000001	3,5583322	0,00027782412442689139	0,10001666914485357	0,000355892524	-0,33183171465124717	0,012381087426123434	0,0630659179746608
1	1	0	0	0	0	2	158052,08	0,100000001	3,57311153	0,00027782378207271296	0,10001654589736861	0,000357370271	-0,32905347585970976	0,012277427601429392	0,065844156766198144
1	1	0	0	0	0	2	158152,08	0,100000001	3,58670712	0,00027782399133344493	0,10001662123122032	0,000358730322	-0,32627523160269466	0,012173767572811026	0,06862240102321321
1	1	0	0	0	0	2	158252,08	0,100000001	3,59955812	0,00027782470890755453	0,10001687955785936	0,000360016566	-0,32349699013981248	0,012070107648445517	0,071400642486095398
1	1	0	0	0	0	2	158352,08	0,100000001	3,6112442	0,00027782400458057722	0,1000166260001872	0,000361184473	-0,32071875021275366	0,011966447781383642	0,074178882413154266
1	1	0	0	0	0	2	158452,08	0,100000001	3,62252927	0,00027782474615549046	0,10001689296711421	0,000362314109	-0,31794050486948275	0,011862787712235614	0,076957127756425088
1	1	0	0	0	0	2	158552,08	0,100000001	3,6327641	0,00027782465821132064	0,10001686130721802	0,000363337662	-0,31516226203464608	0,01175912773668064	0,079735370591261747
1	1	0	0	0	0	2	158652,08	0,100000001	3,64267421	0,00027782512191517488	0,10001702824057942	0,000364329462	-0,3123840185323239	0,01165546773622088	0,082513614093583898
1	1	0	0	0	0	2	158752,08	0,100000001	3,65197349	0,00027782498091707622	0,10001697748127186	0,000365259359	-0,30960577225411494	0,011551807632189056	0,085291860371792896
1	1	0	0	0	0	2	158852,08	0,100000001	3,66085267	0,0002778247014627688	0,10001687687773693	0,000366147055	-0,3068275242981776	0,01144814746555893	0,08807010832773024
1	1	0	0	0	0	2	158952,08	0,100000001	3,66934991	0,00027782474484377437	0,10001689249489648	0,000366996974	-0,30404927917668365	0,011344487404685694	0,090848353449224205
1	1	0	0	0	0	2	159052,08	0,100000001	3,67744613	0,00027782433959345024	0,10001674660480262	0,000367806206	-0,30127103470281939	0,0112408273679764	0,09362659792308841
1	1	0	0	0	0	2	159152,08	0,100000001	3,68504596	0,00027782408516771261	0,10001665501155141	0,000368565961	-0,29849279185328064	0,011137167391872869	0,096404840772627123
1	1	0	0	0	0	2	159252,08	0,100000001	3,69249296	0,00027782430418373811	0,10001673385730826	0,000369311078	-0,2957145516417728	0,011033507514197819	0,099183080984135053
1	1	0	0	0	0	2	159352,08	0,100000001	3,69972992	0,00027782400384586717	0,10001662573569163	0,000370034511	-0,29293631040807795	0,010929847598383597	0,10196132221782992
1	1	0	0	0	0	2	159452,08	0,100000001	3,70662308	0,00027782468777274093	0,10001687194932765	0,000370724854	-0,29015806919109587	0,010826187683192952	0,10473956343481192
1	1	0	0	0	0	2	159552,08	0,100000001	3,71321082	0,00027782411861792205	0,10001666705362493	0,000371382979	-0,28737982643830627	0,010722527710699264	0,10751780618760154
1	1	0	0	0	0	2	159652,08	0,100000001	3,71962667	0,00027782434594879546	0,10001674889272653	0,000372024981	-0,2846015883023335	0,010618867910465218	0,1102960443235743
1	1	0	0	0	0	2	159752,08	0,100000001	3,72577524	0,00027782486133649946	0,10001693443227094	0,000372640614	-0,28182334286251891	0,010515207837715014	0,11307428976338893
1	1	0	0	0	0	2	159852,08	0,100000001	3,73207664	0,00027782533176698618	0,10001710378721968	0,000373271498	-0,27904509382167974	0,010411547630605741	0,1158525388042281
1	1	0	0	0	0	2	159952,08	0,100000001	3,73788142	0,00027782527108076541	0,10001708194018362	0,000373852003	-0,27626684191506541	0,010307887316570544	0,11863079071084242
1	1	0	0	0	0	2	160052,08	0,100000001	3,74374366	0,0002778255493665735	0,10001718212305885	0,000374438678	-0,27348858988574826	0,010204226997957141	0,12140904274015957
1	1	0	0	0	0	2	160152,08	0,100000001	3,74945307	0,00027782520189591578	0,10001705703364165	0,000375009258	-0,27071033923047805	0,010100566730611274	0,12418729339542984
1	1	0	0	0	0	2	160252,08	0,100000001	3,7548759	0,00027782487736807926	0,10001694020363878	0,000375551201	-0,26793208801358547	0,0099969064423105254	0,12696554461232243
1	1	0	0	0	0	2	160352,08	0,100000001	3,76029897	0,00027782423817118006	0,10001671009279109	0,000376092736	-0,26515384535463344	0,0098932464733180403	0,1297437872712745
1	1	0	0	0	0	2	160452,08	0,100000001	3,76585555	0,00027782355468057926	0,10001646403621328	0,000376647542	-0,26237560655410237	0,0097895866482884314	0,13252202607180555
1	1	0	0	0	0	2	160552,08	0,100000001	3,77089667	0,0002778233290765848	0,10001638281878798	0,000377151446	-0,25959737089138739	0,0096859269403349606	0,13530026173452045
1	1	0	0	0	0	2	160652,08	0,100000001	3,7761476	0,00027782365810746947	0,10001650126988792	0,000377677061	-0,25681913440679187	0,0095822672017160205	0,13807849821911594
1	1	0	0	0	0	2	160752,08	0,100000001	3,78111243	0,00027782307931532461	0,10001629290474838	0,000378172845	-0,25404089897832448	0,0094786075025026406	0,14085673364758333
1	1	0	0	0	0	2	160852,08	0,100000001	3,78615332	0,00027782293213324413	0,10001623991920771	0,000378676807	-0,25126266888841293	0,0093749480024779558	0,14363496373749493
1	1	0	0	0	0	2	160952,08	0,100000001	3,79117537	0,00027782359231967066	0,10001647758628406	0,000379180012	-0,24848443378318886	0,0092712883153252211	0,14641319884271891
1	1	0	0	0	0	2	161052,08	0,100000001	3,79615927	0,00027782330129709504	0,10001637281817325	0,000379678095	-0,24570620138436682	0,0091676287291519821	0,14919143124154099
1	1	0	0	0	0	2	161152,08	0,100000001	3,80078006	0,00027782353421549002	0,1000164566687823	0,000380140555	-0,24292796754968829	0,0090639690894050074	0,15196966507621952
1	1	0	0	0	0	2	161252,08	0,100000001	3,80559206	0,00027782314266678355	0,10001631571127005	0,000380621292	-0,24014973439815309	0,008960309475147031	0,15474789822775469
1	1	0	0	0	0	2	161352,08	0,100000001	3,81049943	0,00027782358251884582	0,10001647405798768	0,00038111271	-0,23737149924972403	0,0088566497863822579	0,15752613337618378
1	1	0	0	0	0	2	161452,08	0,100000001	3,81534958	0,00027782403900681267	0,10001663839363005	0,000381598453	-0,23459325992601402	0,008752989941832137	0,16030437269989379
1	1	0	0	0	0	2	161552,08	0,100000001	3,82018065	0,00027782421831372714	0,10001670294410914	0,000382081867	-0,23181501690676147	0,0086493299593963584	0,16308261571914634
1	1	0	0	0	0	2	161652,08	0,100000001	3,82483983	0,00027782462598300646	0,10001684970502672	0,000382548431	-0,22903677481188954	0,0085456700114504627	0,16586085781401827
1	1	0	0	0	0	2	161752,08	0,100000001	3,82967067	0,00027782415817595187	0,10001668129451342	0,000383030943	-0,22625852707601498	0,0084420098530311744	0,1686391055498928
1	1	0	0	0	0	2	161852,08	0,100000001	3,83442545	0,0002778237839953767	0,10001654658952746	0,000383506005	-0,22348028562147411	0,0083383499289768922	0,17141734700443366
1	1	0	0	0	0	2	161952,08	0,100000001	3,83912277	0,00027782409091749123	0,10001665708147139	0,000383976236	-0,22070204292835667	0,0082346899587096499	0,17419558969755114
1	1	0	0	0	0	2	162052,08	0,100000001	3,84380102	0,00027782394867638746	0,10001660587468205	0,000384443934	-0,2179238032969017	0,0081310301026771546	0,17697382932900611
1	1	0	0	0	0	2	162152,08	0,100000001	3,84853649	0,00027782397972916563	0,10001661705368043	0,000384917599	-0,215145562661464	0,0080273702091847117	0,17975206996444378
1	1	0	0	0	0	2	162252,08	0,100000001	3,85319567	0,00027782373816437194	0,1000165300903683	0,00038538326	-0,21236732343599741	0,0079237103683001856	0,1825303091899104
1	1	0	0	0	0	2	162352,08	0,100000001	3,85802674	0,00027782396919611427	0,10001661326178254	0,000385866762	-0,20958908360050618	0,0078200505046548211	0,1853085490254016
1	1	0	0	0	0	2	162452,08	0,100000001	3,86283851	0,00027782418599103891	0,1000166913079432	0,000386348314	-0,2068108414101489	0,00771639055314624	0,18808679121575888
1	1	0	0	0	0	2	162552,08	0,100000001	3,86757421	0,00027782399058259194	0,1000166209609133	0,000386821717	-0,20403259831168714	0,0076127305677550566	0,19086503431422067
1	1	0	0	0	0	2	162652,08	0,100000001	3,87230968	0,00027782469189456765	0,10001687343318506	0,000387296313	-0,2012543556008617	0,0075090705968271078	0,19364327702504611
1	1	0	0	0	0	2	162752,08	0,100000001	3,87715983	0,00027782470031537946	0,10001687646467682	0,000387781416	-0,19847610960192157	0,007405410503215177	0,19642152302398624
1	1	0	0	0	0	2	162852,08	0,100000001	3,8818953	0,00027782410724668042	0,10001666295997856	0,000388254208	-0,1956978654640968	0,0073017504790439642	0,19919976716181101
1	1	0	0	0	0	2	162952,08	0,100000001	3,88659263	0,0002778236303511593	0,10001649127761782	0,000388723362	-0,19291962645093197	0,007198090646080704	0,20197800617497584
1	1	0	0	0	0	2	163052,08	0,100000001	3,89138556	0,00027782387536433008	0,10001657948234552	0,00038920308	-0,19014138614658026	0,0070944307649415258	0,20475624647932749
1	1	0	0	0	0	2	163152,08	0,100000001	3,89621639	0,00027782375595925581	0,1000165364965255	0,000389686058	-0,18736314915077936	0,0069907710072488256	0,20753448347512842
1	1	0	0	0	0	2	163252,08	0,100000001	3,90097117	0,00027782358686418995	0,10001647562231133	0,000390161382	-0,18458491069682781	0,0068871111951505638	0,21031272192907997
1	1	0	0	0	0	2	163352,08	0,100000001	3,90564942	0,00027782372015010979	0,10001652360523496	0,000390629488	-0,18180667533802502	0,0067834514985364646	0,21309095728788275
1	1	0	0	0	0	2	163452,08	0,100000001	3,91034675	0,00027782364832609894	0,10001649774859509	0,000391099195	-0,17902844017002954	0,0066797918090416422	0,21586919245587824
1	1	0	0	0	0	2	163552,08	0,100000001	3,91500592	0,00027782418205464877	0,10001668989084298	0,000391565933	-0,17625020126475942	0,0065761319801040781	0,21864743136114835
1	1	0	0	0	0	2	163652,08	0,100000001	3,9196651	0,00027782402544096112	0,10001663350992422	0,00039203171	-0,17347196084574125	0,0064724720946865382	0,22142567178016653
1	1	0	0	0	0	2	163752,08	0,100000001	3,92434335	0,00027782412552833558	0,10001666954137341	0,000392499758	-0,17069371813233664	0,0063688121236623565	0,22420391449357114
1	1	0	0	0	0	2	163852,08	0,100000001	3,92898345	0,00027782418601752979	0,10001669131747992	0,000392963935	-0,1679154789207393	0,0062651522832953126	0,22698215370516848
1	1	0	0	0	0	2	163952,08	0,100000001	3,93364239	0,00027782505156637891	0,10001700291501685	0,00039343111	-0,16513723526589338	0,0061614922771446899	0,2297603973600144
1	1	0	0	0	0	2	164052,08	0,100000001	3,93839717	0,0002778247586803304	0,10001689747605587	0,000393906259	-0,16235898760304531	0,0060578321214501184	0,23253864502286246
1	1	0	0	0	0	2	164152,08	0,100000001	3,9430182	0,00027782473246546256	0,10001688803870493	0,000394368399	-0,15958073800360474	0,0059541718934986752	0,23531689462230304
1	1	0	0	0	0	2	164252,08	0,100000001	3,94784904	0,00027782514049402541	0,10001703492896458	0,000394852163	-0,15680248797021286	0,005850511649355927	0,23809514465569488
1	1	0	0	0	0	2	164352,08	0,100000001	3,95245099	0,00027782530529672902	0,10001709425792858	0,000395312672	-0,15402423892527299	0,0057468514420936525	0,24087339370063475
1	1	0	0	0	0	2	164452,08	0,100000001	3,95709109	0,00027782515796729254	0,10001704121933976	0,000395776529	-0,1512459893089729	0,005643191213513159	0,24365164331693488
1	1	0	0	0	0	2	164552,08	0,100000001	3,96178842	0,0002778242014696201	0,10001669688023155	0,000396244985	-0,14846773853033587	0,0055395309415643117	0,2464298940955719
1	1	0	0	0	0	2	164652,08	0,100000001	3,96637106	0,00027782479365004435	0,10001691006515093	0,000396704185	-0,14568949129081117	0,005435870801664503	0,24920814133509661
1	1	0	0	0	0	2	164752,08	0,100000001	3,97093487	0,00027782484799954621	0,10001692963096854	0,000397160708	-0,14291124479261424	0,0053322106894246317	0,25198638783329354
1	1	0	0	0	0	2	164852,08	0,100000001	3,97563219	0,00027782506381264992	0,10001700732367371	0,000397630822	-0,14013299517434763	0,0052285504607707648	0,25476463745156019
1	1	0	0	0	0	2	164952,08	0,100000001	3,98036766	0,00027782510747056867	0,10001702304052202	0,000398104516	-0,13735474883214355	0,0051248903543511962	0,25754288379376432
1	1	0	0	0	0	2	165052,08	0,100000001	3,98502684	0,00027782494674871363	0,10001696518066325	0,000398570293	-0,13457649975993368	0,0050212301460714406	0,26032113286597414
1	1	0	0	0	0	2	165152,08	0,100000001	3,98949504	0,00027782553661200736	0,10001717753141576	0,000399018027	-0,13179824757238317	0,0049175698215541363	0,26309938505352454
1	1	0	0	0	0	2	165252,08	0,100000001	3,99421144	0,00027782533481344579	0,10001710488394498	0,000399489451	-0,12901999551195365	0,0048139095017798874	0,26587763711395402
1	1	0	0	0	0	2	165352,08	0,100000001	3,99883246	0,00027782516286232403	0,10001704298155082	0,000399951386	-0,12624174333064678	0,004710249177495543	0,26865588929526096
1	1	0	0	0	0	2	165452,08	0,100000001	4,00337744	0,00027782490535370182	0,10001695027846131	0,00040040561	-0,12346349236851978	0,0046065888987004378	0,27143414025738803
1	1	0	0	0	0	2	165552,08	0,100000001	4,00807476	0,00027782401423404614	0,10001662947543547	0,000400874123	-0,12068524593770181	0,0045029287889745651	0,27421238668820595
1	1	0	0	0	0	2	165652,08	0,100000001	4,0128293	0,00027782508870628147	0,10001701628537966	0,000401351223	-0,11790700070833298	0,0043992687240763757	0,27699063191757478
1	1	0	0	0	0	2	165752,08	0,100000001	4,01735449	0,00027782487479555936	0,10001693927753176	0,000401803496	-0,11512874965246774	0,0042956084417837722	0,27976888297344003
1	1	0	0	0	0	2	165852,08	0,100000001	4,02188015	0,0002778251616569857	0,10001704254762909	0,000402256555	-0,11235050324926408	0,0041919483330882266	0,28254712937664371
1	1	0	0	0	0	2	165952,08	0,100000001	4,02638674	0,00027782436376230586	0,10001675530558928	0,000402706151	-0,10957225951748266	0,0040882883240670362	0,28532537310842515
1	1	0	0	0	0	2	166052,08	0,100000001	4,03096914	0,00027782431932869882	0,10001673930949326	0,000403164391	-0,10679401648258837	0,0039846283410476422	0,28810361614331942
1	1	0	0	0	0	2	166152,08	0,100000001	4,03560925	0,00027782471878371309	0,10001688311327589	0,000403629063	-0,10401576751021714	0,003880968136493001	0,29088186511569062
1	1	0	0	0	0	2	166252,08	0,100000001	4,04007769	0,00027782455954286784	0,10001682578658058	0,000404075749	-0,10123751947954259	0,0037773079670743283	0,29366011314636518
1	1	0	0	0	0	2	166352,08	0,100000001	4,0445838	0,00027782447797846461	0,1000167964234	0,000404526305	-0,098459273225545523	0,0036736478639458816	0,2964383594003623
1	1	0	0	0	0	2	166452,08	0,100000001	4,04918575	0,00027782440522975392	0,10001677023386826	0,000404986495	-0,095681027624309965	0,0035699877851728442	0,29921660500159789
1	1	0	0	0	0	2	166552,08	0,100000001	4,05346298	0,00027782448987786963	0,10001680070718515	0,000405414408	-0,092902779709442701	0,003466327620075097	0,30199485291646515
1	1	0	0	0	0	2	166652,08	0,100000001	4,05816031	0,00027782537303368256	0,10001711864322803	0,000405885512	-0,090124528323792435	0,0033626673254777696	0,30477310430211539
1	1	0	0	0	0	2	166752,08	0,100000001	4,06268597	0,00027782526867546973	0,1000170810742773	0,000406337989	-0,087346279392571994	0,003259007122458519	0,30755135323333581
1	1	0	0	0	0	2	166852,08	0,100000001	4,06726885	0,00027782504136115315	0,10001699924113613	0,000406796025	-0,084568027283847795	0,0031553468008823315	0,31032960534205997
1	1	0	0	0	0	2	166952,08	0,100000001	4,07177496	0,0002778248739035593	0,10001693895641181	0,000407246465	-0,081789778491335219	0,0030516866030384576	0,31310785413457254
1	1	0	0	0	0	2	167052,08	0,100000001	4,07631969	0,00027782510434587802	0,10001702191563354	0,000407701358	-0,079011529273930944	0,0029480263893413037	0,31588610335197683
1	1	0	0	0	0	2	167152,08	0,100000001	4,08086443	0,00027782506126910448	0,1000170064079975	0,000408155844	-0,076233280028664819	0,0028443661746045869	0,31866435259724288
1	1	0	0	0	0	2	167252,08	0,100000001	4,08529425	0,00027782478540763261	0,10001690709788317	0,000408598484	-0,073455032416622656	0,0027407060208056512	0,32144260020928512
1	1	0	0	0	0	2	167352,08	0,100000001	4,08976269	0,00027782439902342029	0,1000167679995885	0,000409044849	-0,070676785903002202	0,0026370459079903072	0,32422084672290554
1	1	0	0	0	0	2	167452,08	0,100000001	4,09409714	0,00027782528564292528	0,10001708718256034	0,00040947966	-0,067898533743775104	0,0025333855845297882	0,32699909888213261
1	1	0	0	0	0	2	167552,08	0,100000001	4,09852695	0,00027782417247361603	0,10001668644167171	0,000409921078	-0,065120284632302797	0,0024297253747850982	0,32977734799360493
1	1	0	0	0	0	2	167652,08	0,100000001	4,10295725	0,00027782497302608355	0,10001697464051494	0,000410365377	-0,062342038876276442	0,0023260652902366083	0,33255559374963123
1	1	0	0	0	0	2	167752,08	0,100000001	4,10744429	0,00027782427489343622	0,10001672331280122	0,000410813111	-0,059563790984914931	0,0022224051260158925	0,3353338416409927
1	1	0	0	0	0	2	167852,08	0,100000001	4,11181736	0,00027782407230428525	0,10001665038071827	0,000411250192	-0,056785547658077114	0,0021187451321036925	0,33811208496783053
1	1	0	0	0	0	2	167952,08	0,100000001	4,11628532	0,00027782464865139786	0,10001685786797507	0,000411697925	-0,054007300982947123	0,0020150850132622102	0,34089033164296045
1	1	0	0	0	0	2	168052,08	0,100000001	4,12067699	0,00027782406194301114	0,10001664665066019	0,000412136287	-0,051229059624593274	0,0019114250927967942	0,34366857300131437
1	1	0	0	0	0	2	168152,08	0,100000001	4,12518358	0,00027782427380358182	0,1000167229204537	0,000412587338	-0,048450819711700909	0,0018077652262634896	0,34644681291420678
1	1	0	0	0	0	2	168252,08	0,100000001	4,12955618	0,00027782509492917194	0,10001701852561987	0,000413025904	-0,045672572844251571	0,0017041051002463139	0,34922505978165613
1	1	0	0	0	0	2	168352,08	0,100000001	4,13417721	0,00027782466469994848	0,10001686364312368	0,000413487433	-0,042894327377894682	0,0016004450265057811	0,35200330524801306
1	1	0	0	0	0	2	168452,08	0,100000001	4,13841629	0,00027782484841553702	0,1000169297807252	0,000413911679	-0,040116081457233254	0,001496784935814535	0,35478155116867437
1	1	0	0	0	0	2	168552,08	0,100000001	4,14292288	0,00027782361714003814	0,10001648651928627	0,000414360577	-0,037337841303072038	0,001393125060279165	0,35755979132283558
1	1	0	0	0	0	2	168652,08	0,100000001	4,14731455	0,00027782416871438422	0,10001668508834848	0,000414800656	-0,034559601385027168	0,0012894651935536136	0,36033803124088045
1	1	0	0	0	0	2	168752,08	0,100000001	4,15184021	0,00027782393555839856	0,10001660115220677	0,000415252958	-0,031781359546772717	0,001185805255182461	0,36311627307913491
1	1	0	0	0	0	2	168852,08	0,100000001	4,15615559	0,00027782423369338112	0,10001670848311242	0,000415685005	-0,029003117987159642	0,0010821453272077922	0,36589451463874803
1	1	0	0	0	0	2	168952,08	0,100000001	4,16075754	0,00027782483605336813	0,10001692533034509	0,000416146184	-0,02622487285496336	0,00097848526593524109	0,36867275977094432
1	1	0	0	0	0	2	169052,08	0,100000001	4,1649394	0,0002778250897944801	0,10001701667713112	0,000416564813	-0,023446620479664874	0,00087482493441280819	0,37145101214624288
1	1	0	0	0	0	2	169152,08	0,100000001	4,16954088	0,00027782473925501107	0,100016890482942	0,000417024508	-0,020668374347904909	0,00077116483584519194	0,37422925827800288
1	1	0	0	0	0	2	169252,08	0,100000001	4,17400932	0,00027782429215643139	0,10001672952747851	0,000417470757	-0,017890129457167459	0,0006675047835817943	0,37700750316874035
1	1	0	0	0	0	2	169352,08	0,100000001	4,17842007	0,0002778241458572447	0,10001667685977954	0,00041791168	-0,015111886129475309	0,00056384478963771834	0,37978574649643245
1	1	0	0	0	0	2	169452,08	0,100000001	4,1829648	0,00027782425255287024	0,10001671527485611	0,000418366399	-0,01233364262169393	0,00046018478897427123	0,38256399000421376
1	1	0	0	0	0	2	169552,08	0,100000001	4,18737555	0,0002778236220702529	0,100016488296492	0,000418806594	-0,009555404609554761	0,00035652499336062394	0,3853422280163529
1	1	0	0	0	0	2	169652,08	0,100000001	4,19205379	0,00027782382675881187	0,1000165619843617	0,000419274817	-0,0067771658928191526	0,00025286517145753613	0,38812046673308851
1	1	0	0	0	0	2	169752,08	0,100000001	4,1957593	0,00027782366198259923	0,10001650266493443	0,000419645163	-0,003998926592603744	0,00014920532778403238	0,39089870603330387
1	1	0	0	0	0	2	169841,35	0,100000001	4,19996023	0,0002575369506544537	0,10001649195771531	0,000420065277	-0,001518799676431968	5,6668457975559885E-005	0,39337883294947565