File: Experimentelles/Rohdaten/Batteriemessungen/AlteZelle/Studenten_Batterietests/Sonstige/ZView-Export/LiCoO2 vs Li_02_CV_C01_loop0.txt
EC-Lab ASCII FILE
Nb header lines : 3
mode	ox/red	error	control changes	counter inc.	time/s	control/V	Ewe/V	<I>/mA	cycle number	(Q-Qo)/C	P/W
2	0	0	1	0	3600,06	3,10296631	3,1033597	-0,0053188507445156576	1	0	1,65063066E-005
2	0	0	0	0	3601,43	3,08926439	3,08936453	-0,031899375317152698	1	-3,77608958E-005	9,85488005E-005
2	0	0	0	0	3602,78	3,0757637	3,07595158	-0,033731676430249811	1	-8,27517142E-005	0,000103757004
2	0	0	1	0	3604,13	3,06226182	3,06225824	-0,034809690861341722	1	-0,000129706794	0,000106596264
2	0	0	0	0	3605,48	3,04876065	3,04899573	-0,03607535788129712	1	-0,000178141432	0,000109993613
2	0	0	0	0	3606,83	3,03525925	3,03548288	-0,036816482179953478	1	-0,000227874756	0,000111755799
2	0	0	1	0	3608,18	3,02175784	3,02175903	-0,037932407130332026	1	-0,00027886912	0,000114622591
2	0	0	0	0	3609,53	3,00825644	3,00843644	-0,038608320707377683	1	-0,000331023504	0,000116150681
2	0	0	0	0	3610,88	2,99475551	2,99482322	-0,039806493131133549	1	-0,000384407263	0,000119213408
2	0	0	1	0	3612,23	2,9812541	2,98131013	-0,040518000459997069	1	-0,00043900148	0,000120796722
2	0	0	0	0	3613,58	2,96775293	2,96791744	-0,041186267966016653	1	-0,000494812732	0,000122237441
2	0	0	0	0	3614,93	2,95425153	2,95450449	-0,041966168694974381	1	-0,000551814679	0,00012398923
2	0	0	1	0	3616,28	2,94075036	2,94112206	-0,042877014939828358	1	-0,000610092946	0,000126106534
2	0	0	1	0	3617,63	2,92724919	2,92738843	-0,044168215118891866	1	-0,000669634202	0,000129297521
2	0	0	0	0	3618,98	2,91374803	2,91386509	-0,044973690247085651	1	-0,000730489555	0,000131047273
2	0	0	1	0	3620,33	2,90024662	2,90071297	-0,046205669505676838	1	-0,000792549865	0,000134029382
2	0	0	1	0	3621,68	2,88674545	2,88705969	-0,047010392707306893	1	-0,000856054889	0,000135721813
2	0	0	0	0	3623,03	2,87324429	2,87337613	-0,048225751689945805	1	-0,000920908118	0,000138570729
2	0	0	1	0	3624,38	2,85974312	2,85995317	-0,04923251135430007	1	-0,000987233943	0,000140802673
2	0	0	1	0	3625,73	2,84624171	2,84664059	-0,050232752594941811	1	-0,00105494948	0,000142994599
2	0	0	0	0	3627,08	2,83274031	2,83287668	-0,051369482554340262	1	-0,001124189	0,000145523416
2	0	0	1	0	3628,43	2,81923866	2,81941462	-0,052450130944920346	1	-0,00119494647	0,000147878673
2	0	0	1	0	3629,78	2,80573773	2,8060112	-0,053880816538973472	1	-0,00126727636	0,000151190179
2	0	0	0	0	3631,13	2,79223657	2,79249811	-0,054993054247461261	1	-0,00134124979	0,000153568006
2	0	0	0	0	3632,48	2,77873516	2,77886462	-0,056433291834158125	1	-0,00141693372	0,000156820475
2	0	0	1	0	3633,83	2,76523399	2,76551223	-0,057557326625101382	1	-0,00149441394	0,000159175484
2	0	0	0	0	3635,18	2,75173283	2,75188875	-0,059103331179358067	1	-0,00157368532	0,000162645796
2	0	0	0	0	3636,53	2,73823166	2,73827553	-0,060551808448508493	1	-0,00165489316	0,000165807534
2	0	0	1	0	3637,88	2,72473025	2,72502303	-0,061840433355731443	1	-0,00173804373	0,000168516606
2	0	0	0	0	3639,23	2,71122909	2,71126938	-0,063145971412304819	1	-0,00182323088	0,000171205742
2	0	0	0	0	3640,58	2,69772792	2,69797683	-0,064720853173639296	1	-0,00191050477	0,000174615358
2	0	0	1	0	3641,93	2,68422675	2,68449378	-0,066769505540529958	1	-0,00199999311	0,000179242328
2	0	0	1	0	3643,28	2,67072558	2,67052984	-0,068238177280232013	1	-0,00209171954	0,000182232092
2	0	0	0	0	3644,63	2,65722394	2,65736747	-0,07014054708027584	1	-0,0021857908	0,00018638921
2	0	0	1	0	3645,99	2,64372253	2,64386439	-0,071785246410096755	1	-0,00228222832	0,000189790459
2	0	0	1	0	3647,34	2,63022161	2,63060188	-0,073605464713182413	1	-0,00238115387	0,000193626678
2	0	0	0	0	3648,69	2,6167202	2,61697865	-0,075714454113040064	1	-0,00248257536	0,000198143112
2	0	0	1	0	3650,04	2,60321903	2,60344553	-0,077527269332980147	1	-0,00258660968	0,000201838018
2	0	0	1	0	3651,39	2,58971786	2,58986235	-0,079708628569884992	1	-0,00269322656	0,000206434372
2	0	0	0	0	3652,74	2,57621646	2,57650948	-0,081506600390033318	1	-0,00280262786	0,00021000253
2	0	0	0	0	3654,09	2,56271625	2,56287789	-0,083946889536961613	1	-0,00291481661	0,000215145628
2	0	0	1	0	3655,44	2,54921389	2,54939318	-0,085892831693248346	1	-0,00302991434	0,000218974601
2	0	0	0	0	3656,79	2,53571272	2,53568983	-0,088071294322920333	1	-0,00314791407	0,000223321491
2	0	0	0	0	3658,14	2,52221131	2,52244735	-0,090378323278855859	1	-0,00326894107	0,000227974568
2	0	0	1	0	3659,49	2,50871015	2,50893426	-0,092665375734213965	1	-0,00339310663	0,000232491337
2	0	0	0	0	3660,84	2,49520874	2,49540114	-0,095204750056533619	1	-0,0035203998	0,000237574044
2	0	0	0	0	3662,19	2,48170757	2,48182797	-0,097675319916257664	1	-0,00365111441	0,000242413342
2	0	0	1	0	3663,58	2,4678061	2,46780348	-0,09990017282931785	1	-0,00378926261	0,000246534008
2	0	0	0	0	3664,93	2,45430517	2,45453119	-0,10265633588035926	1	-0,00392719684	0,000251973164
2	0	0	0	0	3666,28	2,44080377	2,44116855	-0,10596142305682178	1	-0,00406898698	0,000258669694
2	0	0	1	0	3667,63	2,4273026	2,42751479	-0,10871006909292235	1	-0,00421480834	0,000263895286
2	0	0	1	0	3668,98	2,41380143	2,41386151	-0,11194131868736258	1	-0,00436458876	0,000270210847
2	0	0	0	0	3670,33	2,40030026	2,40069962	-0,11451266151076766	1	-0,00451827142	0,000274910504
2	0	0	1	0	3671,68	2,38679886	2,38693595	-0,11721275490708693	1	-0,00467548147	0,000279779342
2	0	0	1	0	3673,03	2,37329769	2,37338257	-0,11945790525836266	1	-0,00483599026	0,000283519301
2	0	0	0	0	3674,38	2,35979629	2,3598094	-0,12163187598343906	1	-0,00499952678	0,000287028059
2	0	0	1	0	3675,73	2,34629488	2,34646678	-0,12392730285258347	1	-0,00516612269	0,0002907913
2	0	0	1	0	3677,08	2,33279371	2,33302379	-0,12640613294206582	1	-0,00533591583	0,000294908503
2	0	0	0	0	3678,43	2,31929231	2,31948066	-0,12927870409718376	1	-0,00550924614	0,000299859443
2	0	0	1	0	3679,78	2,30579138	2,30610919	-0,13187572120341274	1	-0,00568624167	0,000304119807
2	0	0	1	0	3681,13	2,29228973	2,2925849	-0,13487122533842877	1	-0,00586698251	0,000309203722
2	0	0	0	0	3682,48	2,27878857	2,27912188	-0,13761447738700827	1	-0,00605162466	0,000313640165
2	0	0	0	0	3683,83	2,2652874	2,2653482	-0,14062840281985744	1	-0,0062401942	0,000318572304
2	0	0	1	0	3685,18	2,25178623	2,25216603	-0,14355628173022206	1	-0,00643272186	0,00032331259
2	0	0	0	0	3686,53	2,23828483	2,23854256	-0,14628074842039517	1	-0,00662911963	0,000327455695
2	0	0	0	0	3687,88	2,22478366	2,22511959	-0,14876431777762899	1	-0,00682928693	0,000331018411
2	0	0	1	0	3689,23	2,21128249	2,21158671	-0,15134205125893142	1	-0,00703309476	0,00033470607
2	0	0	0	0	3690,58	2,19778132	2,19803357	-0,15416913120541763	1	-0,00724032987	0,000338868937
2	0	0	0	0	3691,93	2,18427992	2,18437982	-0,15628765977453485	1	-0,00745071517	0,000341391598
2	0	0	1	0	3693,28	2,17077851	2,17112756	-0,1588046136312191	1	-0,0076643033	0,000344785076
2	0	0	1	0	3694,63	2,15727735	2,15773487	-0,16107352334074608	1	-0,00788101461	0,000347553956
2	0	0	0	0	3695,98	2,14377618	2,14402127	-0,16342068168645075	1	-0,00810099021	0,000350377406
2	0	0	1	0	3697,33	2,13027477	2,13042808	-0,16604912374168701	1	-0,00832422823	0,00035375572
2	0	0	1	0	3698,68	2,11677361	2,1171155	-0,16826673798883939	1	-0,0085507622	0,000356240111
2	0	0	0	0	3700,03	2,10327244	2,10352206	-0,17104511409221824	1	-0,00878057815	0,000359797181
2	0	0	1	0	3701,38	2,08977103	2,08995914	-0,1727876474615191	1	-0,00901363604	0,000361119135
2	0	0	1	0	3702,73	2,07626987	2,07650614	-0,17581829541207571	1	-0,00924976636	0,000365087762
2	0	0	0	0	3704,08	2,06276846	2,06309342	-0,17786670681865235	1	-0,00948911253	0,000366955646
2	0	0	0	0	3705,43	2,04926729	2,04949999	-0,18007717518291155	1	-0,00973146688	0,000369068177
2	0	0	1	0	3706,78	2,03576612	2,036057	-0,1822841053750992	1	-0,00997681636	0,000371140835
2	0	0	0	0	3708,13	2,02226472	2,02253389	-0,18427553966951882	1	-0,0102251125	0,000372703536
2	0	0	0	0	3709,48	2,00876355	2,00890064	-0,18672384628249984	1	-0,010476294	0,000375109666
2	0	0	1	0	3710,83	1,99526227	1,99556828	-0,18858681079776397	1	-0,0107303513	0,000376337848
2	0	0	0	0	3712,18	1,9817611	1,9820751	-0,1901935540760551	1	-0,0109870667	0,0003769779
2	0	0	0	0	3713,53	1,96825969	1,9685421	-0,19212712017664035	1	-0,0112464288	0,00037821033
2	0	0	1	0	3714,88	1,95475864	1,95491862	-0,19430949961921786	1	-0,0115084071	0,000379859266
2	0	0	0	0	3716,23	1,94125724	1,94188666	-0,19624669593758816	1	-0,0117730442	0,000381088845
2	0	0	0	0	3717,58	1,92775607	1,92804277	-0,19812536682002336	1	-0,0120402435	0,000381994178
2	0	0	1	0	3718,93	1,91425467	1,91450965	-0,20032675936818122	1	-0,0123102255	0,000383527513
2	0	0	1	0	3720,28	1,9007535	1,90090644	-0,20221839907268662	1	-0,0125828842	0,00038439827
2	0	0	0	0	3721,63	1,88725233	1,88738346	-0,20480460906401277	1	-0,0128585193	0,000386544823
2	0	0	1	0	3722,98	1,87375093	1,87428117	-0,20691162285705402	1	-0,0131371357	0,000387810549
2	0	0	1	0	3724,33	1,86024976	1,86032724	-0,20957621342192035	1	-0,0134190768	0,000389880326
2	0	0	0	0	3725,68	1,84674835	1,84675395	-0,21229082951322288	1	-0,0137046343	0,00039204894
2	0	0	1	0	3727,03	1,8332473	1,83349156	-0,21528380333135466	1	-0,0139941657	0,00039472105
2	0	0	1	0	3728,38	1,8197459	1,82020903	-0,21879086294211446	1	-0,0142879225	0,000398245116
2	0	0	0	0	3729,73	1,80624473	1,8067261	-0,22198420724210608	1	-0,0145862736	0,000401064666
2	0	0	0	0	3731,08	1,79274333	1,79302239	-0,22577148380999824	1	-0,0148893613	0,000404813327
2	0	0	1	0	3732,43	1,77924216	1,77966964	-0,22922148105377958	1	-0,015197359	0,000407938525
2	0	0	0	0	3733,78	1,76574099	1,76588607	-0,23344708668688896	1	-0,0155104268	0,000412240945
2	0	0	0	0	3735,13	1,75223958	1,75229263	-0,23704775337440288	1	-0,0158285741	0,000415377028
2	0	0	1	0	3736,48	1,73873842	1,73909068	-0,24080208246596157	1	-0,016152082	0,000418776646
2	0	0	0	0	3737,83	1,72523701	1,72575784	-0,24480223298693638	1	-0,0164811164	0,000422469369
2	0	0	0	0	3739,18	1,71173584	1,71222472	-0,24926652720508534	1	-0,0168159716	0,00042680031
2	0	0	1	0	3740,53	1,69823468	1,69837081	-0,25422717079830726	1	-0,017157007	0,000431772001
2	0	0	0	0	3741,88	1,68473244	1,68497837	-0,25891143783067606	1	-0,0175044388	0,000436260161
2	0	0	0	0	3743,23	1,67123199	1,67138493	-0,26406457127692739	1	-0,0178583972	0,000441353535
2	0	0	1	0	3744,58	1,65773082	1,6579119	-0,26879394240677357	1	-0,0182190705	0,000445636688
2	0	0	1	0	3745,93	1,64422965	1,64463937	-0,27429016671764384	1	-0,0185865201	0,000451108412
2	0	0	0	0	3747,28	1,63072824	1,6309458	-0,2795230735403793	1	-0,0189611483	0,00045588697
2	0	0	1	0	3748,63	1,61722708	1,61745286	-0,2848411527617527	1	-0,0193429999	0,000460717129
2	0	0	1	0	3749,98	1,60372591	1,60402	-0,29057878651656211	1	-0,0197323859	0,000466094178
2	0	0	0	0	3751,33	1,5902245	1,59052694	-0,29648068888733792	1	-0,0201296862	0,000471560517
2	0	0	1	0	3752,69	1,57672334	1,57683337	-0,30291619935693939	1	-0,0205352269	0,000477648369
2	0	0	1	0	3754,04	1,56322205	1,56357098	-0,30925412833069734	1	-0,0209492296	0,000483540789
2	0	0	0	0	3755,39	1,54972076	1,55000794	-0,31630152650177523	1	-0,0213722102	0,000490269857
2	0	0	0	0	3756,74	1,53621948	1,53648484	-0,32302868211021043	1	-0,0218044333	0,000496328692
2	0	0	1	0	3758,09	1,52271831	1,52298164	-0,33051680400967686	1	-0,0222463217	0,000503371004
2	0	0	0	0	3759,44	1,50921714	1,50944865	-0,33814048852461056	1	-0,0226984248	0,000510405691
2	0	0	0	0	3760,79	1,49571586	1,49595559	-0,34617484283323117	1	-0,0231611505	0,000517862209
2	0	0	1	0	3762,14	1,48221457	1,48242247	-0,35463951046889178	1	-0,0236353781	0,000525725598
2	0	0	0	0	3763,49	1,46871328	1,46889937	-0,36375725052008966	1	-0,0241216738	0,000534322811
2	0	0	0	0	3764,84	1,455212	1,45546663	-0,37427167004595322	1	-0,0246209353	0,000544739945
2	0	0	1	0	3766,19	1,44171071	1,44208372	-0,3848272943093143	1	-0,0251342561	0,000554953178
2	0	0	1	0	3767,54	1,42820942	1,42852056	-0,3967014982675536	1	-0,0256626457	0,000566696224
2	0	0	0	0	3768,89	1,41470826	1,41500747	-0,40896006502832096	1	-0,0262073409	0,000578681531
2	0	0	1	0	3770,24	1,40120697	1,40147448	-0,42261580362295258	1	-0,0267696399	0,000592285243
2	0	0	1	0	3771,59	1,3877058	1,38802147	-0,43744339483479776	1	-0,0273509473	0,000607180817
2	0	0	0	0	3772,94	1,37420452	1,3747189	-0,45330215292051258	1	-0,0279530715	0,00062316301
2	0	0	1	0	3774,29	1,36070323	1,36070466	-0,47099875301743578	1	-0,0285777282	0,000640890212
2	0	0	1	0	3775,64	1,34720194	1,34754252	-0,48952478899930976	1	-0,0292269383	0,000659655489
2	0	0	0	0	3776,99	1,33370066	1,33372867	-0,50907034721846502	1	-0,0299019683	0,000678961689
2	0	0	1	0	3778,34	1,32019949	1,32048631	-0,52761781821027533	1	-0,0306026321	0,000696712115
2	0	0	1	0	3779,69	1,30669808	1,30691302	-0,54741465641806688	1	-0,0313289985	0,000715423317
2	0	0	0	0	3781,04	1,2931968	1,29358041	-0,56761812077214291	1	-0,0320825875	0,000734259665
2	0	0	0	0	3782,39	1,27969551	1,27989697	-0,58799069390321664	1	-0,0328636244	0,000752567488
2	0	0	1	0	3783,74	1,26619446	1,26647401	-0,60796026124929626	1	-0,0336718597	0,000769965874
2	0	0	0	0	3785,09	1,25269318	1,25284064	-0,6274197514479383	1	-0,034506768	0,000786056975
2	0	0	0	0	3786,44	1,23919201	1,23939776	-0,64645087718963341	1	-0,0353677794	0,000801209768
2	0	0	1	0	3787,79	1,2256906	1,22593486	-0,66541985624159667	1	-0,0362547971	0,000815761392
2	0	0	0	0	3789,14	1,21218932	1,21273267	-0,68503694422542963	1	-0,0371676907	0,000830766687
2	0	0	0	0	3790,49	1,19868815	1,19904912	-0,70470284018665549	1	-0,0381067544	0,000844973314
2	0	0	1	0	3791,84	1,18518674	1,18546581	-0,72552394028752781	1	-0,0390732288	0,000860083848
2	0	0	1	0	3793,19	1,17168558	1,17201293	-0,74833440237368218	1	-0,0400689468	0,00087705761
2	0	0	0	0	3794,54	1,15818429	1,15848982	-0,77361555661385139	1	-0,0410970934	0,000896225742
2	0	0	1	0	3795,89	1,14468312	1,14504695	-0,80383628265311424	1	-0,0421625227	0,000920430291
2	0	0	1	0	3797,24	1,13118184	1,13145363	-0,83976731294145242	1	-0,043272078	0,000950157759
2	0	0	0	0	3798,59	1,11768055	1,11810088	-0,88493289488057408	1	-0,0444363616	0,000989444205
2	0	0	1	0	3799,94	1,10417926	1,10426712	-0,94117862079292723	1	-0,045668751	0,00103931257
2	0	0	1	0	3801,33	1,09027803	1,09030294	-1,013709564382829	1	-0,0470268019	0,00110525056
2	0	0	0	0	3802,68	1,07677674	1,07690024	-1,1020309648787024	1	-0,0484541021	0,00118677737
2	0	0	0	0	3804,03	1,06327581	1,063398	-1,2116080884914702	1	-0,05001444	0,00128842157
2	0	0	1	0	3805,38	1,04977417	1,05015481	-1,3447254728525894	1	-0,0517381541	0,00141216989
2	0	0	0	0	3806,73	1,036273	1,03641105	-1,5080316063637552	1	-0,0536618307	0,00156294066
2	0	0	0	0	3808,08	1,02277184	1,0230484	-1,7034441443781123	1	-0,0558269881	0,00174270582
2	0	0	1	0	3809,43	1,00927043	1,00949526	-1,9321261445681318	1	-0,0582791343	0,00195047213
2	0	0	0	0	3810,78	0,995769203	0,995912075	-2,1894106244047437	1	-0,0610606112	0,00218046037
2	0	0	0	0	3812,13	0,982268035	0,982499182	-2,4675799955924448	1	-0,064204447	0,00242439541
2	0	0	1	0	3813,48	0,968766749	0,969216645	-2,7596287671476614	1	-0,0677334964	0,00267467811
2	0	0	0	0	3814,83	0,955265462	0,955643475	-3,0581500691672243	1	-0,0716632903	0,00292250118
2	0	0	0	0	3816,18	0,941764235	0,941990077	-3,3526262715458867	1	-0,0759937465	0,00315814069
2	0	0	1	0	3817,53	0,928262949	0,928647399	-3,6541730848451514	1	-0,0807239339	0,00339343841
2	0	0	1	0	3818,88	0,914760947	0,914933026	-3,9655503404190003	1	-0,0858692229	0,00362821296
2	0	0	0	0	3820,23	0,901260376	0,901490986	-4,2786617514987898	1	-0,0914361477	0,00385717489
2	0	0	1	0	3821,58	0,887759089	0,88792783	-4,5914496220648288	1	-0,0974265337	0,00407687575
2	0	0	1	0	3822,93	0,874257922	0,8742643	-4,9027710519730906	1	-0,103837244	0,00428631762
2	0	0	0	0	3824,28	0,860756695	0,861021936	-5,2109193615615296	1	-0,110667408	0,00448671589
2	0	0	1	0	3825,63	0,847255409	0,847338498	-5,5158025287091872	1	-0,117911689	0,004673752
2	0	0	1	0	3826,98	0,833754122	0,834186256	-5,8149442349870989	1	-0,125562087	0,0048507466
2	0	0	0	0	3828,33	0,820252895	0,820412576	-6,1101917003591808	1	-0,133614928	0,00501287822
2	0	0	1	0	3829,68	0,806751609	0,807290494	-6,3956259578466752	1	-0,142060623	0,00516312802
2	0	0	1	0	3831,03	0,793250322	0,793637097	-6,669870684544265	1	-0,150880337	0,00529345684
2	0	0	0	0	3832,38	0,779749095	0,779983699	-6,9413381343086438	1	-0,160071775	0,00541413063
2	0	0	0	0	3833,73	0,766247869	0,766570866	-7,2041724845767027	1	-0,169622645	0,00552250864
2	0	0	1	0	3835,08	0,752746582	0,752797127	-7,4574680998921318	1	-0,179524079	0,00561396079
2	0	0	0	0	3836,43	0,739245355	0,73937434	-7,7015325178703053	1	-0,189761177	0,0056943153
2	0	0	0	0	3837,78	0,725744009	0,725951433	-7,929361820220969	1	-0,200315744	0,00575633161
2	0	0	1	0	3839,13	0,712242842	0,712448418	-8,1465151607990259	1	-0,211170569	0,00580397202
2	0	0	0	0	3840,48	0,698741615	0,699055612	-8,3488410140077184	1	-0,222310618	0,00583630428
2	0	0	0	0	3841,83	0,685240328	0,685342133	-8,544632683197705	1	-0,233716547	0,00585599663
2	0	0	1	0	3843,18	0,671739042	0,671859145	-8,7495695302883686	1	-0,245394349	0,00587847829
2	0	0	1	0	3844,53	0,658237815	0,658386111	-8,9488420461615168	1	-0,25734207	0,00589179341
2	0	0	0	0	3845,88	0,644736588	0,645123661	-9,1474326228102144	1	-0,269562155	0,00590122538
2	0	0	1	0	3847,23	0,631235242	0,631380081	-9,3373480985562483	1	-0,282043397	0,00589541579
2	0	0	1	0	3848,58	0,617734015	0,617947221	-9,5220677355925427	1	-0,294775724	0,00588413514
2	0	0	0	0	3849,93	0,604232728	0,604554415	-9,7080230514208666	1	-0,307760417	0,00586902816
2	0	0	1	0	3851,28	0,590731502	0,590820789	-9,8880760719379174	1	-0,320990145	0,00584208081
2	0	0	1	0	3852,66	0,576930165	0,577117264	-10,05958970884484	1	-0,334757179	0,00580556272
2	0	0	0	0	3854,01	0,563428998	0,563754559	-10,234473340213328	1	-0,348458052	0,00576973101
2	0	0	1	0	3855,36	0,549928427	0,550182521	-10,408422517239096	1	-0,362393081	0,00572653208
2	0	0	1	0	3856,71	0,536426425	0,536387622	-10,587987542152405	1	-0,376570165	0,0056792656
2	0	0	0	0	3858,06	0,522925198	0,523044944	-10,762132922808349	1	-0,390984565	0,00562907942
2	0	0	0	0	3859,41	0,509423912	0,509501815	-10,936598787705115	1	-0,405632198	0,00557221705
2	1	0	1	0	3860,69	0,503323376	0,503577292	-10,905596636235742	1	-0,419596493	0,00549181085
2	1	0	0	0	3862,04	0,516824603	0,517070293	-10,415315511326035	1	-0,433984727	0,00538545009
2	1	0	1	0	3863,39	0,53032589	0,530352831	-9,9508336658279296	1	-0,447730184	0,00527745299
2	1	0	1	0	3864,74	0,543827116	0,544206738	-9,501714460551767	1	-0,460856169	0,00517089712
2	1	0	0	0	3866,09	0,557328343	0,557799995	-9,0767370834946637	1	-0,473394513	0,00506300386
2	1	0	0	0	3867,44	0,570828617	0,571171105	-8,6695533979259098	1	-0,485367119	0,00495179836
2	1	0	1	0	3868,79	0,584330916	0,584505379	-8,282535739243031	1	-0,496807337	0,00484118657
2	1	0	0	0	3870,14	0,597832143	0,598018348	-7,9102319156129971	1	-0,507734239	0,00473046396
2	1	0	0	0	3871,49	0,61133343	0,611732006	-7,555586112042263	1	-0,518170178	0,00462199375
2	1	0	1	0	3872,84	0,624834657	0,625084639	-7,2172128260135936	1	-0,528139591	0,00451136893
2	1	0	0	0	3874,19	0,638335943	0,638477504	-6,8961355015635354	1	-0,537661135	0,00440302724
2	1	0	0	0	3875,54	0,65183723	0,652181029	-6,5892841741442829	1	-0,546759963	0,00429740595
2	1	0	1	0	3876,89	0,665338457	0,665724039	-6,2935220425327718	1	-0,555452764	0,00418974878
2	1	0	0	0	3878,24	0,678839684	0,679076731	-6,0115319937467571	1	-0,56375736	0,00408229139
2	1	0	0	0	3879,59	0,69234097	0,692599893	-5,7406676461299494	1	-0,571687579	0,00397598557
2	1	0	1	0	3880,94	0,705842197	0,705932498	-5,4803625966111866	1	-0,57926017	0,00386876613
2	1	0	1	0	3882,29	0,719343483	0,719585896	-5,2308419967690938	1	-0,586487412	0,00376404007
2	1	0	0	0	3883,64	0,73284477	0,733048856	-4,9894424937665318	1	-0,593383431	0,00365750515
2	1	0	1	0	3885,03	0,746746063	0,74686259	-4,7619580949346381	1	-0,600165665	0,00355652836
2	1	0	1	0	3886,38	0,76024729	0,760425806	-4,5395286741356243	1	-0,606441796	0,00345197483
2	1	0	0	0	3887,73	0,773748577	0,773938894	-4,3220098937551373	1	-0,612421751	0,00334497145
2	1	0	1	0	3889,08	0,787249804	0,787331581	-4,1132385022938253	1	-0,618113816	0,00323848263
2	1	0	1	0	3890,43	0,80075103	0,801215589	-3,9108740588029178	1	-0,6235286	0,0031334532
2	1	0	0	0	3891,78	0,814252317	0,814578295	-3,7150613677998477	1	-0,628674805	0,00302620837
2	1	0	0	0	3893,13	0,827753603	0,828091323	-3,5256505385041133	1	-0,633561015	0,00291956053
2	1	0	1	0	3894,48	0,84125483	0,841403902	-3,3423117498556749	1	-0,638195276	0,00281223422
2	1	0	0	0	3895,83	0,854755998	0,854957104	-3,1647971322139059	1	-0,642586172	0,00270576589
2	1	0	0	0	3897,18	0,868257403	0,868500173	-2,9910644559810675	1	-0,646739602	0,00259773992
2	1	0	1	0	3898,53	0,881758571	0,881812811	-2,8253566759328166	1	-0,650663972	0,00249143573
2	1	0	0	0	3899,88	0,895259857	0,895516336	-2,6637906214843242	1	-0,654366791	0,00238546799
2	1	0	0	0	3901,23	0,908761144	0,909039438	-2,5042855404317414	1	-0,657852471	0,0022764944
2	1	0	1	0	3902,58	0,922262371	0,922472298	-2,3513953505704758	1	-0,661128581	0,00216909708
2	1	0	0	0	3903,93	0,93576467	0,936135352	-2,2016725661045014	1	-0,664200664	0,00206106342
2	1	0	0	0	3905,28	0,949264944	0,949338078	-2,0585212310155184	1	-0,66707474	0,00195423258
2	1	0	1	0	3906,63	0,962766111	0,963181973	-1,9179091968884093	1	-0,669757187	0,00184729556
2	1	0	1	0	3907,98	0,976267338	0,97660476	-1,7817767150700163	1	-0,672252893	0,0017400916
2	1	0	0	0	3909,33	0,989768744	0,990147948	-1,6497866163651178	1	-0,674567521	0,00163353281
2	1	0	1	0	3910,68	1,00326991	1,00355077	-1,5217399330188874	1	-0,676707029	0,00152714329
2	1	0	1	0	3912,03	1,01677108	1,01688325	-1,3982232448955365	1	-0,678676486	0,0014218298
2	1	0	0	0	3913,38	1,03027248	1,03048658	-1,2780291872719954	1	-0,680481434	0,00131699198
2	1	0	1	0	3914,73	1,04377365	1,04398966	-1,1628376453494056	1	-0,682127953	0,0012139905
2	1	0	1	0	3916,08	1,05727494	1,05752277	-1,0508563133577517	1	-0,68362087	0,0011113045
2	1	0	0	0	3917,43	1,0707761	1,07093561	-0,94382723265638541	1	-0,684966505	0,00101077824
2	1	0	0	0	3918,78	1,08427739	1,08433831	-0,84118851833045478	1	-0,686169684	0,000912132906
2	1	0	1	0	3920,13	1,09777868	1,09806192	-0,74174475918213581	1	-0,687236965	0,000814481697
2	1	0	0	0	3921,48	1,11127996	1,11149478	-0,64722532934198541	1	-0,688173294	0,00071938755
2	1	0	0	0	3922,83	1,12478125	1,12504804	-0,55611093916619757	1	-0,688983917	0,000625651504
2	1	0	1	0	3924,22	1,13868237	1,13908231	-0,46708396837736109	1	-0,689692974	0,000532047066
2	1	0	0	0	3925,57	1,15218365	1,15236473	-0,38349350146018144	1	-0,690265417	0,000441924378
2	1	0	0	0	3926,92	1,16568506	1,16589797	-0,30403273420718867	1	-0,69072783	0,000354471151
2	1	0	1	0	3928,27	1,17918634	1,17952132	-0,22755708685144781	1	-0,691085041	0,000268408447
2	1	0	0	0	3929,62	1,19268751	1,19299424	-0,15477075241506144	1	-0,69134146	0,000184640608
2	1	0	0	0	3930,97	1,2061888	1,20651734	-0,084829406754579507	1	-0,691501796	0,000102348153
2	1	0	1	0	3932,36	1,22009003	1,22034109	-0,016614241040466992	1	-0,691571116	2,02750416E-005
2	1	0	1	0	3933,71	1,23359132	1,23379409	0,047099438331012269	1	-0,69154954	5,81110071E-005
2	1	0	0	0	3935,10	1,24749267	1,24750769	0,1095505726989359	1	-0,691439509	0,000136665185
2	1	0	1	0	3936,45	1,26099408	1,26148188	0,16842917585745498	1	-0,691250741	0,000212470361
2	1	0	1	0	3937,80	1,27449512	1,27455378	0,22438388131558717	1	-0,690984309	0,000285989314
2	1	0	0	0	3939,15	1,28799641	1,28838766	0,27955353236757309	1	-0,690643013	0,000360173319
2	1	0	1	0	3940,50	1,30149758	1,30186069	0,33220368600450509	1	-0,690228939	0,000432482921
2	1	0	1	0	3941,85	1,31499887	1,31547403	0,3839437149775513	1	-0,689744651	0,00050506799
2	1	0	0	0	3943,20	1,32850015	1,32880664	0,43368489822993619	1	-0,689191997	0,000576283375
2	1	0	0	0	3944,55	1,34200168	1,34220922	0,4819024667025209	1	-0,688572824	0,000646813947
2	1	0	1	0	3945,90	1,35550284	1,35560203	0,52881501009687782	1	-0,687889159	0,000716862676
2	1	0	0	0	3947,25	1,36900401	1,36941588	0,57518944889307021	1	-0,687142253	0,000787673576
2	1	0	0	0	3948,60	1,3825053	1,38277876	0,62062034818033318	1	-0,686333776	0,000858180632
2	1	0	1	0	3949,95	1,39600658	1,39619148	0,66512541954095104	1	-0,685464561	0,000928642461
2	1	0	0	0	3951,30	1,40950763	1,41002536	0,70922144021217907	1	-0,684535444	0,00100002019
2	1	0	0	0	3952,65	1,42300892	1,42323768	0,75252193647126208	1	-0,683547556	0,00107101758
2	1	0	1	0	3954,00	1,43651032	1,43694127	0,7958275297035744	1	-0,682501197	0,00114355737
2	1	0	0	0	3955,35	1,45001149	1,45045424	0,83844600059091686	1	-0,681396782	0,00121612754
2	1	0	0	0	3956,70	1,46351278	1,46381688	0,88092836954941056	1	-0,680235505	0,00128951785
2	1	0	1	0	3958,05	1,47701406	1,4772197	0,9228755400205664	1	-0,679016471	0,00136328989
2	1	0	1	0	3959,40	1,49051535	1,49090326	0,96564532257616525	1	-0,677740514	0,00143968372
2	1	0	0	0	3960,79	1,50441658	1,50457668	1,0107728031774333	1	-0,676365793	0,00152078515
2	1	0	1	0	3962,15	1,51791775	1,5182302	1,0540952946369818	1	-0,674971282	0,00160035933
2	1	0	1	0	3963,50	1,53141916	1,53165293	1,0959515276675394	1	-0,673519313	0,00167861732
2	1	0	0	0	3964,85	1,54492044	1,54509592	1,1383303205172251	1	-0,672010124	0,00175882957
2	1	0	1	0	3966,20	1,55842173	1,55856872	1,181270724472899	1	-0,670443356	0,00184109155
2	1	0	1	0	3967,55	1,5719229	1,5723424	1,2241111733019282	1	-0,668818891	0,00192472187
2	1	0	0	0	3968,90	1,58542407	1,58566511	1,2666871609787126	1	-0,667136431	0,00200854172
2	1	0	0	0	3970,25	1,59892452	1,59899771	1,3100738964137157	1	-0,665395796	0,00209480524
2	1	0	1	0	3971,60	1,61242664	1,6125108	1,3535158258552365	1	-0,66359657	0,00218255888
2	1	0	0	0	3972,95	1,62592781	1,62620425	1,3969736099243122	1	-0,661738515	0,00227176445
2	1	0	0	0	3974,30	1,63942909	1,63973737	1,4407629771158117	1	-0,659821808	0,00236247294
2	1	0	1	0	3975,65	1,65293038	1,65340078	1,4847712538515459	1	-0,657845497	0,00245492184
2	1	0	0	0	3977,00	1,66643167	1,6665231	1,5285262673472387	1	-0,655809939	0,0025473244
2	1	0	0	0	3978,35	1,67993283	1,68011606	1,5736133226503882	1	-0,653714955	0,00264385296
2	1	0	1	0	3979,70	1,69343424	1,69358921	1,617894691104688	1	-0,651559353	0,00274004904
2	1	0	0	0	3981,05	1,70693541	1,70725262	1,6624203988661398	1	-0,649343729	0,00283817155
2	1	0	0	0	3982,40	1,72043657	1,72089589	1,7070193619777712	1	-0,647068799	0,00293760258
2	1	0	1	0	3983,75	1,73393798	1,73409832	1,7515993652244362	1	-0,644733012	0,00303744548
2	1	0	1	0	3985,10	1,74743915	1,7476815	1,7963115473588189	1	-0,642337799	0,00313938037
2	1	0	0	0	3986,45	1,76094043	1,76100409	1,8413981863607952	1	-0,639881313	0,00324270967
2	1	0	1	0	3987,80	1,77444172	1,77448726	1,8867603056132723	1	-0,637363851	0,00334803201
2	1	0	1	0	3989,15	1,78794301	1,78836107	1,9321371590097699	1	-0,634785593	0,00345535879
2	1	0	0	0	3990,50	1,80144429	1,80176377	1,9784156704942291	1	-0,632145047	0,00356463762
2	1	0	1	0	3991,85	1,81494558	1,81523681	2,0241033490747283	1	-0,629442573	0,00367422681
2	1	0	1	0	3993,20	1,82844675	1,8285594	2,070422980313481	1	-0,626677871	0,00378589146
2	1	0	0	0	3994,55	1,84194791	1,84211254	2,1174881421029546	1	-0,623849452	0,00390065135
2	1	0	0	0	3995,90	1,85544956	1,85559559	2,163856505193135	1	-0,620958149	0,00401524268
2	1	0	1	0	3997,25	1,86895049	1,86928916	2,2116679449876102	1	-0,618003309	0,00413424708
2	1	0	0	0	3998,60	1,88245189	1,88263166	2,2589434050023485	1	-0,614983737	0,00425275834
2	1	0	0	0	3999,95	1,89595306	1,89602458	2,3075479889909437	1	-0,611900151	0,00437516766
2	1	0	1	0	4001,30	1,90945435	1,90970802	2,3562245387584006	1	-0,608750522	0,00449970085
2	1	0	0	0	4002,65	1,92295551	1,92320096	2,4050643164664454	1	-0,605535269	0,00462542195
2	1	0	0	0	4004,00	1,93645692	1,93661392	2,4543254810075085	1	-0,602254212	0,00475308066
2	1	0	1	0	4005,35	1,94995809	1,95021713	2,5033328154434714	1	-0,598906279	0,00488204276
2	1	0	0	0	4006,70	1,96345925	1,96390069	2,5527480003486077	1	-0,595491529	0,00501334341
2	1	0	0	0	4008,05	1,97696066	1,97740376	2,6026569058497629	1	-0,592010498	0,00514650345
2	1	0	1	0	4009,40	1,99046183	1,99068606	2,6518179743240253	1	-0,588462055	0,00527893705
2	1	0	1	0	4010,75	2,00396323	2,00408888	2,7020397316664554	1	-0,58484745	0,00541512761
2	1	0	0	0	4012,10	2,01746416	2,01754189	2,7507601051280854	1	-0,58116585	0,00554977357
2	1	0	1	0	4013,45	2,03096557	2,03123546	2,7983551522095952	1	-0,577418745	0,00568411825
2	1	0	1	0	4014,80	2,04446697	2,04464817	2,8465948092440774	1	-0,573607922	0,00582028506
2	1	0	0	0	4016,15	2,05796838	2,05821133	2,8907710798084736	1	-0,569733739	0,0059498176
2	1	0	1	0	4017,50	2,07146931	2,07161427	2,9344718555609395	1	-0,565800369	0,00607909355
2	1	0	1	0	4018,85	2,08497047	2,08509707	2,9747943046192307	1	-0,561810374	0,00620273501
2	1	0	0	0	4020,20	2,09847188	2,09847975	3,0097481763611213	1	-0,557768166	0,00631589582
2	1	0	0	0	4021,55	2,11197281	2,11239266	3,0403594617783123	1	-0,553682685	0,00642243307
2	1	0	1	0	4022,90	2,12547445	2,12577653	3,0640191913892742	1	-0,549559474	0,00651342003
2	1	0	0	0	4024,25	2,13897562	2,13920951	3,0804319810122112	1	-0,545409739	0,00658968929
2	1	0	0	0	4025,60	2,15247679	2,15248203	3,0866823643445824	1	-0,541244864	0,00664402824
2	1	0	1	0	4026,95	2,16597819	2,16602492	3,0829244200140205	1	-0,537077129	0,00667769136
2	1	0	0	0	4028,30	2,1794796	2,17959833	3,0643094132343942	1	-0,532924831	0,00667896355
2	1	0	0	0	4029,65	2,19298077	2,19319153	3,031234816337616	1	-0,52880758	0,00664807856
2	1	0	1	0	4031,00	2,20648193	2,20672488	2,9841064903885088	1	-0,524743915	0,00658510206
2	1	0	1	0	4032,35	2,21998239	2,22019672	2,9176661523689485	1	-0,520757973	0,00647779275
2	1	0	0	0	4033,70	2,23348475	2,23389125	2,8333714194595725	1	-0,516873419	0,00632944377
2	1	0	1	0	4035,05	2,24698591	2,24723387	2,7296706717461418	1	-0,513115227	0,00613420829
2	1	0	1	0	4036,40	2,26048684	2,26058674	2,6071691482017325	1	-0,509510517	0,00589373196
2	1	0	0	0	4037,75	2,27398825	2,27451062	2,4667160349587574	1	-0,506082594	0,00561057171
2	1	0	1	0	4039,10	2,28748965	2,28786325	2,3049554831037827	1	-0,502857924	0,00527342316
2	1	0	1	0	4040,45	2,30099082	2,30130601	2,1309022673716134	1	-0,499861538	0,00490385806
2	1	0	0	0	4041,80	2,31449199	2,31451869	1,9472361411899328	1	-0,497107923	0,00450691441
2	1	0	1	0	4043,15	2,32799315	2,32797146	1,7682974748313357	1	-0,494600922	0,0041165459
2	1	0	1	0	4044,50	2,34149432	2,34157491	1,6134024877101165	1	-0,49232167	0,00377790281
2	1	0	0	0	4045,85	2,35499573	2,35525823	1,4962846928586621	1	-0,490226269	0,00352413673
2	1	0	0	0	4047,20	2,36849689	2,36881137	1,4175605354830622	1	-0,488262534	0,0033579336
2	1	0	1	0	4048,55	2,3819983	2,38224435	1,3686917119969894	1	-0,486383736	0,00326055801
2	1	0	0	0	4049,90	2,39549947	2,39601803	1,341295019102592	1	-0,484555423	0,00321376696
2	1	0	0	0	4051,25	2,40900087	2,40918016	1,331912541451553	1	-0,482751548	0,00320881722
2	1	0	1	0	4052,60	2,42250204	2,42261314	1,3344544221957517	1	-0,480951816	0,00323286676
2	1	0	0	0	4053,95	2,43600345	2,43601584	1,3480560444295442	1	-0,479140908	0,00328388577
2	1	0	0	0	4055,30	2,44950461	2,44980955	1,3709018963078706	1	-0,477305949	0,00335844862
2	1	0	1	0	4056,65	2,46300602	2,46351314	1,4006840872267858	1	-0,475435227	0,00345060369
2	1	0	0	0	4058,00	2,47650766	2,47675562	1,4372881442769198	1	-0,473519504	0,00355981151
2	1	0	0	0	4059,35	2,49000835	2,49026847	1,4800879685208202	1	-0,471550196	0,00368581642
2	1	0	1	0	4060,70	2,50350976	2,50371146	1,5279878076786771	1	-0,469519198	0,00382564054
2	1	0	1	0	4062,05	2,51701093	2,51711416	1,5816229004412854	1	-0,467419773	0,00398112554
2	1	0	0	0	4063,40	2,53051209	2,5307076	1,6395434308797069	1	-0,465244859	0,00414920505
2	1	0	1	0	4064,75	2,54401326	2,54421067	1,7022093323369808	1	-0,462988555	0,00433077896
2	1	0	1	0	4066,10	2,55751467	2,55760312	1,7671953799823933	1	-0,460645944	0,00451978436
2	1	0	0	0	4067,45	2,57101583	2,57122684	1,8370034166922195	1	-0,458211929	0,00472335238
2	1	0	1	0	4068,81	2,58451724	2,58477998	1,9089233032862298	1	-0,455682486	0,00493414653
2	1	0	1	0	4070,16	2,59801865	2,59841323	1,9834521127243718	1	-0,45305413	0,0051538283
2	1	0	0	0	4071,51	2,61151958	2,61169577	2,0593588743358781	1	-0,45032391	0,00537841907
2	1	0	0	0	4072,86	2,62502098	2,62527895	2,1359359516451661	1	-0,447490871	0,00560742756
2	1	0	1	0	4074,21	2,63852215	2,63875198	2,212611925477784	1	-0,444553733	0,00583853433
2	1	0	0	0	4075,56	2,65202332	2,65225482	2,2875686349968093	1	-0,441514224	0,006067215
2	1	0	0	0	4076,91	2,66552472	2,66567802	2,361576378966376	1	-0,438374996	0,0062952023
2	1	0	1	0	4078,26	2,67902613	2,67905068	2,4330615544070787	1	-0,435136437	0,00651829503
2	1	0	0	0	4079,61	2,69252729	2,69278431	2,5025513408084611	1	-0,431803018	0,00673883082
2	1	0	0	0	4080,96	2,70602846	2,70626712	2,5680066651354138	1	-0,428378969	0,00694971206
2	1	0	1	0	4082,31	2,71952987	2,71967006	2,6287137673546822	1	-0,424869031	0,00714923395
2	1	0	1	0	4083,66	2,73303008	2,73324156	2,6860012410321942	1	-0,421280771	0,00734149013
2	1	0	0	0	4085,01	2,74653244	2,74653578	2,7372081832339389	1	-0,41761896	0,00751784025
2	1	0	1	0	4086,36	2,76003385	2,76037955	2,7843880510578522	1	-0,413889468	0,00768596772
2	1	0	1	0	4087,71	2,77353501	2,77389264	2,8259543962776662	1	-0,410101205	0,00783889368
2	1	0	0	0	4089,06	2,78703618	2,78732562	2,8614857389281117	1	-0,406260639	0,00797589216
2	1	0	1	0	4090,41	2,80053735	2,8008287	2,8927960805594957	1	-0,40237543	0,00810222607
2	1	0	1	0	4091,76	2,81403852	2,81419158	2,9189539067447213	1	-0,398450822	0,00821449514
2	1	0	0	0	4093,11	2,82753992	2,82779455	2,941052455455079	1	-0,394493908	0,00831669196
2	1	0	0	0	4094,46	2,84104037	2,84130549	2,9575724823333952	1	-0,390510231	0,00840336736
2	1	0	1	0	4095,81	2,85454226	2,85488081	2,9694471620023213	1	-0,386508137	0,00847741775
2	1	0	0	0	4097,16	2,86804414	2,8681035	2,9791158928225414	1	-0,382490277	0,00854441244
2	1	0	0	0	4098,51	2,88154531	2,88178682	2,9863526082287206	1	-0,378462523	0,00860603154
2	1	0	1	0	4099,86	2,89504647	2,89519978	2,9890348042051046	1	-0,374428481	0,00865385309
2	1	0	0	0	4101,21	2,90854764	2,90877295	2,9904434376706669	1	-0,370390981	0,00869852118
2	1	0	0	0	4102,56	2,92204881	2,92234635	2,9894295074045549	1	-0,366353899	0,00873614848
2	1	0	1	0	4103,91	2,93555021	2,93574905	2,9851911347359366	1	-0,362319499	0,00876377244
2	1	0	0	0	4105,26	2,94905138	2,94927192	2,9798555523157069	1	-0,358292401	0,00878840405
2	1	0	0	0	4106,61	2,96255255	2,96283531	2,9715847944219904	1	-0,354273856	0,00880431663
2	1	0	1	0	4107,96	2,97605395	2,97614765	2,9629571748276506	1	-0,350267202	0,008818198
2	1	0	0	0	4109,31	2,98955607	2,98958015	2,9516122892627194	1	-0,346273601	0,00882408116
2	1	0	0	0	4110,66	3,00305653	3,00310373	2,9399223898847885	1	-0,342296243	0,00882889144
2	1	0	1	0	4112,01	3,01655769	3,01659679	2,926153743018695	1	-0,338334978	0,008827026
2	1	0	1	0	4113,36	3,0300591	3,03033042	2,9096561217059501	1	-0,334394962	0,00881721918
2	1	0	0	0	4114,71	3,04356027	3,04389358	2,8910444267094099	1	-0,330479145	0,00880003162
2	1	0	1	0	4116,06	3,05706167	3,05719638	2,869491526857015	1	-0,326589614	0,00877259951
2	1	0	1	0	4117,41	3,07056284	3,07061911	2,8414526029179395	1	-0,322733998	0,00872501824
2	1	0	0	0	4118,76	3,08406401	3,08432245	2,810105654721447	1	-0,318917334	0,00866727158
2	1	0	1	0	4120,11	3,09756637	3,09796667	2,7696217573251331	1	-0,315149605	0,00858019572
2	1	0	1	0	4121,46	3,11106658	3,11135888	2,7236671335995242	1	-0,311440349	0,0084743062
2	1	0	0	0	4122,81	3,12456799	3,12496185	2,6672790435453245	1	-0,307799757	0,00833514519
2	1	0	1	0	4124,16	3,13806963	3,13814449	2,6034073249569366	1	-0,304240167	0,00816986803
2	1	0	1	0	4125,51	3,15157008	3,15160704	2,5261798724532058	1	-0,300776452	0,00796152651
2	1	0	0	0	4126,86	3,16507125	3,16523051	2,4394890815019571	1	-0,297423184	0,00772154517
2	1	0	0	0	4128,21	3,17857289	3,17864323	2,3379461771498144	1	-0,294197202	0,00743149687
2	1	0	1	0	4129,56	3,19207406	3,19207597	2,2292698094000442	1	-0,291111678	0,00711599877
2	1	0	0	0	4130,91	3,20557523	3,20583987	2,1093939139197174	1	-0,288181275	0,00676237931
2	1	0	0	0	4132,26	3,2190764	3,21944308	1,980231083929535	1	-0,285420001	0,00637524109
2	1	0	1	0	4133,61	3,2325778	3,23290586	1,8473966599752458	1	-0,282834977	0,00597245945
2	1	0	0	0	4134,96	3,24607968	3,24603939	1,7105789188051139	1	-0,280431867	0,00555260666
2	1	0	0	0	4136,31	3,25958014	3,25974178	1,5750982084621939	1	-0,278214067	0,00513441348
2	1	0	1	0	4137,66	3,2730813	3,27326488	1,446473092772065	1	-0,276174754	0,00473468937
2	1	0	1	0	4139,01	3,28658295	3,28706837	1,3269598099092654	1	-0,274303526	0,00436180783
2	1	0	0	0	4140,36	3,30008411	3,3000102	1,2202327465638501	1	-0,272584915	0,00402678037
2	1	0	1	0	4141,71	3,31358528	3,31377411	1,1292492008457576	1	-0,270998895	0,00374207669
2	1	0	1	0	4143,06	3,32708645	3,32713675	1,0522166083877274	1	-0,269526988	0,00350086857
2	1	0	0	0	4144,41	3,34058762	3,34072995	0,98732272007812582	1	-0,2681503	0,00329837855
2	1	0	1	0	4145,76	3,35408926	3,35439348	0,93258918977031693	1	-0,266853929	0,00312827108
2	1	0	1	0	4147,11	3,36759043	3,36775589	0,88858435489237312	1	-0,265624493	0,00299253524
2	1	0	0	0	4148,46	3,38109159	3,38140941	0,85280958532045043	1	-0,26444906	0,00288369833
2	1	0	1	0	4149,81	3,39459276	3,39475489	0,82411985581153318	1	-0,263317347	0,00279768487
2	1	0	1	0	4151,16	3,40809393	3,4081552	0,80062652844935386	1	-0,26222074	0,00272865943
2	1	0	0	0	4152,51	3,42159557	3,42168808	0,78310856347282253	1	-0,261151016	0,00267955335
2	1	0	0	0	4153,86	3,43509674	3,43538165	0,76940459556256704	1	-0,260103077	0,00264319847
2	1	0	1	0	4155,21	3,44859791	3,4487741	0,75983760568002624	1	-0,259070426	0,0026205082
2	1	0	0	0	4156,56	3,46209908	3,46213675	0,75338203723852621	1	-0,258048385	0,0026083116
2	1	0	0	0	4157,91	3,47560048	3,4755497	0,75000386762743027	1	-0,25703302	0,00260667573
2	1	0	1	0	4159,26	3,48910189	3,48929334	0,74881194997578854	1	-0,256020516	0,00261282455
2	1	0	0	0	4160,61	3,50260282	3,50279641	0,75083391896138534	1	-0,255007565	0,0026300184
2	1	0	0	0	4161,96	3,51610422	3,51632929	0,75387738877907302	1	-0,253991365	0,00265088119
2	1	0	1	0	4163,31	3,52960563	3,52967215	0,76005558483302771	1	-0,252968997	0,00268274709
2	1	0	1	0	4164,66	3,54310679	3,54329586	0,76734153243402765	1	-0,251937658	0,00271891803
2	1	0	0	0	4166,01	3,55660796	3,55675888	0,77682999630148147	1	-0,250894517	0,00276299706
2	1	0	1	0	4167,36	3,57010913	3,57022119	0,78852298421164237	1	-0,249836788	0,00281520141
2	1	0	1	0	4168,71	3,58361077	3,58383465	0,8022959384446295	1	-0,248761967	0,00287529593
2	1	0	0	0	4170,06	3,59711194	3,59751821	0,81839797987291968	1	-0,24766688	0,0029442017
2	1	0	1	0	4171,41	3,61061311	3,61071062	0,83528532149890816	1	-0,246549472	0,00301597361
2	1	0	1	0	4172,76	3,62411427	3,6243639	0,85414262550572493	1	-0,245408148	0,00309572369
2	1	0	0	0	4174,11	3,63761544	3,63766646	0,87262647071232192	1	-0,244241476	0,00317432405
2	1	0	0	0	4175,46	3,65111756	3,65109062	0,89207162221510042	1	-0,243049383	0,00325703435
2	1	0	1	0	4176,82	3,66461825	3,66475272	0,9117688719804064	1	-0,241831124	0,00334140752
2	1	0	0	0	4178,17	3,67811942	3,67798543	0,93304150116940134	1	-0,240584925	0,00343171298
2	1	0	0	0	4179,52	3,69162059	3,69173884	0,95605802722275341	1	-0,239309132	0,00352951651
2	1	0	1	0	4180,87	3,70512176	3,70521188	0,98098874433587046	1	-0,238000572	0,0036347711
2	1	0	0	0	4182,22	3,71862292	3,71882534	1,0090186512097707	1	-0,236656353	0,00375236408
2	1	0	0	0	4183,57	3,73212457	3,732198	1,0388574727500464	1	-0,235273346	0,00387722184
2	1	0	1	0	4184,92	3,74562573	3,74583101	1,0723360391954557	1	-0,23384732	0,00401678961
2	1	0	1	0	4186,27	3,75912619	3,75934386	1,1087854086068365	1	-0,232374564	0,00416830555
2	1	0	0	0	4187,62	3,77262831	3,77277732	1,1493919013688955	1	-0,230849668	0,00433639949
2	1	0	1	0	4188,97	3,78612947	3,78619003	1,1938178359220419	1	-0,229267433	0,00452002138
2	1	0	1	0	4190,32	3,79963064	3,79989362	1,242334040813148	1	-0,227622434	0,00472073723
2	1	0	0	0	4191,67	3,81313181	3,81310582	1,2950983134408789	1	-0,225908607	0,0049383468
2	1	0	1	0	4193,02	3,82663345	3,82684946	1,3531335735072715	1	-0,224119648	0,00517823827
2	1	0	1	0	4194,37	3,84013462	3,84014201	1,4174028982718774	1	-0,222248837	0,00544302864
2	1	0	0	0	4195,72	3,85363579	3,85397577	1,4856817675754416	1	-0,220288262	0,00572578143
2	1	0	1	0	4197,07	3,86713696	3,86743879	1,5610628540938122	1	-0,218230844	0,00603731489
2	1	0	1	0	4198,42	3,88063812	3,88095188	1,6418610451122077	1	-0,216068447	0,00637198379
2	1	0	0	0	4199,77	3,89413977	3,894485	1,7291814231624246	1	-0,213792279	0,00673427107
2	1	0	0	0	4201,12	3,90764093	3,90770769	1,8232061831901472	1	-0,211393803	0,00712455669
2	1	0	1	0	4202,47	3,9211421	3,92150116	1,9236264042556285	1	-0,20886369	0,00754350331
2	1	0	0	0	4203,82	3,93464327	3,93498421	2,0307764727622272	1	-0,206193253	0,00799107365
2	1	0	0	0	4205,17	3,94814444	3,94823647	2,1452221324046512	1	-0,203374133	0,00846984424
2	1	0	1	0	4206,52	3,96164608	3,96175981	2,2664725482463837	1	-0,200395525	0,00897921994
2	1	0	0	0	4207,87	3,97514725	3,97505188	2,3942486556867734	1	-0,197249085	0,00951726269
2	1	0	0	0	4209,22	3,98864841	3,98869586	2,5292020744333642	1	-0,193925351	0,0100882174
2	1	0	1	0	4210,57	4,00214958	4,00243902	2,6714989294608387	1	-0,190413922	0,0106925117
2	1	0	0	0	4211,92	4,01565075	4,01573324	2,8211128271464646	1	-0,186705709	0,0113288369
2	1	0	0	0	4213,27	4,02915192	4,02952576	2,9778454340994355	1	-0,182790458	0,0119993053
2	1	0	1	0	4214,62	4,04265356	4,04261732	3,141656974951431	1	-0,178658366	0,0127005167
2	1	0	1	0	4215,97	4,05615377	4,05635023	3,3127886067644	1	-0,174300537	0,0134378308
2	1	0	0	0	4217,32	4,0696559	4,06970358	3,4912110827863072	1	-0,169706076	0,0142081939
2	1	0	1	0	4218,67	4,08315706	4,08332682	3,6767960811654771	1	-0,164866164	0,0150135597
2	1	0	1	0	4220,02	4,09665823	4,09696054	3,8678885598977504	1	-0,15977256	0,0158465877
2	1	0	0	0	4221,37	4,11015987	4,11031294	4,0647168892125197	1	-0,154416308	0,0167072583
2	1	0	1	0	4222,72	4,12366104	4,1237154	4,2680464120705894	1	-0,148789436	0,0176002085
2	1	0	1	0	4224,07	4,13716221	4,13738966	4,4764564670622208	1	-0,142886028	0,0185208451
2	1	0	0	0	4225,42	4,15066338	4,1509223	4,6902808112402707	1	-0,136696473	0,0194689911
2	1	0	1	0	4226,77	4,16416502	4,16434622	4,9080719835331584	1	-0,130215749	0,0204389114
2	1	0	1	0	4228,12	4,17766571	4,17811871	5,1324535757303098	1	-0,123436935	0,0214440003
2	1	0	0	0	4229,47	4,19116688	4,19151211	5,3592800460755757	1	-0,116352648	0,0224634875
2	0	0	0	1	4230,78	4,19566774	4,19571209	5,3836344443261626	1	-0,109227985	0,0225881804
2	0	0	1	1	4232,13	4,18216658	4,18254948	5,0433539984126944	1	-0,102192134	0,0210940782
2	0	0	1	1	4233,48	4,16866541	4,16874552	4,7124784700572493	1	-0,0956098065	0,0196451228
2	0	0	0	1	4234,83	4,15516376	4,15513277	4,391954525063433	1	-0,0894667506	0,0182491541
2	0	0	0	1	4236,18	4,14166355	4,14179182	4,0810055069387731	1	-0,083750993	0,0169026759
2	0	0	1	1	4237,53	4,12816143	4,12823677	3,7809537065525805	1	-0,0784470439	0,0156086721
2	0	0	0	1	4238,88	4,11465979	4,11495447	3,4910878228644506	1	-0,0735408664	0,0143656675
2	0	0	0	1	4240,23	4,1011591	4,10146189	3,2113672003042029	1	-0,069019638	0,0131713003
2	0	0	1	1	4241,58	4,08765745	4,08784819	2,9415186985085382	1	-0,0648689196	0,0120244818
2	0	0	0	1	4242,93	4,07415628	4,07409477	2,6812436754504835	1	-0,0610757507	0,0109236408
2	0	0	0	1	4244,28	4,06065464	4,06070185	2,4314189739525318	1	-0,0576273203	0,00987326726
2	0	0	1	1	4245,63	4,04715347	4,047369	2,1912708102414947	1	-0,0545093194	0,0088688815
2	0	0	0	1	4246,98	4,03365231	4,0337553	1,9612767582491219	1	-0,0517086312	0,00791131053
2	0	0	0	1	4248,33	4,02015114	4,02028275	1,7413214116046733	1	-0,0492118821	0,00700060464
2	0	0	1	1	4249,68	4,00664997	4,00682974	1,5314250780890362	1	-0,0470051095	0,00613615941
2	0	0	0	1	4251,03	3,99314857	3,99320674	1,3311991939942018	1	-0,0450749584	0,00531575363
2	0	0	0	1	4252,38	3,9796474	3,97954321	1,1426732412849886	1	-0,0434072986	0,00454731751
2	0	0	1	1	4253,73	3,96614623	3,96613026	0,96542647294699968	1	-0,0419868901	0,00382900704
2	0	0	1	1	4255,08	3,95264506	3,9526875	0,79985577395806694	1	-0,0407986306	0,00316157984
2	0	0	0	1	4256,43	3,9391439	3,9396255	0,64709701109677555	1	-0,0398252495	0,00254931999
2	0	0	1	1	4257,78	3,92564225	3,92601228	0,50782986481984339	1	-0,0390488505	0,00199374626
2	0	0	1	1	4259,17	3,91174102	3,91187739	0,37919369797843181	1	-0,0384361669	0,00148335926
2	0	0	0	1	4260,52	3,89824009	3,89846468	0,2710272993426761	1	-0,0380003229	0,00105659035
2	0	0	1	1	4261,87	3,88473868	3,88474107	0,17806820602466682	1	-0,0377003215	0,000691748864
2	0	0	1	1	4263,22	3,87123728	3,87137866	0,098690856092919834	1	-0,0375162587	0,000382069673
2	0	0	0	1	4264,61	3,85733604	3,85755444	0,030458371814650694	1	-0,0374288596	0,000117494827
2	0	0	1	1	4265,96	3,84383416	3,84394026	-0,024472829280097946	1	-0,0374268964	9,40720929E-005
2	0	0	1	1	4267,31	3,83033371	3,83030796	-0,069548015618541734	1	-0,0374923758	0,000266390329
2	0	0	0	1	4268,70	3,81643248	3,81639409	-0,10733674835258488	1	-0,0376174375	0,000409639324
2	0	0	0	1	4270,05	3,80293083	3,80288053	-0,13735232851468027	1	-0,0377843603	0,000522334478
2	0	0	1	1	4271,40	3,78942966	3,78951788	-0,161615578690544	1	-0,0379877053	0,000612445117
2	0	0	0	1	4272,75	3,77592874	3,77634573	-0,18126734943750013	1	-0,0382206999	0,000684528204
2	0	0	0	1	4274,10	3,76242733	3,76259232	-0,19791664128812704	1	-0,038478028	0,000744679652
2	0	0	1	1	4275,45	3,74892592	3,74902916	-0,21140463130238275	1	-0,0387555249	0,000792562147
2	0	0	0	1	4276,80	3,73542452	3,73562598	-0,22277048812247901	1	-0,0390500873	0,000832187245
2	0	0	0	1	4278,15	3,72192359	3,72207308	-0,23264862294308864	1	-0,0393589959	0,000865935173
2	0	0	1	1	4279,51	3,70842218	3,7086904	-0,24213723155359411	1	-0,0396809243	0,000898012018
2	0	0	1	1	4280,86	3,69492006	3,6949358	-0,24999783234982819	1	-0,0400143415	0,000923725951
2	0	0	0	1	4282,21	3,68141961	3,68153405	-0,2574791961815217	1	-0,0403582007	0,000947918452
2	0	0	1	1	4283,56	3,66791844	3,66808081	-0,26416554270933101	1	-0,0407115743	0,000968980545
2	0	0	1	1	4284,91	3,65441728	3,65470791	-0,27035632869228787	1	-0,0410737284	0,000988073414
2	0	0	0	1	4286,26	3,64091611	3,64108515	-0,27659973773794899	1	-0,0414440408	0,00100712315
2	0	0	1	1	4287,61	3,62741446	3,62748146	-0,28181866882369011	1	-0,0418220721	0,00102229195
2	0	0	1	1	4288,96	3,6139133	3,61424899	-0,28735474272010285	1	-0,0422071107	0,00103857159
2	0	0	0	1	4290,31	3,60041213	3,60072589	-0,29185437931058387	1	-0,042599082	0,00105088763
2	0	0	1	1	4291,66	3,58691025	3,58717203	-0,29686898560918662	1	-0,0429974757	0,0010649201
2	0	0	1	1	4293,01	3,5734098	3,57347941	-0,30123124077605824	1	-0,0434020348	0,00107644359
2	0	0	0	1	4294,36	3,55990815	3,5601871	-0,3054405094590025	1	-0,0438125469	0,00108742539
2	0	0	0	1	4295,71	3,54640698	3,54670382	-0,3095978240016857	1	-0,0442286581	0,00109805178
2	0	0	1	1	4297,06	3,53290582	3,53329086	-0,31340572781240006	1	-0,0446502417	0,0011073536
2	0	0	0	1	4298,41	3,51940465	3,51967764	-0,31753309567769427	1	-0,0450770184	0,0011176141
2	0	0	0	1	4299,76	3,50590348	3,50623488	-0,3209807088909056	1	-0,0455087647	0,00112543372
2	0	0	1	1	4301,11	3,49240184	3,49243116	-0,32394641831827629	1	-0,0459452383	0,00113136054
2	0	0	0	1	4302,46	3,47890091	3,47889805	-0,32717021997086592	1	-0,0463862531	0,00113819179
2	0	0	0	1	4303,81	3,4653995	3,4655354	-0,33042652392760006	1	-0,0468314849	0,00114510476
2	0	0	1	1	4305,16	3,4518981	3,4520123	-0,3335709360738601	1	-0,0472809784	0,00115149096
2	0	0	1	1	4306,51	3,43839693	3,43844891	-0,33627815125510099	1	-0,0477342159	0,00115627528
2	0	0	0	1	4307,86	3,42489576	3,42508626	-0,3390835586469625	1	-0,0481912568	0,00116139045
2	0	0	1	1	4309,21	3,4113946	3,41173363	-0,34135151320757997	1	-0,0486516543	0,00116460049
2	0	0	1	1	4310,56	3,39789295	3,3979497	-0,34410649126706125	1	-0,0491152555	0,00116925652
2	0	0	0	1	4311,91	3,38439178	3,3844769	-0,34598378177421907	1	-0,0495819002	0,00117097411
2	0	0	1	1	4313,26	3,37089062	3,37114429	-0,34796349199799258	1	-0,0500513762	0,00117303513
2	0	0	1	1	4314,61	3,35738945	3,35744095	-0,34974420986448698	1	-0,0505232587	0,0011742455
2	0	0	0	1	4315,96	3,34388828	3,34413815	-0,35131958080455686	1	-0,0509975627	0,00117486122
2	0	0	0	1	4317,31	3,33038783	3,33043551	-0,3531166983497056	1	-0,0514739342	0,00117603235
2	0	0	1	1	4318,66	3,31688547	3,31694174	-0,35427615977823821	1	-0,0519523174	0,00117511337
2	0	0	0	1	4320,01	3,3033843	3,30347896	-0,35561577649787066	1	-0,0524324104	0,00117476925
2	0	0	0	1	4321,36	3,28988314	3,29018593	-0,35637398840238662	1	-0,0529138595	0,00117253663
2	0	0	1	1	4322,71	3,27638197	3,27673316	-0,35761764086782797	1	-0,0533966236	0,00117181754
2	0	0	0	1	4324,06	3,2628808	3,26302981	-0,35813549238567616	1	-0,0538804978	0,0011686068
2	0	0	0	1	4325,41	3,24937916	3,24961686	-0,35861356936705581	1	-0,0543652438	0,00116535672
2	0	0	1	1	4326,76	3,23587799	3,23617363	-0,35890305523450208	1	-0,0548507757	0,00116147264
2	0	0	0	1	4328,11	3,22237682	3,22242022	-0,35924736441423469	1	-0,0553369746	0,00115764595
2	0	0	0	1	4329,46	3,20887566	3,20917797	-0,35988920593323814	1	-0,0558234788	0,00115494849
2	0	0	1	1	4330,81	3,19537425	3,1956749	-0,35992027291407245	1	-0,056310419	0,00115018815
2	0	0	1	1	4332,16	3,18187308	3,18198109	-0,36030497627022304	1	-0,056797497	0,00114648358
2	0	0	0	1	4333,51	3,16837192	3,16859841	-0,36019951221533184	1	-0,0572847538	0,00114132755
2	0	0	1	1	4334,86	3,15487027	3,15508533	-0,36034318758174797	1	-0,0577720031	0,00113691355
2	0	0	1	1	4336,21	3,1413691	3,14160228	-0,36026328429579757	1	-0,0582592413	0,00113180396
2	0	0	0	1	4337,56	3,12786794	3,12787914	-0,3601058934194352	1	-0,0587463528	0,00112636772
2	0	0	1	1	4338,91	3,11436677	3,11441636	-0,35992100446795482	1	-0,0592333823	0,00112094381
2	0	0	0	1	4340,05	3,10296631	3,10327935	-0,3599870839844583	1	-0,0596442819	0,00111714052