File: Experimentelles/Rohdaten/Batteriemessungen/AlteZelle/Studenten_Batterietests/Sonstige/ZView-Export/LiCoO2 vs Li_05_GCPL_C01_loop8.txt
EC-Lab ASCII FILE
Nb header lines : 3
mode	ox/red	error	control changes	Ns changes	counter inc.	Ns	time/s	control/V/mA	Ewe/V	dq/mA.h	<I>/mA	P/W	(Q-Qo)/mA.h	x	Capacity/mA.h
1	0	0	1	1	0	1	267455,04	-0,100000001	4,1961031	0	0	0	0	0	0
1	0	0	1	0	0	1	267535,04	-0,100000001	3,89362049	-0,00027772098363315066	-0,099977629047888294	0,000389274937	-0,0022203941760898339	8,2845892061632154E-005	0,0022203941760898339
1	0	0	1	0	0	1	267615,04	-0,100000001	3,86033821	-0,00027772106090767514	-0,099977656866181466	0,000385947555	-0,0044421632077465331	0,00016574308183297706	0,0044421632077465331
1	0	0	1	0	0	1	267695,04	-0,100000001	3,84141517	-0,0002777214805069897	-0,099977807919026202	0,000384056271	-0,0066639304307122906	0,00024864020411963104	0,0066639304307122906
1	0	0	1	0	0	1	267775,04	-0,100000001	3,82722759	-0,00027772123208766182	-0,099977718489790118	0,000382637489	-0,0088856999318830541	0,00033153741140917696	0,0088856999318830541
1	0	0	1	0	0	1	267855,05	-0,100000001	3,81519771	-0,00027772044647691981	-0,09997743567536855	0,000381433696	-0,011107469122897738	0,0004144346071263824	0,011107469122897738
1	0	0	1	0	0	1	267935,05	-0,100000001	3,8046	-0,0002777207613326609	-0,09997754902125289	0,000380374579	-0,013329234460584722	0,00049733165907075072	0,013329234460584722
1	0	0	1	0	0	1	268015,05	-0,100000001	3,79493809	-0,00027772075689666803	-0,099977547424326195	0,000379408593	-0,01555099909845192	0,0005802286849039017	0,01555099909845192
1	0	0	1	0	0	1	268095,05	-0,100000001	3,78594446	-0,00027772052144838704	-0,099977462664577088	0,00037850911	-0,017772762239865453	0,00066312565490235456	0,017772762239865453
1	0	0	1	0	0	1	268175,05	-0,100000001	3,77731347	-0,00027772073527508314	-0,099977539640705523	0,000377646502	-0,019994526945349146	0,00074602268325836787	0,019994526945349146
1	0	0	1	0	0	1	268255,05	-0,100000001	3,76916003	-0,00027772140986389584	-0,099977782488002086	0,000376832264	-0,022216295537270922	0,00082891985662261158	0,022216295537270922
1	0	0	1	0	0	1	268335,06	-0,100000001	3,76136923	-0,00027772117916991315	-0,09997769943511191	0,000376053038	-0,02443806645201799	0,00091181711665459008	0,02443806645201799
1	0	0	1	0	0	1	268415,06	-0,100000001	3,75375032	-0,0002777211007715927	-0,099977671212259994	0,000375291216	-0,026659835013619216	0,00099471428888753306	0,026659835013619216
1	0	0	1	0	0	1	268495,06	-0,100000001	3,74657059	-0,00027772153557174736	-0,099977827741957261	0,000374573981	-0,028881604642425043	0,0010776115009393149	0,028881604642425043
1	0	0	1	0	0	1	268575,06	-0,100000001	3,73941016	-0,00027772090717694826	-0,099977601521857651	0,00037385727	-0,031103374141637958	0,0011605087081558109	0,031103374141637958
1	0	0	1	0	0	1	268655,06	-0,100000001	3,73236418	-0,00027772235630659594	-0,099978123197322086	0,000373154762	-0,033325150175719942	0,0012434061591970581	0,033325150175719942
1	0	0	1	0	0	1	268735,06	-0,100000001	3,72554708	-0,00027772126964603859	-0,099977732007053811	0,000372471754	-0,035546923309249504	0,0013263035020147942	0,035546923309249504
1	0	0	1	0	0	1	268815,06	-0,100000001	3,71880674	-0,00027772163296242557	-0,099977862798434726	0,000371798349	-0,037768694635846458	0,0014092007774134456	0,037768694635846458
1	0	0	1	0	0	1	268895,07	-0,100000001	3,71214247	-0,0002777210872558256	-0,099977666349005248	0,000371131347	-0,039990465049628499	0,0014920980187537453	0,039990465049628499
1	0	0	1	0	0	1	268975,07	-0,100000001	3,7054975	-0,00027772098967764112	-0,099977631219207488	0,000370466849	-0,042212235454841536	0,0015749952597743238	0,042212235454841536
1	0	0	1	0	0	1	269055,07	-0,100000001	3,69898605	-0,00027772122246440912	-0,099977715020830362	0,000369816174	-0,044434005047265766	0,0016578924704686592	0,044434005047265766
1	0	0	1	0	0	1	269135,07	-0,100000001	3,69262767	-0,00027772112723315757	-0,099977680742895411	0,000369180343	-0,046655773763572915	0,0017407896484738886	0,046655773763572915
1	0	0	1	0	0	1	269215,07	-0,100000001	3,68630719	-0,0002777212581270271	-0,09997772786378112	0,000368548615	-0,048877543968239091	0,0018236868820117939	0,048877543968239091
1	0	0	1	0	0	1	269295,07	-0,100000001	3,67979574	-0,00027772111857641072	-0,099977677626526528	0,000367897446	-0,051099310293421466	0,0019065839708009427	0,051099310293421466
1	0	0	1	0	0	1	269375,08	-0,100000001	3,67353272	-0,00027772131235566403	-0,099977747385714534	0,000367271539	-0,05332107809639671	0,0019894811147285309	0,05332107809639671
1	0	0	1	0	0	1	269455,08	-0,100000001	3,667346	-0,00027772052673954106	-0,099977464569355853	0,000366651948	-0,05554284534449328	0,0020723782379528493	0,05554284534449328
1	0	0	1	0	0	1	269535,08	-0,100000001	3,66094923	-0,0002777215177901089	-0,099977821340690675	0,00036601373	-0,057764613288421914	0,0021552753871395978	0,057764613288421914
1	0	0	1	0	0	1	269615,08	-0,100000001	3,65470505	-0,00027772047347492643	-0,099977445394463808	0,000365388085	-0,059986377706460979	0,002238172404770665	0,059986377706460979
1	0	0	1	0	0	1	269695,08	-0,100000001	3,64834642	-0,00027772109113302493	-0,099977667747097882	0,000364753156	-0,062208143699590848	0,0023210694811704893	0,062208143699590848
1	0	0	1	0	0	1	269775,08	-0,100000001	3,64196873	-0,0002777208884846833	-0,099977594795099584	0,000364115287	-0,064429913297908902	0,0024039666920847306	0,064429913297908902
1	0	0	1	0	0	1	269855,08	-0,100000001	3,63572478	-0,00027772093656203811	-0,099977612102614067	0,000363491068	-0,066651681747184755	0,0024868638601266634	0,066651681747184755
1	0	0	1	0	0	1	269935,09	-0,100000001	3,62938523	-0,0002777208528696663	-0,099977581969284838	0,000362857158	-0,068873447205302938	0,0025697609165644813	0,068873447205302938
1	0	0	1	0	0	1	270015,09	-0,100000001	3,62275934	-0,00027772054816534122	-0,09997747227783991	0,000362194318	-0,071095210256528858	0,0026526578831979133	0,071095210256528858
1	0	0	1	0	0	1	270095,09	-0,100000001	3,61638165	-0,00027772012236631578	-0,099977318993142259	0,000361556129	-0,073316971697043546	0,002735554789733543	0,073316971697043546
1	0	0	1	0	0	1	270175,09	-0,100000001	3,60992742	-0,00027772028449426096	-0,099977377360406451	0,000360911072	-0,075538730977968538	0,0028184516156919779	0,075538730977968538
1	0	0	1	0	0	1	270255,09	-0,100000001	3,60326338	-0,00027771971609029507	-0,099977172737754829	0,000360244099	-0,077760491595000768	0,0029013484915023706	0,077760491595000768
1	0	0	1	0	0	1	270335,09	-0,100000001	3,59667563	-0,00027772062987089158	-0,099977501692435558	0,000359586644	-0,079982250080609395	0,0029842452877864826	0,079982250080609395
1	0	0	1	0	0	1	270415,10	-0,100000001	3,59012604	-0,00027772068799080122	-0,099977522615200166	0,000358931895	-0,082204015296777408	0,0030671423351968147	0,082204015296777408
1	0	0	1	0	0	1	270495,10	-0,100000001	3,58336639	-0,00027772016464877462	-0,099977334219189824	0,000358255405	-0,084425781128326976	0,0031500394055678598	0,084425781128326976
1	0	0	1	0	0	1	270575,10	-0,100000001	3,57653046	-0,000277719708274636	-0,099977169927663322	0,000357571407	-0,086647540639694298	0,0032329362401244077	0,086647540639694298
1	0	0	1	0	0	1	270655,10	-0,100000001	3,56975174	-0,00027771948410073917	-0,099977089221958912	0,000356893375	-0,088869299905790566	0,0033158330655295629	0,088869299905790566
1	0	0	1	0	0	1	270735,10	-0,100000001	3,5629158	-0,00027772088272745408	-0,099977592717881498	0,000356211734	-0,091091059656386918	0,0033987299090120672	0,091091059656386918
1	0	0	1	0	0	1	270815,10	-0,100000001	3,55588889	-0,00027772060653567315	-0,099977493295410304	0,000355508848	-0,093312825878143654	0,0034816269939422675	0,093312825878143654
1	0	0	1	0	0	1	270895,10	-0,100000001	3,54890013	-0,00027772060204173126	-0,099977491677622362	0,000354810123	-0,09553459297912023	0,0035645241116773402	0,09553459297912023
1	0	0	1	0	0	1	270975,11	-0,100000001	3,5416441	-0,00027772100528288218	-0,099977636841641587	0,000354085205	-0,097756358987241498	0,0036474211886365133	0,097756358987241498
1	0	0	1	0	0	1	271055,11	-0,100000001	3,53486538	-0,00027772145411703318	-0,099977798418824768	0,000353408046	-0,099978128044770752	0,0037303183793731981	0,099978128044770752
1	0	0	1	0	0	1	271135,11	-0,100000001	3,52755213	-0,00027772060527859462	-0,099977492842870733	0,000352675823	-0,10219989893888138	0,0038132156386352032	0,10219989893888138
1	0	0	1	0	0	1	271215,11	-0,100000001	3,52008605	-0,00027772103944255245	-0,09997764913888608	0,000351929921	-0,1044216639738815	0,0038961126792859174	0,1044216639738815
1	0	0	1	0	0	1	271295,11	-0,100000001	3,51267719	-0,00027772087958951795	-0,099977591592901722	0,000351188995	-0,10664343302302181	0,0039790098697096	0,10664343302302181
1	0	0	1	0	0	1	271375,11	-0,100000001	3,50498199	-0,0002777206744539241	-0,09997751774550985	0,000350419403	-0,10886519885236557	0,004061906939998343	0,10886519885236557
1	0	0	1	0	0	1	271455,12	-0,100000001	3,4974966	-0,00027772054542518323	-0,099977471296057523	0,000349670852	-0,1110869645151636	0,0041448040040730413	0,1110869645151636
1	0	0	1	0	0	1	271535,12	-0,100000001	3,48970604	-0,00027772092018483411	-0,099977606206934131	0,00034889247	-0,11330872843183901	0,0042277010029975565	0,11330872843183901
1	0	0	1	0	0	1	271615,12	-0,100000001	3,48178172	-0,00027771982356740368	-0,099977211427605056	0,000348098838	-0,11553048929988669	0,004310597888173673	0,11553048929988669
1	0	0	1	0	0	1	271695,12	-0,100000001	3,47381902	-0,00027772078232094643	-0,099977556572234714	0,000347303925	-0,11775225127330832	0,0043934948145927776	0,11775225127330832
1	0	0	1	0	0	1	271775,12	-0,100000001	3,46562743	-0,00027772068718531069	-0,099977522326393024	0,000346484856	-0,11997401703352931	0,0044763918823024582	0,11997401703352931
1	0	0	1	0	0	1	271855,12	-0,100000001	3,45735931	-0,00027772045159174336	-0,099977437518997325	0,000345657929	-0,12219578384811013	0,004559288989351721	0,12219578384811013
1	0	0	1	0	0	1	271935,12	-0,100000001	3,44893837	-0,00027772010710835459	-0,099977313501545856	0,000344815606	-0,12441754939453136	0,0046421860490842438	0,12441754939453136
1	0	0	1	0	0	1	272015,13	-0,100000001	3,44034576	-0,00027772133330711056	-0,099977754925180365	0,000343958032	-0,12663931775943438	0,0047250832139781126	0,12663931775943438
1	0	0	1	0	0	1	272095,13	-0,100000001	3,43167663	-0,00027772074696876934	-0,099977543848023757	0,000343090593	-0,12886108448258659	0,0048079803176160525	0,12886108448258659
1	0	0	1	0	0	1	272175,13	-0,100000001	3,42253017	-0,0002777205881153544	-0,099977486659567757	0,000342175976	-0,13108285323122262	0,0048908774968275149	0,13108285323122262
1	0	0	1	0	0	1	272255,13	-0,100000001	3,4134028	-0,00027772037113333741	-0,099977408547545677	0,000341263163	-0,13330461575605133	0,0049737744438203584	0,13330461575605133
1	0	0	1	0	0	1	272335,13	-0,100000001	3,4040463	-0,00027771981382659741	-0,099977207920982336	0,000340327038	-0,13552637733263306	0,0050566713554328339	0,13552637733263306
1	0	0	1	0	0	1	272415,13	-0,100000001	3,39455605	-0,00027771990222815011	-0,099977239749584	0,000339378341	-0,13774813394445422	0,0051395680818034163	0,13774813394445422
1	0	0	1	0	0	1	272495,14	-0,100000001	3,3849895	-0,00027771966216671798	-0,099977153329132454	0,000338421611	-0,13996989287208594	0,0052224648945800032	0,13996989287208594
1	0	0	1	0	0	1	272575,14	-0,100000001	3,37496471	-0,00027772114962256618	-0,099977688802927309	0,000337421166	-0,14219165662036331	0,0053053618872213619	0,14219165662036331
1	0	0	1	0	0	1	272655,14	-0,100000001	3,36476803	-0,00027772050056565139	-0,099977455146937011	0,000336400932	-0,14441342409078358	0,0053882590187408774	0,14441342409078358
1	0	0	1	0	0	1	272735,14	-0,100000001	3,35445666	-0,00027772090971552666	-0,099977602438056038	0,00033537054	-0,14663519023931312	0,0054711561009388704	0,14663519023931312
1	0	0	1	0	0	1	272815,14	-0,100000001	3,34387827	-0,00027772008161826269	-0,099977304328781056	0,000334311946	-0,14885695556947789	0,0055540531526025754	0,14885695556947789
1	0	0	1	0	0	1	272895,14	-0,100000001	3,33318496	-0,00027772035198203392	-0,09997740165786464	0,000333243166	-0,15107871673116122	0,0056369500487346317	0,15107871673116122
1	0	0	1	0	0	1	272975,14	-0,100000001	3,32205272	-0,00027772004478962883	-0,099977291070728154	0,000332129828	-0,1533004805472335	0,0057198470439055098	0,1533004805472335
1	0	0	1	0	0	1	273055,15	-0,100000001	3,31099677	-0,00027772056166330973	-0,099977477141670502	0,000331025105	-0,15552224270907907	0,0058027439773549658	0,15552224270907907
1	0	0	1	0	0	1	273135,15	-0,100000001	3,2995398	-0,00027772088968629638	-0,099977595227671962	0,000329880044	-0,15774400964781968	0,0058856410890367962	0,15774400964781968
1	0	0	1	0	0	1	273215,15	-0,100000001	3,28794932	-0,00027772117352692614	-0,099977697403675725	0,000328721595	-0,15996577923323997	0,0059685382994698061	0,15996577923323997
1	0	0	1	0	0	1	273295,15	-0,100000001	3,27630138	-0,00027772089813277123	-0,099977598263688883	0,000327556743	-0,16218754504658237	0,0060514353691615168	0,16218754504658237
1	0	0	1	0	0	1	273375,15	-0,100000001	3,26394701	-0,00027772105522039859	-0,099977654814145843	0,00032632178	-0,16440931535607696	0,0061343326066107123	0,16440931535607696
1	0	0	1	0	0	1	273455,15	-0,100000001	3,25153518	-0,00027772128545410102	-0,099977737699010586	0,000325081142	-0,16663108416979427	0,0062172297882504448	0,16663108416979427
1	0	0	1	0	0	1	273535,16	-0,100000001	3,23891354	-0,00027772127919933859	-0,099977735446175578	0,000323819229	-0,16885285446543702	0,0063001270251828083	0,16885285446543702
1	0	0	1	0	0	1	273615,16	-0,100000001	3,22589087	-0,00027772137466776701	-0,099977769814148045	0,000322517386	-0,17107462375361846	0,0063830242245254362	0,17107462375361846
1	0	0	1	0	0	1	273695,16	-0,100000001	3,21239066	-0,00027772112979781293	-0,099977681663825818	0,000321167376	-0,17329639354746083	0,0064659214427349542	0,17329639354746083
1	0	0	1	0	0	1	273775,16	-0,100000001	3,19887137	-0,00027771989235613082	-0,099977236193397747	0,000319814309	-0,17551816013825562	0,0065488185414344589	0,17551816013825562
1	0	0	1	0	0	1	273855,16	-0,100000001	3,18476033	-0,0002777203460422655	-0,099977399514933722	0,000318404054	-0,17773992333347062	0,0066317155134403174	0,17773992333347062
1	0	0	1	0	0	1	273935,16	-0,100000001	3,17040086	-0,00027771979951775741	-0,099977202774554573	0,000316967809	-0,17996168550631946	0,0067146124473003174	0,17996168550631946
1	0	0	1	0	0	1	274015,16	-0,100000001	3,15565968	-0,00027771942791798051	-0,099977069001210688	0,000315493613	-0,18218344606397056	0,0067975093208951206	0,18218344606397056
1	0	0	1	0	0	1	274095,17	-0,100000001	3,14044094	-0,00027772020987007354	-0,099977350498543974	0,000313972967	-0,18440520975043133	0,0068804063112300186	0,18440520975043133
1	0	0	1	0	0	1	274175,17	-0,100000001	3,12495518	-0,00027772010012136563	-0,099977310989769882	0,000312424614	-0,18662697261637619	0,0069633032709503654	0,18662697261637619
1	0	0	1	0	0	1	274255,17	-0,100000001	3,10904908	-0,00027772010077287754	-0,099977311224309632	0,000310834381	-0,1888487362283535	0,007046200258506185	0,1888487362283535
1	0	0	1	0	0	1	274335,17	-0,100000001	3,09281826	-0,00027772042261146835	-0,099977427083971456	0,000309212017	-0,1910704982190488	0,0071290971855697946	0,1910704982190488
1	0	0	1	0	0	1	274415,17	-0,100000001	3,07595754	-0,00027772034962102774	-0,099977400807918784	0,000307526236	-0,19329226169031197	0,0072119941678753792	0,19329226169031197
1	0	0	1	0	0	1	274495,17	-0,100000001	3,05894399	-0,00027771977904770112	-0,099977195405476211	0,000305824651	-0,19551402255905834	0,0072948910530775654	0,19551402255905834
1	0	0	1	0	0	1	274575,18	-0,100000001	3,04137659	-0,00027771963973715904	-0,099977145254646694	0,000304068148	-0,19773578251424102	0,0073777879041934605	0,19773578251424102
1	0	0	1	0	0	1	274655,18	-0,100000001	3,02316022	-0,00027772003027382822	-0,099977285845140557	0,000302247354	-0,19995754117482442	0,0074606847070061171	0,19995754117482442
1	0	0	1	0	0	1	274735,18	-0,100000001	3,00458074	-0,00027772071747978528	-0,099977533234521626	0,000300390559	-0,20217930671401155	0,007543581766468727	0,20217930671401155
1	0	0	1	0	0	1	274815,18	-0,100000001	2,98535228	-0,00027772025568410752	-0,099977366986623168	0,000298467668	-0,20440107163690566	0,0076264788029366144	0,20440107163690566
1	0	0	1	0	0	1	274895,18	-0,100000001	2,96578002	-0,00027772023064353402	-0,099977357972190285	0,000296510843	-0,20662283293725389	0,0077093757042424461	0,20662283293725389
1	0	0	1	0	0	1	274975,18	-0,100000001	2,94557762	-0,00027772019226021238	-0,099977344154460557	0,000294491037	-0,20884459556853114	0,0077922726552070272	0,20884459556853114
1	0	0	1	0	0	1	275055,18	-0,100000001	2,92484045	-0,00027772085097100998	-0,099977581288109478	0,000292418466	-0,21106636066378698	0,0078751696981059648	0,21106636066378698
1	0	0	1	0	0	1	275135,19	-0,100000001	2,90351152	-0,0002777208819327255	-0,09997759243294857	0,000290286087	-0,21328812818024019	0,007958066831343031	0,21328812818024019
1	0	0	1	0	0	1	275215,19	-0,100000001	2,88162875	-0,00027772092134215763	-0,099977606620652915	0,000288098352	-0,21550989591357526	0,0080409639726722496	0,21550989591357526
1	0	0	1	0	0	1	275295,19	-0,100000001	2,85938311	-0,00027772119521722198	-0,099977705213195738	0,000285874557	-0,21773166479120406	0,0081238611566966067	0,21773166479120406
1	0	0	1	0	0	1	275375,19	-0,100000001	2,83658385	-0,00027772076721861958	-0,099977551137829478	0,000283594709	-0,21995343033204854	0,0082067582162210534	0,21995343033204854
1	0	0	1	0	0	1	275455,19	-0,100000001	2,81363177	-0,0002777212236838208	-0,099977715459810112	0,000281300483	-0,22217519542877958	0,0082896552591750323	0,22217519542877958
1	0	0	1	0	0	1	275535,19	-0,100000001	2,79006863	-0,00027772119052790934	-0,099977703523911821	0,000278944644	-0,22439696379688758	0,0083725524241884826	0,22439696379688758
1	0	0	1	0	0	1	275615,20	-0,100000001	2,76660109	-0,00027772023540528285	-0,099977359686386867	0,000276597479	-0,22661873091719386	0,0084554495426447731	0,22661873091719386
1	0	0	1	0	0	1	275695,20	-0,100000001	2,74263692	-0,00027772080451332864	-0,099977564565993971	0,000274202146	-0,2288404963901457	0,008538346599636055	0,2288404963901457
1	0	0	1	0	0	1	275775,20	-0,100000001	2,71850085	-0,000277720189343724	-0,09997734310920041	0,000271788478	-0,23106226031684128	0,0086212435989344371	0,23106226031684128
1	0	0	1	0	0	1	275855,20	-0,100000001	2,69423127	-0,00027772040538779562	-0,099977420883568666	0,000269362296	-0,23328402187335651	0,0087041405097982029	0,23328402187335651
1	0	0	1	0	0	1	275935,20	-0,100000001	2,66969442	-0,00027771998893345395	-0,099977270962892378	0,000266908755	-0,23550578498957258	0,0087870374788565056	0,23550578498957258
1	0	0	1	0	0	1	276015,20	-0,100000001	2,64511919	-0,00027772042521006531	-0,099977428019448358	0,000264452217	-0,23772754837668934	0,0088699344580224755	0,23772754837668934
1	0	0	1	0	0	1	276095,20	-0,100000001	2,62048674	-0,00027772025376020205	-0,099977366298686003	0,000261989364	-0,23994931412339043	0,0089528315252277094	0,23994931412339043
1	0	0	1	0	0	1	276175,21	-0,100000001	2,5959115	-0,000277719596741928	-0,099977129776661568	0,000259531778	-0,24217107187018	0,0090357282939454899	0,24217107187018
1	0	0	1	0	0	1	276255,21	-0,100000001	2,57127905	-0,00027772044497521386	-0,099977435134764826	0,000257069885	-0,2443928318424456	0,0091186251456987712	0,2443928318424456
1	0	0	1	0	0	1	276335,21	-0,100000001	2,54679942	-0,00027772020934315194	-0,099977350308855846	0,000254622253	-0,246614592004492	0,0092015220045330317	0,246614592004492
1	0	0	1	0	0	1	276415,21	-0,100000001	2,52212882	-0,00027772095521291094	-0,099977618816799002	0,000252156431	-0,24883635593309501	0,0092844190039025818	0,24883635593309501
1	0	0	1	0	0	1	276495,21	-0,100000001	2,49751544	-0,00027772007565862602	-0,099977302178697715	0,000249694858	-0,25105811970768582	0,0093673159975257293	0,25105811970768582
1	0	0	1	0	0	1	276575,21	-0,100000001	2,47288322	-0,00027772036861835254	-0,099977407642168563	0,000247232441	-0,25327987901488285	0,0094502128244644109	0,25327987901488285
1	0	0	1	0	0	1	276655,22	-0,100000001	2,44828892	-0,00027771943707639971	-0,099977072295850381	0,00024477276	-0,25550163600835469	0,0095331095650748928	0,25550163600835469
1	0	0	1	0	0	1	276735,22	-0,100000001	2,42358017	-0,00027772006945353414	-0,099977299946071501	0,000242302995	-0,25772339494763584	0,0096160063782861363	0,25772339494763584
1	0	0	1	0	0	1	276815,22	-0,100000001	2,39873767	-0,00027772006287425757	-0,099977297577577549	0,000239819303	-0,25994515703726746	0,0096989033090411917	0,25994515703726746
1	0	0	1	0	0	1	276895,22	-0,100000001	2,37355137	-0,0002777204265056385	-0,099977428482354125	0,00023730156	-0,26216691829960605	0,0097818002089288307	0,26216691829960605
1	0	0	1	0	0	1	276975,22	-0,100000001	2,34783053	-0,00027771996342349382	-0,099977261777155827	0,000234729669	-0,26438867885993155	0,0098646970826234202	0,26438867885993155
1	0	0	1	0	0	1	277055,22	-0,100000001	2,32134604	-0,00027772074930204285	-0,099977544685658304	0,000232082471	-0,26661044293185178	0,0099475940873403277	0,26661044293185178
1	0	0	1	0	0	1	277135,22	-0,100000001	2,29360104	-0,00027772107352192205	-0,099977661402567437	0,000229308862	-0,2688322101630169	0,010030491209932912	0,2688322101630169
1	0	0	1	0	0	1	277215,23	-0,100000001	2,26421404	-0,00027772059046394294	-0,099977487505043354	0,000226370437	-0,27105397363654582	0,010113388192323037	0,27105397363654582
1	0	0	1	0	0	1	277295,23	-0,100000001	2,23215365	-0,00027772023957802189	-0,09997736119319945	0,000223164825	-0,27327573418587504	0,010196285065607338	0,27327573418587504
1	0	0	1	0	0	1	277375,23	-0,100000001	2,19652247	-0,00027772005387933715	-0,099977294342960154	0,000219602371	-0,27549749564564445	0,010279181972861389	0,27549749564564445
1	0	0	1	0	0	1	277455,23	-0,100000001	2,15684342	-0,00027771993085824781	-0,09997725005622071	0,000215635271	-0,27771925891464422	0,010362078947620254	0,27771925891464422
1	0	0	1	0	0	1	277535,23	-0,100000001	2,11227584	-0,0002777210984908872	-0,099977670395877299	0,000211180421	-0,27994102418140582	0,010444975996918301	0,27994102418140582
1	0	0	1	0	0	1	277615,23	-0,100000001	2,06262898	-0,00027772113487745325	-0,099977683494788864	0,000206216864	-0,28216279081251078	0,010527873097121834	0,28216279081251078
1	0	0	1	0	0	1	277695,24	-0,100000001	2,00872421	-0,00027772095640997094	-0,099977619247732301	0,000200827461	-0,28438456069782768	0,010610770318744389	0,28438456069782768
1	0	0	1	0	0	1	277775,24	-0,100000001	1,95168757	-0,00027772043900605706	-0,09997743298590976	0,00019512471	-0,2866063236353081	0,010693667281133821	0,2866063236353081
1	0	0	1	0	0	1	277855,24	-0,100000001	1,89323807	-0,00027772025383098256	-0,099977366324166502	0,000189280952	-0,28882808598817786	0,010776564221710646	0,28882808598817786
1	0	0	1	0	0	1	277935,24	-0,100000001	1,83482671	-0,00027772070729070243	-0,099977529566522432	0,000183441443	-0,2910498506577303	0,010859461248726019	0,2910498506577303
1	0	0	1	0	0	1	278015,24	-0,100000001	1,77843845	-0,00027772078790060346	-0,099977558585528038	0,00017780393	-0,29327161507900877	0,010942358266477952	0,29327161507900877
1	0	0	1	0	0	1	278095,24	-0,100000001	1,72493458	-0,00027772037820559408	-0,099977411093509069	0,0001724545	-0,29549337889458643	0,011025255261630374	0,29549337889458643
1	0	0	1	0	0	1	278175,24	-0,100000001	1,67440939	-0,00027772088131349946	-0,099977592208867622	0,000167403414	-0,29771514536094982	0,011108152355687178	0,29771514536094982
1	0	0	1	0	0	1	278255,25	-0,100000001	1,62682498	-0,00027772134137981466	-0,099977757831879821	0,00016264632	-0,29993691527375194	0,011191049578335242	0,29993691527375194
1	0	0	1	0	0	1	278335,25	-0,100000001	1,58389962	-0,00027772098834440112	-0,099977630741578074	0,000158354538	-0,30215868246582509	0,01127394669946925	0,30215868246582509
1	0	0	1	0	0	1	278415,25	-0,100000001	1,54658818	-0,00027772091011537446	-0,099977602576179123	0,000154624184	-0,30438045120676058	0,011356843878393397	0,30438045120676058
1	0	0	1	0	0	1	278495,25	-0,100000001	1,51525342	-0,00027772084721384774	-0,099977579934393254	0,000151491375	-0,30660221657504006	0,011439740931479211	0,30660221657504006
1	1	0	0	0	0	2	278561,57	0,100000001	1,91057527	0,0002778300972489847	0,10001690919325296	0,000191089828	-0,30733298436022586	0,01146700686007223	0,00055566523514646624
1	1	0	0	0	0	2	278641,58	0,100000001	2,52613783	0,00027783075953233574	0,10001714761066864	0,000252657104	-0,30511033927421677	0,011384076983535133	0,0027783103211555213
1	1	0	0	0	0	2	278721,58	0,100000001	2,69827843	0,00027783052641567258	0,10001706369028576	0,000269873883	-0,30288769608646086	0,011301147177824411	0,0050009535089114483
1	1	0	0	0	0	2	278801,58	0,100000001	2,79993963	0,00027783055933316547	0,10001707554035504	0,000280041771	-0,3006650532122713	0,01121821738381327	0,0072235963831009984
1	1	0	0	0	0	2	278881,58	0,100000001	2,87198472	0,00027783071841879024	0,10001713281007723	0,000287247676	-0,2984424071197657	0,011135287469722432	0,0094462424756065024
1	1	0	0	0	0	2	278961,58	0,100000001	2,92699718	0,00027783069014011158	0,10001712262994893	0,000292749843	-0,29621976068503936	0,011052357542862877	0,011668888910332902
1	1	0	0	0	0	2	279041,58	0,100000001	2,97036171	0,00027783097167395888	0,10001722398018246	0,000297087332	-0,29399711272882451	0,010969427559234541	0,013891536866547746
1	1	0	0	0	0	2	279121,58	0,100000001	3,00641298	0,0002778310701925721	0,10001725944620035	0,00030069318	-0,29177446414079501	0,01088649755203235	0,01611418545457721
1	1	0	0	0	0	2	279201,59	0,100000001	3,03889346	0,00027783052633081869	0,10001706365508165	0,000303941197	-0,28955181866997389	0,010803567661137397	0,018336830925398406
1	1	0	0	0	0	2	279281,59	0,100000001	3,06975079	0,0002778308415127297	0,10001717711838488	0,000307027804	-0,28732917419520627	0,010720637807406538	0,020559475400165971
1	1	0	0	0	0	2	279361,59	0,100000001	3,10087538	0,0002778306182697415	0,10001709675245659	0,000310140545	-0,28510653084461373	0,010637707995620163	0,022782118750758474
1	1	0	0	0	0	2	279441,59	0,100000001	3,13287854	0,00027783116319568621	0,1000172929243481	0,000313342025	-0,28288388548492256	0,010554778108871616	0,025004764110449702
1	1	0	0	0	0	2	279521,59	0,100000001	3,16638994	0,00027783050446170896	0,10001705578351806	0,000316693011	-0,28066124234850819	0,010471848305076517	0,027227407246864093
1	1	0	0	0	0	2	279601,59	0,100000001	3,2016201	0,00027783020978752109	0,10001694970285301	0,000320216262	-0,27843860143067594	0,010388918584059696	0,029450048164696326
1	1	0	0	0	0	2	279681,60	0,100000001	3,23799586	0,00027782977447286253	0,10001679299259336	0,00032385395	-0,27621596275430278	0,010305988946674731	0,031672686841069408
1	1	0	0	0	0	2	279761,60	0,100000001	3,27421904	0,00027782980251933136	0,10001680309029206	0,000327476911	-0,27399332537190678	0,010223059357569795	0,033895324223465382
1	1	0	0	0	0	2	279841,60	0,100000001	3,30962086	0,00027782943016580406	0,10001666904327462	0,000331017247	-0,2717706867093761	0,010140129720701309	0,036117962885996115
1	1	0	0	0	0	2	279921,60	0,100000001	3,34297967	0,00027782938650291827	0,10001665332493838	0,000334353652	-0,2695480512537247	0,010057200203485803	0,038340598341647533
1	1	0	0	0	0	2	280001,60	0,100000001	3,3739326	0,00027783037530175514	0,10001700928566565	0,000337450649	-0,26732541123947117	0,0099742705161827226	0,040563238355901088
1	1	0	0	0	0	2	280081,60	0,100000001	3,40204024	0,00027782972088538941	0,10001677370496747	0,000340261089	-0,26510277202476963	0,0098913408587119987	0,042785877570602618
1	1	0	0	0	0	2	280161,60	0,100000001	3,42755103	0,00027783004583997859	0,1000168906863671	0,000342813	-0,26288013287550243	0,0098084112036827213	0,045008516719869843
1	1	0	0	0	0	2	280241,61	0,100000001	3,45080876	0,0002778293816505207	0,10001665158276618	0,000345138338	-0,26065749512901891	0,0097254816009931891	0,047231154466353357
1	1	0	0	0	0	2	280321,61	0,100000001	3,4714694	0,00027782983228978186	0,10001681380977654	0,000347205321	-0,25843485677486278	0,0096425519756305741	0,049453792820509517
1	1	0	0	0	0	2	280401,61	0,100000001	3,49031615	0,00027782970847230816	0,10001676923634427	0,000349090144	-0,25621221795026656	0,0095596223327152064	0,051676431645105696
1	1	0	0	0	0	2	280481,61	0,100000001	3,50742507	0,00027783052457910445	0,10001706302913398	0,000350802351	-0,25398957342981498	0,009476692477279817	0,053899076165557312
1	1	0	0	0	0	2	280561,61	0,100000001	3,52310205	0,00027783046917741498	0,10001704308490979	0,000352370262	-0,251766930047584	0,009393762664312969	0,056121719547788288
1	1	0	0	0	0	2	280641,61	0,100000001	3,53742313	0,00027783118105058874	0,1000172993543179	0,000353803509	-0,24954428307304605	0,0093108327173123174	0,058344366522326221
1	1	0	0	0	0	2	280721,62	0,100000001	3,55057955	0,00027783084856925741	0,10001717966334326	0,000355118944	-0,2473216350143104	0,009227902729858793	0,060567014581061888
1	1	0	0	0	0	2	280801,62	0,100000001	3,56283855	0,00027783142532366845	0,10001738729093339	0,000356345816	-0,24509898470442323	0,0091449726584117773	0,062789664890949082
1	1	0	0	0	0	2	280881,62	0,100000001	3,57410455	0,00027783097416866154	0,10001722487360083	0,000357472018	-0,24287633637545376	0,009062042660875465	0,065012313219918528
1	1	0	0	0	0	2	280961,62	0,100000001	3,58487391	0,00027783040865966016	0,10001702129428022	0,000358548423	-0,24065369112260298	0,0089791127781132774	0,067234958472769254
1	1	0	0	0	0	2	281041,62	0,100000001	3,59466982	0,0002778305823902289	0,10001708383840941	0,000359528407	-0,23843104596435018	0,0088961828988806682	0,069457603631022029
1	1	0	0	0	0	2	281121,62	0,100000001	3,60414076	0,00027783086913989651	0,10001718706513776	0,000360476028	-0,23620840528396419	0,0088132531867232896	0,071680244311407962
1	1	0	0	0	0	2	281201,62	0,100000001	3,61317277	0,00027783039309539728	0,10001701569241782	0,00036137877	-0,23398576203048547	0,0087303233785603597	0,073902887564886694
1	1	0	0	0	0	2	281281,63	0,100000001	3,62147903	0,00027783042686225638	0,10001702784883518	0,000362209568	-0,23176311820937389	0,0086473935492182874	0,076125531385998259
1	1	0	0	0	0	2	281361,63	0,100000001	3,6292696	0,0002778308843523264	0,10001719254267139	0,000362989347	-0,22954047059359968	0,0085644635782922509	0,078348179001772467
1	1	0	0	0	0	2	281441,63	0,100000001	3,63709855	0,00027783051195782093	0,10001705848090208	0,000363771891	-0,22731782607596275	0,0084815337229618778	0,080570823519409421
1	1	0	0	0	0	2	281521,63	0,100000001	3,64427829	0,00027783069196260637	0,10001712328137712	0,000364490232	-0,22509518179273267	0,0083986038763775424	0,082793467802639552
1	1	0	0	0	0	2	281601,63	0,100000001	3,65126705	0,00027783085174941354	0,1000171808035201	0,000365189451	-0,22287253557658106	0,0083156739576733043	0,085016114018791155
1	1	0	0	0	0	2	281681,63	0,100000001	3,65806484	0,00027783071198811133	0,10001713049507741	0,000365869142	-0,22064988903633869	0,0082327440268768064	0,087238760559033498
1	1	0	0	0	0	2	281761,64	0,100000001	3,66453791	0,00027783101011274586	0,10001723781787936	0,000366516964	-0,21842723892575165	0,0081498139628659469	0,089461410669620557
1	1	0	0	0	0	2	281841,64	0,100000001	3,67082024	0,00027783101851286157	0,10001724084186278	0,000367145316	-0,21620458887604781	0,0080668839011267226	0,09168406071932439
1	1	0	0	0	0	2	281921,64	0,100000001	3,67687321	0,00027783175497129558	0,10001750596179416	0,000367751694	-0,21398193817199053	0,0079839538149726899	0,093906711423381658
1	1	0	0	0	0	2	282001,64	0,100000001	3,68284988	0,00027783119093626742	0,1000173029130937	0,000368348701	-0,21175929076529491	0,007901023851847657	0,096129358830077286
1	1	0	0	0	0	2	282081,64	0,100000001	3,6886549	0,00027783086194677482	0,10001718447915682	0,000368928886	-0,20953664293145584	0,0078180938727853235	0,098352006663916314
1	1	0	0	0	0	2	282161,64	0,100000001	3,6942687	0,00027783097393396832	0,10001722479377021	0,000369490503	-0,20731399494010486	0,0077351638878460122	0,10057465465526728
1	1	0	0	0	0	2	282241,64	0,100000001	3,69971085	0,00027783087629079824	0,10001718964290581	0,000370034686	-0,20509134778628403	0,0076522339341560755	0,10279730180908813
1	1	0	0	0	0	2	282321,65	0,100000001	3,70490456	0,0002778313754076759	0,10001736932152208	0,000370554801	-0,20286870001466518	0,007569303957415264	0,10501994958070698
1	1	0	0	0	0	2	282401,65	0,100000001	3,70998383	0,00027783191896312768	0,10001756499771698	0,000371063536	-0,20064604575928454	0,0074863737387565837	0,10724260383608762
1	1	0	0	0	0	2	282481,65	0,100000001	3,71525407	0,0002778312246505585	0,10001731504534747	0,000371589733	-0,19842339264342509	0,0074034435626149709	0,10946525695194707
1	1	0	0	0	0	2	282561,65	0,100000001	3,72000861	0,00027783072309982451	0,10001713449055979	0,000372064591	-0,19620074388596986	0,0073205135490912781	0,11168790570940232
1	1	0	0	0	0	2	282641,65	0,100000001	3,72497344	0,00027783056152818934	0,10001707632821976	0,000372560957	-0,1939780959386601	0,0072375835657952026	0,11391055365671208
1	1	0	0	0	0	2	282721,65	0,100000001	3,72986174	0,00027783119389787315	0,10001730397692259	0,000373050716	-0,1917554462289305	0,007154653516740873	0,11613320336644178
1	1	0	0	0	0	2	282801,66	0,100000001	3,73442531	0,00027783151557379296	0,10001741977685962	0,000373507588	-0,18953279611011424	0,0070717234524229722	0,11835585348525803
1	1	0	0	0	0	2	282881,66	0,100000001	3,73916078	0,00027783165814644758	0,10001747110202704	0,000373981398	-0,18731014461566544	0,0069887933367783706	0,12057850497970683
1	1	0	0	0	0	2	282961,66	0,100000001	3,7438581	0,00027783052366640832	0,10001706269824106	0,000374449679	-0,18508749544201334	0,0069058633077258125	0,12280115415335898
1	1	0	0	0	0	2	283041,66	0,100000001	3,74836469	0,0002778301279681424	0,10001692024960816	0,000374899886	-0,18286485217441616	0,0068229334990361062	0,12502379742095613
1	1	0	0	0	0	2	283121,66	0,100000001	3,75292826	0,00027783103230968115	0,10001724580396488	0,000375357544	-0,18064220256820938	0,006740003453844352	0,12724644702716293
1	1	0	0	0	0	2	283201,66	0,100000001	3,75733924	0,0002778312119377984	0,10001731046884195	0,000375798962	-0,17841955371081984	0,006657073436591977	0,12946909588455243
1	1	0	0	0	0	2	283281,66	0,100000001	3,76180744	0,00027783079958665706	0,10001716202994666	0,000376245298	-0,17619690743651395	0,0065741435157179251	0,13169174215885834
1	1	0	0	0	0	2	283361,67	0,100000001	3,76639009	0,00027783094911070336	0,10001721585756688	0,000376703858	-0,17397426047378893	0,0064912135691580301	0,13391438912158338
1	1	0	0	0	0	2	283441,67	0,100000001	3,77055287	0,00027783142061283194	0,10001738559506488	0,000377120828	-0,17175161008908003	0,0064082834949193178	0,13613703950629224
1	1	0	0	0	0	2	283521,67	0,100000001	3,77481103	0,00027783123671056496	0,10001731939152354	0,000377546472	-0,16952896016995222	0,0063253534380520589	0,13835968942542006
1	1	0	0	0	0	2	283601,67	0,100000001	3,77910733	0,00027783205890614128	0,10001761537623184	0,000377977296	-0,16730630832668634	0,0062424233093926221	0,14058234126868597
1	1	0	0	0	0	2	283681,67	0,100000001	3,78348017	0,00027783105769008397	0,1000172549453913	0,0003784133	-0,16508365658494285	0,0061594931845211226	0,14280499301042946
1	1	0	0	0	0	2	283761,67	0,100000001	3,78762364	0,00027783133173154461	0,10001735359841755	0,000378828088	-0,16286100317002867	0,006076562997221376	0,14502764642534362
1	1	0	0	0	0	2	283841,68	0,100000001	3,7918818	0,0002778312701061368	0,1000173314136979	0,000379253906	-0,1606383511341871	0,0059936328613766822	0,14725029846118518
1	1	0	0	0	0	2	283921,68	0,100000001	3,79608274	0,00027783100690361523	0,10001723666261456	0,0003796737	-0,15841569980385267	0,0059107027518554074	0,14947294979151962
1	1	0	0	0	0	2	284001,68	0,100000001	3,80035996	0,00027783154086437485	0,10001742888478682	0,000380102225	-0,15619304859396138	0,0058277726468280282	0,15169560100141091
1	1	0	0	0	0	2	284081,68	0,100000001	3,80467558	0,00027783138844826154	0,10001737401138518	0,00038053366	-0,15397039964406554	0,0057448426261241178	0,15391824995130675
1	1	0	0	0	0	2	284161,68	0,100000001	3,80889535	0,00027783142821656333	0,10001738832769816	0,000380955753	-0,15174774719206982	0,005661912474752153	0,15614090240330246
1	1	0	0	0	0	2	284241,68	0,100000001	3,81298184	0,00027783109384982122	0,10001726795798872	0,000381364021	-0,14952509812260579	0,0055789824495869933	0,1583635514727665
1	1	0	0	0	0	2	284321,68	0,100000001	3,8174119	0,00027783134810336762	0,10001735948983168	0,000381807447	-0,14730244697150416	0,005496052346753136	0,16058620262386813
1	1	0	0	0	0	2	284401,69	0,100000001	3,82167006	0,00027783080473707782	0,10001716388056944	0,000382232596	-0,14507979890539779	0,0054131223590246003	0,1628088506899745
1	1	0	0	0	0	2	284481,69	0,100000001	3,82588983	0,00027783077589919171	0,10001715349913034	0,000382654602	-0,14285715016229112	0,005330192346036272	0,16503149943308118
1	1	0	0	0	0	2	284561,69	0,100000001	3,83020544	0,00027783142193820739	0,10001738606869789	0,000383087143	-0,14063450219180176	0,005247262361875335	0,16725414740357053
1	1	0	0	0	0	2	284641,69	0,100000001	3,8346355	0,00027783166990760301	0,10001747533712579	0,000383530569	-0,13841184965781982	0,0051643322074443539	0,16947679993755245
1	1	0	0	0	0	2	284721,69	0,100000001	3,83900809	0,000277831765572644	0,10001750977354877	0,000383968028	-0,13618919603825597	0,0050814020125088512	0,17169945355711632
1	1	0	0	0	0	2	284801,69	0,100000001	3,84317088	0,0002778312514420185	0,10001732469008734	0,00038438366	-0,13396654460127558	0,0049984718990084736	0,1739221049940967
1	1	0	0	0	0	2	284881,70	0,100000001	3,84762001	0,00027783165932322544	0,10001747152449456	0,000384829211	-0,13174389265754314	0,0049155417666004947	0,17614475693782915
1	1	0	0	0	0	2	284961,70	0,100000001	3,85187817	0,00027783137847483158	0,10001737042567686	0,000385254738	-0,12952124253535715	0,0048326117021568634	0,17836740706001514
1	1	0	0	0	0	2	285041,70	0,100000001	3,85630822	0,00027783120033848618	0,10001730629782728	0,000385697553	-0,12729859292712922	0,0047496816568896986	0,18059005666824307
1	1	0	0	0	0	2	285121,70	0,100000001	3,86085272	0,00027783116152220304	0,1000172923242344	0,000386152038	-0,12507594108379371	0,004666751528227664	0,18281270851157856
1	1	0	0	0	0	2	285201,70	0,100000001	3,86524463	0,00027783097180393005	0,1000172240269712	0,00038659104	-0,12285329152423462	0,0045838214847763987	0,18503535807113766
1	1	0	0	0	0	2	285281,70	0,100000001	3,86969376	0,0002778314712656041	0,10001740382971178	0,000387036736	-0,12063063991651426	0,0045008913649054816	0,18725800967885808
1	1	0	0	0	0	2	285361,70	0,100000001	3,8742764	0,00027783133850950333	0,1000173560384357	0,000387494889	-0,11840798822513378	0,0044179612419130944	0,18948066137023859
1	1	0	0	0	0	2	285441,71	0,100000001	3,8789165	0,00027783110072008438	0,10001727043589315	0,000387958629	-0,11618533526434198	0,004335031071557264	0,19170331433103037
1	1	0	0	0	0	2	285521,71	0,100000001	3,88351846	0,00027783135806231037	0,10001736307731069	0,000388419285	-0,11396268390034539	0,0042521009607800083	0,19392596569502691
1	1	0	0	0	0	2	285601,71	0,100000001	3,88823485	0,00027783158260997798	0,10001744391291456	0,00038889132	-0,1117400324301685	0,0041691708460410246	0,19614861716520374
1	1	0	0	0	0	2	285681,71	0,100000001	3,89304662	0,00027783227510833075	0,10001769320752142	0,000389373541	-0,10951737794979398	0,0040862406189875187	0,19837127164557827
1	1	0	0	0	0	2	285761,71	0,100000001	3,89772487	0,00027783181271826224	0,10001752674564454	0,000389840803	-0,1072947234353579	0,0040033103906631315	0,20059392616001437
1	1	0	0	0	0	2	285841,71	0,100000001	3,90267062	0,00027783144733599488	0,10001739521056099	0,000390334957	-0,10507207115324285	0,0039203802456296416	0,20281657844212944
1	1	0	0	0	0	2	285921,72	0,100000001	3,90729141	0,00027783154965316253	0,1000174320463608	0,000390797242	-0,10284941879569851	0,0038374500977817856	0,20503923079967373
1	1	0	0	0	0	2	286001,72	0,100000001	3,91217971	0,00027783195320516826	0,10001757731879256	0,00039128674	-0,10062676602960987	0,0037545199346905907	0,20726188356576237
1	1	0	0	0	0	2	286081,72	0,100000001	3,91720176	0,00027783157954240838	0,10001744280511778	0,00039178849	-0,09840411333033719	0,003671589774092391	0,20948453626503504
1	1	0	0	0	0	2	286161,72	0,100000001	3,92214727	0,00027783143832203414	0,10001739196676195	0,000392282935	-0,096181462821174694	0,0035886596952101453	0,21170718677419754
1	1	0	0	0	0	2	286241,72	0,100000001	3,92720747	0,00027783068254796998	0,10001711989450192	0,000392787973	-0,09395881380395081	0,0035057296719941357	0,21392983579142144
1	1	0	0	0	0	2	286321,72	0,100000001	3,93226767	0,00027783057327154614	0,10001708055341814	0,000393293943	-0,091736167366303782	0,003422799745025607	0,21615248222906848
1	1	0	0	0	0	2	286401,72	0,100000001	3,93736601	0,00027783108873292803	0,10001726611594264	0,00039380457	-0,089513518570801306	0,0033398697300823213	0,21837513102457088
1	1	0	0	0	0	2	286481,73	0,100000001	3,94246435	0,0002778311560514073	0,10001729035012854	0,000394314615	-0,08729086701173321	0,0032569396120266861	0,22059778258363898
1	1	0	0	0	0	2	286561,73	0,100000001	3,94782996	0,00027783145961041248	0,10001739963392358	0,000394851697	-0,085068216484276659	0,003174009532461865	0,22282043311109552
1	1	0	0	0	0	2	286641,73	0,100000001	3,95319557	0,0002778316787559953	0,10001747852481435	0,000395388663	-0,082845564557791846	0,0030910794006974182	0,22504308503758032
1	1	0	0	0	0	2	286721,73	0,100000001	3,95879054	0,00027783116446932154	0,10001729338517666	0,000395947514	-0,080622913418737421	0,0030081492983130586	0,22726573617663482
1	1	0	0	0	0	2	286801,73	0,100000001	3,9641943	0,00027783137134048675	0,10001736785736216	0,000396488293	-0,078400266249591974	0,0029252193440513395	0,22948838334578029
1	1	0	0	0	0	2	286881,73	0,100000001	3,96971273	0,0002778314378377464	0,10001739179591472	0,000397040305	-0,076177615509190758	0,0028422892565412675	0,2317110340861815
1	1	0	0	0	0	2	286961,74	0,100000001	3,97536492	0,00027783152933874067	0,10001742473563838	0,000397605763	-0,073954965548522227	0,0027593591981240691	0,23393368404685005
1	1	0	0	0	0	2	287041,74	0,100000001	3,98111248	0,0002778315949642824	0,10001744836037853	0,000398180709	-0,071732313607441754	0,002676429065815039	0,2361563359879305
1	1	0	0	0	0	2	287121,74	0,100000001	3,9869554	0,00027783174065252144	0,10001750080713474	0,000398765318	-0,06950966316463991	0,002593498989408799	0,23837898643073229
1	1	0	0	0	0	2	287201,74	0,100000001	3,99283671	0,00027783154480076496	0,10001743030185997	0,000399353274	-0,067287010546176269	0,0025105688318256915	0,240601639049196
1	1	0	0	0	0	2	287281,74	0,100000001	3,99881339	0,00027783127981217373	0,10001733490780394	0,000399950659	-0,065064358423606694	0,0024276386927450589	0,2428242911717656
1	1	0	0	0	0	2	287361,74	0,100000001	4,00484753	0,00027783083438335194	0,1000171745518583	0,000400553545	-0,062841709348817549	0,0023447086673812125	0,24504694024655475
1	1	0	0	0	0	2	287441,74	0,100000001	4,01086235	0,00027783107776857085	0,10001726216885003	0,00040115547	-0,060619061100962573	0,0022617786728713904	0,24726958849440976
1	1	0	0	0	0	2	287521,75	0,100000001	4,01716375	0,00027783070108335882	0,10001712656711342	0,00040178519	-0,058396412045322253	0,0021788486482220122	0,24949223755005011
1	1	0	0	0	0	2	287601,75	0,100000001	4,02338886	0,0002778303850789865	0,10001701280772982	0,000402407342	-0,056173766359550554	0,0020959187493069629	0,25171488323582179
1	1	0	0	0	0	2	287681,75	0,100000001	4,02963257	0,000277830540811436	0,10001706886916784	0,000403032027	-0,053951123053711213	0,0020129889391903894	0,25393752654166109
1	1	0	0	0	0	2	287761,75	0,100000001	4,03616333	0,00027783072190442022	0,10001713406138688	0,000403685495	-0,051728476808267232	0,0019300590193932144	0,25616017278710502
1	1	0	0	0	0	2	287841,75	0,100000001	4,04267454	0,00027783106003287766	0,10001725578645211	0,000404337217	-0,049505830859829466	0,0018471291106777411	0,25838281873554275
1	1	0	0	0	0	2	287921,75	0,100000001	4,04930067	0,00027783070031470723	0,10001712628807554	0,000404999417	-0,047283183501304742	0,0017641991493500269	0,26060546609406742
1	1	0	0	0	0	2	288001,76	0,100000001	4,05607939	0,00027783089956682589	0,10001719801745709	0,000405677682	-0,045060536413034099	0,0016812691981058563	0,26282811318233805
1	1	0	0	0	0	2	288081,76	0,100000001	4,06266689	0,0002778309734467831	0,10001722461372957	0,00040633668	-0,042837889490093088	0,0015983392530303562	0,2650507601052791
1	1	0	0	0	0	2	288161,76	0,100000001	4,0695219	0,00027783103229519389	0,10001724580340688	0,000407022366	-0,040615240690437344	0,0015154092379321066	0,26727340890493485
1	1	0	0	0	0	2	288241,76	0,100000001	4,07651091	0,00027783145468723446	0,1000173978616136	0,000407722022	-0,038392588810531514	0,0014324791079055843	0,26949606078484074
1	1	0	0	0	0	2	288321,76	0,100000001	4,08334684	0,00027783101976952621	0,10001724129425333	0,000408405089	-0,03616993951766265	0,0013495490744048899	0,27171871007770954
1	1	0	0	0	0	2	288401,76	0,100000001	4,09043074	0,00027783181710541245	0,10001752832964554	0,000409114786	-0,033947289071034112	0,0012666189978558707	0,27394136052433805
1	1	0	0	0	0	2	288481,76	0,100000001	4,09747696	0,00027783142560058166	0,10001738739062022	0,000409818953	-0,031724637019621715	0,001183688861430208	0,27616401257575034
1	1	0	0	0	0	2	288561,77	0,100000001	4,10454226	0,00027783214337047606	0,10001764578280688	0,000410526642	-0,029501982929115789	0,001100758648923224	0,27838666666625629
1	1	0	0	0	0	2	288641,77	0,100000001	4,11164522	0,00027783123845896787	0,10001732002093645	0,000411235727	-0,027279331543212842	0,0010178285373286141	0,28060931805215923
1	1	0	0	0	0	2	288721,77	0,100000001	4,11867237	0,00027783085062975686	0,10001718040510877	0,000411938003	-0,025056682002114634	0,00093489849456614886	0,28283196759325741
1	1	0	0	0	0	2	288801,77	0,100000001	4,12575626	0,000277831249680784	0,10001732406071248	0,000412647089	-0,022834031862464093	0,00085196842947089152	0,28505461773290784
1	1	0	0	0	0	2	288881,77	0,100000001	4,13276434	0,00027783131618632211	0,10001734800224522	0,000413348142	-0,020611379661102966	0,00076903828745044006	0,2872772699342689
1	1	0	0	0	0	2	288961,77	0,100000001	4,13973379	0,00027783109672574528	0,10001726899795877	0,000414044858	-0,018388727941335363	0,00068610816339889062	0,28949992165403642
1	1	0	0	0	0	2	289041,78	0,100000001	4,14674187	0,00027783179462038806	0,10001752023053528	0,000414746843	-0,01616607528576615	0,0006031780044313248	0,29172257430960563
1	1	0	0	0	0	2	289121,78	0,100000001	4,15353966	0,0002778316705748439	0,10001747557499922	0,000415426563	-0,013943421739508587	0,00052024781223097926	0,29394522785586317
1	1	0	0	0	0	2	289201,78	0,100000001	4,16035652	0,00027783132804599075	0,10001735226931504	0,000416107854	-0,011720771771456926	0,00043731775353830682	0,29616787782391482
1	1	0	0	0	0	2	289281,78	0,100000001	4,16719246	0,00027783121748516957	0,10001731246702144	0,000416791387	-0,0094981191586395571	0,00035438759616586976	0,29839053043673216
1	1	0	0	0	0	2	289361,78	0,100000001	4,17381811	0,00027783128011888931	0,10001733501239773	0,000417454168	-0,0072754690179442867	0,0002714575310316321	0,30061318057742739
1	1	0	0	0	0	2	289441,78	0,100000001	4,18023443	0,00027783194312908582	0,10001757369496573	0,000418096897	-0,0050528186443620755	0,00018852745720806957	0,3028358309510096
1	1	0	0	0	0	2	289521,78	0,100000001	4,18659306	0,00027783136604188218	0,10001736594757258	0,000418732001	-0,0028301671979587616	0,00010559734335610925	0,30505848239741286
1	1	0	0	0	0	2	289601,79	0,100000001	4,19295168	0,00027783151716407802	0,10001742034818691	0,000419368211	-0,0006075154471354857	2,2667218145830861E-005	0,3072811341482361
1	1	0	0	0	0	2	289681,79	0,100000001	4,19835615	0,00027783127544158032	0,10001733332976328	0,000419908378	0,0016151386889365306	-6,026299606128503E-005	0,3095037882843081
1	1	0	0	0	0	2	289704,61	0,100000001	4,19984579	7,8458139323939891E-005	0,10001753290300645	0,000420058204	0,0022492595656925098	-8,3922898557637069E-005	0,31013790916106406