File: Experimentelles/Rohdaten/Batteriemessungen/AlteZelle/Studenten_Batterietests/Sonstige/ZView-Export/LiCoO2 vs Li_02_CV_C01_loop2.txt
EC-Lab ASCII FILE
Nb header lines : 3
mode	ox/red	error	control changes	counter inc.	time/s	control/V	Ewe/V	<I>/mA	cycle number	(Q-Qo)/C	P/W
2	0	0	1	0	5080,32	3,10296631	3,10327935	-0,52487051486968992	3	0	0,00162881985
2	0	0	0	0	5081,65	3,08966446	3,08983588	-0,44763027799005338	3	-0,000610417861	0,00138310413
2	0	0	1	0	5083,00	3,07616329	3,07638311	-0,4484069811490681	3	-0,00121571484	0,00137947162
2	0	0	1	0	5084,35	3,06266189	3,06276965	-0,44943636190146208	3	-0,00182246289	0,00137652003
2	0	0	0	0	5085,70	3,04916072	3,04910636	-0,45116219172875072	3	-0,00243109884	0,00137564156
2	0	0	0	0	5087,05	3,03565955	3,03579378	-0,45207505036766451	3	-0,0030413717	0,00137240661
2	0	0	1	0	5088,40	3,02215838	3,02249122	-0,45335737631345638	3	-0,00365326693	0,00137026864
2	0	0	0	0	5089,75	3,00865698	3,00865722	-0,45438672214125651	3	-0,00426663598	0,00136709388
2	0	0	0	0	5091,10	2,99515581	2,99518442	-0,45525025607397216	3	-0,00488130189	0,00136355846
2	0	0	1	0	5092,45	2,98165464	2,98178148	-0,45643729576841088	3	-0,00549746724	0,00136099628
2	0	0	0	0	5093,80	2,96815348	2,96844888	-0,45730292005464435	3	-0,00611496344	0,0013574803
2	0	0	0	0	5095,15	2,95465183	2,95504618	-0,45794476366912563	3	-0,00673360424	0,00135324791
2	0	0	1	0	5096,50	2,94115067	2,94148302	-0,45879548927769075	3	-0,00735353632	0,00134953915
2	0	0	0	0	5097,85	2,92764926	2,92794991	-0,45994143236580774	3	-0,00797467865	0,00134668546
2	0	0	0	0	5099,20	2,91414833	2,91450691	-0,46087012346834035	3	-0,00859706756	0,00134320918
2	0	0	1	0	5100,55	2,90064692	2,90088367	-0,4615529341002311	3	-0,0092205368	0,00133891136
2	0	0	1	0	5101,90	2,88714576	2,8873806	-0,46264750184491187	3	-0,00984518602	0,00133583939
2	0	0	0	0	5103,25	2,87364459	2,87386751	-0,4632937301260729	3	-0,0104710832	0,00133144483
2	0	0	1	0	5104,60	2,86014318	2,86027431	-0,46447835909202874	3	-0,0110981977	0,00132853549
2	0	0	1	0	5105,95	2,84664202	2,84683132	-0,46513930941000582	3	-0,0117263151	0,00132417318
2	0	0	0	0	5107,30	2,83314061	2,83351874	-0,46599093281353478	3	-0,0123556405	0,00132039399
2	0	0	1	0	5108,65	2,81963944	2,81978512	-0,46680600498492544	3	-0,0129860165	0,00131629268
2	0	0	1	0	5110,00	2,80613804	2,80629206	-0,46761683964481018	3	-0,0136174913	0,00131226948
2	0	0	0	0	5111,35	2,79263711	2,79302979	-0,46847883937880486	3	-0,0142500307	0,00130847539
2	0	0	0	0	5112,70	2,77913547	2,77920604	-0,46906516002491213	3	-0,0148834977	0,00130362867
2	0	0	1	0	5114,05	2,7656343	2,76583314	-0,4699763166718167	3	-0,0155180478	0,00129987602
2	0	0	0	0	5115,40	2,75213289	2,75246024	-0,47065291988352966	3	-0,0161536895	0,0012954534
2	0	0	0	0	5116,75	2,73863173	2,73888707	-0,47173247703661581	3	-0,0167903695	0,00129202195
2	0	0	1	0	5118,10	2,72513056	2,72531414	-0,47241825610399245	3	-0,0174281858	0,00128748815
2	0	0	0	0	5119,45	2,71162939	2,71182084	-0,47295944159850387	3	-0,018067142	0,00128258124
2	0	0	0	0	5120,80	2,69812799	2,69818759	-0,47361523487294746	3	-0,018706955	0,00127790275
2	0	0	1	0	5122,15	2,68462682	2,68474483	-0,47430988959968134	3	-0,0193479639	0,00127340108
2	0	0	1	0	5123,50	2,6711266	2,67121363	-0,47546499533578765	3	-0,0199900232	0,00127006858
2	0	0	0	0	5124,85	2,65762448	2,65780878	-0,47611587059994598	3	-0,0206332467	0,00126542489
2	0	0	1	0	5126,20	2,64412308	2,6441555	-0,47706931720798131	3	-0,0212774556	0,00126144546
2	0	0	1	0	5127,55	2,63062167	2,63101315	-0,47764019590492166	3	-0,0219226666	0,00125667767
2	0	0	0	0	5128,90	2,6171205	2,61752009	-0,47865049044291296	3	-0,0225688778	0,00125287729
2	0	0	1	0	5130,25	2,60361934	2,60401702	-0,47922442667186259	3	-0,0232161712	0,00124790857
2	0	0	1	0	5131,60	2,59011793	2,59053421	-0,47971415923287533	3	-0,0238641258	0,00124271598
2	0	0	0	0	5132,95	2,57661676	2,57689071	-0,48031836235895795	3	-0,0245131273	0,00123772793
2	0	0	0	0	5134,30	2,5631156	2,5635283	-0,4810450569011495	3	-0,0251628906	0,0012331726
2	0	0	1	0	5135,65	2,54961419	2,54995489	-0,48168108984827994	3	-0,0258134659	0,001228265
2	0	0	0	0	5137,00	2,53611302	2,53634143	-0,48203170082221414	3	-0,0264646877	0,00122259697
2	0	0	0	0	5138,35	2,52261162	2,52284861	-0,48246209882199763	3	-0,0271163601	0,00121717888
2	0	0	1	0	5139,70	2,50911045	2,50915527	-0,48260603845119654	3	-0,0277685411	0,00121093343
2	0	0	0	0	5141,05	2,49560928	2,49561191	-0,4827601700089881	3	-0,028420927	0,00120478205
2	0	0	0	0	5142,40	2,48210812	2,48230934	-0,48283011590441216	3	-0,0290732887	0,00119853369
2	0	0	1	0	5143,75	2,46860647	2,46879625	-0,48267704496781037	3	-0,0297257882	0,00119163131
2	0	0	0	0	5145,10	2,4551053	2,45557404	-0,48214454514284986	3	-0,0303780604	0,00118394161
2	0	0	0	0	5146,45	2,4416039	2,44202089	-0,48174913708741587	3	-0,0310297571	0,00117644144
2	0	0	1	0	5147,80	2,42810297	2,42834735	-0,48150445598488109	3	-0,0316810161	0,00116926013
2	0	0	1	0	5149,15	2,41460109	2,41492414	-0,48051093563643296	3	-0,0323312581	0,00116039743
2	0	0	0	0	5150,50	2,4011004	2,40133119	-0,47975908654431712	3	-0,0329803452	0,00115206046
2	0	0	1	0	5151,85	2,38759899	2,38770747	-0,47854758457591021	3	-0,0336280614	0,00114263163
2	0	0	1	0	5153,20	2,37409806	2,37411451	-0,47731507041802093	3	-0,0342740752	0,0011332006
2	0	0	0	0	5154,55	2,36059666	2,36065173	-0,4756494526130455	3	-0,034918122	0,00112284266
2	0	0	1	0	5155,90	2,34709549	2,34720874	-0,47376511975501856	3	-0,0355599001	0,00111202558
2	0	0	1	0	5157,25	2,33359408	2,33379602	-0,47194122026364128	3	-0,0361989774	0,00110141456
2	0	0	0	0	5158,60	2,32009268	2,32011247	-0,46946910054733402	3	-0,0368352532	0,0010892211
2	0	0	1	0	5159,95	2,30659032	2,30686831	-0,46728181106649024	3	-0,037468303	0,00107795757
2	0	0	1	0	5161,30	2,29309011	2,29351735	-0,46429614862427117	3	-0,0380977392	0,00106487132
2	0	0	0	0	5162,65	2,27958894	2,27982378	-0,46149332635104659	3	-0,0387234427	0,00105212349
2	0	0	0	0	5164,00	2,26608753	2,2663908	-0,45839750596011776	3	-0,0393450148	0,00103890791
2	0	0	1	0	5165,35	2,25258636	2,25267744	-0,45504043623805043	3	-0,0399623439	0,00102505938
2	0	0	0	0	5166,70	2,2390852	2,23949528	-0,45170361440007942	3	-0,0405751728	0,00101158815
2	0	0	0	0	5168,05	2,22558403	2,2257216	-0,4481037285489351	3	-0,0411831625	0,00099735416
2	0	0	1	0	5169,40	2,21208262	2,21258926	-0,44412294061233568	3	-0,0417862907	0,000982661615
2	0	0	0	0	5170,75	2,19858098	2,1987946	-0,44024456639973408	3	-0,042384427	0,000968007371
2	0	0	0	0	5172,10	2,18508029	2,18527222	-0,43682766876493773	3	-0,0429773591	0,000954587362
2	0	0	1	0	5173,45	2,17157912	2,17183971	-0,43290223646908819	3	-0,0435653292	0,000940194295
2	0	0	1	0	5174,80	2,15807748	2,15822625	-0,42908619825417824	3	-0,0441480018	0,000926065084
2	0	0	0	0	5176,15	2,14457631	2,14496374	-0,4253556146286416	3	-0,044725731	0,000912372372
2	0	0	1	0	5177,50	2,13107514	2,13155127	-0,42157113148520467	3	-0,0452983454	0,000898600498
2	0	0	1	0	5178,85	2,11757398	2,11806798	-0,41828294626126803	3	-0,0458660573	0,00088595174
2	0	0	0	0	5180,20	2,10407257	2,10430408	-0,41463040358697523	3	-0,0464289822	0,000872508448
2	0	0	1	0	5181,55	2,0905714	2,09079123	-0,41084446276848576	3	-0,0469873026	0,00085899001
2	0	0	1	0	5182,90	2,07707024	2,07741857	-0,40793434918547699	3	-0,0475408621	0,000847450399
2	0	0	0	0	5184,26	2,06356883	2,06381536	-0,40517595674221798	3	-0,048090484	0,000836208346
2	0	0	0	0	5185,61	2,05006838	2,05029345	-0,40215606042143514	3	-0,0486360304	0,000824537943
2	0	0	1	0	5186,96	2,03656626	2,03689933	-0,3993487427942455	3	-0,0491778925	0,000813433202
2	0	0	0	0	5188,31	2,02306509	2,02333617	-0,39699684487034848	3	-0,0497162081	0,000803258095
2	0	0	0	0	5189,66	2,00956368	2,00981307	-0,39448962655539258	3	-0,0502511747	0,000792850391
2	0	0	1	0	5191,01	1,9960624	1,99611962	-0,39268354652449491	3	-0,0507832319	0,000783843338
2	0	0	0	0	5192,36	1,98256147	1,982777	-0,39060273393988634	3	-0,051312618	0,000774478132
2	0	0	0	0	5193,71	1,96906006	1,96951449	-0,38881152868270842	3	-0,0518396758	0,000765769917
2	0	0	1	0	5195,06	1,9555589	1,95583105	-0,3873331050854185	3	-0,0523647666	0,000757558097
2	0	0	0	0	5196,41	1,94205749	1,94245827	-0,38631408265792013	3	-0,0528881811	0,000750398962
2	0	0	0	0	5197,76	1,92855632	1,92893517	-0,38560810328150861	3	-0,0534101762	0,000743813056
2	0	0	1	0	5199,11	1,91505504	1,91533208	-0,384892382038136	3	-0,0539313108	0,000737196708
2	0	0	1	0	5200,46	1,90155375	1,9020195	-0,38474956604962605	3	-0,054451745	0,000731801149
2	0	0	0	0	5201,81	1,88805246	1,88842595	-0,38452904345467776	3	-0,054971993	0,000726154598
2	0	0	1	0	5203,16	1,87455118	1,87478268	-0,38493546626220198	3	-0,0554921292	0,000721670338
2	0	0	1	0	5204,51	1,86105013	1,86136973	-0,38497704989276691	3	-0,056012515	0,000716584618
2	0	0	0	0	5205,86	1,84754872	1,84786689	-0,38557530039300538	3	-0,0565333962	0,000712491805
2	0	0	1	0	5207,21	1,83404756	1,83430362	-0,38606398195649216	3	-0,0570551194	0,000708158535
2	0	0	1	0	5208,56	1,82054615	1,82077062	-0,38713848823681498	3	-0,0575778931	0,000704890408
2	0	0	0	0	5209,91	1,80704498	1,80714726	-0,38858196690368141	3	-0,0581023172	0,000702224846
2	0	0	0	0	5211,26	1,79354393	1,79397595	-0,38987806745750822	3	-0,0586285442	0,000699431868
2	0	0	1	0	5212,61	1,78004241	1,78054214	-0,39171425765380262	3	-0,0591569021	0,000697463751
2	0	0	0	0	5213,96	1,76654112	1,76677847	-0,39353540570785574	3	-0,0596877411	0,000695289869
2	0	0	0	0	5215,31	1,75303984	1,75335574	-0,39603847870603206	3	-0,0602213107	0,000694396324
2	0	0	1	0	5216,66	1,73953855	1,73980236	-0,39822763856500474	3	-0,060758058	0,000692837406
2	0	0	0	0	5218,01	1,72603738	1,72616887	-0,40049372318511264	3	-0,0612980947	0,000691319816
2	0	0	0	0	5219,36	1,71253622	1,7128365	-0,4032003792623673	3	-0,0618416779	0,000690616318
2	0	0	1	0	5220,71	1,69903481	1,6993835	-0,40604751355325421	3	-0,0623892248	0,000690030458
2	0	0	0	0	5222,06	1,68553364	1,68575025	-0,40960692226265926	3	-0,0629409924	0,000690494955
2	0	0	0	0	5223,41	1,67203248	1,67212665	-0,41270377192025267	3	-0,0634969994	0,000690092973
2	0	0	1	0	5224,76	1,65853107	1,65887427	-0,41612787793079955	3	-0,0640575066	0,000690303859
2	0	0	1	0	5226,11	1,64502978	1,64544153	-0,41902910390247962	3	-0,0646221265	0,000689487904
2	0	0	0	0	5227,46	1,6315285	1,63204873	-0,42253508279100147	3	-0,0651911646	0,000689597859
2	0	0	1	0	5228,81	1,61802721	1,61845553	-0,425987351840984	3	-0,0657647178	0,000689441571
2	0	0	1	0	5230,16	1,60452604	1,60474193	-0,42966927681118253	3	-0,0663432255	0,000689508277
2	0	0	0	0	5231,51	1,59102488	1,59132898	-0,43385307630523949	3	-0,0669269934	0,000690402987
2	0	0	1	0	5232,86	1,57752347	1,5779264	-0,43748073621342611	3	-0,0675161555	0,000690312416
2	0	0	1	0	5234,21	1,5640223	1,56418264	-0,44226272745678938	3	-0,0681107342	0,000691779656
2	0	0	0	0	5235,56	1,55052114	1,55072987	-0,44642303744331002	3	-0,0687113628	0,000692281523
2	0	0	0	0	5236,91	1,53701985	1,53732705	-0,45158706217383405	3	-0,0693182647	0,000694237009
2	0	0	1	0	5238,26	1,52351856	1,52383399	-0,45649181120097818	3	-0,0699319392	0,000695617753
2	0	0	0	0	5239,61	1,51001716	1,51020062	-0,46198688571652013	3	-0,0705527142	0,000697692856
2	0	0	0	0	5240,96	1,49651599	1,49670756	-0,46782333683222534	3	-0,0711809769	0,000700194738
2	0	0	1	0	5242,31	1,48301482	1,48335493	-0,47371237554277101	3	-0,071817331	0,000702683581
2	0	0	0	0	5243,66	1,46951354	1,46995211	-0,4798229564912617	3	-0,0724621415	0,000705316779
2	0	0	0	0	5245,01	1,45601213	1,45625865	-0,48667472197363629	3	-0,0731158704	0,000708724256
2	0	0	1	0	5246,36	1,44251096	1,44287586	-0,49450503056869267	3	-0,073779285	0,000713509391
2	0	0	0	0	5247,71	1,4290098	1,42930269	-0,5021200283927225	3	-0,0744530335	0,000717681483
2	0	0	0	0	5249,06	1,41550851	1,41587973	-0,51065873121842656	3	-0,0751375854	0,000723031349
2	0	0	1	0	5250,41	1,40200722	1,40216625	-0,51944694668054579	3	-0,075833939	0,000728350948
2	0	0	1	0	5251,76	1,38850594	1,38885367	-0,52861843910068448	3	-0,0765423924	0,000734173635
2	0	0	0	0	5253,11	1,37500465	1,3752805	-0,53890777689715373	3	-0,0772640109	0,000741149357
2	0	0	1	0	5254,46	1,36150336	1,36183751	-0,54942845491071514	3	-0,0779995099	0,000748232298
2	0	0	1	0	5255,81	1,34800208	1,3482343	-0,56117440791179616	3	-0,0787500367	0,000756594585
2	0	0	0	0	5257,16	1,33450091	1,33464098	-0,57381160572791859	3	-0,0795170367	0,00076583249
2	0	0	1	0	5258,51	1,32099962	1,32132852	-0,58754051150754266	3	-0,0803017616	0,000776334025
2	0	0	1	0	5259,86	1,30749834	1,30784535	-0,60187400101373709	3	-0,0811052546	0,000787158089
2	0	0	0	0	5261,21	1,29399717	1,29432237	-0,61759738950058816	3	-0,081929177	0,000799370115
2	0	0	0	0	5262,56	1,28049588	1,28077912	-0,63486059289425792	3	-0,0827752873	0,000813116203
2	0	0	1	0	5263,91	1,2669946	1,26730621	-0,65309286738435546	3	-0,08364553	0,000827668642
2	0	0	0	0	5265,26	1,25349331	1,25375307	-0,67366935343792102	3	-0,0845420361	0,000844615046
2	0	0	0	0	5266,61	1,23999202	1,24036026	-0,69487230898812506	3	-0,0854663849	0,000861892011
2	0	0	1	0	5267,96	1,22649086	1,22698748	-0,71762456667299546	3	-0,0864208937	0,000880516367
2	0	0	0	0	5269,31	1,21298945	1,21332407	-0,74196808257450803	3	-0,0874074772	0,000900247716
2	0	0	0	0	5270,66	1,19948828	1,19968069	-0,76821775951733248	3	-0,0884279236	0,000921615981
2	0	0	1	0	5272,01	1,185987	1,18625784	-0,79563068536420813	3	-0,0894846618	0,000943823135
2	0	0	1	0	5273,36	1,17248678	1,17261505	-0,82460950429518221	3	-0,0905794054	0,000966949505
2	0	0	0	0	5274,71	1,15898454	1,15950239	-0,85520771549393971	3	-0,0917143598	0,00099161535
2	0	0	1	0	5276,06	1,14548326	1,14586902	-0,8872419654702135	3	-0,0928916857	0,00101666304
2	0	0	1	0	5277,41	1,13198197	1,13238597	-0,92149157697955891	3	-0,0941134617	0,00104348408
2	0	0	0	0	5278,76	1,11848068	1,11875272	-0,95697624546786291	3	-0,0953823775	0,00107061979
2	0	0	1	0	5280,11	1,1049794	1,10523963	-0,99508433199177306	3	-0,0967007428	0,00109980663
2	0	0	1	0	5281,50	1,09107816	1,09132564	-1,0353510159378256	3	-0,0981122032	0,00112990511
2	0	0	0	0	5282,85	1,07757699	1,07788277	-1,0793541554982467	3	-0,0995405316	0,00116341724
2	0	0	1	0	5284,20	1,06407571	1,0643295	-1,1261172176649179	3	-0,101029992	0,00119855977
2	0	0	1	0	5285,55	1,05057442	1,05081654	-1,178605408097308	3	-0,102585919	0,00123849802
2	0	0	0	0	5286,90	1,03707314	1,03706288	-1,2365528621400426	3	-0,104216531	0,00128238311
2	0	0	0	0	5288,25	1,02357173	1,02363002	-1,3021724494174123	3	-0,105930179	0,00133294286
2	0	0	1	0	5289,60	1,01007056	1,01029742	-1,3773313360288739	3	-0,107738815	0,00139151432
2	0	0	0	0	5290,96	0,996569395	0,996934712	-1,4640581638862707	3	-0,109656706	0,00145957037
2	0	0	0	0	5292,31	0,983068228	0,983481705	-1,5642272854844742	3	-0,111700572	0,0015383889
2	0	0	1	0	5293,66	0,969566822	0,969998717	-1,6806521285325334	3	-0,113891281	0,00163023046
2	0	0	0	0	5295,01	0,956065655	0,956555784	-1,8155314556012563	3	-0,11625091	0,00173665711
2	0	0	0	0	5296,36	0,942564368	0,942681789	-1,9687947680552752	3	-0,118804581	0,00185594696
2	0	0	1	0	5297,71	0,929063082	0,92930913	-2,1419484559446515	3	-0,121579021	0,00199053227
2	0	0	1	0	5299,06	0,915561855	0,915946484	-2,3353795967996173	3	-0,12460047	0,00213908264
2	0	0	0	0	5300,41	0,902060568	0,902042389	-2,5488340388983629	3	-0,127897188	0,00229915627
2	0	0	1	0	5301,76	0,888559282	0,888910294	-2,783724792922529	3	-0,131496638	0,00247448171
2	0	0	1	0	5303,11	0,875058115	0,875246882	-3,0355808654179226	3	-0,135423973	0,00265688263
2	0	0	0	0	5304,46	0,861556828	0,861433029	-3,3065294610957421	3	-0,139704883	0,0028483537
2	0	0	1	0	5305,81	0,848055482	0,848180592	-3,5987208796044288	3	-0,144365489	0,00305236527
2	0	0	1	0	5307,16	0,834554315	0,834747732	-3,9179297586281978	3	-0,149437696	0,00327048288
2	0	0	0	0	5308,51	0,821052909	0,821284831	-4,262822131315865	3	-0,154959276	0,00350099127
2	0	0	1	0	5309,86	0,807551742	0,807851911	-4,6271055986483917	3	-0,160960943	0,00373801612
2	0	0	1	0	5311,21	0,794050515	0,794449031	-4,9980820852021498	3	-0,167458922	0,00397072127
2	0	0	0	0	5312,56	0,780549288	0,780635357	-5,365992010881495	3	-0,174458101	0,00418888312
2	0	0	0	0	5313,91	0,767048001	0,767302692	-5,7274719700217248	3	-0,181949183	0,00439470448
2	0	0	1	0	5315,26	0,753546774	0,753749549	-6,0773133871456013	3	-0,189921468	0,00458077202
2	0	0	0	0	5316,61	0,740045488	0,740156293	-6,416055326660512	3	-0,198359817	0,00474888366
2	0	0	0	0	5317,96	0,726544201	0,726763487	-6,7446130787332954	3	-0,207246915	0,00490173837
2	0	0	1	0	5319,31	0,713042974	0,713330626	-7,0635313913226086	3	-0,21657224	0,00503863348
2	0	0	0	0	5320,66	0,699541688	0,699647188	-7,3701869174838285	3	-0,226319432	0,00515653053
2	0	0	0	0	5322,01	0,686040461	0,686314523	-7,6611281583706586	3	-0,236469299	0,00525794365
2	0	0	1	0	5323,36	0,672539175	0,672831535	-7,9385668213168973	3	-0,2470043	0,00534131797
2	0	0	1	0	5324,71	0,659037888	0,659408689	-8,1969749554991578	3	-0,257899433	0,00540515641
2	0	0	0	0	5326,06	0,645536661	0,645675123	-8,4466940263907584	3	-0,269138426	0,00545382034
2	0	0	1	0	5327,41	0,632035434	0,632252216	-8,6845619430144013	3	-0,280706704	0,00549083343
2	0	0	1	0	5328,76	0,618534207	0,618628919	-8,9108178441723277	3	-0,292587221	0,00551248947
2	0	0	0	0	5330,11	0,605032861	0,605346382	-9,1334735825657843	3	-0,304771066	0,00552891521
2	0	0	1	0	5331,46	0,591531575	0,591602743	-9,3556522130966477	3	-0,317256033	0,00553482957
2	0	0	1	0	5332,81	0,578030348	0,57828021	-9,5789883782466061	3	-0,330036819	0,0055393395
2	0	0	0	0	5334,16	0,564529061	0,564727008	-9,8099240288138458	3	-0,343127042	0,00553992903
2	0	0	0	0	5335,54	0,550728559	0,550853908	-10,041995173746088	3	-0,356830329	0,00553167239
2	0	0	1	0	5336,89	0,537226558	0,537189603	-10,279636144638032	3	-0,370551169	0,00552211376
2	0	0	0	0	5338,24	0,523725271	0,524047494	-10,520598093668638	3	-0,384593487	0,0055132932
2	0	0	0	0	5339,59	0,510224044	0,510424137	-10,743728011846542	3	-0,39895013	0,00548385829
2	1	0	1	0	5340,89	0,502823353	0,503346801	-10,801903031766414	3	-0,413036823	0,00543710357
2	1	0	0	0	5342,24	0,51632458	0,516398728	-10,331684393187344	3	-0,427303791	0,00533526856
2	1	0	1	0	5343,59	0,529825628	0,5299927	-9,8727319811743258	3	-0,440939695	0,0052324757
2	1	0	1	0	5344,94	0,543327153	0,543324649	-9,4249516551693235	3	-0,453961521	0,00512080872
2	1	0	0	0	5346,29	0,55682838	0,556937873	-8,9976856485008909	3	-0,466396213	0,00501115201
2	1	0	0	0	5347,64	0,570329607	0,570631444	-8,5898320774237504	3	-0,478265524	0,00490162848
2	1	0	1	0	5348,99	0,583830893	0,584314942	-8,1919845491647718	3	-0,489588767	0,00478669908
2	1	0	0	0	5350,34	0,59733218	0,597707689	-7,8058426032463616	3	-0,500386715	0,00466561224
2	1	0	0	0	5351,69	0,610833406	0,611180663	-7,434675174454839	3	-0,510670483	0,00454392983
2	1	0	1	0	5353,04	0,624334693	0,624553382	-7,0791842639446118	3	-0,520466089	0,00442132866
2	1	0	0	0	5354,39	0,63783592	0,637926161	-6,7379924232761114	3	-0,529791176	0,00429834146
2	1	0	0	0	5355,74	0,651337266	0,651599646	-6,4049646928906445	3	-0,538660407	0,00417347252
2	1	0	1	0	5357,09	0,664838493	0,665202916	-6,0886768425504486	3	-0,547093213	0,00405020546
2	1	0	1	0	5358,44	0,67833972	0,678415239	-5,7788115230699405	3	-0,555100918	0,00392043358
2	1	0	0	0	5359,79	0,691840947	0,692098677	-5,4882561005652237	3	-0,562703133	0,00379841472
2	1	0	1	0	5361,14	0,705342233	0,705421329	-5,2075542397797178	3	-0,569919527	0,00367351994
2	1	0	1	0	5362,53	0,719243526	0,71931529	-4,938884243369111	3	-0,576961935	0,00355261494
2	1	0	0	0	5363,88	0,732744813	0,73294872	-4,6758164900044717	3	-0,583450377	0,00342713366
2	1	0	1	0	5365,23	0,74624604	0,746551991	-4,4266633428633107	3	-0,589592874	0,00330473436
2	1	0	1	0	5366,58	0,759747326	0,760004818	-4,1862439115842278	3	-0,595402896	0,00318156555
2	1	0	0	0	5367,93	0,773248553	0,773618221	-3,95280438661576	3	-0,600894392	0,00305796159
2	1	0	0	0	5369,28	0,786750078	0,78688091	-3,7286855521378042	3	-0,606076658	0,00293403142
2	1	0	1	0	5370,63	0,800251067	0,800644279	-3,5134576645990163	3	-0,610962927	0,0028130298
2	1	0	0	0	5371,98	0,813752294	0,814077139	-3,3063222691416813	3	-0,615563929	0,0026916014
2	1	0	0	0	5373,33	0,82725358	0,827580214	-3,1071000322699565	3	-0,619890213	0,00257137441
2	1	0	1	0	5374,68	0,840754867	0,841123283	-2,9158174842596064	3	-0,623954594	0,00245256186
2	1	0	0	0	5376,03	0,854256094	0,854325652	-2,7320600003004074	3	-0,627766311	0,00233406899
2	1	0	0	0	5377,38	0,86775738	0,868079305	-2,5547614302486218	3	-0,631332815	0,00221773563
2	1	0	1	0	5378,73	0,881258667	0,88141197	-2,386142728229368	3	-0,634666324	0,0021031748
2	1	0	0	0	5380,08	0,894759834	0,89524579	-2,2234826652954	3	-0,637776196	0,00199056347
2	1	0	0	0	5381,43	0,90826124	0,908377945	-2,0671817914893254	3	-0,640669942	0,0018777824
2	1	0	1	0	5382,78	0,921762407	0,921931088	-1,9182656668126618	3	-0,643358469	0,00176850881
2	1	0	1	0	5384,13	0,935263634	0,935584545	-1,775476051494479	3	-0,645849466	0,00166110799
2	1	0	0	0	5385,48	0,94876498	0,949117601	-1,6398472742487997	3	-0,648152709	0,00155640789
2	1	0	1	0	5386,83	0,962266207	0,96263063	-1,5102203721180595	3	-0,650277257	0,00145378441
2	1	0	1	0	5388,18	0,975767374	0,976384401	-1,3852988071739709	3	-0,652229726	0,00135258411
2	1	0	0	0	5389,53	0,98926872	0,989566624	-1,267307511220376	3	-0,654018283	0,00125408522
2	1	0	1	0	5390,88	1,00276995	1,00287914	-1,1535951786984989	3	-0,655650914	0,00115691649
2	1	0	1	0	5392,23	1,01627111	1,016693	-1,0464715175330638	3	-0,657134295	0,00106394023
2	1	0	0	0	5393,59	1,0297724	1,03004575	-0,94331840487818214	3	-0,658476174	0,000971661124
2	1	0	0	0	5394,94	1,04327285	1,04337776	-0,84534887038850931	3	-0,659682274	0,000882018183
2	1	0	1	0	5396,29	1,05677497	1,0570116	-0,75166545140867674	3	-0,660758853	0,000794519088
2	1	0	0	0	5397,64	1,07027626	1,07044446	-0,66215775658687014	3	-0,661711931	0,000708803127
2	1	0	0	0	5398,99	1,08377755	1,084108	-0,57692067511379891	3	-0,662546992	0,000625444343
2	1	0	1	0	5400,36	1,09747875	1,09773624	-0,49456781816358483	3	-0,663279593	0,000542905007
2	1	0	0	0	5401,73	1,11117995	1,11149502	-0,41664602095261216	3	-0,663903117	0,000463099976
2	1	0	0	0	5403,08	1,12468123	1,12504816	-0,34309649001806886	3	-0,664414465	0,000386000087
2	1	0	1	0	5404,43	1,13818252	1,13859129	-0,27298580901697277	3	-0,664828718	0,000310819276
2	1	0	0	0	5405,78	1,15168381	1,1521343	-0,20573906002876675	3	-0,665150344	0,000237039028
2	1	0	0	0	5407,13	1,16518521	1,16543686	-0,1422309282158192	3	-0,665383875	0,000165761172
2	1	0	1	0	5408,48	1,17868638	1,1791805	-0,081706875896392026	3	-0,665533721	9,63471539E-005
2	1	0	1	0	5409,87	1,19258761	1,19279397	-0,022398334006235616	3	-0,665604651	2,67165979E-005
2	1	0	0	0	5411,22	1,2060889	1,20627689	0,03274133407588441	3	-0,665596664	3,9495113E-005
2	1	0	1	0	5412,57	1,21959019	1,2199403	0,08515119294558327	3	-0,665516138	0,000103879371
2	1	0	1	0	5413,96	1,23349142	1,23387444	0,13679182517807909	3	-0,665360987	0,000168783939
2	1	0	0	0	5415,31	1,24699259	1,2474277	0,18460606069614426	3	-0,665142953	0,00023028272
2	1	0	1	0	5416,66	1,26049387	1,26081038	0,23121176877369498	3	-0,664861321	0,00029151421
2	1	0	1	0	5418,01	1,27399528	1,27417302	0,27511225229439517	3	-0,664518535	0,00035054062
2	1	0	0	0	5419,36	1,28749645	1,28771615	0,31822178714598157	3	-0,664116979	0,000409779343
2	1	0	1	0	5420,71	1,30099773	1,30136943	0,35991892878276576	3	-0,663658202	0,000468387501
2	1	0	1	0	5422,06	1,31449902	1,31476247	0,40027643973007795	3	-0,663144231	0,000526268443
2	1	0	0	0	5423,41	1,32800031	1,3282454	0,43988437733302458	3	-0,662576199	0,000584274414
2	1	0	0	0	5424,76	1,34150171	1,34169829	0,4783785825905689	3	-0,661955595	0,000641839753
2	1	0	1	0	5426,11	1,35500276	1,35523152	0,51572568124780992	3	-0,661283612	0,000698927674
2	1	0	0	0	5427,46	1,36850405	1,36867428	0,55280352321763981	3	-0,660560966	0,000756607973
2	1	0	0	0	5428,81	1,38200521	1,38229764	0,58930430964877274	3	-0,659788966	0,000814593979
2	1	0	1	0	5430,16	1,3955065	1,39588082	0,62545599198589491	3	-0,658967733	0,000873062003
2	1	0	0	0	5431,51	1,40900779	1,40912318	0,66116030529762253	3	-0,658098042	0,000931656337
2	1	0	0	0	5432,86	1,42250907	1,42274666	0,69712294188017766	3	-0,657180011	0,000991829322
2	1	0	1	0	5434,21	1,43601036	1,43627977	0,73262022544319283	3	-0,65621376	0,00105224759
2	1	0	1	0	5435,56	1,44951236	1,44993341	0,76851523607178598	3	-0,655199528	0,00111429591
2	1	0	0	0	5436,91	1,46301293	1,46333587	0,80376370282222707	3	-0,654137433	0,00117617624
2	1	0	1	0	5438,26	1,47651422	1,47673869	0,83979608646283661	3	-0,653026998	0,00124015938
2	1	0	1	0	5439,61	1,49001539	1,49043226	0,87582488389064755	3	-0,651868343	0,00130535767
2	1	0	0	0	5440,96	1,50351655	1,50380492	0,91230656020343309	3	-0,650660396	0,00137193105
2	1	0	1	0	5442,31	1,51701796	1,5171777	0,94913716086496704	3	-0,649402976	0,00144000968
2	1	0	1	0	5443,66	1,53051913	1,5308311	0,98615608364343821	3	-0,648095906	0,00150963839
2	1	0	0	0	5445,04	1,54432046	1,5444845	1,0260869478806835	3	-0,646706223	0,0015847754
2	1	0	1	0	5446,39	1,55782187	1,55803764	1,0641803775603566	3	-0,645294368	0,00165803311
2	1	0	1	0	5447,74	1,57132292	1,57163084	1,1031560515984858	3	-0,643830955	0,00173375406
2	1	0	0	0	5449,09	1,58482432	1,58483326	1,1428409858296301	3	-0,642314076	0,00181121239
2	1	0	0	0	5450,44	1,59832537	1,59827614	1,1830937567477413	3	-0,640743256	0,00189091056
2	1	0	1	0	5451,79	1,61182666	1,61187947	1,2239592466503382	3	-0,639117122	0,00197287486
2	1	0	0	0	5453,14	1,62532794	1,62564301	1,2664089494695237	3	-0,63743484	0,00205872883
2	1	0	0	0	5454,49	1,63882923	1,6389457	1,3086787303909642	3	-0,635695994	0,00214485335
2	1	0	1	0	5455,84	1,65233052	1,65252888	1,3524257742489283	3	-0,633898556	0,00223492272
2	1	0	0	0	5457,19	1,66583169	1,66597188	1,3971919873729312	3	-0,632041395	0,00232768245
2	1	0	0	0	5458,54	1,67933309	1,67972553	1,442562372423712	3	-0,630123675	0,00242310879
2	1	0	1	0	5459,89	1,69283426	1,69289756	1,4893565584594944	3	-0,628143549	0,00252132816
2	1	0	1	0	5461,24	1,70633566	1,70654106	1,5366476597264355	3	-0,626100183	0,00262235221
2	1	0	0	0	5462,59	1,71983659	1,71995378	1,5850843787193264	3	-0,623991787	0,00272627175
2	1	0	1	0	5463,94	1,733338	1,73346698	1,6340631910910163	3	-0,621817708	0,00283259456
2	1	0	1	0	5465,29	1,74683928	1,74713039	1,6845065721621069	3	-0,61957705	0,00294305268
2	1	0	0	0	5466,64	1,76034057	1,76068354	1,7362198450912986	3	-0,617267013	0,00305693364
2	1	0	1	0	5467,99	1,77384186	1,77397609	1,7881125851223773	3	-0,614887238	0,00317206886
2	1	0	1	0	5469,34	1,78734303	1,78766954	1,841682114327945	3	-0,612436354	0,00329231913
2	1	0	0	0	5470,69	1,80084443	1,80104244	1,8963241123904736	3	-0,609912455	0,00341536012
2	1	0	1	0	5472,04	1,8143456	1,81455529	1,9526156963159699	3	-0,607313216	0,00354312919
2	1	0	1	0	5473,39	1,827847	1,82816863	2,0093432329595018	3	-0,604638398	0,00367341819
2	1	0	0	0	5474,74	1,84134817	1,84163165	2,0676068787773366	3	-0,60188508	0,00380777032
2	1	0	0	0	5476,09	1,85484934	1,85500431	2,1265513319522106	3	-0,599052727	0,00394476205
2	1	0	1	0	5477,44	1,86835051	1,86855745	2,1862880724171808	3	-0,596140206	0,00408520503
2	1	0	0	0	5478,79	1,88185191	1,882231	2,2469143941998518	3	-0,593146086	0,00422921171
2	1	0	0	0	5480,14	1,8953532	1,89547324	2,3087542895227741	3	-0,590070188	0,00437618187
2	1	0	1	0	5481,49	1,90885448	1,90907669	2,3719712843497619	3	-0,586909056	0,00452827523
2	1	0	0	0	5482,84	1,92235577	1,92243934	2,4369578237334874	3	-0,583661556	0,00468490366
2	1	0	0	0	5484,19	1,93585694	1,93607259	2,502864656969905	3	-0,580326557	0,0048457277
2	1	0	1	0	5485,54	1,94935834	1,94959581	2,5679294212410822	3	-0,57690239	0,00500642462
2	1	0	1	0	5486,89	1,96285951	1,96320915	2,6349747801820342	3	-0,573389113	0,00517300656
2	1	0	0	0	5488,24	1,97636068	1,97669208	2,7024518704662698	3	-0,569785237	0,00534191541
2	1	0	1	0	5489,59	1,98986185	1,99013495	2,768996788188808	3	-0,56609118	0,00551067712
2	1	0	1	0	5490,94	2,00336313	2,00347781	2,8368857211122922	3	-0,562306106	0,00568363769
2	1	0	0	0	5492,29	2,01686454	2,01708102	2,9042255344490189	3	-0,558429599	0,00585805811
2	1	0	1	0	5493,64	2,03036571	2,03053379	2,9730131688217261	3	-0,554460943	0,00603680359
2	1	0	1	0	5494,99	2,04386711	2,04436779	3,0392270864297901	3	-0,550400913	0,00621329807
2	1	0	0	0	5496,34	2,05736828	2,05784082	3,1069610590736045	3	-0,546250522	0,00639363145
2	1	0	0	0	5497,69	2,07086921	2,07118225	3,1730106947877344	3	-0,542010605	0,00657188334
2	1	0	1	0	5499,04	2,08437085	2,08476639	3,2388068884610989	3	-0,537680984	0,00675215572
2	1	0	0	0	5500,40	2,09787226	2,09808922	3,3061818617085523	3	-0,533261538	0,00693666469
2	1	0	0	0	5501,75	2,11137319	2,11180258	3,3682783246040346	3	-0,528755486	0,00711313868
2	1	0	1	0	5503,10	2,12487459	2,12517548	3,4281148202717306	3	-0,524164915	0,00728534535
2	1	0	0	0	5504,45	2,138376	2,13862824	3,4857394235829382	3	-0,519495964	0,00745470077
2	1	0	0	0	5505,80	2,15187716	2,1522615	3,5380242764949658	3	-0,514754295	0,00761475321
2	1	0	1	0	5507,15	2,16537833	2,16550398	3,5850455189744646	3	-0,509943962	0,00776343048
2	1	0	0	0	5508,50	2,1788795	2,17905712	3,6278150640428064	3	-0,505072534	0,00790521596
2	1	0	0	0	5509,85	2,19238067	2,1926105	3,6611386040846413	3	-0,500150979	0,00802745111
2	1	0	1	0	5511,20	2,20588207	2,20607328	3,6863609254360198	3	-0,495188683	0,0081323823
2	1	0	1	0	5512,55	2,21938324	2,21974683	3,7013852459688966	3	-0,490199268	0,008216138
2	1	0	0	0	5513,90	2,23288441	2,23325992	3,7032434033850733	3	-0,4851982	0,00827030465
2	1	0	1	0	5515,25	2,24638581	2,24675274	3,6899408847093478	3	-0,480205089	0,0082903849
2	1	0	1	0	5516,60	2,25988722	2,26023602	3,6587206597129408	3	-0,475242764	0,00826957263
2	1	0	0	0	5517,95	2,27338862	2,27355862	3,6098886777957235	3	-0,47033295	0,00820729323
2	1	0	1	0	5519,30	2,28688955	2,28719187	3,5547438301146029	3	-0,465490878	0,00813038088
2	1	0	1	0	5520,65	2,30039096	2,30068469	3,4675034731626438	3	-0,460747629	0,00797763187
2	1	0	0	0	5522,00	2,31389213	2,31413794	3,362619852026304	3	-0,45613426	0,00778156612
2	1	0	0	0	5523,35	2,32739282	2,32760072	3,237451601937625	3	-0,451676965	0,00753549486
2	1	0	1	0	5524,70	2,3408947	2,34096336	3,0902546929816384	3	-0,447401315	0,0072341729
2	1	0	0	0	5526,05	2,35439587	2,35447645	2,9226289130747315	3	-0,443338245	0,00688126078
2	1	0	0	0	5527,40	2,36789727	2,36805987	2,728714310874551	3	-0,43952024	0,0064617591
2	1	0	1	0	5528,75	2,38139844	2,38143229	2,5122256924708707	3	-0,435979366	0,00598269561
2	1	0	0	0	5530,10	2,39490008	2,39507604	2,2784900888800586	3	-0,432743877	0,0054571568
2	1	0	0	0	5531,45	2,40840101	2,40875936	2,0484201870858678	3	-0,429825336	0,00493415119
2	1	0	1	0	5532,80	2,42190218	2,42221236	1,8577013276517392	3	-0,427194178	0,00449974695
2	1	0	0	0	5534,15	2,43540287	2,43565297	1,7237535787547043	3	-0,424782455	0,0041984655
2	1	0	0	0	5535,50	2,44890499	2,44905806	1,6412062173088346	3	-0,422515243	0,00401940942
2	1	0	1	0	5536,85	2,46240616	2,46262121	1,5958806791653117	3	-0,420332789	0,00393004948
2	1	0	1	0	5538,20	2,47590733	2,47625446	1,5769158266484736	3	-0,418192983	0,00390484487
2	1	0	0	0	5539,55	2,48940849	2,489537	1,5770783939709219	3	-0,416065097	0,0039261952
2	1	0	1	0	5540,90	2,50290966	2,50316024	1,5915780775249005	3	-0,413926542	0,00398397492
2	1	0	1	0	5542,25	2,51641107	2,51672339	1,6173485176016874	3	-0,411761075	0,00407041889
2	1	0	0	0	5543,60	2,52991223	2,53020644	1,6530623640865069	3	-0,409553677	0,00418258924
2	1	0	1	0	5544,95	2,54341364	2,54346895	1,6984141382078307	3	-0,407291442	0,00431986386
2	1	0	1	0	5546,30	2,55691481	2,55708241	1,7509721840421264	3	-0,404963493	0,00447738031
2	1	0	0	0	5547,65	2,57041621	2,57071567	1,8116082244863082	3	-0,402558327	0,00465712976
2	1	0	0	0	5549,00	2,58391738	2,58414865	1,8788392897695267	3	-0,400067121	0,00485520018
2	1	0	1	0	5550,35	2,59741879	2,59768176	1,952576980615648	3	-0,397480428	0,00507217366
2	1	0	0	0	5551,70	2,61091995	2,6112349	2,0327532732238288	3	-0,394789577	0,00530799618
2	1	0	0	0	5553,05	2,62442136	2,6246376	2,1152381375431942	3	-0,39198935	0,00555173354
2	1	0	1	0	5554,40	2,63792253	2,63840127	2,2018472695102282	3	-0,389074177	0,00580935646
2	1	0	0	0	5555,75	2,65142369	2,65162396	2,2903366939475162	3	-0,38604039	0,00607311167
2	1	0	0	0	5557,10	2,66492486	2,6651969	2,3801287865887062	3	-0,38288644	0,00634351186
2	1	0	1	0	5558,45	2,67842603	2,67851949	2,4706704678634742	3	-0,379610926	0,00661773887
2	1	0	1	0	5559,80	2,69192696	2,6920414	2,5582633071226262	3	-0,376215637	0,00688695069
2	1	0	0	0	5561,15	2,7054286	2,70585632	2,6450156352172202	3	-0,372701854	0,00715703238
2	1	0	1	0	5562,50	2,71893001	2,71904874	2,7296363456795731	3	-0,369072318	0,00742201414
2	1	0	1	0	5563,85	2,73243117	2,73272204	2,8116415105760061	3	-0,365331024	0,00768343452
2	1	0	0	0	5565,20	2,74593258	2,74610496	2,8912746682763085	3	-0,361481547	0,00793974381
2	1	0	1	0	5566,55	2,75943398	2,7594173	2,9648974165320326	3	-0,357526839	0,00818138942
2	1	0	1	0	5567,90	2,77293491	2,77335143	3,0364803721507341	3	-0,353474796	0,00842122734
2	1	0	0	0	5569,25	2,78643632	2,78679466	3,1006961241364442	3	-0,349330127	0,00864100363
2	1	0	1	0	5570,60	2,79993749	2,8001771	3,1610045731067642	3	-0,345101982	0,00885137264
2	1	0	1	0	5571,95	2,81343865	2,81365037	3,2175137648979872	3	-0,340794981	0,00905295834
2	1	0	0	0	5573,30	2,82694006	2,82713318	3,2668884682158675	3	-0,336416572	0,00923592877
2	1	0	0	0	5574,65	2,84044147	2,8404758	3,3118835687637261	3	-0,33197543	0,00940732472
2	1	0	1	0	5576,00	2,85394263	2,85393858	3,3537011072039558	3	-0,327475697	0,00957125705
2	1	0	0	0	5577,35	2,8674438	2,86768246	3,3892260851959437	3	-0,322922558	0,00971922465
2	1	0	0	0	5578,70	2,88094521	2,88113523	3,418085572620224	3	-0,318325996	0,00984796695
2	1	0	1	0	5580,05	2,89444637	2,89464831	3,4437625594437069	3	-0,313691258	0,00996848103
2	1	0	0	0	5581,40	2,90794754	2,90824151	3,4619966993729248	3	-0,309027702	0,0100683225
2	1	0	0	0	5582,75	2,92144895	2,92182493	3,475707211842135	3	-0,304343581	0,0101554077
2	1	0	1	0	5584,10	2,93495035	2,93511748	3,481283118327447	3	-0,299645156	0,0102179749
2	1	0	0	0	5585,45	2,94845247	2,94884109	3,4844014046464198	3	-0,294941217	0,0102749458
2	1	0	0	0	5586,80	2,96195269	2,96216345	3,4842621311545229	3	-0,290235937	0,010320954
2	1	0	1	0	5588,15	2,97545385	2,97553611	3,4767595740655962	3	-0,285536438	0,0103452234
2	1	0	1	0	5589,50	2,98895502	2,98903918	3,4625412461658342	3	-0,280852079	0,0103496714
2	1	0	0	0	5590,85	3,00245643	3,00268269	3,4482197314500845	3	-0,276184261	0,0103539098
2	1	0	1	0	5592,20	3,01595759	3,01600528	3,4283049652973786	3	-0,27154085	0,0103397863
2	1	0	1	0	5593,55	3,029459	3,02955842	3,4039625898003526	3	-0,266928017	0,0103125032
2	1	0	0	0	5594,90	3,04296017	3,04307151	3,3765085811416211	3	-0,26235047	0,0102749569
2	1	0	1	0	5596,25	3,05646157	3,05653453	3,3433340645333088	3	-0,257812321	0,0102190161
2	1	0	1	0	5597,60	3,06996274	3,07035851	3,3114430122077466	3	-0,253320277	0,0101673175
2	1	0	0	0	5598,95	3,08346391	3,08356071	3,2727069159348685	3	-0,248875603	0,0100915907
2	1	0	0	0	5600,30	3,09696531	3,09724402	3,2336761231223789	3	-0,244482085	0,0100154839
2	1	0	1	0	5601,65	3,11046648	3,11079741	3,1915920736889018	3	-0,240142956	0,00992839597
2	1	0	0	0	5603,00	3,12396789	3,12409997	3,1507289620737248	3	-0,235859707	0,00984319206
2	1	0	0	0	5604,35	3,13746881	3,13731194	3,1075283829122714	3	-0,231634676	0,00974928588
2	1	0	1	0	5605,70	3,15096998	3,15099525	3,0616481658071206	3	-0,227468595	0,009647239
2	1	0	0	0	5607,06	3,16447163	3,16456842	3,0151288540413005	3	-0,223365963	0,00954158138
2	1	0	0	0	5608,41	3,17797279	3,17811203	2,9652773644775078	3	-0,219328672	0,00942398328
2	1	0	1	0	5609,76	3,19147396	3,19175529	2,9146048283825293	3	-0,215357542	0,00930270553
2	1	0	0	0	5611,11	3,20497513	3,20507789	2,8578759102771584	3	-0,211460963	0,00915971491
2	1	0	0	0	5612,46	3,2184763	3,21873116	2,7974096058557338	3	-0,207642823	0,00900410954
2	1	0	1	0	5613,81	3,23197746	3,23220396	2,7363304185370653	3	-0,203905672	0,0088443784
2	1	0	1	0	5615,16	3,24547839	3,24553585	2,6712253641531482	3	-0,200254276	0,00866955798
2	1	0	0	0	5616,51	3,25898027	3,25933099	2,6025971658527709	3	-0,19669345	0,00848272536
2	1	0	1	0	5617,86	3,27248144	3,27265334	2,5318304914981091	3	-0,193225458	0,00828580372
2	1	0	1	0	5619,21	3,28598261	3,28606582	2,4592956844717194	3	-0,189855933	0,00808140729
2	1	0	0	0	5620,56	3,29948401	3,2996192	2,3817827316621952	3	-0,186587214	0,00785897579
2	1	0	1	0	5621,91	3,31298542	3,31285167	2,302160580332071	3	-0,183424205	0,00762671651
2	1	0	1	0	5623,26	3,32648635	3,32653522	2,2218174338340688	3	-0,180369675	0,00739095407
2	1	0	0	0	5624,61	3,33998799	3,34013844	2,141900009786088	3	-0,177422658	0,0071542426
2	1	0	1	0	5625,96	3,35348845	3,3536613	2,0614602030502029	3	-0,174584255	0,00691343937
2	1	0	1	0	5627,31	3,36699033	3,36711431	1,9854997663448301	3	-0,171851218	0,00668540457
2	1	0	0	0	5628,66	3,3804915	3,38069797	1,9121126917501261	3	-0,169220045	0,00646427553
2	1	0	0	0	5630,01	3,39399266	3,3942709	1,8432275752226525	3	-0,166684911	0,00625641365
2	1	0	1	0	5631,36	3,40749431	3,40756345	1,77970405916372	3	-0,164239004	0,00606445456
2	1	0	0	0	5632,71	3,42099547	3,42124653	1,7210098865131514	3	-0,16187562	0,0058879992
2	1	0	0	0	5634,06	3,43449664	3,43466997	1,6681099999696006	3	-0,159587801	0,00572940754
2	1	0	1	0	5635,41	3,44799781	3,44839334	1,6214195887247699	3	-0,157366842	0,0055912924
2	1	0	0	0	5636,76	3,46149898	3,46174598	1,5794195656975062	3	-0,155205697	0,00546754943
2	1	0	0	0	5638,11	3,47500062	3,47502851	1,5422774388765283	3	-0,153098702	0,00535945827
2	1	0	1	0	5639,46	3,48850179	3,4887023	1,508813143397369	3	-0,151039004	0,0052637998
2	1	0	1	0	5640,81	3,50200367	3,50219536	1,479384910138087	3	-0,149021879	0,0051810951
2	1	0	0	0	5642,16	3,51550412	3,51561785	1,4538261927664275	3	-0,147041455	0,00511109736
2	1	0	1	0	5643,51	3,52900529	3,52895069	1,4317530834426435	3	-0,145093381	0,00505258609
2	1	0	1	0	5644,86	3,54250693	3,54286456	1,4133776370435936	3	-0,143172741	0,00500740577
2	1	0	0	0	5646,21	3,5560081	3,55638766	1,3978408869976792	3	-0,141274825	0,00497126393
2	1	0	1	0	5647,56	3,56950903	3,56967998	1,3843257026746834	3	-0,139396191	0,00494159991
2	1	0	1	0	5648,91	3,58301044	3,58318329	1,3741436830411296	3	-0,137533501	0,00492380885
2	1	0	0	0	5650,26	3,59651184	3,5966258	1,3671393621092029	3	-0,135682255	0,0049170889
2	1	0	0	0	5651,61	3,61001301	3,61028028	1,3624339129846304	3	-0,13383916	0,00491876807
2	1	0	1	0	5652,96	3,62351418	3,62361217	1,3605135440205541	3	-0,132000491	0,00492997328
2	1	0	0	0	5654,31	3,63701534	3,6373055	1,3603671668097358	3	-0,130162969	0,0049480712
2	1	0	0	0	5655,66	3,65051699	3,65077853	1,3634262348835691	3	-0,128323689	0,00497756712
2	1	0	1	0	5657,01	3,66401815	3,66385055	1,3685434075693266	3	-0,126478627	0,0050141383
2	1	0	0	0	5658,36	3,67751932	3,6774838	1,3740820006156938	3	-0,124626324	0,00505316444
2	1	0	0	0	5659,71	3,69102049	3,69129777	1,3815591720243248	3	-0,122765556	0,0050997464
2	1	0	1	0	5661,06	3,70452166	3,70471048	1,389474062249059	3	-0,120894231	0,00514759915
2	1	0	0	0	5662,41	3,7180233	3,71804309	1,3977327626198512	3	-0,119011872	0,00519683072
2	1	0	0	0	5663,76	3,73152447	3,73164654	1,4065134394913894	3	-0,117118098	0,00524861086
2	1	0	1	0	5665,11	3,74502563	3,74514961	1,4162540330241109	3	-0,115211785	0,00530408323
2	1	0	1	0	5666,46	3,7585268	3,75891328	1,4260812572514005	3	-0,113292687	0,00536051579
2	1	0	0	0	5667,81	3,77202797	3,77223587	1,4362257483104824	3	-0,11135985	0,00541778235
2	1	0	1	0	5669,16	3,78552961	3,78590918	1,4474959249297779	3	-0,109412439	0,00548008829
2	1	0	1	0	5670,51	3,79903078	3,79919171	1,4597144580135718	3	-0,107449651	0,00554573489
2	1	0	0	0	5671,86	3,81253195	3,81274509	1,4720213537414858	3	-0,10546957	0,00561244227
2	1	0	1	0	5673,21	3,82603312	3,82596731	1,4870459930971274	3	-0,103470944	0,00568938954
2	1	0	1	0	5674,56	3,83953452	3,83952069	1,5026088204855661	3	-0,101452164	0,00576929748
2	1	0	0	0	5675,91	3,85303593	3,85306358	1,519975422881543	3	-0,0994106084	0,00585656194
2	1	0	0	0	5677,26	3,86653638	3,86672759	1,5386533787857357	3	-0,0973452479	0,00594955357
2	1	0	1	0	5678,61	3,88003802	3,88010979	1,5592698281009946	3	-0,0952531621	0,00605013827
2	1	0	0	0	5679,96	3,89353967	3,89372325	1,5807366824398416	3	-0,0931326076	0,00615495117
2	1	0	0	0	5681,31	3,90704083	3,90712619	1,6047134740898982	3	-0,090981707	0,00626981817
2	1	0	1	0	5682,66	3,920542	3,92064881	1,629623272766665	3	-0,0887976512	0,00638918066
2	1	0	0	0	5684,01	3,93404317	3,93429232	1,6570982833703357	3	-0,0865781903	0,00651950901
2	1	0	0	0	5685,36	3,94754434	3,94788599	1,6864907698084909	3	-0,0843208283	0,00665807351
2	1	0	1	0	5686,71	3,96104598	3,96113801	1,7177091911435082	3	-0,0820218623	0,00680408301
2	1	0	0	0	5688,06	3,97454643	3,97452044	1,7529132770571536	3	-0,0796782672	0,00696698949
2	1	0	0	0	5689,41	3,98804832	3,98809385	1,7899530294040781	3	-0,0772864372	0,00713850046
2	1	0	1	0	5690,76	4,00154924	4,00167704	1,8301451516648086	3	-0,0748422742	0,00732364971
2	1	0	1	0	5692,11	4,01504993	4,01528883	1,8728400113545405	3	-0,072342515	0,00751999347
2	1	0	0	0	5693,46	4,02855206	4,02888393	1,9199583176523446	3	-0,0697815642	0,00773528917
2	1	0	1	0	5694,81	4,04205322	4,04232645	1,9708674717694413	3	-0,0671545416	0,00796689
2	1	0	1	0	5696,16	4,05555439	4,05565929	2,02544121009608	3	-0,0644567311	0,0082144998
2	1	0	0	0	5697,51	4,06905556	4,06920242	2,0837599306056874	3	-0,061681807	0,00847924128
2	1	0	1	0	5698,86	4,0825572	4,08278561	2,1466987306872998	3	-0,0588251576	0,00876451097
2	1	0	1	0	5700,21	4,09605837	4,09617805	2,2142372795691117	3	-0,0558806583	0,00906991027
2	1	0	0	0	5701,56	4,10955954	4,10977173	2,2851073158283946	3	-0,0528426357	0,00939126965
2	1	0	1	0	5702,91	4,12306213	4,12311459	2,3605513850335597	3	-0,0497058965	0,00973282382
2	1	0	1	0	5704,26	4,13656235	4,13678789	2,4402320353935139	3	-0,0464647301	0,0100947227
2	1	0	0	0	5705,61	4,15006351	4,15013027	2,524157799780376	3	-0,0431122221	0,0104755834
2	1	0	0	0	5706,96	4,16356421	4,16380405	2,6129801887392573	3	-0,0396438725	0,0108799376
2	1	0	1	0	5708,31	4,17706585	4,17724657	2,7054675004134515	3	-0,0360525437	0,0113014048
2	1	0	0	0	5709,66	4,19056749	4,19090986	2,8040665897230285	3	-0,0323322415	0,0117515903
2	0	0	0	1	5710,94	4,19666767	4,196805	2,7920284718275069	3	-0,0287285298	0,0117175989
2	0	0	1	1	5712,29	4,1831665	4,18316126	2,5751971676945651	3	-0,0251124743	0,0107724648
2	0	0	1	1	5713,64	4,16966486	4,1699791	2,3834798776855094	3	-0,0217690133	0,00993906148
2	0	0	0	1	5714,99	4,15616369	4,15619516	2,2042696302135773	3	-0,0186749641	0,00916137453
2	0	0	1	1	5716,34	4,14266205	4,14278173	2,0370201194320429	3	-0,0158143062	0,00843892992
2	0	0	1	1	5717,69	4,12916136	4,12933969	1,878834901998431	3	-0,0131737385	0,00775834732
2	0	0	0	1	5719,04	4,11566019	4,11571598	1,7312219173957885	3	-0,0107387519	0,00712521793
2	0	0	1	1	5720,39	4,10215712	4,10230112	1,5918891942654128	3	-0,00849752221	0,00653040875
2	0	0	1	1	5721,74	4,08865738	4,08885098	1,4609338386605123	3	-0,00643914938	0,00597354071
2	0	0	0	1	5723,09	4,07515621	4,07535744	1,3377657762418203	3	-0,00455167098	0,00545187388
2	0	0	0	1	5724,44	4,06165504	4,06177425	1,2215651596585886	3	-0,00282625691	0,00496172206
2	0	0	1	1	5725,79	4,04815388	4,0482316	1,112473566705976	3	-0,0012524355	0,00450355047
2	0	0	0	1	5727,14	4,03465271	4,0348382	1,0099994338427933	3	0,000178684204	0,00407518446
2	0	0	0	1	5728,49	4,02115107	4,02124548	0,9140745007122551	3	0,00147581904	0,00367571786
2	0	0	1	1	5729,84	4,0076499	4,0079627	0,82412019092589798	3	0,00264765695	0,00330304308
2	0	0	0	1	5731,19	3,99414897	3,99405861	0,74001075513660902	3	0,00370199396	0,00295564625
2	0	0	0	1	5732,54	3,98064756	3,98082638	0,66180735174566554	3	0,00464654807	0,0026345402
2	0	0	1	1	5733,89	3,9671464	3,96723318	0,58846042553583898	3	0,00548907509	0,0023345598
2	0	0	1	1	5735,24	3,95364571	3,95385051	0,52053521436301683	3	0,00623611547	0,00205811835
2	0	0	0	1	5736,63	3,939744	3,94021702	0,45515956031158387	3	0,00691230129	0,00179342739
2	0	0	1	1	5737,98	3,92624235	3,92658353	0,39716053366040115	3	0,00748584606	0,00155948405
2	0	0	1	1	5739,33	3,91274118	3,91292048	0,34394384043601619	3	0,00798441842	0,00134582492
2	0	0	0	1	5740,68	3,89924002	3,89951706	0,29589763369100634	3	0,00841481984	0,00115385791
2	0	0	1	1	5742,03	3,88573885	3,88595414	0,25181022589094915	3	0,00878296699	0,000978522934
2	0	0	1	1	5743,38	3,87223768	3,87243104	0,21230183813410464	3	0,00909482315	0,000822124246
2	0	0	0	1	5744,73	3,85873604	3,8590281	0,17592758425356214	3	0,00935560744	0,000678909477
2	0	0	0	1	5746,08	3,84523559	3,8453753	0,14342298774312323	3	0,00957005844	0,000551515201
2	0	0	1	1	5747,43	3,8317337	3,8319118	0,11336687684524782	3	0,00974215008	0,000434411864
2	0	0	0	1	5748,78	3,81823254	3,81838894	0,085767569835297536	3	0,00987558253	0,000327493937
2	0	0	0	1	5750,13	3,80473137	3,80483556	0,060510627770175501	3	0,00997320935	0,000230232981
2	0	0	1	1	5751,52	3,7908299	3,79089189	0,035781191176890157	3	0,0100391256	0,000135642622
2	0	0	0	1	5752,87	3,77732873	3,7774384	0,013718900445383043	3	0,0100717777	5,18223023E-005
2	0	0	0	1	5754,26	3,7634275	3,76366472	-0,0079547547332670938	3	0,0100753242	2,99390304E-005
2	0	0	1	1	5755,65	3,74952626	3,74951005	-0,027762181086776304	3	0,01005009	0,000104094579
2	0	0	0	1	5757,00	3,73602462	3,73634791	-0,046169363777153248	3	0,0099995099	0,000172504806
2	0	0	0	1	5758,35	3,72252345	3,72285485	-0,063353553996421504	3	0,00992473215	0,000235856089
2	0	0	1	1	5759,70	3,70902228	3,70914149	-0,080273248720913677	3	0,00982658938	0,000297744846
2	0	0	1	1	5761,05	3,69552112	3,6958096	-0,096810681610982387	3	0,00970606785	0,000357793848
2	0	0	0	1	5762,44	3,68161964	3,68186474	-0,11245890186789165	3	0,00955969281	0,000414058479
2	0	0	1	1	5763,79	3,66811848	3,66825151	-0,12767058226745531	3	0,00939653348	0,000468327809
2	0	0	1	1	5765,14	3,65461731	3,65461802	-0,14212499337736517	3	0,00921336468	0,00051941257
2	0	0	0	1	5766,49	3,64111567	3,64132547	-0,15647810550096163	3	0,00901092216	0,000569787691
2	0	0	1	1	5767,84	3,6276145	3,62790251	-0,16992675144380608	3	0,00878979079	0,000616477686
2	0	0	1	1	5769,19	3,61411333	3,6144197	-0,18314682013199984	3	0,00855078548	0,000661969476
2	0	0	0	1	5770,54	3,60061216	3,60096645	-0,19573866808787034	3	0,00829417072	0,000704848382
2	0	0	1	1	5771,89	3,587111	3,58728313	-0,20805932092480451	3	0,00802062918	0,000746367674
2	0	0	1	1	5773,24	3,57360983	3,57397032	-0,22024618081438067	3	0,00773067633	0,000787153316
2	0	0	0	1	5774,59	3,56010818	3,56035733	-0,23172526139145104	3	0,00742482068	0,000825024734
2	0	0	0	1	5775,94	3,54660702	3,54683423	-0,2431818557282288	3	0,00710356655	0,000862525718
2	0	0	1	1	5777,29	3,53310585	3,53339148	-0,25382597263281603	3	0,00676737633	0,00089686655
2	0	0	0	1	5778,64	3,51960468	3,51987839	-0,26456237716289798	3	0,00641674642	0,000931227405
2	0	0	0	1	5779,99	3,50610352	3,50617456	-0,27472215192392467	3	0,006052176	0,000963223807
2	0	0	1	1	5781,34	3,49260187	3,49281192	-0,28426165071626518	3	0,00567404972	0,000992872519
2	0	0	0	1	5782,69	3,4791007	3,47951984	-0,2935492207761863	3	0,00528290076	0,00102141034
2	0	0	0	1	5784,04	3,46559954	3,46575594	-0,30269293021410701	3	0,00487925112	0,00104905979
2	0	0	1	1	5785,39	3,45209837	3,45237327	-0,31190606284265734	3	0,0044633178	0,00107681612
2	0	0	1	1	5786,74	3,43859792	3,43891144	-0,32018483725295341	3	0,00403582351	0,00110108731
2	0	0	0	1	5788,09	3,4250958	3,42528653	-0,3286450746624423	3	0,0035969431	0,00112570357
2	0	0	1	1	5789,44	3,41159463	3,41182375	-0,33631987481688518	3	0,00314728869	0,00114746415
2	0	0	1	1	5790,79	3,39809299	3,39809012	-0,34409884146104243	3	0,00268720137	0,00116927887
2	0	0	0	1	5792,14	3,38459182	3,38466763	-0,3513644915074121	3	0,00221702433	0,00118925201
2	0	0	1	1	5793,49	3,37109065	3,37145495	-0,35818997871441203	3	0,00173719402	0,00120762142
2	0	0	1	1	5794,84	3,35758948	3,35784173	-0,36500710474016864	3	0,00124828273	0,00122563611
2	0	0	0	1	5796,19	3,34408832	3,34426832	-0,3711531252289815	3	0,00075047533	0,00124123564
2	0	0	1	1	5797,54	3,33058739	3,33061504	-0,37765192134057114	3	0,000244234863	0,00125781319
2	0	0	1	1	5798,89	3,3170855	3,31719208	-0,38335944168890637	3	-0,000270117685	0,00127167685
2	0	0	0	1	5800,24	3,30358434	3,30378962	-0,38906446363156077	3	-0,00079218531	0,00128538709
2	0	0	0	1	5801,59	3,29008317	3,29046679	-0,39422999306892237	3	-0,00132150145	0,00129720068
2	0	0	1	1	5802,94	3,276582	3,2768333	-0,39935102205102701	3	-0,00185791613	0,0013086067
2	0	0	0	1	5804,29	3,26308084	3,26322007	-0,40419834014028397	3	-0,00240096031	0,00131898816
2	0	0	0	1	5805,64	3,24957919	3,24987769	-0,40864868539696	3	-0,0029502851	0,00132805819
2	0	0	1	1	5806,99	3,23607802	3,23620391	-0,41279095690697434	3	-0,00350566092	0,00133587571
2	0	0	0	1	5808,34	3,22257686	3,22280145	-0,4168687950198864	3	-0,00406681327	0,00134348532
2	0	0	0	1	5809,69	3,20907569	3,20923805	-0,42110538653408467	3	-0,00463326275	0,0013514274
2	0	0	1	1	5811,04	3,19557428	3,19580531	-0,42472835785399002	3	-0,00520505058	0,0013573491
2	0	0	1	1	5812,39	3,18207192	3,18228149	-0,42834607438984928	3	-0,00578171946	0,00136311783
2	0	0	0	1	5813,74	3,16857195	3,16859889	-0,43180544426043974	3	-0,00636313716	0,00136821822
2	0	0	1	1	5815,09	3,15507054	3,15525603	-0,4349167278657369	3	-0,00694908807	0,00137227366
2	0	0	1	1	5816,44	3,14156914	3,14169288	-0,43831980694085491	3	-0,00753933797	0,00137706625
2	0	0	0	1	5817,80	3,12806797	3,12842035	-0,44107823399826976	3	-0,00813363865	0,00137987814
2	0	0	1	1	5819,15	3,11456704	3,11487722	-0,44400118275856128	3	-0,0087319389	0,00138300913
2	0	0	0	1	5820,25	3,10356641	3,10400128	-0,44636935773103213	3	-0,00922193937	0,00138553104