File: Experimentelles/Rohdaten/Batteriemessungen/AlteZelle/Studenten_Batterietests/Sonstige/ZView-Export/LiCoO2 vs Li_05_GCPL_C01_loop2.txt
EC-Lab ASCII FILE
Nb header lines : 3
mode	ox/red	error	control changes	Ns changes	counter inc.	Ns	time/s	control/V/mA	Ewe/V	dq/mA.h	<I>/mA	P/W	(Q-Qo)/mA.h	x	Capacity/mA.h
1	0	0	1	1	0	1	111882,12	-0,100000001	4,19535828	0	0	0	0	0	0
1	0	0	1	0	0	1	111992,12	-0,100000001	4,01500702	-0,00027772324119880797	-0,099978390765162778	0,000401413941	-0,0030535721004738035	0,0001139328806400315	0,0030535721004738035
1	0	0	1	0	0	1	112102,13	-0,100000001	3,97958589	-0,00027772290384065776	-0,099978269482153843	0,000397872122	-0,0061085223847673459	0,00022791718317136531	0,0061085223847673459
1	0	0	1	0	0	1	112212,13	-0,100000001	3,95468616	-0,00027772237610734173	-0,099978079660783642	0,00039538194	-0,0091634711350716109	0,0003419014284674967	0,0091634711350716109
1	0	0	1	0	0	1	112322,13	-0,100000001	3,93469381	-0,00027772258839797645	-0,099978156097868403	0,000393383438	-0,012218417168844109	0,00045588557240617536	0,012218417168844109
1	0	0	1	0	0	1	112432,13	-0,100000001	3,91794753	-0,00027772246451179187	-0,099978111498559411	0,000391709007	-0,015273368607148144	0,00056986991799519232	0,015273368607148144
1	0	0	1	0	0	1	112542,13	-0,100000001	3,90326357	-0,00027772349371264381	-0,099978482003544333	0,000390242378	-0,018328317072527715	0,00068385415266040026	0,018328317072527715
1	0	0	1	0	0	1	112652,14	-0,100000001	3,89029813	-0,00027772273991753658	-0,099978210618226854	0,000388945045	-0,021383268742211184	0,00079783850688249498	0,021383268742211184
1	0	0	1	0	0	1	112762,14	-0,100000001	3,87853551	-0,00027772318274651965	-0,099978369871731328	0,000387769658	-0,024438224651132624	0,00091182301927625792	0,024438224651132624
1	0	0	1	0	0	1	112872,14	-0,100000001	3,86753702	-0,00027772255550449091	-0,099978143910776512	0,000386669184	-0,027493182211336602	0,0010258075932815928	0,027493182211336602
1	0	0	1	0	0	1	112982,14	-0,100000001	3,8570919	-0,00027772370911430982	-0,099978559175333824	0,000385626481	-0,030548142064101606	0,0011397922528254616	0,030548142064101606
1	0	0	1	0	0	1	113092,15	-0,100000001	3,84720087	-0,00027772372373690208	-0,099978564439362982	0,00038463762	-0,033603100180336198	0,0012537768475770462	0,033603100180336198
1	0	0	1	0	0	1	113202,15	-0,100000001	3,83755779	-0,00027772371490920586	-0,099978561260291277	0,000383673498	-0,036658057659257248	0,0013677614185496054	0,036658057659257248
1	0	0	1	0	0	1	113312,15	-0,100000001	3,82841134	-0,00027772306917028294	-0,099978328798873702	0,000382758182	-0,039713012079298118	0,0014817458753912326	0,039713012079298118
1	0	0	1	0	0	1	113422,15	-0,100000001	3,81907415	-0,00027772278528867494	-0,099978226760638106	0,000381824269	-0,042767961302184429	0,0015957301383200355	0,042767961302184429
1	0	0	1	0	0	1	113532,15	-0,100000001	3,81030941	-0,00027772288055469594	-0,099978261220998426	0,000380948099	-0,0458229161499768	0,0017097146111216467	0,0458229161499768
1	0	0	1	0	0	1	113642,16	-0,100000001	3,80160213	-0,00027772299521623386	-0,099978302548528576	0,000380077719	-0,048877869079579936	0,0018236990123530378	0,048877869079579936
1	0	0	1	0	0	1	113752,16	-0,100000001	3,79320049	-0,00027772334084783994	-0,099978426974466304	0,000379238219	-0,051932825267661798	0,0019376835351626515	0,051932825267661798
1	0	0	1	0	0	1	113862,16	-0,100000001	3,78476048	-0,0002777238894758953	-0,099978624476663283	0,00037839514	-0,05498778300502567	0,0020516681157780602	0,05498778300502567
1	0	0	1	0	0	1	113972,16	-0,100000001	3,77651143	-0,00027772335710500675	-0,099978432825766835	0,000377569697	-0,058042740343891098	0,0021656526815249558	0,058042740343891098
1	0	0	1	0	0	1	114082,17	-0,100000001	3,76854897	-0,00027772309248480531	-0,099978337420637901	0,000376773271	-0,061097698728256358	0,0022796372862808563	0,061097698728256358
1	0	0	1	0	0	1	114192,17	-0,100000001	3,76033807	-0,00027772437481747731	-0,099978798888914867	0,000375954085	-0,064152657110914611	0,0023936218909730656	0,064152657110914611
1	0	0	1	0	0	1	114302,17	-0,100000001	3,75256658	-0,00027772336854495936	-0,099978436572790925	0,000375175732	-0,067207618672072538	0,0025076066142593715	0,067207618672072538
1	0	0	1	0	0	1	114412,17	-0,100000001	3,74473763	-0,00027772363485975398	-0,099978532443203661	0,000374393363	-0,070262576401518502	0,0026215911945793526	0,070262576401518502
1	0	0	1	0	0	1	114522,17	-0,100000001	3,73692775	-0,00027772393443062902	-0,099978640286441638	0,000373612944	-0,07331753498265856	0,0027355758066771846	0,07331753498265856
1	0	0	1	0	0	1	114632,18	-0,100000001	3,72913694	-0,0002777229141919977	-0,099978273008957632	0,00037283267	-0,076372494062845133	0,0028495604373951136	0,076372494062845133
1	0	0	1	0	0	1	114742,18	-0,100000001	3,7213273	-0,00027772219306685856	-0,099978013524262157	0,000372050912	-0,079427440290421722	0,0029635445885648838	0,079427440290421722
1	0	0	1	0	0	1	114852,18	-0,100000001	3,71347928	-0,00027772249532118438	-0,099978122492246963	0,00037126668	-0,082482384185487232	0,0030775286527055296	0,082482384185487232
1	0	0	1	0	0	1	114962,18	-0,100000001	3,70607042	-0,0002777224192553096	-0,099978095207711629	0,000370525871	-0,085537323113576448	0,0031915125315216109	0,085537323113576448
1	0	0	1	0	0	1	115072,18	-0,100000001	3,69824147	-0,00027772258214404186	-0,099978153846496422	0,000369743357	-0,088592270991869722	0,0033054967442818406	0,088592270991869722
1	0	0	1	0	0	1	115182,19	-0,100000001	3,69062257	-0,00027772301885030333	-0,099978311056479962	0,000368982204	-0,091647223460257498	0,0034194811283046662	0,091647223460257498
1	0	0	1	0	0	1	115292,19	-0,100000001	3,68287015	-0,00027772329646638698	-0,099978410996295104	0,000368207518	-0,094702176033118579	0,0035334655162255322	0,094702176033118579
1	0	0	1	0	0	1	115402,19	-0,100000001	3,67523217	-0,00027772377564799453	-0,099978583392351744	0,000367444503	-0,09775713121006272	0,0036474500013082374	0,09775713121006272
1	0	0	1	0	0	1	115512,19	-0,100000001	3,66740322	-0,00027772285799185437	-0,099978252883218726	0,000366660563	-0,10081208382322478	0,0037614343907327872	0,10081208382322478
1	0	0	1	0	0	1	115622,20	-0,100000001	3,65953612	-0,00027772234063843888	-0,099978066532593626	0,000365873333	-0,10386703178384531	0,0038754186065647565	0,10386703178384531
1	0	0	1	0	0	1	115732,20	-0,100000001	3,65163088	-0,00027772261853350534	-0,099978166574004083	0,000365083368	-0,1069219796378021	0,0039894028184169587	0,1069219796378021
1	0	0	1	0	0	1	115842,20	-0,100000001	3,64376378	-0,00027772246368933053	-0,099978110831202918	0,000364296633	-0,1099769244521451	0,0041033869168570829	0,1099769244521451
1	0	0	1	0	0	1	115952,20	-0,100000001	3,6358583	-0,0002777222194220457	-0,09997802289555456	0,000363505911	-0,11303187058840074	0,0042173710646195462	0,11303187058840074
1	0	0	1	0	0	1	116062,20	-0,100000001	3,62762856	-0,00027772191963800125	-0,099977915050501453	0,000362682738	-0,11608681260700859	0,0043313550587470336	0,11608681260700859
1	0	0	1	0	0	1	116172,21	-0,100000001	3,61943674	-0,00027772125612075133	-0,099977676352536269	0,000361862883	-0,11914175291619456	0,0044453389890936915	0,11914175291619456
1	0	0	1	0	0	1	116282,21	-0,100000001	3,61113048	-0,00027772153274756339	-0,099977776071229619	0,000361032784	-0,12219669351726443	0,0045593229303309312	0,12219669351726443
1	0	0	1	0	0	1	116392,21	-0,100000001	3,60276699	-0,0002777219058142768	-0,099977910371574067	0,000360197126	-0,12525163354954624	0,0046733068503459232	0,12525163354954624
1	0	0	1	0	0	1	116502,21	-0,100000001	3,59440327	-0,00027772166818214787	-0,099977824826716557	0,000359360623	-0,1283065734506171	0,0047872907654652582	0,1283065734506171
1	0	0	1	0	0	1	116612,22	-0,100000001	3,58600163	-0,00027772177004648582	-0,099977861497153536	0,000358520774	-0,13136151248206821	0,004901274648137911	0,13136151248206821
1	0	0	1	0	0	1	116722,22	-0,100000001	3,57735157	-0,00027772212750216323	-0,099977990116969165	0,00035765642	-0,13441645580806874	0,005015258691045977	0,13441645580806874
1	0	0	1	0	0	1	116832,22	-0,100000001	3,56866336	-0,00027772164331873258	-0,099977815651436634	0,000356787175	-0,13747139640128902	0,0051292426319903379	0,13747139640128902
1	0	0	1	0	0	1	116942,22	-0,100000001	3,55989885	-0,00027772199935134915	-0,099977943672833562	0,000355911354	-0,14052633596696334	0,005243226534595577	0,14052633596696334
1	0	0	1	0	0	1	117052,22	-0,100000001	3,55103874	-0,00027772283680695626	-0,099978245150893325	0,000355026626	-0,1435812808069761	0,0053572106339934752	0,1435812808069761
1	0	0	1	0	0	1	117162,23	-0,100000001	3,54204512	-0,00027772304550641114	-0,09997832028004823	0,000354127726	-0,14663622732722102	0,0054711947960830931	0,14663622732722102
1	0	0	1	0	0	1	117272,23	-0,100000001	3,53291774	-0,00027772215254190896	-0,099977998819181222	0,00035321404	-0,14969117531464003	0,0055851790129149504	0,14969117531464003
1	0	0	1	0	0	1	117382,23	-0,100000001	3,52380943	-0,00027772141294181347	-0,099977732606817126	0,000352302479	-0,15274612034594973	0,0056991631194503942	0,15274612034594973
1	0	0	1	0	0	1	117492,23	-0,100000001	3,51443386	-0,00027772289349014557	-0,099978265750805645	0,000351366994	-0,15580106549856112	0,0058131472305117683	0,15580106549856112
1	0	0	1	0	0	1	117602,23	-0,100000001	3,50490546	-0,00027772275806756483	-0,099978217157927296	0,000350414193	-0,15885601637521306	0,0059271315551447885	0,15885601637521306
1	0	0	1	0	0	1	117712,24	-0,100000001	3,49554896	-0,00027772287347871395	-0,099978258727233574	0,000349478913	-0,16191096678804157	0,006041115862471936	0,16191096678804157
1	0	0	1	0	0	1	117822,24	-0,100000001	3,4858489	-0,00027772298758973677	-0,099978299804062272	0,00034850926	-0,1649659174549936	0,0061551001792807731	0,1649659174549936
1	0	0	1	0	0	1	117932,24	-0,100000001	3,47616768	-0,00027772255153581501	-0,099978142826588646	0,000347540801	-0,16802086546929478	0,006269084397115639	0,16802086546929478
1	0	0	1	0	0	1	118042,24	-0,100000001	3,46639109	-0,00027772317325613562	-0,099978366618203571	0,000346564106	-0,1710758184730647	0,0063830688011142938	0,1710758184730647
1	0	0	1	0	0	1	118152,25	-0,100000001	3,45638537	-0,00027772362469923165	-0,099978528977382682	0,000345564331	-0,17413077296076266	0,006497053260480297	0,17413077296076266
1	0	0	1	0	0	1	118262,25	-0,100000001	3,44616961	-0,0002777233884918193	-0,099978443781451686	0,00034454267	-0,17718572977884989	0,0066110378067962586	0,17718572977884989
1	0	0	1	0	0	1	118372,25	-0,100000001	3,43593478	-0,00027772244355786176	-0,099978103582999027	0,000343518244	-0,18024067963503222	0,0067250220933541875	0,18024067963503222
1	0	0	1	0	0	1	118482,25	-0,100000001	3,42564249	-0,00027772202624877296	-0,099977953354550874	0,000342488725	-0,18329562539895379	0,0068390062272243648	0,18329562539895379
1	0	0	1	0	0	1	118592,25	-0,100000001	3,41498756	-0,00027772255888374317	-0,099978145100514125	0,000341424136	-0,18635056903107018	0,006952990281554025	0,18635056903107018
1	0	0	1	0	0	1	118702,26	-0,100000001	3,40429449	-0,00027772256648706064	-0,099978147836490445	0,000340355065	-0,18940551314552918	0,0070669743538805376	0,18940551314552918
1	0	0	1	0	0	1	118812,26	-0,100000001	3,39318132	-0,00027772266354742979	-0,099978182935819891	0,000339244114	-0,19246046499607878	0,0071809587148509901	0,19246046499607878
1	0	0	1	0	0	1	118922,26	-0,100000001	3,3821063	-0,00027772232606841456	-0,099978061605226342	0,000338136422	-0,19551541369454976	0,007294942958213152	0,19551541369454976
1	0	0	1	0	0	1	119032,26	-0,100000001	3,37080193	-0,00027772262757602662	-0,099978170201687757	0,000337006612	-0,19857036154484	0,0074089271699285504	0,19857036154484
1	0	0	1	0	0	1	119142,27	-0,100000001	3,35930681	-0,0002777226924246384	-0,099978193545562778	0,000335857418	-0,20162531327432554	0,0075229115263819405	0,20162531327432554
1	0	0	1	0	0	1	119252,27	-0,100000001	3,34750628	-0,0002777235060872303	-0,099978486458307456	0,000334678625	-0,2046802658444601	0,0076368959142010752	0,2046802658444601
1	0	0	1	0	0	1	119362,27	-0,100000001	3,335572	-0,00027772301749181418	-0,099978310568597402	0,000333484844	-0,20773522033750928	0,0077508803737667405	0,20773522033750928
1	0	0	1	0	0	1	119472,27	-0,100000001	3,32340837	-0,00027772315001073811	-0,099978358133638003	0,000332268915	-0,21079017776117018	0,0078648649426774694	0,21079017776117018
1	0	0	1	0	0	1	119582,27	-0,100000001	3,31086302	-0,00027772300497732227	-0,099978305759842765	0,000331014482	-0,21384513279472493	0,0079788494224101235	0,21384513279472493
1	0	0	1	0	0	1	119692,28	-0,100000001	3,29814577	-0,00027772333311496509	-0,099978423818245094	0,000329743401	-0,21690008404927485	0,0080928337611430298	0,21690008404927485
1	0	0	1	0	0	1	119802,28	-0,100000001	3,28512311	-0,00027772230203159981	-0,099978052635570138	0,000328440219	-0,21995503034034074	0,0082068179146816691	0,21995503034034074
1	0	0	1	0	0	1	119912,28	-0,100000001	3,27187133	-0,00027772144987020227	-0,099977745862366579	0,000327114307	-0,22300996872337981	0,0083208017731611981	0,22300996872337981
1	0	0	1	0	0	1	120022,28	-0,100000001	3,25848579	-0,0002777211109817856	-0,099977623864947891	0,000325775676	-0,22606490300031786	0,0084347854784365747	0,22606490300031786
1	0	0	1	0	0	1	120132,28	-0,100000001	3,24460387	-0,00027772188623208141	-0,099977903064761626	0,000324388704	-0,22911984337502624	0,0085487694112279642	0,22911984337502624
1	0	0	1	0	0	1	120242,29	-0,100000001	3,23054981	-0,00027772161832741568	-0,099977806781602394	0,00032298328	-0,23217478518365437	0,0086627533975208256	0,23217478518365437
1	0	0	1	0	0	1	120352,29	-0,100000001	3,2162478	-0,00027772185281250214	-0,099977891291312243	0,000321553671	-0,23522972480681568	0,0087767373022709811	0,23522972480681568
1	0	0	1	0	0	1	120462,29	-0,100000001	3,20167851	-0,00027772203116905357	-0,099977955499420301	0,000320097286	-0,23828466887057187	0,0088907213727057037	0,23828466887057187
1	0	0	1	0	0	1	120572,29	-0,100000001	3,1868608	-0,00027772182173571658	-0,099977880104908902	0,000318615581	-0,2413396083865537	0,0090047052734568486	0,2413396083865537
1	0	0	1	0	0	1	120682,30	-0,100000001	3,17169952	-0,00027772205391277869	-0,099977963685835686	0,000317100057	-0,24439455400249222	0,0091186894018055795	0,24439455400249222
1	0	0	1	0	0	1	120792,30	-0,100000001	3,15627074	-0,00027772175203926032	-0,099977854911095834	0,000315557176	-0,24744949306164589	0,0092326732855118541	0,24744949306164589
1	0	0	1	0	0	1	120902,30	-0,100000001	3,14034557	-0,00027772244493456352	-0,099978104191352282	0,000313965807	-0,25050443703679648	0,0093466573526405811	0,25050443703679648
1	0	0	1	0	0	1	121012,30	-0,100000001	3,12417221	-0,0002777216299991641	-0,099977810708675021	0,000312347896	-0,25355937965751219	0,0094606413692335206	0,25355937965751219
1	0	0	1	0	0	1	121122,30	-0,100000001	3,10752153	-0,00027772169501913917	-0,099977834114239539	0,000310683274	-0,2566143206933545	0,0095746253266927053	0,2566143206933545
1	0	0	1	0	0	1	121232,31	-0,100000001	3,09050798	-0,00027772208780629766	-0,09997797551482176	0,000308982737	-0,25966926238862502	0,0096886093087560422	0,25966926238862502
1	0	0	1	0	0	1	121342,31	-0,100000001	3,07303596	-0,00027772179522986214	-0,099977870188222912	0,000307235576	-0,26272420362368432	0,009802593273648279	0,26272420362368432
1	0	0	1	0	0	1	121452,31	-0,100000001	3,05491495	-0,00027772239261037773	-0,099978085311954317	0,000305424561	-0,26577914537241059	0,0099165772577061235	0,26577914537241059
1	0	0	1	0	0	1	121562,31	-0,100000001	3,03666019	-0,00027772195016551347	-0,099977926197893478	0,000303598994	-0,26883408644936358	0,0100305612166992	0,26883408644936358
1	0	0	1	0	0	1	121672,32	-0,100000001	3,01739359	-0,00027772177185283763	-0,099977862147427366	0,000301672553	-0,27188902939067942	0,010144545245254163	0,27188902939067942
1	0	0	1	0	0	1	121782,32	-0,100000001	2,99793577	-0,00027772201339279616	-0,099977949100094093	0,000299727457	-0,27494397029255453	0,010258529197714851	0,27494397029255453
1	0	0	1	0	0	1	121892,32	-0,100000001	2,97777152	-0,00027772236705323062	-0,099978076414170688	0,000297711871	-0,27799891410693402	0,010372513258844992	0,27799891410693402
1	0	0	1	0	0	1	122002,32	-0,100000001	2,95697713	-0,00027772234550035661	-0,099978068655289382	0,000295632868	-0,28105385770940445	0,010486497312068522	0,28105385770940445
1	0	0	1	0	0	1	122112,32	-0,100000001	2,93540001	-0,00027772169985208246	-0,099977836167146355	0,000293474935	-0,28410879636947757	0,010600481180884563	0,28410879636947757
1	0	0	1	0	0	1	122222,33	-0,100000001	2,91302061	-0,00027772080763222445	-0,099977514811403366	0,00029123656	-0,28716373248058163	0,010714464954595141	0,28716373248058163
1	0	0	1	0	0	1	122332,33	-0,100000001	2,89012599	-0,0002777211825516489	-0,099977649629734925	0,000288948009	-0,29021866335981037	0,010828448533097416	0,29021866335981037
1	0	0	1	0	0	1	122442,33	-0,100000001	2,86646724	-0,00027772184822542797	-0,099977889268577254	0,000286583352	-0,29327359893539942	0,010942432286827211	0,29327359893539942
1	0	0	1	0	0	1	122552,33	-0,100000001	2,84183478	-0,00027772070363329514	-0,099977477223553638	0,00028411948	-0,29632853627135014	0,011056416106238464	0,29632853627135014
1	0	0	1	0	0	1	122662,33	-0,100000001	2,81664872	-0,00027772059186547994	-0,099977436986771558	0,000281601329	-0,29938347030847309	0,011170399802566016	0,29938347030847309
1	0	0	1	0	0	1	122772,34	-0,100000001	2,79071784	-0,00027772122866784531	-0,099977666263680384	0,000279009459	-0,30243840634371827	0,011284383573446198	0,30243840634371827
1	0	0	1	0	0	1	122882,34	-0,100000001	2,76419497	-0,00027772162498823469	-0,099977809095651085	0,000276358158	-0,30549334236141459	0,011398367343671608	0,30549334236141459
1	0	0	1	0	0	1	122992,34	-0,100000001	2,73704195	-0,0002777210752421783	-0,099977611353923789	0,000273642916	-0,30854827893614189	0,011512351134680594	0,30854827893614189
1	0	0	1	0	0	1	123102,34	-0,100000001	2,70933533	-0,00027772098996034928	-0,099977580670530086	0,000270872784	-0,3116032129838752	0,011626334831404037	0,3116032129838752
1	0	0	1	0	0	1	123212,35	-0,100000001	2,68115115	-0,00027772163025455344	-0,099977811171888512	0,000268055621	-0,31465815223464576	0,011740318722259792	0,31465815223464576
1	0	0	1	0	0	1	123322,35	-0,100000001	2,65247083	-0,00027772093753102755	-0,099977561797511104	0,000265187555	-0,31771308903270413	0,011854302521601557	0,31771308903270413
1	0	0	1	0	0	1	123432,35	-0,100000001	2,62327456	-0,0002777213697363105	-0,099977717368552448	0,000262268994	-0,320768021774512	0,011968286169599165	0,320768021774512
1	0	0	1	0	0	1	123542,35	-0,100000001	2,59402132	-0,00027772152225135104	-0,099977772110231002	0,000259344466	-0,32382295658254189	0,012082269894690296	0,32382295658254189
1	0	0	1	0	0	1	123652,35	-0,100000001	2,56411862	-0,00027772012741656765	-0,099977269817564506	0,000256353582	-0,32687788337320691	0,01219625332064276	0,32687788337320691
1	0	0	1	0	0	1	123762,36	-0,100000001	2,53408217	-0,0002777203131293257	-0,099977336644903219	0,000253350794	-0,32993280614844525	0,012310236596774256	0,32993280614844525
1	0	0	1	0	0	1	123872,36	-0,100000001	2,50337768	-0,00027772104981872768	-0,099977601846682253	0,000250281708	-0,33298773539955104	0,012424220114529078	0,33298773539955104
1	0	0	1	0	0	1	123982,36	-0,100000001	2,47217655	-0,00027772121714428067	-0,099977662082690739	0,000247162418	-0,33604266605987917	0,012538203684863877	0,33604266605987917
1	0	0	1	0	0	1	124092,36	-0,100000001	2,44045997	-0,00027772113239889341	-0,099977631576118195	0,00024399141	-0,33909759579353216	0,012652187220623181	0,33909759579353216
1	0	0	1	0	0	1	124202,37	-0,100000001	2,40757847	-0,00027772195327902835	-0,099977927240757171	0,0002407047	-0,34215252960543558	0,012766170908547491	0,34215252960543558
1	0	0	1	0	0	1	124312,37	-0,100000001	2,37341785	-0,0002777211887774368	-0,099977652182891443	0,000237288739	-0,34520746630434829	0,012880154704190003	0,34520746630434829
1	0	0	1	0	0	1	124422,37	-0,100000001	2,33694649	-0,00027772121224097075	-0,099977660691136371	0,000233642437	-0,34826240231613754	0,012994138474195011	0,34826240231613754
1	0	0	1	0	0	1	124532,37	-0,100000001	2,29757285	-0,00027772160456826288	-0,099977801926170522	0,000229706289	-0,35131734176387616	0,01310812237239991	0,35131734176387616
1	0	0	1	0	0	1	124642,37	-0,100000001	2,25409365	-0,00027772165134466358	-0,099977818764178125	0,00022535937	-0,3543722841014487	0,0132221063784284	0,3543722841014487
1	0	0	1	0	0	1	124752,38	-0,100000001	2,20576453	-0,00027772157653048637	-0,09997779183218848	0,000220527465	-0,35742722069487418	0,013336090170135037	0,35742722069487418
1	0	0	1	0	0	1	124862,38	-0,100000001	2,15149665	-0,0002777212318078511	-0,099977667595409677	0,000215101623	-0,3604821549229616	0,013450073873587733	0,3604821549229616
1	0	0	1	0	0	1	124972,38	-0,100000001	2,09174871	-0,00027772128306950131	-0,099977685886297178	0,000209128193	-0,36353708884588774	0,013564057565654454	0,36353708884588774
1	0	0	1	0	0	1	125082,38	-0,100000001	2,026788	-0,00027772176303755907	-0,099977858600386726	0,000202633921	-0,36659202930885037	0,013678041501738726	0,36659202930885037
1	0	0	1	0	0	1	125192,38	-0,100000001	1,95873356	-0,00027772323724130787	-0,09997838930324681	0,000195831031	-0,36964697339034522	0,013792025572835298	0,36964697339034522
1	0	0	1	0	0	1	125302,39	-0,100000001	1,88991559	-0,00027772262700481546	-0,099978169621287706	0,000188950304	-0,37270191643860173	0,013906009605380362	0,37270191643860173
1	0	0	1	0	0	1	125412,39	-0,100000001	1,82344615	-0,0002777220656308863	-0,099977967531831462	0,000182304444	-0,37575686005241773	0,01401999365902721	0,37575686005241773
1	0	0	1	0	0	1	125522,39	-0,100000001	1,7623415	-0,00027772279505597222	-0,099978230231404442	0,000176195783	-0,37881180895806573	0,014133977910119424	0,37881180895806573
1	0	0	1	0	0	1	125632,39	-0,100000001	1,70931494	-0,00027772208893754416	-0,09997797619790057	0,000170893851	-0,38186675372042317	0,014247962006619899	0,38186675372042317
1	0	0	1	0	0	1	125742,40	-0,100000001	1,65646029	-0,00027772234707863795	-0,099978069224623309	0,000165609701	-0,38492169732162118	0,014361946059795952	0,38492169732162118
1	0	0	1	0	0	1	125852,40	-0,100000001	1,60677528	-0,00027772220399686032	-0,09997801771503735	0,000160642201	-0,38797663915870234	0,014475930047150435	0,38797663915870234
1	0	0	1	0	0	1	125962,40	-0,100000001	1,56365895	-0,00027772223844834499	-0,099978030117326758	0,000156331545	-0,39103158646482586	0,014589914238562243	0,39103158646482586
1	0	0	1	0	0	1	126072,40	-0,100000001	1,52776051	-0,0002777228821983768	-0,099978261863922432	0,000152742839	-0,39408653744790394	0,014703898567166166	0,39408653744790394
1	0	0	1	0	0	1	126180,93	-0,100000001	1,50005388	-0,00023684194370110829	-0,099977861704121613	0,000149972184	-0,39710060145167744	0,01481635734759911	0,39710060145167744
1	1	0	0	0	0	2	126280,93	0,100000001	2,39325643	0,00027782970011275677	0,1000167155531939	0,000239365647	-0,39432230498986221	0,014712695371149459	0,0027782964618152218
1	1	0	0	0	0	2	126390,94	0,100000001	2,61009812	0,00027783008617328272	0,1000168545310725	0,000261053792	-0,39126617600567667	0,014598667089740381	0,0058344254460007782
1	1	0	0	0	0	2	126500,94	0,100000001	2,7450037	0,00027782965728847517	0,10001669998190203	0,000274546212	-0,38821005175749581	0,014484638985037997	0,0088905496941817306
1	1	0	0	0	0	2	126610,94	0,100000001	2,84817338	0,00027783012110284637	0,1000168667899344	0,000284865382	-0,38515392236014246	0,014370610688213066	0,011946679091535094
1	1	0	0	0	0	2	126720,94	0,100000001	2,9322865	0,00027783028121996259	0,10001692437390496	0,000293278281	-0,38209779219741363	0,01425658236283095	0,01500280925426384
1	1	0	0	0	0	2	126830,95	0,100000001	3,00257492	0,00027782938956303731	0,10001660338390186	0,000300307351	-0,37904166416210752	0,014142554116825834	0,018058937289569946
1	1	0	0	0	0	2	126940,95	0,100000001	3,06373572	0,00027782968821293782	0,10001671089675984	0,000306424772	-0,3759855395677088	0,014028525999205598	0,021115061883968611
1	1	0	0	0	0	2	127050,95	0,100000001	3,120085	0,00027782962528905936	0,10001668824461131	0,000312060583	-0,37292941391585702	0,013914497842130371	0,024171187535820326
1	1	0	0	0	0	2	127160,95	0,100000001	3,17442894	0,0002778297716308799	0,10001674105120822	0,000317496044	-0,36987328540342022	0,013800469578322867	0,027227316048257062
1	1	0	0	0	0	2	127270,95	0,100000001	3,22758913	0,00027783006304129962	0,10001684611523434	0,000322813285	-0,36681715704078125	0,01368644132010452	0,030283444410896147
1	1	0	0	0	0	2	127380,96	0,100000001	3,27830529	0,00027782991533892022	0,10001679303308163	0,000327885587	-0,36376102889985197	0,013572413070158461	0,033339572551825402
1	1	0	0	0	0	2	127490,96	0,100000001	3,32531691	0,00027782978188370666	0,10001674499015416	0,000332587369	-0,36070490126572365	0,013458384839121827	0,036395700185953754
1	1	0	0	0	0	2	127600,96	0,100000001	3,36753583	0,00027783003848253027	0,10001683736288643	0,000336810277	-0,35764877198472307	0,013344356546638178	0,03945182946695431
1	1	0	0	0	0	2	127710,96	0,100000001	3,40511465	0,00027783010672074227	0,10001686192917608	0,000340568891	-0,35459263701737811	0,013230328041989371	0,042507964434299219
1	1	0	0	0	0	2	127820,97	0,100000001	3,43845439	0,00027783014953012269	0,10001687722381582	0,000343903463	-0,35153650743090458	0,013116299738108114	0,045564094020772742
1	1	0	0	0	0	2	127930,97	0,100000001	3,46801329	0,0002778296416298383	0,10001669422381438	0,000346859219	-0,34848037782190131	0,013002271433386243	0,048620223629775987
1	1	0	0	0	0	2	128040,97	0,100000001	3,49436426	0,00027783025350876982	0,10001691439807274	0,000349495531	-0,34542425040380838	0,012888243210410179	0,051676351047868941
1	1	0	0	0	0	2	128150,97	0,100000001	3,51781273	0,00027782996232435107	0,10001680957491819	0,000351840397	-0,34236811996347302	0,01277421487467019	0,05473248148820425
1	1	0	0	0	0	2	128260,97	0,100000001	3,53885531	0,00027783006635018518	0,1000168470234783	0,000353945157	-0,33931198803291974	0,012660186483328163	0,057788613418757491
1	1	0	0	0	0	2	128370,98	0,100000001	3,55781651	0,00027782966347576848	0,10001670199039054	0,000355841068	-0,33625586099253062	0,012546158274444739	0,060844740459146586
1	1	0	0	0	0	2	128480,98	0,100000001	3,57505918	0,0002778298659730289	0,1000167749717949	0,000357565877	-0,33319973168378285	0,012432129980925803	0,063900869767894336
1	1	0	0	0	0	2	128590,98	0,100000001	3,59064078	0,00027783050532721811	0,10001700529659558	0,000359125144	-0,33014360393165638	0,012318101745486499	0,066956997520020826
1	1	0	0	0	0	2	128700,98	0,100000001	3,6051147	0,00027783018849252	0,10001689136527002	0,000360572361	-0,32708747382796646	0,012204073422307203	0,070013127623710758
1	1	0	0	0	0	2	128810,98	0,100000001	3,6185956	0,0002778295404815839	0,10001665808594301	0,00036191984	-0,32403134229154387	0,012090045045670725	0,073069259160133274
1	1	0	0	0	0	2	128920,99	0,100000001	3,63091183	0,0002778306708927784	0,10001706502709555	0,000363153144	-0,32097521003727328	0,011976016642250371	0,07612539141440393
1	1	0	0	0	0	2	129030,99	0,100000001	3,64248347	0,00027782963074950704	0,10001669058291747	0,000364309148	-0,31791907894829958	0,011861988282308813	0,079181522503377664
1	1	0	0	0	0	2	129140,99	0,100000001	3,65338659	0,0002778297449507647	0,10001673162353398	0,000365399785	-0,31486294553262163	0,011747959835554787	0,082237655919055552
1	1	0	0	0	0	2	129250,99	0,100000001	3,66375518	0,00027783046923867526	0,10001699220368037	0,000366437773	-0,31180681282642726	0,011633931415272554	0,085293788625249843
1	1	0	0	0	0	2	129361,00	0,100000001	3,67328334	0,00027783023133418624	0,10001690641654477	0,000367390428	-0,30875067896556064	0,011519902951907941	0,088349922486116467
1	1	0	0	0	0	2	129471,00	0,100000001	3,68262076	0,00027782982888941962	0,10001676153929232	0,000368323788	-0,30569454797962835	0,011405874595810997	0,091406053472048678
1	1	0	0	0	0	2	129581,00	0,100000001	3,69121361	0,00027782987553584906	0,10001677833065622	0,000369183283	-0,30263841952924243	0,011291846334318693	0,094462181922434496
1	1	0	0	0	0	2	129691,00	0,100000001	3,69957709	0,00027783060850161645	0,10001704219413597	0,000370020745	-0,29958228611278835	0,011177817887535714	0,097518315338888499
1	1	0	0	0	0	2	129801,00	0,100000001	3,70744419	0,00027783045279689958	0,10001698618811891	0,000370807393	-0,29652615292971891	0,011063789449460626	0,10057444852195803
1	1	0	0	0	0	2	129911,01	0,100000001	3,71500587	0,00027783080680668355	0,10001711378630672	0,00037156418	-0,29347001591273837	0,01094976086833716	0,10363058553893864
1	1	0	0	0	0	2	130021,01	0,100000001	3,72224283	0,00027783057957349549	0,1000170321423244	0,000372287672	-0,2904138790752343	0,010835732293910205	0,10668672237644266
1	1	0	0	0	0	2	130131,01	0,100000001	3,7292316	0,00027783119116144048	0,1000172523201127	0,000372987502	-0,28735773844809725	0,010721703578086947	0,10974286300357973
1	1	0	0	0	0	2	130241,01	0,100000001	3,73601031	0,00027783084511177408	0,10001712774469461	0,000373665011	-0,28430159677608867	0,010607674823278128	0,11279900467558832
1	1	0	0	0	0	2	130351,02	0,100000001	3,7426362	0,000277830185028	0,10001689011806744	0,000374326832	-0,28124546340371926	0,010493646378140003	0,11585513804795766
1	1	0	0	0	0	2	130461,02	0,100000001	3,74891829	0,00027782974082604048	0,10001673017592099	0,000374954543	-0,27818933180258394	0,010379617999089005	0,11891126964909302
1	1	0	0	0	0	2	130571,02	0,100000001	3,75506687	0,000277829900033772	0,10001678733238774	0,000375569711	-0,27513320561887917	0,010265589822169624	0,12196739583279779
1	1	0	0	0	0	2	130681,02	0,100000001	3,76092911	0,00027782993205719526	0,10001679870107965	0,000376156095	-0,27207707540285104	0,010151561494798838	0,12502352604882594
1	1	0	0	0	0	2	130791,02	0,100000001	3,76679111	0,00027782968588049216	0,10001671005622275	0,000376742042	-0,26902094520403258	0,010037533168070168	0,12807965624764448
1	1	0	0	0	0	2	130901,03	0,100000001	3,77244329	0,00027783047115802771	0,10001699275142125	0,000377308432	-0,26596481144061946	0,0099235047083416781	0,13113579001105752
1	1	0	0	0	0	2	131011,03	0,100000001	3,77803802	0,00027783120775139994	0,10001725791979413	0,000377869001	-0,2629086730350671	0,0098094760754087322	0,13419192841660984
1	1	0	0	0	0	2	131121,03	0,100000001	3,78336549	0,00027782505312561987	0,1000170034763435	0,000378400873	-0,2598525610071289	0,0096954484266600346	0,13724804044454803
1	1	0	0	0	0	2	131231,03	0,100000001	3,78867388	0,00027782492656964397	0,1000169579161993	0,00037893164	-0,25679648352581482	0,0095814220668923328	0,14030411792586214
1	1	0	0	0	0	2	131341,03	0,100000001	3,79413509	0,00027782520976952378	0,1000170598681401	0,000379478239	-0,25374040813736381	0,0094673957852121664	0,14336019331431315
1	1	0	0	0	0	2	131451,03	0,100000001	3,79929066	0,00027782595086511638	0,1000173266625117	0,00037999489	-0,25068433156071235	0,0093533694591986406	0,14641626989096458
1	1	0	0	0	0	2	131561,03	0,100000001	3,80444646	0,00027782527049010003	0,1000170817275441	0,00038050962	-0,24762825431601334	0,0092393431082593651	0,14947234713566358
1	1	0	0	0	0	2	131671,03	0,100000001	3,80946827	0,00027782519746033686	0,10001705543683349	0,000381011807	-0,24457217841679936	0,0091253168075219443	0,15252842303487757
1	1	0	0	0	0	2	131781,03	0,100000001	3,81445217	0,00027782517595382205	0,10001704769448936	0,000381510239	-0,24151610104602163	0,0090112904518785011	0,1555845004056553
1	1	0	0	0	0	2	131891,03	0,100000001	3,81932139	0,00027782519342791702	0,10001705398516258	0,000381997263	-0,2384600253998488	0,0088972641605823885	0,15864057605182813
1	1	0	0	0	0	2	132001,03	0,100000001	3,82438135	0,00027782525829474131	0,10001707733721566	0,000382503436	-0,23540394977529472	0,008783237870092896	0,16169665167638224
1	1	0	0	0	0	2	132111,03	0,100000001	3,82921243	0,00027782498468044733	0,10001697883608523	0,000382986269	-0,23234787564148835	0,008669211635225207	0,16475272581018861
1	1	0	0	0	0	2	132221,03	0,100000001	3,83398628	0,00027782547857984902	0,10001715663984202	0,000383464416	-0,22929179707582003	0,0085551852349987891	0,1678088043758569
1	1	0	0	0	0	2	132331,03	0,100000001	3,83891273	0,00027782464896308051	0,10001685797785211	0,000383955979	-0,22623572087666678	0,0084411589230702323	0,17086488057501018
1	1	0	0	0	0	2	132441,03	0,100000001	3,8438201	0,00027782413344085216	0,10001667238987893	0,000384446088	-0,22317964900474416	0,0083271327725964672	0,1739209524469328
1	1	0	0	0	0	2	132551,03	0,100000001	3,8484602	0,00027782510578218432	0,10001702243270373	0,000384911516	-0,22012358242104778	0,0082131068194335309	0,17697701903062918
1	1	0	0	0	0	2	132661,03	0,100000001	3,85323381	0,00027782488461128534	0,10001694281119256	0,000385388674	-0,21706751101370026	0,0080990806862936883	0,1800330904379767
1	1	0	0	0	0	2	132771,03	0,100000001	3,85798836	0,0002778251035143104	0,10001702161626926	0,000385864492	-0,21401143449108416	0,007985054362296297	0,18308916696059277
1	1	0	0	0	0	2	132881,03	0,100000001	3,86278129	0,00027782535092780992	0,10001711068511514	0,000386344211	-0,21095536130835853	0,0078710281629147085	0,18614524014331843
1	1	0	0	0	0	2	132991,03	0,100000001	3,86751676	0,00027782532923461661	0,10001710287556677	0,000386817817	-0,20789928158212272	0,0077570017193859584	0,18920131986955421
1	1	0	0	0	0	2	133101,03	0,100000001	3,87213778	0,00027782525115791293	0,10001707476795786	0,000387279899	-0,20484320386714598	0,0076429753508999872	0,19225739758453094
1	1	0	0	0	0	2	133211,03	0,100000001	3,87679696	0,00027782536469772454	0,10001711564228363	0,000387746055	-0,20178712763643872	0,0075289490377941069	0,19531347381523824
1	1	0	0	0	0	2	133321,03	0,100000001	3,88132238	0,00027782486957973904	0,10001693739983675	0,000388197979	-0,1987310520940335	0,0074149227503696998	0,19836954935764346
1	1	0	0	0	0	2	133431,03	0,100000001	3,88582873	0,00027782425595364637	0,10001671649447795	0,000388647837	-0,19567498109930118	0,0073008966326250842	0,20142562035237578
1	1	0	0	0	0	2	133541,03	0,100000001	3,89029694	0,00027782493475452067	0,10001696086275446	0,000389095687	-0,1926189102476863	0,0071868705202203725	0,20448169120399066
1	1	0	0	0	0	2	133651,03	0,100000001	3,89478445	0,00027782529116008019	0,10001708916873581	0,000389544992	-0,18956283657501133	0,0070728443025581171	0,2075377648766656
1	1	0	0	0	0	2	133761,03	0,100000001	3,89898515	0,0002778253842687441	0,10001712268784957	0,00038996528	-0,186506758764632	0,0069588179305125466	0,21059384268704496
1	1	0	0	0	0	2	133871,03	0,100000001	3,9032433	0,00027782479365294179	0,10001691006619402	0,000390390342	-0,18345068008069562	0,0068447915258733888	0,21364992137098131
1	1	0	0	0	0	2	133981,03	0,100000001	3,90748239	0,00027782507502287626	0,10001701135935456	0,000390814705	-0,18039460768455792	0,0067307653558404544	0,21670599376711901
1	1	0	0	0	0	2	134091,03	0,100000001	3,91172147	0,00027782463451143766	0,10001685277526149	0,000391238078	-0,1773385318234615	0,0066167390565252518	0,21976206962821542
1	1	0	0	0	0	2	134201,03	0,100000001	3,91580796	0,00027782484079607658	0,10001692703771986	0,000391647074	-0,17428245944628019	0,0065027128871996058	0,22281814200539674
1	1	0	0	0	0	2	134311,03	0,100000001	3,91991329	0,00027782501801144746	0,10001699083524341	0,000392057933	-0,17122638915152582	0,0063886867955721088	0,2258742123001511
1	1	0	0	0	0	2	134421,03	0,100000001	3,9238658	0,00027782465340569613	0,10001685957719346	0,000392452726	-0,16817031662665248	0,0062746606207358733	0,22893028482502445
1	1	0	0	0	0	2	134531,03	0,100000001	3,92758942	0,00027782549742816224	0,10001716342523373	0,000392826361	-0,16511424130711894	0,0061606343416271091	0,23198636014455802
1	1	0	0	0	0	2	134641,03	0,100000001	3,93154216	0,00027782411838488445	0,10001666696973139	0,000393219729	-0,16205817267921178	0,0060466083121919219	0,23504242877246518
1	1	0	0	0	0	2	134751,03	0,100000001	3,93532276	0,00027782461591892774	0,10001684608195896	0,000393598573	-0,15900210155974397	0,005932582189793257	0,23809849989193299
1	1	0	0	0	0	2	134861,03	0,100000001	3,93914175	0,00027782467202055789	0,10001686627854264	0,000393980619	-0,15594603139090979	0,0058185561028640115	0,24115457006076717
1	1	0	0	0	0	2	134971,03	0,100000001	3,94273162	0,00027782487929488227	0,10001694089728774	0,000394339964	-0,1528899597085287	0,0057045299594622957	0,24421064174314826
1	1	0	0	0	0	2	135081,03	0,100000001	3,94656968	0,00027782479237102803	0,10001690960470512	0,000394723698	-0,14983388826939619	0,005590503825136512	0,24726671318228074
1	1	0	0	0	0	2	135191,03	0,100000001	3,95014048	0,00027782449070778163	0,10001680100595341	0,000395080424	-0,14677781915442762	0,0054764777775284083	0,25032278229724934
1	1	0	0	0	0	2	135301,03	0,100000001	3,95409322	0,00027782506491161053	0,10001700771929947	0,000395476585	-0,1437217509525864	0,0053624517639903155	0,25337885049909043
1	1	0	0	0	0	2	135411,03	0,100000001	3,95785475	0,00027782494251636995	0,10001696365701974	0,000395852607	-0,14066567773213562	0,0052484255632011507	0,25643492371954134
1	1	0	0	0	0	2	135521,03	0,100000001	3,96140647	0,00027782508849269818	0,1000170162084897	0,000396208052	-0,13760960159154018	0,005134399253457463	0,2594909998601368
1	1	0	0	0	0	2	135631,03	0,100000001	3,96511102	0,00027782436010158726	0,10001675398773078	0,000396577525	-0,13455352720219587	0,0050203730090553101	0,26254707424948109
1	1	0	0	0	0	2	135741,03	0,100000001	3,96889162	0,00027782452860391798	0,10001681465321776	0,000396955904	-0,13149745719279379	0,0049063469280746906	0,26560314425888314
1	1	0	0	0	0	2	135851,03	0,100000001	3,97250056	0,00027782373671688966	0,10001652956927478	0,000397315715	-0,12844138941137475	0,0047923209302231136	0,26865921204030208
1	1	0	0	0	0	2	135961,03	0,100000001	3,97612858	0,00027782417982278602	0,10001668908737251	0,000397679221	-0,12538532216712981	0,004678294952414224	0,27171527928454698
1	1	0	0	0	0	2	136071,03	0,100000001	3,97987127	0,00027782458712615904	0,10001683571656384	0,000398054137	-0,12232925578742459	0,0045642690068624742	0,27477134566425226
1	1	0	0	0	0	2	136181,03	0,100000001	3,98351836	0,00027782480524935654	0,10001691424090267	0,000398419215	-0,11927318465564426	0,0044502428840044134	0,27782741679603258
1	1	0	0	0	0	2	136291,03	0,100000001	3,9872036	0,0002778249864085681	0,10001697945820861	0,000398788048	-0,11621711163539589	0,0043362166906850701	0,28088348981628096
1	1	0	0	0	0	2	136401,03	0,100000001	3,99088907	0,00027782524294240608	0,10001707181037584	0,000399157027	-0,1131610372959469	0,0042221904481445786	0,28393956415572995
1	1	0	0	0	0	2	136511,03	0,100000001	3,99457431	0,00027782453487979043	0,10001681690787408	0,000399524608	-0,11010496344571088	0,00410816422385728	0,28699563800596589
1	1	0	0	0	0	2	136621,03	0,100000001	3,99816418	0,00027782478698508608	0,10001690766576632	0,000399884011	-0,10704889022874941	0,0039941380231983066	0,29005171122292736
1	1	0	0	0	0	2	136731,03	0,100000001	4,00192595	0,00027782498029536672	0,10001697725745646	0,000400260527	-0,10399281729805989	0,0038801118332205254	0,29310778415361677
1	1	0	0	0	0	2	136841,03	0,100000001	4,00568771	0,00027782475536151069	0,10001689628128094	0,000400636462	-0,10093674266557256	0,0037660855797463789	0,29616385878610419
1	1	0	0	0	0	2	136951,03	0,100000001	4,00937319	0,00027782500041772925	0,10001698450150584	0,000401005411	-0,097880669475063923	0,0036520593800743962	0,29921993197661274
1	1	0	0	0	0	2	137061,03	0,100000001	4,01313448	0,00027782490717205741	0,10001695093306922	0,000401381461	-0,09482459449353632	0,0035380331135770886	0,30227600695814042
1	1	0	0	0	0	2	137171,03	0,100000001	4,01681995	0,00027782472929648224	0,10001688689787219	0,000401749829	-0,091768525032290406	0,003424007053048912	0,3053320764193863
1	1	0	0	0	0	2	137281,03	0,100000001	4,02054358	0,00027782433790092666	0,10001674599549424	0,000402121688	-0,08871245761284009	0,0033099810687028749	0,30838814383883661
1	1	0	0	0	0	2	137391,03	0,100000001	4,02438164	0,00027782496628372208	0,10001697221210083	0,00040250647	-0,085656387585904704	0,003195954987068064	0,31144421386577203
1	1	0	0	0	0	2	137501,03	0,100000001	4,02820063	0,00027782423785908358	0,10001670998043635	0,000402887381	-0,082600323363058509	0,0030819291219916243	0,31450027808861818
1	1	0	0	0	0	2	137611,03	0,100000001	4,03192425	0,0002778246538920535	0,1000168597522821	0,000403260405	-0,079544258361802163	0,0029679032278716557	0,3175563430898745
1	1	0	0	0	0	2	137721,03	0,100000001	4,03601027	0,00027782471565364134	0,10001688198645026	0,000403669168	-0,076488184009794816	0,0028538769848625946	0,32061241744188186
1	1	0	0	0	0	2	137831,03	0,100000001	4,03981018	0,00027782537677056259	0,10001711998850464	0,000404050166	-0,073432111720776653	0,0027398508188264339	0,32366848973089997
1	1	0	0	0	0	2	137941,03	0,100000001	4,04391575	0,00027782455166512067	0,10001682295059203	0,000404459599	-0,070376041042686605	0,0026258247128961667	0,32672456040899002
1	1	0	0	0	0	2	138051,03	0,100000001	4,04788733	0,00027782458736168016	0,10001683580135142	0,000404856895	-0,067319971063583104	0,0025117986330460278	0,32978063038809344
1	1	0	0	0	0	2	138161,03	0,100000001	4,05184031	0,00027782527390246592	0,10001708295599563	0,00040525326	-0,064263894241905702	0,0023977722978902566	0,33283670720977088
1	1	0	0	0	0	2	138271,03	0,100000001	4,05596447	0,00027782489898262752	0,10001694798487493	0,000405665196	-0,061207822586791219	0,0022837461555058944	0,33589277886488531
1	1	0	0	0	0	2	138381,03	0,100000001	4,06005096	0,00027782495111351213	0,10001696675199045	0,000406073988	-0,058151749164441651	0,0021697199471836154	0,33894885228723494
1	1	0	0	0	0	2	138491,03	0,100000001	4,06429005	0,00027782470106706022	0,10001687673528187	0,000406497595	-0,055095677631166925	0,0020556938093452582	0,3420049238205097
1	1	0	0	0	0	2	138601,03	0,100000001	4,06841469	0,00027782515952943104	0,10001704178170952	0,000406910811	-0,052039602424184742	0,0019416675344359363	0,34506099902749178
1	1	0	0	0	0	2	138711,03	0,100000001	4,07273006	0,00027782504195016291	0,10001699945317962	0,000407342246	-0,04898352564916537	0,0018276412010210387	0,34811707580251117
1	1	0	0	0	0	2	138821,03	0,100000001	4,07698822	0,00027782403004707558	0,10001663516812518	0,000407766638	-0,045927457424411181	0,0017136151866280314	0,35117314402726534
1	1	0	0	0	0	2	138931,03	0,100000001	4,08139896	0,00027782395807902022	0,1000166092596293	0,000408207678	-0,04287139339698048	0,0015995893288428067	0,35422920805469606
1	1	0	0	0	0	2	139041,03	0,100000001	4,08569527	0,00027782421735881104	0,10001670260033941	0,000408637774	-0,039815329199389696	0,0014855634647086803	0,35728527225228685
1	1	0	0	0	0	2	139151,03	0,100000001	4,09037352	0,00027782402666451203	0,1000166339504025	0,000409105385	-0,036759263941061824	0,0013715375609970274	0,36034133751061472
1	1	0	0	0	0	2	139261,03	0,100000001	4,09484196	0,00027782492080951731	0,10001695584255403	0,000409553613	-0,033703196080960998	0,0012575115602097272	0,36339740537071558
1	1	0	0	0	0	2	139371,03	0,100000001	4,09940529	0,00027782498303718038	0,10001697824450923	0,000410010136	-0,03064712294583959	0,0011434853626043166	0,36645347850583706
1	1	0	0	0	0	2	139481,03	0,100000001	4,10404539	0,00027782523861030739	0,10001707025082056	0,000410474604	-0,027591046887131872	0,0010294590559159702	0,36950955456454477
1	1	0	0	0	0	2	139591,03	0,100000001	4,10874271	0,00027782479675983386	0,10001691118467498	0,000410943758	-0,024534970704840134	0,00091543274461653786	0,37256563074683654
1	1	0	0	0	0	2	139701,03	0,100000001	4,11349773	0,00027782510895364813	0,10001702357443053	0,000411419809	-0,0214788971149568	0,00080140653004334848	0,37562170433671981
1	1	0	0	0	0	2	139811,03	0,100000001	4,11846209	0,00027782456752450928	0,10001682865997104	0,000411915506	-0,018422824747097418	0,00068738036106551578	0,37867777670457926
1	1	0	0	0	0	2	139921,03	0,100000001	4,12327433	0,00027782468461452259	0,10001687081236923	0,000412396999	-0,015366755036600198	0,00057335429123743814	0,38173384641507654
1	1	0	0	0	0	2	140031,03	0,100000001	4,12823868	0,0002778249108625783	0,10001695226165654	0,00041289386	-0,012310680729419256	0,00045932804990091072	0,38478992072225747
1	1	0	0	0	0	2	140141,03	0,100000001	4,13324165	0,00027782450511306522	0,10001680619185469	0,000413393631	-0,009254608311590487	0,00034530187905865306	0,38784599314008614
1	1	0	0	0	0	2	140251,03	0,100000001	4,13845444	0,00027782441901498371	0,1000167751988789	0,00041391488	-0,0061985412459330611	0,00023127590791310419	0,39090206020574362
1	1	0	0	0	0	2	140361,03	0,100000001	4,14351463	0,00027782474345175754	0,10001689199377051	0,000414421462	-0,0031424717927830266	0,00011724984768699614	0,3939581296588937
1	1	0	0	0	0	2	140471,03	0,100000001	4,14880419	0,00027782413983634778	0,10001667469225699	0,000414949609	-8,6403657416355226E-005	3,2238366291571456E-006	0,39701419779426035
1	1	0	0	0	0	2	140581,03	0,100000001	4,15415049	0,00027782422600810726	0,10001670571408555	0,00041548445	0,0029696611119878611	-0,00011080204884009706	0,40007026256366451
1	1	0	0	0	0	2	140691,03	0,100000001	4,15955448	0,00027782396723123062	0,10001661255442453	0,000416024559	0,0060257263143473856	-0,0002248279504634959	0,403126327766024
1	1	0	0	0	0	2	140801,03	0,100000001	4,16520643	0,00027782499909980429	0,10001698402705293	0,000416591385	0,0090817981275540928	-0,00033885409874649158	0,40618239957923072
1	1	0	0	0	0	2	140911,03	0,100000001	4,1707058	0,00027782464393104115	0,10001685616631822	0,000417140895	0,012137871285835226	-0,00045288029721602253	0,40923847273751194
1	1	0	0	0	0	2	141021,03	0,100000001	4,17641544	0,00027782464804293379	0,10001685764659933	0,000417711941	0,015193941431544461	-0,00056690638328244557	0,41229454288322112
1	1	0	0	0	0	2	141131,03	0,100000001	4,18237305	0,00027782448857608771	0,10001680023854371	0,00041830758	0,018250007425203654	-0,00068093231443029888	0,41535060887688026
1	1	0	0	0	0	2	141241,03	0,100000001	4,18827343	0,0002778239069394767	0,10001659084939653	0,000418896816	0,021306071935178243	-0,00079495819021988506	0,41840667338685491
1	1	0	0	0	0	2	141351,03	0,100000001	4,19411612	0,00027782457790234022	0,1000168323959896	0,00041948221	0,024362140074910541	-0,00090898420144061133	0,42146274152658726
1	1	0	0	0	0	2	141461,03	0,100000001	4,19986486	0,00027782434980322922	0,10001675028032246	0,000420056836	0,027418205937851373	-0,001023010127711187	0,42451880738952806
1	1	0	0	0	0	2	141462,54	0,100000001	4,20003653	4,17847618183328E-005	0,10001670157591894	0,000420073804	0,027459990699669709	-0,0010245691733548389	0,42456059215134637