File: Experimentelles/Rohdaten/Batteriemessungen/AlteZelle/Studenten_Batterietests/Sonstige/ZView-Export/S vs Li_02_CV_C02_loop3.txt
EC-Lab ASCII FILE
Nb header lines : 3
mode	ox/red	error	control changes	counter inc.	time/s	control/V	Ewe/V	<I>/mA	cycle number	(Q-Qo)/C	P/W
2	0	0	1	0	5820,41	2,39165258	2,39190316	-0,056717429310083392	4	0	0,000135662602
2	0	0	0	0	5821,73	2,37845039	2,37922549	-0,12554919940885157	4	-0,000119844517	0,000298709841
2	0	0	1	0	5823,03	2,36544847	2,36597705	-0,19593790588745286	4	-0,000329082482	0,000463584583
2	0	0	0	0	5824,33	2,35244679	2,35288906	-0,26914275010737331	4	-0,000631563482	0,000633263029
2	0	0	1	0	5825,63	2,33944511	2,33994102	-0,34559536492451981	4	-0,00103129342	0,000808672747
2	0	0	0	0	5826,93	2,3264432	2,32698321	-0,4243612171461191	4	-0,00153217337	0,000987481442
2	0	0	1	0	5828,24	2,31344151	2,31407571	-0,50605231880520864	4	-0,00213711243	0,00117104338
2	0	0	0	0	5829,54	2,30043983	2,30097771	-0,59300021997963443	4	-0,00285260752	0,00136448024
2	0	0	0	0	5830,84	2,28743744	2,28813887	-0,68282640697617626	4	-0,00368318846	0,00156240165
2	0	0	1	0	5832,14	2,274436	2,27486157	-0,77626960321019123	4	-0,00463221548	0,00176590588
2	0	0	0	0	5833,44	2,26143456	2,2619338	-0,87340513927241229	4	-0,00570509257	0,00197558454
2	0	0	1	0	5834,74	2,24843264	2,24902582	-0,96632192904750976	4	-0,0069010742	0,0021732829
2	0	0	0	0	5836,07	2,23513055	2,23562741	-1,0694304415956139	4	-0,00825474598	0,00239084801
2	0	0	1	0	5837,37	2,22212911	2,22246933	-1,1689951599886026	4	-0,00970994122	0,00259805587
2	0	0	0	0	5838,67	2,20912719	2,20952153	-1,2631530032182746	4	-0,011292913	0,00279096374
2	0	0	1	0	5839,97	2,19612527	2,1965735	-1,358396085600063	4	-0,0129997032	0,0029838169
2	0	0	0	0	5841,27	2,18312335	2,18346548	-1,4565333494295664	4	-0,014832722	0,00318029034
2	0	0	0	0	5842,57	2,17012262	2,17088914	-1,5547235459604102	4	-0,0167890433	0,00337513257
2	0	0	1	0	5843,87	2,15711999	2,15766001	-1,6503667552024198	4	-0,0188740548	0,00356093026
2	0	0	0	0	5845,17	2,14411807	2,14469218	-1,7482664833466205	4	-0,0210872553	0,00374949351
2	0	0	1	0	5846,47	2,13111639	2,13160419	-1,8409376976390634	4	-0,0234187134	0,00392415049
2	0	0	0	0	5847,77	2,11811471	2,11845589	-1,9299380692342973	4	-0,0258661974	0,00408848887
2	0	0	1	0	5849,07	2,10511279	2,10560799	-2,0351092889905021	4	-0,0284417942	0,00428514229
2	0	0	0	0	5850,37	2,09211111	2,09275055	-2,1321112817774227	4	-0,0311492886	0,00446197717
2	0	0	1	0	5851,67	2,07910943	2,07951236	-2,2277572192251757	4	-0,0339808911	0,00463264855
2	0	0	0	0	5852,97	2,06610751	2,06675506	-2,317071721578639	4	-0,0369330496	0,0047888197
2	0	0	1	0	5854,27	2,05310583	2,05374694	-2,427897510429215	4	-0,0400214121	0,00498628709
2	0	0	1	0	5855,57	2,04010367	2,04052758	-2,5287826530657824	4	-0,0432470851	0,00516005093
2	0	0	0	0	5856,87	2,02710223	2,02769113	-2,6344089501847856	4	-0,0466072373	0,0053417678
2	0	0	1	0	5858,17	2,01410055	2,01463294	-2,7372263378153293	4	-0,0500952043	0,00551450625
2	0	0	0	0	5859,47	2,00109863	2,00168514	-2,8459857273846864	4	-0,053727176	0,00569676748
2	0	0	1	0	5860,77	1,98809683	1,98870742	-2,9548223633319142	4	-0,0574984029	0,00587627711
2	0	0	0	0	5862,07	1,97509527	1,97576952	-3,0618054109315194	4	-0,0614075102	0,00604942162
2	0	0	1	0	5863,37	1,96209335	1,96263134	-3,1717440361778131	4	-0,0654569566	0,00622496428
2	0	0	0	0	5864,67	1,94909155	1,94986379	-3,2848414704203674	4	-0,0696507022	0,00640499359
2	0	0	1	0	5865,97	1,93608975	1,93665564	-3,400984089821584	4	-0,0739916489	0,0065865349
2	0	0	0	0	5867,27	1,92308676	1,92364669	-3,5217693800655002	4	-0,078487277	0,00677464018
2	0	0	0	0	5868,57	1,91008615	1,91065979	-3,6267326449354515	4	-0,0831395611	0,00692945207
2	0	0	1	0	5869,87	1,89708424	1,89750171	-3,737764271597072	4	-0,0879231095	0,00709241396
2	0	0	0	0	5871,17	1,88408267	1,88463402	-3,8525519681473741	4	-0,0928570256	0,0072606504
2	0	0	1	0	5872,47	1,87108088	1,87157607	-3,9514993826548378	4	-0,0979324803	0,00739553152
2	0	0	0	0	5873,77	1,85807896	1,85859799	-4,0751294431587085	4	-0,103150688	0,0075740274
2	0	0	1	0	5875,07	1,8450774	1,84555006	-4,1605156237880294	4	-0,108507842	0,00767843984
2	0	0	0	0	5876,37	1,8320756	1,83251214	-4,2744396291673466	4	-0,114007145	0,00783296209
2	0	0	1	0	5877,67	1,81907368	1,81949413	-4,385199423879399	4	-0,119637847	0,00797884446
2	0	0	0	0	5878,97	1,80607188	1,80682683	-4,4621551769475046	4	-0,125392362	0,00806234125
2	0	0	0	0	5880,27	1,79307008	1,79385889	-4,5461690972248762	4	-0,131249458	0,00815518573
2	0	0	1	0	5881,57	1,7800684	1,78061044	-4,6250685329238624	4	-0,137215808	0,00823544525
2	0	0	0	0	5882,87	1,7670666	1,76766288	-4,7121192055444115	4	-0,143294081	0,00832943805
2	0	0	1	0	5884,17	1,7540648	1,75449467	-4,7812469912071974	4	-0,149467811	0,00838867202
2	0	0	0	0	5885,47	1,741063	1,74159682	-4,7927879629035814	4	-0,155698657	0,0083471043
2	0	0	1	0	5886,77	1,7280612	1,7285589	-4,8827974051237107	4	-0,161985114	0,00844020303
2	0	0	0	0	5888,07	1,71505928	1,71554101	-4,9516191892326022	4	-0,168380946	0,00849470589
2	0	0	1	0	5889,37	1,70205772	1,70259321	-5,0295907109975885	4	-0,174865156	0,00856334716
2	0	0	0	0	5890,67	1,68905592	1,68955529	-5,1035226148863731	4	-0,181460738	0,00862268358
2	0	0	0	0	5891,97	1,676054	1,67649722	-5,1707934985558099	4	-0,188145876	0,00866882131
2	0	0	1	0	5893,27	1,66305244	1,66371965	-5,2353416855136742	4	-0,19490543	0,00871014129
2	0	0	0	0	5894,57	1,65005064	1,65052152	-5,3032334533830579	4	-0,201759368	0,00875310134
2	0	0	1	0	5895,87	1,63704872	1,63775384	-5,387892165531703	4	-0,20871827	0,00882404111
2	0	0	0	0	5897,17	1,62404692	1,6246357	-5,4717089335123744	4	-0,21577552	0,00888953358
2	0	0	1	0	5898,47	1,61104512	1,61164784	-5,5273695327341805	4	-0,222923234	0,00890817307
2	0	0	0	0	5899,77	1,59804332	1,59834957	-5,6045268786450253	4	-0,230165288	0,00895799324
2	0	0	1	0	5901,08	1,58504164	1,58542168	-5,6554876131316051	4	-0,237482801	0,0089663323
2	0	0	0	0	5902,38	1,57203984	1,57260406	-5,7261244381467405	4	-0,244893	0,00900492631
2	0	0	0	0	5903,68	1,55903816	1,55956602	-5,7881212374365402	4	-0,252375245	0,00902695674
2	0	0	1	0	5904,98	1,54603624	1,5464381	-5,85522508745392	4	-0,259947002	0,00905474275
2	0	0	0	0	5906,28	1,53303444	1,53358042	-5,9187888763845069	4	-0,267609477	0,00907693896
2	0	0	1	0	5907,58	1,52003276	1,52046227	-5,9937655006845888	4	-0,275358349	0,00911329407
2	0	0	0	0	5908,88	1,50703096	1,50747454	-6,0533079442878592	4	-0,283194959	0,00912520755
2	0	0	1	0	5910,18	1,49402916	1,49462688	-6,151984090606391	4	-0,291136086	0,00919492077
2	0	0	0	0	5911,48	1,48102748	1,48141849	-6,2182941474020557	4	-0,299180061	0,00921189599
2	0	0	1	0	5912,78	1,46802568	1,46826041	-6,2926919112603059	4	-0,307308465	0,0092393104
2	0	0	0	0	5914,08	1,45502388	1,45540273	-6,3526374176144883	4	-0,315519512	0,00924564619
2	0	0	1	0	5915,38	1,44202209	1,44252491	-6,416402421891689	4	-0,323831737	0,00925581995
2	0	0	1	0	5916,68	1,42902017	1,42938685	-6,4599309662977754	4	-0,33220157	0,00923374016
2	0	0	0	0	5917,98	1,41601849	1,41653919	-6,5230407391985459	4	-0,340641588	0,009240143
2	0	0	1	0	5919,28	1,40301669	1,40342116	-6,5751391152541107	4	-0,34915483	0,00922768936
2	0	0	0	0	5920,58	1,39001489	1,39052331	-6,6600281322996006	4	-0,357766718	0,00926092453
2	0	0	1	0	5921,88	1,37701321	1,37752545	-6,6988081236680371	4	-0,366448432	0,00922777876
2	0	0	0	0	5923,18	1,36401141	1,3644073	-6,774696131547287	4	-0,375215203	0,00924344454
2	0	0	1	0	5924,48	1,35100949	1,35141945	-6,8488314797480998	4	-0,384065568	0,00925564393
2	0	0	0	0	5925,78	1,33800781	1,33857167	-6,9088838025927834	4	-0,393011838	0,00924803596
2	0	0	1	0	5927,08	1,32500601	1,32562387	-6,9732349067926694	4	-0,402036518	0,00924388692
2	0	0	1	0	5928,38	1,31200421	1,31260598	-7,0260399505496026	4	-0,411133945	0,0092224218
2	0	0	0	0	5929,68	1,29900253	1,29957795	-7,0610883980989453	4	-0,420292348	0,00917643495
2	0	0	1	0	5930,98	1,28600073	1,28648996	-7,0977204789717939	4	-0,429506272	0,00913114659
2	0	0	0	0	5932,28	1,27299893	1,27352214	-7,1367193137606221	4	-0,43877247	0,00908877049
2	0	0	1	0	5933,58	1,25999701	1,26047409	-7,1762359912196698	4	-0,448079616	0,00904545933
2	0	0	0	0	5934,88	1,24699533	1,24771667	-7,2286349684000013	4	-0,457454801	0,00901928823
2	0	0	1	0	5936,18	1,23399353	1,23482895	-7,2818127448360102	4	-0,466891319	0,0089917928
2	0	0	0	0	5937,48	1,22099173	1,22163057	-7,3448642194271091	4	-0,476405472	0,00897271093
2	0	0	1	0	5938,78	1,20798993	1,20847261	-7,3613834256927296	4	-0,485969126	0,00889603049
2	0	0	1	0	5940,08	1,19498825	1,19561481	-7,3969044287999526	4	-0,495573044	0,00884384848
2	0	0	0	0	5941,38	1,18198645	1,18251681	-7,4611650084455731	4	-0,505231678	0,00882295333
2	0	0	1	0	5942,68	1,16898453	1,16959894	-7,5288792252540659	4	-0,514986277	0,0088057695
2	0	0	0	0	5943,98	1,15598285	1,15667117	-7,5834944273034355	4	-0,524792731	0,00877160951
2	0	0	1	0	5945,28	1,14298117	1,14359307	-7,5841584925850253	4	-0,534641683	0,00867319107
2	0	0	0	0	5946,58	1,12997925	1,13063538	-7,6556320885817331	4	-0,544553161	0,00865572877
2	0	0	1	0	5947,88	1,11697745	1,11730695	-7,7075039222836493	4	-0,554531693	0,00861164741
2	0	0	0	0	5949,18	1,10397589	1,10445917	-7,7503875568509107	4	-0,564582825	0,00855998695
2	0	0	1	0	5950,48	1,09097397	1,09152138	-7,7737898876269606	4	-0,574666739	0,00848525763
2	0	0	1	0	5951,78	1,07797241	1,07849467	-7,8260449275626483	4	-0,584794104	0,00844034739
2	0	0	0	0	5953,08	1,06497025	1,06540537	-7,9727078874905997	4	-0,59508574	0,00849416573
2	0	0	1	0	5954,38	1,05196857	1,05244768	-8,0206461101770368	4	-0,60547626	0,00844131038
2	0	0	0	0	5955,68	1,03896677	1,03941953	-8,0581553429365158	4	-0,615928054	0,00837580394
2	0	0	1	0	5956,98	1,02596486	1,02649188	-8,1086339379350362	4	-0,626425087	0,00832344685
2	0	0	0	0	5958,28	1,01296329	1,01350391	-8,142952027420201	4	-0,636992276	0,00825291406
2	0	0	1	0	5959,58	0,999961495	1,00063622	-8,1895038013657024	4	-0,647609115	0,00819471385
2	0	0	0	0	5960,88	0,986959636	0,987538218	-8,2227289577325274	4	-0,658269882	0,00812025927
2	0	0	1	0	5962,18	0,973957956	0,974640429	-8,2697145317991667	4	-0,668971717	0,00805999804
2	0	0	0	0	5963,48	0,960956216	0,961442173	-8,3101107577482765	4	-0,679759443	0,00798969064
2	0	0	0	0	5964,78	0,947954357	0,948624551	-8,3272863999009421	4	-0,690572262	0,00789946876
2	0	0	1	0	5966,08	0,934952557	0,935356319	-8,388495427866816	4	-0,701445282	0,0078462325
2	0	0	0	0	5967,38	0,921950758	0,922438502	-8,4677627856533069	4	-0,712385058	0,00781099033
2	0	0	1	0	5968,68	0,908949077	0,90939045	-8,4863663837313869	4	-0,723396182	0,00771742035
2	0	0	0	0	5969,98	0,895947278	0,896472752	-8,5587321519851686	4	-0,734464586	0,0076726703
2	0	0	1	0	5971,28	0,882945478	0,8834548	-8,5770014449954035	4	-0,745605886	0,0075773932
2	0	0	0	0	5972,58	0,869943619	0,870326698	-8,5856073995431078	4	-0,756772757	0,00747228321
2	0	0	1	0	5973,89	0,856941938	0,857459009	-8,6502418667078144	4	-0,76798892	0,00741722761
2	0	0	0	0	5975,19	0,843940198	0,844410956	-8,6865851804614349	4	-0,779266179	0,0073350477
2	0	0	0	0	5976,49	0,830938339	0,831342936	-8,7086132814486912	4	-0,790572166	0,00723984418
2	0	0	1	0	5977,79	0,81793654	0,818445206	-8,8202713976304	4	-0,801962078	0,00721890898
2	0	0	0	0	5979,09	0,80493474	0,805437326	-8,8278369531035456	4	-0,813444912	0,00711026927
2	0	0	1	0	5980,39	0,791933	0,792249143	-8,8386582930882509	4	-0,824934006	0,00700241933
2	0	0	0	0	5981,69	0,77893126	0,779531658	-8,8880494808157094	4	-0,836457014	0,00692851609
2	0	0	1	0	5982,99	0,765929461	0,766263366	-8,877899959683433	4	-0,848012328	0,00680280942
2	0	0	0	0	5984,29	0,752927661	0,753435671	-8,9349615598718515	4	-0,859571576	0,00673191855
2	0	0	1	0	5985,59	0,739925861	0,740517855	-8,9741546983520525	4	-0,871211708	0,00664552161
2	0	0	0	0	5986,89	0,726924121	0,72726965	-9,020201655725664	4	-0,882912397	0,00656011887
2	0	0	0	0	5988,19	0,713921547	0,714310646	-9,0254128575562624	4	-0,894645095	0,00644694827
2	0	0	1	0	5989,49	0,700920522	0,701323867	-9,0641518111030272	4	-0,906398833	0,00635690615
2	0	0	0	0	5990,79	0,687918723	0,688376069	-9,0749197552601434	4	-0,918182492	0,00624695746
2	0	0	1	0	5992,09	0,674916983	0,67522794	-9,0940517336130138	4	-0,93000412	0,00614055805
2	0	0	0	0	5993,39	0,661915243	0,662220001	-9,0943127075831181	4	-0,941837072	0,00602243561
2	0	0	1	0	5994,69	0,648913383	0,649562657	-9,1137721339862029	4	-0,95368433	0,00591996592
2	0	0	0	0	5995,99	0,635911584	0,636414528	-9,1233918368816371	4	-0,965555251	0,00580625888
2	0	0	1	0	5997,29	0,622909844	0,623196244	-9,1498762543002957	4	-0,977452636	0,00570216868
2	0	0	0	0	5998,59	0,609908104	0,610348582	-9,1730803524454605	4	-0,989373088	0,00559877651
2	0	0	1	0	5999,89	0,596906304	0,597691119	-9,1836692889531827	4	-1,0013175	0,00548899779
2	0	0	1	0	6001,19	0,583904505	0,584502935	-9,1826368669668736	4	-1,01325011	0,00536727812
2	0	0	0	0	6002,49	0,570902705	0,57150507	-9,1773654744029184	4	-1,02519679	0,00524491072
2	0	0	1	0	6003,79	0,557900906	0,55849719	-9,2449926038583501	4	-1,0371716	0,00516330218
2	0	0	0	0	6005,09	0,544899106	0,545158744	-9,2533141697446413	4	-1,0492034	0,00504452502
2	0	0	1	0	6006,39	0,531897366	0,532200933	-9,2786369199554035	4	-1,06125367	0,00493809907
2	0	0	0	0	6007,69	0,518895566	0,519413292	-9,252794454495145	4	-1,07330346	0,00480602449
2	0	0	1	0	6008,99	0,505893767	0,506195128	-9,2674385632078042	4	-1,08535433	0,00469113234
2	1	0	0	0	6010,21	0,506293833	0,506475449	-9,1700840294361293	4	-1,09664106	0,00464442233
2	1	0	1	0	6011,51	0,519295633	0,51999408	-8,9600180909037376	4	-1,10841894	0,00465915632
2	1	0	0	0	6012,81	0,532297373	0,53275162	-8,7843902582923622	4	-1,11994708	0,00467989827
2	1	0	1	0	6014,11	0,545299172	0,545689464	-8,6097507899006477	4	-1,13125336	0,00469825044
2	1	0	0	0	6015,41	0,558300972	0,558587253	-8,4536112025379994	4	-1,14234173	0,00472207926
2	1	0	1	0	6016,71	0,571302772	0,571765423	-8,3415633489688333	4	-1,15326262	0,00476941746
2	1	0	0	0	6018,01	0,584304512	0,584663212	-8,2036525060733107	4	-1,16401756	0,00479637366
2	1	0	0	0	6019,31	0,597305536	0,597821534	-8,0728407344691776	4	-1,17460299	0,00482611824
2	1	0	1	0	6020,61	0,610308111	0,610628903	-7,957379574577033	4	-1,18502307	0,00485900603
2	1	0	0	0	6021,91	0,623309851	0,623767018	-7,8568223218123021	4	-1,19529808	0,00490082661
2	1	0	1	0	6023,21	0,63631171	0,636905134	-7,7543146858612595	4	-1,20544851	0,00493876263
2	1	0	0	0	6024,51	0,649313509	0,649612665	-7,6502762983242573	4	-1,21546483	0,00496971654
2	1	0	1	0	6025,81	0,662315249	0,662670612	-7,5567883402109146	4	-1,22535443	0,00500766141
2	1	0	0	0	6027,11	0,675316989	0,675878882	-7,4715635677178509	4	-1,23512208	0,00504987221
2	1	0	1	0	6028,41	0,688318789	0,68896687	-7,3716786354780198	4	-1,24476445	0,0050788424
2	1	0	0	0	6029,71	0,701320589	0,701904655	-7,2765715569257882	4	-1,2542876	0,00510745961
2	1	0	1	0	6031,01	0,714322329	0,714822531	-7,1848108222087603	4	-1,26368868	0,00513586449
2	1	0	1	0	6032,31	0,727324188	0,727940619	-7,096398162345111	4	-1,27297199	0,00516575668
2	1	0	0	0	6033,61	0,740325928	0,741038561	-7,0232203130920819	4	-1,28215075	0,00520447688
2	1	0	1	0	6034,91	0,753327727	0,753635943	-6,9310346494118426	4	-1,2912178	0,00522347679
2	1	0	0	0	6036,21	0,766329467	0,766613841	-6,8461658904949875	4	-1,30018079	0,00524836546
2	1	0	1	0	6037,51	0,779331267	0,779862106	-6,764524191617952	4	-1,30903018	0,00527539616
2	1	0	0	0	6038,81	0,792333007	0,792609572	-6,6843321944276826	4	-1,3177799	0,00529806549
2	1	0	1	0	6040,11	0,805334806	0,805767715	-6,611757094661399	4	-1,32642186	0,00532754045
2	1	0	0	0	6041,41	0,818336606	0,818835795	-6,5291809837023488	4	-1,33496487	0,00534632709
2	1	0	1	0	6042,72	0,831338465	0,831993818	-6,4595343594749722	4	-1,34341013	0,00537429284
2	1	0	1	0	6044,02	0,844340205	0,844851553	-6,3826043307781363	4	-1,35174406	0,00539235305
2	1	0	0	0	6045,32	0,857341886	0,857809424	-6,2661442309617997	4	-1,3599683	0,00537515758
2	1	0	1	0	6046,62	0,870343745	0,870677173	-6,1954407989978867	4	-1,36807537	0,00539422873
2	1	0	0	0	6047,92	0,883345544	0,883815229	-6,1363155208528179	4	-1,37609494	0,00542336889
2	1	0	1	0	6049,22	0,896347404	0,896963477	-6,0493163578212301	4	-1,38402009	0,0054260157
2	1	0	0	0	6050,52	0,909349084	0,909821093	-5,9519029756387174	4	-1,39182472	0,00541516673
2	1	0	1	0	6051,82	0,922350824	0,922939181	-5,8970368765294554	4	-1,39952457	0,00544260629
2	1	0	0	0	6053,12	0,935352683	0,936097264	-5,8313139726718144	4	-1,40714896	0,00545867719
2	1	0	1	0	6054,42	0,948354483	0,948854983	-5,754489786922953	4	-1,4146775	0,00546017615
2	1	0	1	0	6055,72	0,961356103	0,961712599	-5,6654473642508378	4	-1,42210293	0,00544853229
2	1	0	0	0	6057,02	0,974357963	0,974820614	-5,5982608298460621	4	-1,42942715	0,00545730023
2	1	0	1	0	6058,32	0,987359762	0,987818539	-5,5141997399429421	4	-1,43664932	0,00544702867
2	1	0	0	0	6059,62	1,00036156	1,00087643	-5,4267355725169184	4	-1,44376409	0,00543149188
2	1	0	1	0	6060,92	1,01336324	1,01367414	-5,3478821764389862	4	-1,45077062	0,00542100985
2	1	0	0	0	6062,22	1,02636504	1,02686238	-5,2619696458180768	4	-1,45766699	0,00540331891
2	1	0	1	0	6063,52	1,03936684	1,03984022	-5,1923474508027424	4	-1,464468	0,00539921178
2	1	0	0	0	6064,82	1,05236852	1,05277801	-5,1151427961885965	4	-1,47117007	0,00538510969
2	1	0	1	0	6066,12	1,06537044	1,06606627	-5,0489764822026189	4	-1,47777867	0,00538254343
2	1	0	0	0	6067,42	1,07837224	1,07886398	-4,9663273046414106	4	-1,48429036	0,00535799144
2	1	0	0	0	6068,72	1,09137416	1,09189188	-4,8770745334525997	4	-1,49069202	0,00532523822
2	1	0	1	0	6070,02	1,10437572	1,10483968	-4,7998891932269171	4	-1,49699318	0,00530310813
2	1	0	0	0	6071,32	1,11737752	1,11770749	-4,7245969325304211	4	-1,50318015	0,00528071728
2	1	0	1	0	6072,62	1,13037944	1,13098574	-4,648194771260041	4	-1,50926995	0,00525704212
2	1	0	0	0	6073,92	1,143381	1,14393353	-4,5744529751439987	4	-1,51526713	0,00523287011
2	1	0	1	0	6075,22	1,1563828	1,15698171	-4,4940493889153286	4	-1,52117109	0,00519953296
2	1	0	0	0	6076,52	1,16938472	1,16993952	-4,4113335820535955	4	-1,52696419	0,00516099343
2	1	0	1	0	6077,82	1,18238652	1,18283713	-4,3394902360935962	4	-1,53265274	0,00513291033
2	1	0	0	0	6079,12	1,19538832	1,19600534	-4,247734233736992	4	-1,53823769	0,00508031296
2	1	0	0	0	6080,42	1,20839	1,20906329	-4,175239055107024	4	-1,54371119	0,00504812831
2	1	0	1	0	6081,72	1,2213918	1,22186089	-4,1086964408556685	4	-1,54909873	0,00502025569
2	1	0	0	0	6083,02	1,2343936	1,23505926	-4,0310215105613165	4	-1,55439258	0,0049785506
2	1	0	1	0	6084,32	1,24739528	1,24805701	-3,9650858181218285	4	-1,55959129	0,00494865328
2	1	0	0	0	6085,62	1,2603972	1,26099491	-3,8796244151890349	4	-1,5646894	0,00489218673
2	1	0	1	0	6086,92	1,273399	1,27410293	-3,8040095878144198	4	-1,56968403	0,00484669954
2	1	0	0	0	6088,22	1,28640068	1,28691053	-3,7375673428177907	4	-1,57458699	0,00480991462
2	1	0	1	0	6089,52	1,29940248	1,29998851	-3,6722592636942938	4	-1,57940507	0,00477389479
2	1	0	0	0	6090,82	1,31240427	1,31286633	-3,5967325307428768	4	-1,58412695	0,00472202897
2	1	0	0	0	6092,12	1,32540596	1,32595432	-3,519689369946729	4	-1,58875012	0,00466694729
2	1	0	1	0	6093,42	1,33840775	1,33874202	-3,449498539169632	4	-1,59327531	0,0046179886
2	1	0	0	0	6094,72	1,35140967	1,35184014	-3,3737955267230682	4	-1,59771407	0,0045608324
2	1	0	1	0	6096,02	1,36441147	1,36504805	-3,302796915173545	4	-1,60206032	0,0045084767
2	1	0	0	0	6097,32	1,37741327	1,37791598	-3,2352180667221402	4	-1,60631001	0,00445785886
2	1	0	1	0	6098,62	1,39041507	1,39091396	-3,174420658499017	4	-1,61047769	0,00441534584
2	1	0	0	0	6099,92	1,40341675	1,40400183	-3,1069934573024442	4	-1,6145575	0,0043622246
2	1	0	1	0	6101,22	1,41641855	1,41704988	-3,0282769631594458	4	-1,61854148	0,00429121964
2	1	0	0	0	6102,52	1,42942035	1,42985749	-2,9627742593487059	4	-1,62243485	0,00423634518
2	1	0	0	0	6103,82	1,44242227	1,44288528	-2,8925644507989434	4	-1,6262418	0,00417363876
2	1	0	1	0	6105,12	1,45542407	1,45593357	-2,8237183342377392	4	-1,62995553	0,00411114609
2	1	0	0	0	6106,42	1,46842575	1,46891129	-2,7641261145472598	4	-1,63359165	0,00406025583
2	1	0	1	0	6107,72	1,48142743	1,48198926	-2,7026057106753187	4	-1,63714421	0,00400523283
2	1	0	0	0	6109,02	1,49442935	1,49500728	-2,6419401504099405	4	-1,64061916	0,00394971995
2	1	0	1	0	6110,32	1,50743103	1,50794506	-2,5766617767512726	4	-1,64400673	0,00388546451
2	1	0	0	0	6111,62	1,52043271	1,52094305	-2,5085980333387888	4	-1,64731193	0,00381543464
2	1	0	1	0	6112,92	1,53343463	1,53405106	-2,4486840510120019	4	-1,65053403	0,00375640625
2	1	0	0	0	6114,22	1,54643643	1,54689884	-2,3904498207072429	4	-1,65367973	0,00369778415
2	1	0	1	0	6115,53	1,55943823	1,56007683	-2,3236187348763123	4	-1,65674365	0,00362502364
2	1	0	1	0	6116,83	1,57243991	1,57293451	-2,257505022610232	4	-1,65972269	0,0035509076
2	1	0	0	0	6118,13	1,58544183	1,58592236	-2,2002392367770333	4	-1,66262102	0,00348940864
2	1	0	1	0	6119,43	1,59844339	1,59898043	-2,1322030108422042	4	-1,66543782	0,00340935099
2	1	0	0	0	6120,73	1,61144519	1,61180806	-2,070680312191456	4	-1,66816854	0,00333753927
2	1	0	1	0	6122,03	1,62444711	1,62501633	-2,0092386975884525	4	-1,67081869	0,00326504558
2	1	0	0	0	6123,33	1,63744891	1,63788402	-1,948524431635935	4	-1,67338943	0,00319145713
2	1	0	1	0	6124,63	1,65045047	1,650962	-1,8821526039391827	4	-1,67587912	0,00310736243
2	1	0	0	0	6125,93	1,66345239	1,66395986	-1,8277252167463302	4	-1,67829001	0,00304126134
2	1	0	1	0	6127,23	1,67645419	1,67696786	-1,7687875591218544	4	-1,68062794	0,0029662
2	1	0	1	0	6128,53	1,68945575	1,68994582	-1,712533388907712	4	-1,6828891	0,00289408863
2	1	0	0	0	6129,83	1,70245767	1,70281351	-1,6503463412324563	4	-1,68507171	0,00281023211
2	1	0	1	0	6131,13	1,71545947	1,71588147	-1,5914893305550013	4	-1,68717742	0,00273080706
2	1	0	0	0	6132,43	1,72846127	1,72878921	-1,5334112253040112	4	-1,68920684	0,00265094475
2	1	0	1	0	6133,73	1,74146307	1,74199748	-1,472536594606936	4	-1,69116127	0,00256515504
2	1	0	0	0	6135,03	1,75446486	1,75506544	-1,4178585180391856	4	-1,69303989	0,00248843455
2	1	0	1	0	6136,33	1,76746666	1,76805329	-1,3570483646665998	4	-1,69484246	0,00239933375
2	1	0	0	0	6137,63	1,78046834	1,78088093	-1,3014915895958747	4	-1,69657004	0,00231780158
2	1	0	1	0	6138,93	1,79347014	1,79417932	-1,2398302561293064	4	-1,69822288	0,00222447771
2	1	0	1	0	6140,23	1,80647123	1,80702662	-1,1812208933755138	4	-1,6997968	0,00213449751
2	1	0	0	0	6141,53	1,81947386	1,82025516	-1,1229690074299779	4	-1,70129359	0,00204409007
2	1	0	1	0	6142,83	1,83247566	1,83302283	-1,0661360813925747	4	-1,70271659	0,00195425167
2	1	0	0	0	6144,13	1,84547722	1,84577048	-1,0093233892694115	4	-1,70406449	0,00186297926
2	1	0	1	0	6145,43	1,85847914	1,85898852	-0,9522080142051017	4	-1,70533943	0,00177014375
2	1	0	0	0	6146,73	1,87148094	1,87205648	-0,89452771594127078	4	-1,70653892	0,00167460646
2	1	0	1	0	6148,03	1,8844825	1,88519466	-0,83756056831528806	4	-1,70766425	0,00157896476
2	1	0	0	0	6149,33	1,89748442	1,89813256	-0,78283146551499878	4	-1,70871711	0,00148591795
2	1	0	1	0	6150,63	1,91048622	1,91105044	-0,72790707865108928	4	-1,70969999	0,00139106717
2	1	0	1	0	6151,93	1,92348874	1,92393017	-0,67668244971614118	4	-1,71060991	0,00130188977
2	1	0	0	0	6153,23	1,93648982	1,93691599	-0,62044228318457946	4	-1,71145177	0,00120174454
2	1	0	1	0	6154,53	1,94949162	1,95003402	-0,56190026272088422	4	-1,71222091	0,00109572464
2	1	0	0	0	6155,83	1,96249354	1,96299171	-0,51015721059714816	4	-1,7129178	0,0010014344
2	1	0	1	0	6157,17	1,97589517	1,97649074	-0,45594611049940205	4	-1,71356452	0,000901173276
2	1	0	0	0	6158,47	1,98889709	1,9895885	-0,40188208548352166	4	-1,71412134	0,000799579953
2	1	0	1	0	6159,77	2,00189853	2,00242639	-0,34880303257766074	4	-1,71460938	0,000698452408
2	1	0	0	0	6161,07	2,01490045	2,01540399	-0,29732131104295514	4	-1,71502936	0,000599222549
2	1	0	1	0	6162,37	2,02790236	2,02856231	-0,245328908863788	4	-1,71538126	0,000497664965
2	1	0	0	0	6163,67	2,04090405	2,04147005	-0,19383436616044525	4	-1,71566641	0,000395707058
2	1	0	0	0	6164,97	2,05390477	2,05442643	-0,14315535307882144	4	-1,71588516	0,000294102152
2	1	0	1	0	6166,27	2,06690764	2,06757593	-0,093298820681714906	4	-1,71603847	0,0001929024
2	1	0	0	0	6167,61	2,08030939	2,0807941	-0,041575200855731962	4	-1,71612823	8,65094335E-005
2	1	0	1	0	6168,97	2,09391117	2,09438777	0,010443629652096842	4	-1,71614873	2,18730111E-005
2	1	0	0	0	6170,29	2,10711336	2,10760093	0,06096776679623872	4	-1,71610117	0,000128495725
2	1	0	1	0	6171,63	2,12051511	2,12085938	0,11197943364580464	4	-1,71598494	0,000237492626
2	1	0	0	0	6172,93	2,13351655	2,13391757	0,16063969337847085	4	-1,7158072	0,000342791871
2	1	0	1	0	6174,23	2,14651871	2,14706564	0,20907730873053242	4	-1,71556628	0,00044890272
2	1	0	0	0	6175,53	2,15952039	2,15993309	0,25855932578754803	4	-1,71526194	0,000558470841
2	1	0	1	0	6176,83	2,17252207	2,17298102	0,30850713661250938	4	-1,71489286	0,000670380134
2	1	0	1	0	6178,13	2,18552279	2,18593764	0,35725287096898842	4	-1,71446002	0,000780932489
2	1	0	0	0	6179,43	2,19852567	2,19904709	0,40605517538885216	4	-1,71396351	0,000892934448
2	1	0	1	0	6180,73	2,21152735	2,21228528	0,45310442972307462	4	-1,71340394	0,00100239622
2	1	0	0	0	6182,03	2,22452927	2,22494268	0,50039619828263949	4	-1,71278441	0,00111335283
2	1	0	1	0	6183,33	2,23753095	2,23802066	0,55063058529049158	4	-1,71210003	0,00123232265
2	1	0	0	0	6184,63	2,25053263	2,25095844	0,59751058680315789	4	-1,71135294	0,00134497148
2	1	0	1	0	6185,93	2,26353455	2,26401663	0,64619945983091891	4	-1,71054411	0,00146300637
2	1	0	0	0	6187,23	2,27653623	2,27730489	0,69589375782137267	4	-1,70967305	0,00158476224
2	1	0	1	0	6188,54	2,28953815	2,29006243	0,74504863626013184	4	-1,70873654	0,00170620787
2	1	0	1	0	6189,84	2,30253911	2,30303907	0,79177339628928678	4	-1,70773566	0,00182348501
2	1	0	0	0	6191,14	2,31554174	2,3160882	0,84146842888246093	4	-1,70667326	0,00194891507
2	1	0	1	0	6192,44	2,32854342	2,32904601	0,88713272723058803	4	-1,70554614	0,00206617289
2	1	0	0	0	6193,74	2,34154534	2,34206414	0,93465493588398016	4	-1,70436025	0,00218902179
2	1	0	1	0	6195,04	2,35454702	2,35518217	0,98275354007880013	4	-1,70311141	0,00231456361
2	1	0	0	0	6196,38	2,36794901	2,36851048	1,0340225305408203	4	-1,70175862	0,00244909315
2	1	0	1	0	6197,68	2,38095069	2,38163853	1,0843064337968862	4	-1,70038152	0,00258242595
2	1	0	0	0	6198,98	2,39395237	2,39432621	1,1269271392375226	4	-1,69894361	0,00269823126
2	1	0	1	0	6200,28	2,40695429	2,40723395	1,1775050032883874	4	-1,69744182	0,00283453008
2	1	0	0	0	6201,58	2,41995597	2,42053246	1,2235232886547838	4	-1,69588208	0,00296157785
2	1	0	1	0	6202,88	2,4329586	2,43329048	1,2735791274817712	4	-1,69425857	0,00309898797
2	1	0	1	0	6204,18	2,44595981	2,44636774	1,322583093307915	4	-1,69257283	0,00323552452
2	1	0	0	0	6205,48	2,45896149	2,45954585	1,3704737533504766	4	-1,69082201	0,00337074301
2	1	0	1	0	6206,78	2,47196317	2,47242355	1,4184154346585229	4	-1,68900824	0,00350692379
2	1	0	0	0	6208,08	2,48496509	2,48541141	1,4710523625835776	4	-1,68712854	0,00365617033
2	1	0	1	0	6209,38	2,497967	2,49863982	1,5225950255989994	4	-1,68518126	0,00380441663
2	1	0	0	0	6210,68	2,51096845	2,51148748	1,5714119710028131	4	-1,68316865	0,00394658139
2	1	0	1	0	6211,98	2,52397037	2,52438521	1,6222884456316624	4	-1,68109334	0,00409528101
2	1	0	0	0	6213,28	2,53697228	2,53778362	1,6740317294994979	4	-1,67895031	0,00424833037
2	1	0	1	0	6214,58	2,54997373	2,55069137	1,7300172784924486	4	-1,67673779	0,00441274
2	1	0	1	0	6215,88	2,56297565	2,56358957	1,7875724602490662	4	-1,67445791	0,00458260207
2	1	0	0	0	6217,18	2,57597756	2,57646704	1,8458090281734842	4	-1,67209768	0,00475566601
2	1	0	1	0	6218,48	2,58897924	2,58934498	1,8982133145133702	4	-1,66966343	0,00491512893
2	1	0	0	0	6219,78	2,60198092	2,60252285	1,9554499934117011	4	-1,66715443	0,00508910324
2	1	0	1	0	6221,08	2,61498284	2,61551094	2,015746791536607	4	-1,66457462	0,00527220778
2	1	0	0	0	6222,38	2,62798452	2,62885928	2,065293104698256	4	-1,66192341	0,00542936474
2	1	0	1	0	6223,68	2,64098644	2,64148664	2,1204325966537053	4	-1,65920007	0,00560109457
2	1	0	0	0	6224,98	2,65398812	2,65442467	2,1732862157126186	4	-1,65640938	0,00576882437
2	1	0	0	0	6226,28	2,66698909	2,66743112	2,2299480673825248	4	-1,65354991	0,00594823295
2	1	0	1	0	6227,58	2,67999172	2,68046021	2,2882327611247747	4	-1,6506182	0,00613351678
2	1	0	0	0	6228,88	2,6929934	2,693578	2,3411889759202752	4	-1,64760697	0,00630617514
2	1	0	1	0	6230,18	2,70599532	2,70667648	2,3946981597691738	4	-1,64451921	0,0064816731
2	1	0	0	0	6231,48	2,718997	2,71929407	2,468389714757599	4	-1,64135337	0,00671227742
2	1	0	1	0	6232,78	2,73199868	2,73259211	2,5247037149965782	4	-1,63810909	0,00689898524
2	1	0	0	0	6234,08	2,7450006	2,74546981	2,5860926676541533	4	-1,63478982	0,00710003916
2	1	0	1	0	6235,38	2,75800252	2,75858808	2,6390442103147507	4	-1,63139367	0,00728003588
2	1	0	0	0	6236,68	2,7710042	2,7715857	2,6915199756622314	4	-1,62792599	0,00745977834
2	1	0	1	0	6237,98	2,78400588	2,78453398	2,7410734612494707	4	-1,62439108	0,00763261225
2	1	0	1	0	6239,28	2,7970078	2,79752135	2,7885162247120227	4	-1,62079096	0,0078009339
2	1	0	0	0	6240,58	2,81000948	2,81063962	2,8455095508446266	4	-1,61712241	0,00799770188
2	1	0	1	0	6241,88	2,82301116	2,82344723	2,9015383031219174	4	-1,61338937	0,00819233991
2	1	0	0	0	6243,18	2,83601332	2,83670545	2,9544363828996794	4	-1,60957909	0,00838086568
2	1	0	1	0	6244,48	2,849015	2,84957314	2,9978250774244442	4	-1,60570717	0,00854252186
2	1	0	0	0	6245,78	2,86201668	2,86257148	3,0707066388179846	4	-1,60176158	0,00879011769
2	1	0	1	0	6247,08	2,8750186	2,87569928	3,1256723006566387	4	-1,59773314	0,00898849405
2	1	0	0	0	6248,38	2,88802028	2,88862705	3,1804502407709696	4	-1,59362829	0,00918713491
2	1	0	1	0	6249,68	2,90102196	2,90159488	3,2297600470483162	4	-1,58946097	0,00937145483
2	1	0	0	0	6250,98	2,91402483	2,91467404	3,2786677557704141	4	-1,58523047	0,00955624785
2	1	0	0	0	6252,28	2,92702556	2,92734027	3,3463188757499014	4	-1,58092368	0,00979581382
2	1	0	1	0	6253,58	2,94002724	2,9403286	3,4011558070778707	4	-1,57653379	0,0100005157
2	1	0	0	0	6254,88	2,95302916	2,95352674	3,4584538477162496	4	-1,57207787	0,0102146361
2	1	0	1	0	6256,18	2,96603084	2,96649432	3,5141469463705875	4	-1,56754601	0,0104246968
2	1	0	0	0	6257,48	2,97903275	2,97947216	3,5625267711778432	4	-1,5629406	0,0106144492
2	1	0	1	0	6258,78	2,99203444	2,9926002	3,6302213035523891	4	-1,55826175	0,0108638015
2	1	0	0	0	6260,08	3,00503612	3,00542784	3,6865448591609747	4	-1,5535028	0,0110796448
2	1	0	1	0	6261,39	3,01803803	3,01852608	3,7474006401995795	4	-1,54867411	0,011311627
2	1	0	0	0	6262,69	3,03103995	3,03153396	3,8023523734013197	4	-1,54376137	0,0115269599
2	1	0	0	0	6263,99	3,04404163	3,04448175	3,8556121240059437	4	-1,538782	0,0117383404
2	1	0	1	0	6265,29	3,05704355	3,05766988	3,9163887761533222	4	-1,53372955	0,0119750239
2	1	0	0	0	6266,59	3,07004523	3,07039738	3,9834099734822957	4	-1,5286001	0,0122306515
2	1	0	1	0	6267,89	3,08304691	3,08353567	4,0518741893271597	4	-1,5233742	0,0124940984
2	1	0	0	0	6269,19	3,09604883	3,09676385	4,1233903293808256	4	-1,51806235	0,0127691664
2	1	0	1	0	6270,49	3,10905051	3,10947132	4,1828829273581363	4	-1,51266253	0,0130065549
2	1	0	0	0	6271,79	3,12205219	3,12271953	4,2364476956427027	4	-1,5071913	0,0132292379
2	1	0	1	0	6273,09	3,13505411	3,135427	4,3693251696725683	4	-1,50162506	0,0136997001
2	1	0	0	0	6274,39	3,14805579	3,14848495	4,4396520741283962	4	-1,49589348	0,0139781777
2	1	0	0	0	6275,69	3,16105628	3,16128135	4,4960900255907962	4	-1,49009335	0,0142134055
2	1	0	1	0	6276,99	3,17405939	3,17460108	4,5729805392523558	4	-1,48419535	0,0145173892
2	1	0	0	0	6278,29	3,18706107	3,18769908	4,6221314929425574	4	-1,47822046	0,0147339646
2	1	0	1	0	6279,59	3,20006299	3,20048666	4,7006606236100269	4	-1,47214556	0,0150444014
2	1	0	0	0	6280,89	3,21306467	3,21360445	4,7450920169552051	4	-1,46600902	0,0152488491
2	1	0	1	0	6282,19	3,22606659	3,22658229	4,8138263995448794	4	-1,45980024	0,0155322067
2	1	0	0	0	6283,49	3,23906827	3,23965049	4,8874121966461248	4	-1,45349133	0,0158335082
2	1	0	1	0	6284,79	3,25206995	3,25248837	4,9222396748761312	4	-1,44710386	0,0160095282
2	1	0	0	0	6286,09	3,26507187	3,26564646	5,0164545401930669	4	-1,44067037	0,0163819678
2	1	0	0	0	6287,39	3,27807307	3,27850366	5,0639394144146624	4	-1,43412209	0,0166021436
2	1	0	1	0	6288,69	3,29107523	3,29139137	5,1526482875148358	4	-1,42749453	0,0169593822
2	1	0	0	0	6289,99	3,30407715	3,30461001	5,2074605127175674	4	-1,42076409	0,0172086265
2	1	0	1	0	6291,29	3,31707883	3,31745768	5,231702700257287	4	-1,41397166	0,0173559524
2	1	0	0	0	6292,59	3,33008051	3,33036542	5,3182850852608608	4	-1,4071039	0,0177118331
2	1	0	1	0	6293,89	3,34308243	3,34377384	5,4078745730221261	4	-1,40011442	0,01808271
2	1	0	0	0	6295,19	3,35608411	3,35657167	5,4430374838411718	4	-1,39306021	0,0182699449
2	1	0	1	0	6296,49	3,36908603	3,36943936	5,5128582951923091	4	-1,38593066	0,0185752418
2	1	0	0	0	6297,79	3,38208771	3,38255763	5,5846289644638675	4	-1,37872565	0,0188903287
2	1	0	1	0	6299,09	3,39508939	3,39549541	5,6691983342170573	4	-1,37140858	0,0192497373
2	1	0	1	0	6300,39	3,40809226	3,40880513	5,7160748481473862	4	-1,36399865	0,0194849856
2	1	0	0	0	6301,69	3,42109299	3,42164135	5,7730375975370266	4	-1,35653806	0,0197532643
2	1	0	1	0	6302,99	3,43409514	3,43447876	5,8951260484755034	4	-1,34894073	0,0202466846
2	1	0	0	0	6304,29	3,44709659	3,44760704	5,8476480556031091	4	-1,34134078	0,0201603919
2	1	0	1	0	6305,59	3,46009874	3,4606452	5,8827743344009101	4	-1,3337326	0,0203581955
2	1	0	0	0	6306,89	3,47310042	3,47353292	5,9246419208745062	4	-1,32604194	0,0205794387
2	1	0	1	0	6308,19	3,48610187	3,48655057	6,0419935745497421	4	-1,31822574	0,0210657157
2	1	0	0	0	6309,49	3,49910402	3,49940825	6,1061584316194061	4	-1,3103267	0,0213679411
2	1	0	1	0	6310,79	3,5121057	3,51270652	6,4653605272372096	4	-1,30208445	0,0227109138
2	1	0	0	0	6312,09	3,52510858	3,5256145	6,2925146975807142	4	-1,29386497	0,022184981
2	1	0	0	0	6313,39	3,5381093	3,53873253	6,3465916464726042	4	-1,28565621	0,0224588905
2	1	0	1	0	6314,69	3,55111122	3,55148005	6,4227836057543475	4	-1,27733541	0,0228103884
2	1	0	0	0	6315,99	3,5641129	3,56466842	6,5229273339112448	4	-1,26889443	0,0232520737
2	1	0	1	0	6317,29	3,57711458	3,57777643	6,7060773347814694	4	-1,26026917	0,0239928458
2	1	0	0	0	6318,59	3,5901165	3,59052372	6,9569012895226342	4	-1,25142539	0,024978919
2	1	0	1	0	6319,89	3,60311818	3,60383224	6,9922397260864384	4	-1,24235988	0,0251988582
2	1	0	0	0	6321,19	3,61611986	3,61648965	7,0417340050140928	4	-1,23322845	0,0254663583
2	1	0	1	0	6322,49	3,62912178	3,62962818	7,0856704587737446	4	-1,22403789	0,02571835
2	1	0	1	0	6323,79	3,64212227	3,64255524	7,1747925503810995	4	-1,21477401	0,0261345785
2	1	0	0	0	6325,09	3,65512514	3,65584397	7,2946786632140326	4	-1,20533502	0,0266682077
2	1	0	1	0	6326,39	3,66812706	3,66864157	7,4261565009752973	4	-1,19576812	0,0272439066
2	1	0	0	0	6327,69	3,68112874	3,68168974	7,4797676255305562	4	-1,18608057	0,0275381841
2	1	0	1	0	6328,99	3,69413042	3,69483781	7,5783836692571354	4	-1,17627609	0,0280008987
2	1	0	0	0	6330,29	3,70713234	3,70785546	7,6559439847866598	4	-1,16639686	0,028387133
2	1	0	1	0	6331,59	3,72013402	3,72069311	7,5606415122747418	4	-1,15641332	0,0281308275
2	1	0	0	0	6332,89	3,73313594	3,73369098	7,6423896749814234	4	-1,14651549	0,0285343211
2	1	0	1	0	6334,20	3,74613762	3,7466588	7,7660966043671117	4	-1,13647759	0,0290969145
2	1	0	1	0	6335,50	3,75913906	3,75966692	7,8040322889450522	4	-1,12632561	0,0293405615
2	1	0	0	0	6336,80	3,77214122	3,77273464	8,082353500028425	4	-1,1159606	0,0304925758
2	1	0	1	0	6338,10	3,7851429	3,78555274	8,1824178745349146	4	-1,10537422	0,0309749749
2	1	0	0	0	6339,40	3,79814506	3,79861069	8,4114773720502566	4	-1,09460163	0,0319519266
2	1	0	1	0	6340,70	3,8111465	3,81167865	8,5017508491873882	4	-1,08360314	0,0324059427
2	1	0	0	0	6342,00	3,82414865	3,8245461	8,6614898021022106	4	-1,07246435	0,0331262685
2	1	0	1	0	6343,30	3,83715034	3,83760428	9,0162877738476083	4	-1,0609771	0,0346009433
2	1	0	0	0	6344,60	3,85015225	3,85049224	9,2559298227230477	4	-1,04907608	0,0356398858
2	1	0	1	0	6345,90	3,86315393	3,86372042	9,324541789789975	4	-1,03699112	0,036027424
2	1	0	0	0	6347,20	3,87615561	3,87658811	9,5702006394664346	4	-1,02475965	0,0370997265
2	1	0	0	0	6348,50	3,88915801	3,88954592	9,6462582106574362	4	-1,01221335	0,037519563
2	1	0	1	0	6349,80	3,90215921	3,90277386	9,9004622225960051	4	-0,999474764	0,038639266
2	1	0	0	0	6351,10	3,91516113	3,91593218	9,7550655826925952	4	-0,986798406	0,0382001735
2	1	0	1	0	6352,40	3,92816281	3,92870975	9,8452960749467302	4	-0,974053383	0,0386793092
2	1	0	0	0	6353,74	3,94156456	3,94189835	10,09687920659779	4	-0,960716903	0,0398008712
2	1	0	1	0	6355,04	3,95456648	3,95511627	10,186985038220906	4	-0,94756794	0,0402907096
2	1	0	0	0	6356,34	3,96756816	3,96807408	10,51562122503917	4	-0,934198976	0,0417267643
2	1	0	1	0	6357,64	3,98056984	3,98125219	10,634039074182482	4	-0,920438111	0,0423367918
2	1	0	0	0	6358,94	3,99357176	3,99407983	10,697184691826507	4	-0,90656966	0,0427254103
2	1	0	1	0	6360,24	4,0065732	4,00696802	10,78609345545368	4	-0,892599523	0,0432195328
2	1	0	0	0	6361,54	4,01957655	4,0200572	10,956452241806005	4	-0,878454447	0,0440455638
2	1	0	0	0	6362,84	4,03257704	4,03309345	11,233314571281309	4	-0,863979936	0,0453050062
2	1	0	1	0	6364,14	4,04557848	4,04600096	12,126544353862613	4	-0,849090993	0,0490640104
2	1	0	0	0	6365,44	4,0585804	4,05894899	12,34252771983543	4	-0,833202541	0,050097689
2	1	0	1	0	6366,74	4,07158232	4,0720973	12,763012672464043	4	-0,816819429	0,051972229
2	1	0	0	0	6368,04	4,08458424	4,08518505	12,831949825088174	4	-0,800218344	0,0524208881
2	1	0	1	0	6369,34	4,09758568	4,09825325	12,900641048947989	4	-0,783496976	0,0528700948
2	1	0	0	0	6370,64	4,11058807	4,11115074	13,01798397799331	4	-0,766653299	0,0535188951
2	1	0	0	0	6371,94	4,12358809	4,12412691	12,978295320341712	4	-0,749711812	0,0535241365
2	1	0	1	0	6373,24	4,13659096	4,13718653	13,149185659224486	4	-0,732705235	0,054400634
2	1	0	0	0	6374,54	4,14959288	4,15008545	13,20836893171071	4	-0,715584934	0,0548158586
2	1	0	1	0	6375,84	4,1625948	4,1631031	13,255406096577587	4	-0,698369801	0,055183623
2	1	0	0	0	6377,14	4,17559624	4,17639065	14,01467444499329	4	-0,680577636	0,0585307553
2	1	0	1	0	6378,44	4,18859863	4,18910837	14,472736994425418	4	-0,662076533	0,0606278628
2	0	0	0	1	6379,66	4,19919968	4,19983292	14,666669855515174	4	-0,644189954	0,0615975633
2	0	0	1	1	6380,96	4,18619776	4,18664551	14,37698548535505	4	-0,625194013	0,0601913407
2	0	0	0	1	6382,26	4,17319632	4,17351723	14,180230557918549	4	-0,606654644	0,0591814369
2	0	0	1	1	6383,56	4,1601944	4,16061974	14,041031474868419	4	-0,588210166	0,0584193915
2	0	0	0	1	6384,86	4,14719248	4,14762115	13,794997190435704	4	-0,570091128	0,0572164208
2	0	0	1	1	6386,16	4,13419104	4,13479376	13,439472953478499	4	-0,552400947	0,0555694476
2	0	0	0	1	6387,46	4,12118912	4,12166595	13,050647123960061	4	-0,535181224	0,0537904091
2	0	0	0	1	6388,76	4,10818672	4,10862684	12,823200269799037	4	-0,51843673	0,0526857451
2	0	0	1	1	6390,06	4,09518576	4,09569025	12,568559279044509	4	-0,50192517	0,0514769256
2	0	0	0	1	6391,36	4,08218384	4,08265209	12,280471784373098	4	-0,485765606	0,050136894
2	0	0	1	1	6392,66	4,06918192	4,06957388	11,95916348944111	4	-0,470006138	0,0486687012
2	0	0	0	1	6393,96	4,05618	4,05670595	11,72857308387759	4	-0,454587698	0,0475793704
2	0	0	1	1	6395,26	4,04317856	4,04367781	11,520093167821542	4	-0,439427286	0,0465835445
2	0	0	0	1	6396,56	4,03017664	4,03040981	11,25190569460392	4	-0,424620658	0,0453497916
2	0	0	1	1	6397,86	4,01717472	4,01759243	10,985391748448208	4	-0,410142988	0,0441348255
2	0	0	0	1	6399,16	4,00417328	4,00455475	10,753996891279997	4	-0,396032333	0,0430649705
2	0	0	1	1	6400,46	3,9911716	3,99169683	10,439041224618741	4	-0,382277876	0,041669488
2	0	0	1	1	6401,76	3,97816944	3,97866821	10,169047103311698	4	-0,36889115	0,0404592641
2	0	0	0	1	6403,06	3,965168	3,96575093	9,9132424543301235	4	-0,355818212	0,0393134505
2	0	0	1	1	6404,37	3,95216584	3,95265245	9,6406724254289882	4	-0,343097568	0,0381062292
2	0	0	0	1	6405,67	3,9391644	3,93962479	9,3923912346362995	4	-0,330647767	0,0370024964
2	0	0	1	1	6406,97	3,92616224	3,9269073	9,1965597098072461	4	-0,318545282	0,036114037
2	0	0	0	1	6408,27	3,91316056	3,91381931	9,0251009017228941	4	-0,306705981	0,035322614
2	0	0	1	1	6409,57	3,90015912	3,9005208	8,753381865719945	4	-0,29515481	0,0341427475
2	0	0	0	1	6410,87	3,88715696	3,8876431	8,5122175961733005	4	-0,283915371	0,0330924653
2	0	0	1	1	6412,17	3,87415528	3,87478542	8,3007433563470835	4	-0,272976965	0,0321635976
2	0	0	1	1	6413,47	3,86115336	3,86153746	8,0906594321131136	4	-0,262319982	0,0312423836
2	0	0	0	1	6414,77	3,84815168	3,8486495	7,8706085731585626	4	-0,251943916	0,0302912146
2	0	0	1	1	6416,07	3,83514977	3,83545113	7,6881905545790938	4	-0,241820842	0,0294876788
2	0	0	0	1	6417,37	3,82214808	3,82264352	7,4732506945729536	4	-0,231982693	0,0285675731
2	0	0	1	1	6418,67	3,8091464	3,80961585	7,28233201305072	4	-0,222388923	0,0277428869
2	0	0	0	1	6419,97	3,79614449	3,79664803	7,1661609709262925	4	-0,21292755	0,0272073913
2	0	0	1	1	6421,27	3,78314281	3,78337979	6,9722674017151002	4	-0,203731164	0,0263787359
2	0	0	0	1	6422,57	3,77014112	3,77049208	6,7720726306239667	4	-0,19479546	0,0255340468
2	0	0	1	1	6423,87	3,75713921	3,75749373	6,5870047559340749	4	-0,186115339	0,0247506294
2	0	0	1	1	6425,17	3,74413824	3,74450707	6,4077105986359411	4	-0,177672863	0,0239937175
2	0	0	0	1	6426,47	3,73113585	3,731498	6,233406045784553	4	-0,169451073	0,0232599415
2	0	0	1	1	6427,77	3,71813393	3,71867037	6,0660248808562688	4	-0,161452085	0,0225575473
2	0	0	0	1	6429,07	3,70513225	3,70579267	5,8988994310299315	4	-0,15367189	0,0218600985
2	0	0	1	1	6430,37	3,69213057	3,69263458	5,7626520867148941	4	-0,146106765	0,0212793685
2	0	0	0	1	6431,67	3,67912865	3,67943645	5,5935287003715821	4	-0,138731346	0,0205810331
2	0	0	1	1	6432,97	3,66612697	3,66647863	5,4469824172556224	4	-0,131553292	0,019971244
2	0	0	0	1	6434,27	3,65312505	3,65364099	5,2935810871422221	4	-0,12457481	0,0193408448
2	0	0	1	1	6435,57	3,64012337	3,64056301	5,129138388981417	4	-0,117791273	0,0186729524
2	0	0	1	1	6436,89	3,62692189	3,62740469	4,9743180917440314	4	-0,111111976	0,0180438645
2	0	0	0	1	6438,21	3,61371899	3,61425471	4,8246971756368	4	-0,10464365	0,0174376853
2	0	0	1	1	6439,51	3,60071802	3,60107851	4,6864713393151616	4	-0,0984636322	0,0168763511
2	0	0	0	1	6440,81	3,58771586	3,58825088	4,5473681079844576	4	-0,0924644098	0,0163170975
2	0	0	1	1	6442,11	3,57471442	3,57510281	4,4166360919674118	4	-0,086639449	0,0157899279
2	0	0	0	1	6443,41	3,56171227	3,5623951	4,3019871314366573	4	-0,0809733421	0,0153253777
2	0	0	1	1	6444,71	3,54871058	3,54940724	4,191593937575817	4	-0,0754539743	0,0148776742
2	0	0	0	1	6446,01	3,53570867	3,5360589	4,0906429924070765	4	-0,0700676441	0,0144647546
2	0	0	1	1	6447,31	3,52270699	3,52305079	3,997430784006912	4	-0,064813152	0,0140831517
2	0	0	0	1	6448,61	3,50970531	3,51033354	3,8785160444676877	4	-0,0596974418	0,0136148846
2	0	0	1	1	6449,91	3,49670267	3,49724388	3,7866106800190803	4	-0,0547126569	0,0132427011
2	0	0	1	1	6451,21	3,48370171	3,48416734	3,694342994441577	4	-0,0498468317	0,0128717097
2	0	0	0	1	6452,51	3,47069979	3,47117949	3,6010704239209466	4	-0,0451086797	0,012499962
2	0	0	1	1	6453,81	3,45769811	3,45808148	3,5159838994343885	4	-0,0404811278	0,0121585587
2	0	0	0	1	6455,11	3,44469643	3,44519377	3,4310869301358765	4	-0,0359644704	0,0118207596
2	0	0	1	1	6456,41	3,43169451	3,4320755	3,3519803136587002	4	-0,031559296	0,0115042496
2	0	0	0	1	6457,71	3,41869283	3,41932797	3,2726939680675712	4	-0,0272551104	0,0111904144
2	0	0	1	1	6459,01	3,40569115	3,40632033	3,2026982928315776	4	-0,0230462905	0,0109094167
2	0	0	0	1	6460,31	3,39268923	3,39329243	3,1321321465074874	4	-0,0189283825	0,0106282402
2	0	0	1	1	6461,61	3,37968779	3,38039327	3,0619506545369664	4	-0,0148998713	0,0103505971
2	0	0	1	1	6462,91	3,36668587	3,36729646	2,9933956501384461	4	-0,0109634427	0,0100796502
2	0	0	0	1	6464,21	3,35368395	3,35431862	2,9211015248050138	4	-0,00711909821	0,00979830511
2	0	0	1	1	6465,51	3,34068227	3,34097028	2,8582066564510243	4	-0,00336435367	0,00954918377
2	0	0	0	1	6466,81	3,32768059	3,32805252	2,7975480624785014	4	0,000310830394	0,00931038707
2	0	0	1	1	6468,11	3,31467867	3,31524444	2,7419624074051824	4	0,00391175272	0,0090902755
2	0	0	0	1	6469,41	3,30167699	3,3022666	2,6936102801312957	4	0,0074511175	0,00889501907
2	0	0	1	1	6470,71	3,28867507	3,28888845	2,6390402453641072	4	0,0109163709	0,00867950916
2	0	0	0	1	6472,01	3,27567339	3,27619076	2,575131688887872	4	0,014307403	0,00843662303
2	0	0	1	1	6473,31	3,26267123	3,26307249	2,5225585034737926	4	0,0176183525	0,00823129155
2	0	0	1	1	6474,61	3,24967051	3,2500062	2,4712212396283562	4	0,0208648499	0,00803148467
2	0	0	0	1	6475,91	3,23666763	3,23722696	2,4199193983028307	4	0,024045065	0,00783382822
2	0	0	1	1	6477,22	3,22366595	3,22426915	2,379679178819055	4	0,0271640886	0,00767272618
2	0	0	0	1	6478,52	3,21066451	3,21116138	2,3210207993785552	4	0,030218441	0,00745317247
2	0	0	1	1	6479,82	3,19766235	3,19818354	2,2743565191825325	4	0,0332066081	0,00727380952
2	0	0	0	1	6481,12	3,18466067	3,18526578	2,2261925637722016	4	0,0361299589	0,00709101511
2	0	0	1	1	6482,42	3,17165875	3,17228794	2,1852911238869056	4	0,0389925539	0,00693237269
2	0	0	0	1	6483,72	3,15865707	3,15924978	2,1415159025539907	4	0,0418044142	0,00676558353
2	0	0	1	1	6485,02	3,14565516	3,14618182	2,0924192325522384	4	0,0445564575	0,00658313138
2	0	0	1	1	6486,32	3,13265276	3,13299322	2,0458418905418726	4	0,0472494401	0,00640960876
2	0	0	0	1	6487,62	3,11965203	3,12008595	2,0125817346076147	4	0,049890019	0,00627942802
2	0	0	1	1	6488,92	3,10665011	3,10711813	1,9678663437565155	4	0,0524766184	0,00611439301
2	0	0	0	1	6490,22	3,09364843	3,09403992	1,9238056149333699	4	0,0550055541	0,00595233124
2	0	0	1	1	6491,52	3,08064675	3,08120227	1,8867512072126048	4	0,0574879423	0,00581346219
2	0	0	0	1	6492,82	3,06764483	3,06828427	1,8457351196557283	4	0,0599152409	0,00566323986
2	0	0	1	1	6494,12	3,05464292	3,05523658	1,808393323173128	4	0,0622900687	0,00552506931
2	0	0	0	1	6495,42	3,04164147	3,04221869	1,7711050789803248	4	0,064617753	0,00538808899
2	0	0	1	1	6496,72	3,02863955	3,02898049	1,7337958930681117	4	0,0668969303	0,00525163393
2	0	0	0	1	6498,02	3,01563644	3,01626229	1,6981561607486598	4	0,06912826	0,00512208417
2	0	0	0	1	6499,32	3,00263619	3,0030148	1,6654545751710755	4	0,0713142008	0,00500138476
2	0	0	1	1	6500,62	2,98963428	2,99028707	1,6309600739429443	4	0,0734566525	0,00487703877
2	0	0	0	1	6501,92	2,97663236	2,97700906	1,5969115054855686	4	0,0755543709	0,0047540199
2	0	0	1	1	6503,22	2,96363044	2,96408105	1,5645802225917558	4	0,0776082501	0,00463754265
2	0	0	0	1	6504,52	2,950629	2,95122337	1,5456615810592931	4	0,0796295702	0,00456159236
2	0	0	1	1	6505,82	2,93762708	2,93805504	1,509697273684047	4	0,0816143975	0,0044355737
2	0	0	0	1	6507,12	2,92462516	2,92518735	1,4728801672657283	4	0,0835537612	0,0043084505
2	0	0	1	1	6508,42	2,91162372	2,9121294	1,4418581904222522	4	0,0854469985	0,00419887761
2	0	0	0	1	6509,72	2,8986218	2,89897132	1,4096021620805059	4	0,0872988328	0,00408639619
2	0	0	0	1	6511,02	2,88561988	2,88625383	1,374811278035243	4	0,0891103074	0,00396805443
2	0	0	1	1	6512,32	2,87261796	2,87315583	1,3473644563928211	4	0,090878062	0,00387118803
2	0	0	0	1	6513,62	2,85961628	2,86026788	1,3114906785388864	4	0,09260609	0,00375121459
2	0	0	1	1	6514,92	2,8466146	2,84722996	1,2795448685064912	4	0,094291091	0,00364315859
2	0	0	0	1	6516,22	2,83361268	2,83428216	1,2499582034846134	4	0,0959357843	0,00354273431
2	0	0	1	1	6517,52	2,820611	2,82117414	1,2187381926924013	4	0,0975408033	0,00343827275
2	0	0	0	1	6518,82	2,80760932	2,80810618	1,1797431884333474	4	0,0990989208	0,00331284408
2	0	0	1	1	6520,12	2,7946074	2,79523826	1,1524790528540781	4	0,100615226	0,00322145363
2	0	0	0	1	6521,42	2,78160572	2,78178978	1,1232564145078214	4	0,10209354	0,00312466314
2	0	0	0	1	6522,72	2,76860428	2,76908207	1,0958459802641371	4	0,103533968	0,00303448737
2	0	0	1	1	6524,02	2,75560188	2,75638485	1,0629189281413965	4	0,104935922	0,00292981369
2	0	0	0	1	6525,32	2,74260044	2,74301672	1,0315042886262109	4	0,106296055	0,00282943342
2	0	0	1	1	6526,62	2,72959852	2,73015904	1,0009084070722203	4	0,107616872	0,0027326392
2	0	0	0	1	6527,92	2,7165966	2,71714067	0,97252245557804787	4	0,108899221	0,00264248042
2	0	0	1	1	6529,22	2,70359492	2,70416284	0,94206603306034611	4	0,110142708	0,00254749996
2	0	0	0	1	6530,52	2,69059324	2,69125509	0,91501750051975424	4	0,111349769	0,00246254541
2	0	0	1	1	6531,82	2,67759132	2,67806697	0,8839702572052681	4	0,112518124	0,00236733165
2	0	0	0	1	6533,12	2,66458964	2,66507912	0,85453775400916493	4	0,113647558	0,00227741082
2	0	0	0	1	6534,42	2,6515882	2,65183091	0,82356961564251213	4	0,114737637	0,00218396727
2	0	0	1	1	6535,72	2,63858604	2,63907313	0,79294839035719283	4	0,115788378	0,00209264876
2	0	0	0	1	6537,02	2,62558436	2,62612534	0,7621696965458487	4	0,116800003	0,00200155308
2	0	0	1	1	6538,32	2,61258268	2,61308742	0,73086289549246426	4	0,117769144	0,0019098086
2	0	0	0	1	6539,62	2,59958076	2,60018969	0,69831170017520614	4	0,118696913	0,00181574293
2	0	0	1	1	6540,92	2,58657885	2,58707142	0,66288719916095219	4	0,119580962	0,00171493657
2	0	0	0	1	6542,22	2,57357693	2,57394361	0,62590037565678362	4	0,120419301	0,00161103229
2	0	0	1	1	6543,52	2,56057549	2,56119585	0,59011577457810202	4	0,121210523	0,00151140208
2	0	0	0	1	6544,82	2,54757357	2,54816794	0,55488557710001805	4	0,121954739	0,00141394162
2	0	0	1	1	6546,12	2,53457165	2,53502989	0,51432484341785222	4	0,122649513	0,0013038289
2	0	0	0	1	6547,46	2,52116966	2,52149105	0,47476417592920672	4	0,12331105	0,00119711366
2	0	0	0	1	6548,76	2,50816822	2,50851321	0,43021408732359488	4	0,123898819	0,00107919774
2	0	0	1	1	6550,07	2,4951663	2,49586606	0,38555338738175712	4	0,124429919	0,000962289632
2	0	0	0	1	6551,37	2,48216462	2,4826777	0,3399989407043904	4	0,124900743	0,000844107766
2	0	0	1	1	6552,67	2,46916294	2,46967983	0,29145537945441811	4	0,125310749	0,000719801465
2	0	0	0	1	6553,97	2,45616102	2,45666194	0,23989861644804477	4	0,12565577	0,000589349773
2	0	0	1	1	6555,27	2,44315934	2,44362402	0,18687630696998304	4	0,125933528	0,000456655427
2	0	0	0	1	6556,57	2,43015742	2,43072629	0,13037307385820885	4	0,126139283	0,000316901249
2	0	0	1	1	6557,87	2,4171555	2,41777825	0,07197520810101815	4	0,126270697	0,000174020097
2	0	0	1	1	6559,21	2,40375471	2,40440917	0,0087421607645987725	4	0,126324713	2,10197322E-005
2	0	0	0	1	6560,39	2,39195275	2,39286447	-0,049123616578678362	4	0,126300678	0,000117546158