File: Experimentelles/Rohdaten/Batteriemessungen/AlteZelle/Studenten_Batterietests/Sonstige/ZView-Export/S vs Li_02_CV_C02_loop7.txt
EC-Lab ASCII FILE
Nb header lines : 3
mode	ox/red	error	control changes	counter inc.	time/s	control/V	Ewe/V	<I>/mA	cycle number	(Q-Qo)/C	P/W
2	0	0	1	0	8780,86	2,39425302	2,39542794	-0,02055450715124607	8	0	4,92368417E-005
2	0	0	0	0	8782,19	2,38095093	2,38153839	-0,079233200599749926	8	-6,6533692E-005	0,000188696911
2	0	0	1	0	8783,58	2,36704874	2,36736894	-0,14253256892940613	8	-0,000220959933	0,000337427162
2	0	0	0	0	8784,93	2,35354686	2,35414076	-0,20674548212749277	8	-0,000457044865	0,000486707955
2	0	0	1	0	8786,28	2,34004498	2,34063196	-0,27461524998458752	8	-0,000782886404	0,00064277323
2	0	0	0	0	8787,63	2,32654309	2,32703328	-0,34409318049438298	8	-0,00120042264	0,000800716283
2	0	0	1	0	8788,98	2,31304145	2,3136549	-0,41589134139940141	8	-0,00171384914	0,000962229038
2	0	0	0	0	8790,33	2,29953933	2,30013633	-0,49066587413350682	8	-0,00232635066	0,00112859835
2	0	0	1	0	8791,68	2,28603792	2,28662801	-0,5698600617858247	8	-0,00304224296	0,001303058
2	0	0	0	0	8793,03	2,27253604	2,27321911	-0,65022296256696243	8	-0,00386572001	0,00147809926
2	0	0	1	0	8794,38	2,25903392	2,2596004	-0,73371303174644902	8	-0,00480049476	0,0016578983
2	0	0	1	0	8795,73	2,24553251	2,24589229	-0,81829350743675725	8	-0,00584855489	0,00183779909
2	0	0	0	0	8797,08	2,23203087	2,23266363	-0,90557530464388774	8	-0,00701235794	0,00202184496
2	0	0	1	0	8798,43	2,21852827	2,21902442	-0,99102584489931366	8	-0,00829214975	0,00219911058
2	0	0	0	0	8799,81	2,2047267	2,2053957	-1,0800219525893517	8	-0,00972042978	0,00238187588
2	0	0	1	0	8801,16	2,19122481	2,19168687	-1,1640621172264237	8	-0,0112369331	0,00255125971
2	0	0	0	0	8802,51	2,17772293	2,17819834	-1,2519126711413336	8	-0,0128678288	0,00272691413
2	0	0	1	0	8803,86	2,16422105	2,16470003	-1,3415848261987139	8	-0,0146216555	0,00290412875
2	0	0	0	0	8805,21	2,15071917	2,15125108	-1,4303310172011496	8	-0,0164946802	0,00307700108
2	0	0	1	0	8806,56	2,13721728	2,13779283	-1,5175252895181347	8	-0,0184875969	0,00324415462
2	0	0	0	0	8807,91	2,1237154	2,12423396	-1,6080342947195021	8	-0,020598786	0,00341584114
2	0	0	1	0	8809,26	2,11021352	2,11076546	-1,6929015889763939	8	-0,0228280183	0,00357331824
2	0	0	0	0	8810,61	2,09671164	2,09740686	-1,7841373048722742	8	-0,0251780357	0,00374206179
2	0	0	1	0	8811,96	2,08320999	2,08365798	-1,8796771193544045	8	-0,0276517384	0,00391660444
2	0	0	0	0	8813,31	2,06970811	2,07029963	-1,9786022305488621	8	-0,03026025	0,00409629941
2	0	0	1	0	8814,66	2,05620623	2,05682111	-2,0844548369447437	8	-0,033006832	0,00428735092
2	0	0	1	0	8816,01	2,04270434	2,04326248	-2,183804431309305	8	-0,0358868763	0,00446208566
2	0	0	0	0	8817,36	2,02920246	2,02971387	-2,2948928611973968	8	-0,0389132053	0,00465797586
2	0	0	1	0	8818,71	2,01570058	2,0161252	-2,3980021998286317	8	-0,0420848243	0,0048346729
2	0	0	0	0	8820,06	2,0021987	2,00256634	-2,5047728382050992	8	-0,0453943275	0,00501597393
2	0	0	1	0	8821,41	1,98869705	1,98918796	-2,6019870365659373	8	-0,048848629	0,00517584151
2	0	0	0	0	8822,76	1,97519529	1,9755491	-2,6946170038233267	8	-0,0524263717	0,0053233481
2	0	0	1	0	8824,11	1,96169329	1,96219087	-2,8089659760395734	8	-0,0561501198	0,00551172718
2	0	0	0	0	8825,46	1,9481914	1,9487524	-2,926506987462439	8	-0,0600221604	0,0057030376
2	0	0	1	0	8826,81	1,93468964	1,93522358	-3,0216760573287866	8	-0,0640337691	0,00584761892
2	0	0	0	0	8828,16	1,92118788	1,92182529	-3,1214952015628403	8	-0,0681830794	0,00599896861
2	0	0	1	0	8829,51	1,90768588	1,90810633	-3,2161176887651238	8	-0,0724592954	0,00613669446
2	0	0	0	0	8830,86	1,89418399	1,89449763	-3,3137292166551046	8	-0,0768679082	0,00627785223
2	0	0	1	0	8832,21	1,88068223	1,88139927	-3,4082411279281146	8	-0,0814081728	0,00641226256
2	0	0	0	0	8833,57	1,86718047	1,86774051	-3,5091668424010291	8	-0,0860806108	0,00655421289
2	0	0	0	0	8834,92	1,85367846	1,85415196	-3,6011447720229696	8	-0,0908788815	0,0066770697
2	0	0	1	0	8836,27	1,84017658	1,84064329	-3,6992737837135866	8	-0,0958108976	0,00680904323
2	0	0	0	0	8837,62	1,82667458	1,82714474	-3,781896161536377	8	-0,10085877	0,00691007171
2	0	0	1	0	8838,97	1,81317282	1,81363606	-3,874197315424681	8	-0,106030717	0,00702638412
2	0	0	0	0	8840,32	1,79967105	1,80022764	-3,9504703047374931	8	-0,111317843	0,00711174589
2	0	0	1	0	8841,67	1,78616917	1,78667903	-4,048233453184377	8	-0,11672058	0,00723289372
2	0	0	0	0	8843,02	1,77266717	1,77317035	-4,1240253386398214	8	-0,122239642	0,00731259957
2	0	0	1	0	8844,37	1,75916553	1,75950146	-4,2051452385882586	8	-0,127864331	0,00739895925
2	0	0	0	0	8845,72	1,74566376	1,7462734	-4,2923062716921408	8	-0,13360621	0,00749554019
2	0	0	1	0	8847,07	1,73216176	1,7326746	-4,3609362790982118	8	-0,139451712	0,00755608361
2	0	0	0	0	8848,42	1,71865988	1,71911597	-4,4203574024140832	8	-0,145368248	0,00759910699
2	0	0	1	0	8849,77	1,70515811	1,70559728	-4,4801882691681459	8	-0,151378959	0,00764139695
2	0	0	0	0	8851,12	1,69165635	1,69223893	-4,5401770000656538	8	-0,157493934	0,00768306432
2	0	0	1	0	8852,47	1,67815423	1,67849994	-4,6060941824058118	8	-0,163669214	0,00773132872
2	0	0	1	0	8853,82	1,66465247	1,66504133	-4,6806315481662752	8	-0,169950575	0,00779344514
2	0	0	0	0	8855,17	1,6511507	1,65139258	-4,7680040101210112	8	-0,176336065	0,00787384622
2	0	0	1	0	8856,52	1,63764894	1,63811421	-4,8410273231566022	8	-0,182829052	0,00793015584
2	0	0	0	0	8857,87	1,62414694	1,62467575	-4,9134274708728045	8	-0,189424157	0,00798272621
2	0	0	1	0	8859,22	1,61064506	1,61101699	-4,9645031789938586	8	-0,196100399	0,00799789932
2	0	0	0	0	8860,57	1,59714329	1,59754837	-5,0433288328349664	8	-0,202858567	0,00805696193
2	0	0	1	0	8861,92	1,58364129	1,58422005	-5,1120020473996704	8	-0,209722638	0,00809853617
2	0	0	0	0	8863,27	1,57013953	1,57063127	-5,1702130660414694	8	-0,216667309	0,00812049862
2	0	0	1	0	8864,62	1,55663776	1,55699265	-5,2455073917905536	8	-0,223693326	0,00816721655
2	0	0	0	0	8865,97	1,543136	1,54368436	-5,3029732033610131	8	-0,230818301	0,00818611681
2	0	0	1	0	8867,32	1,529634	1,52999544	-5,366300179312624	8	-0,238012925	0,00821041502
2	0	0	0	0	8868,67	1,51613224	1,51663709	-5,4445501479009907	8	-0,245320171	0,00825740676
2	0	0	0	0	8870,02	1,50263107	1,50315034	-5,5152564550474246	8	-0,252714783	0,0082902601
2	0	0	1	0	8871,37	1,48912847	1,48969996	-5,5593681360284461	8	-0,260192096	0,00828179065
2	0	0	0	0	8872,72	1,47562659	1,475981	-5,6199906567732685	8	-0,267736018	0,0082949996
2	0	0	1	0	8874,07	1,46212482	1,46243238	-5,6661520438889709	8	-0,27535525	0,00828636438
2	0	0	0	0	8875,42	1,44862306	1,44917405	-5,7315134194990093	8	-0,283039212	0,00830596033
2	0	0	1	0	8876,77	1,43512106	1,43567562	-5,7953335692484979	8	-0,290814251	0,00832021888
2	0	0	0	0	8878,12	1,4216193	1,42209685	-5,8809000191589286	8	-0,298703402	0,00836320966
2	0	0	1	0	8879,47	1,40811753	1,40870845	-5,941596969962121	8	-0,306685925	0,00836997759
2	0	0	0	0	8880,82	1,39461565	1,39501953	-6,0014788185556685	8	-0,314749599	0,00837218016
2	0	0	1	0	8882,17	1,38111365	1,38171113	-6,043051297465975	8	-0,322880536	0,00834975112
2	0	0	0	0	8883,52	1,36761189	1,36818254	-6,0962217984100275	8	-0,331079155	0,0083407443
2	0	0	1	0	8884,87	1,35411	1,35452366	-6,1778424357374746	8	-0,339402258	0,00836803392
2	0	0	0	0	8886,22	1,34060812	1,34107518	-6,2116231471300339	8	-0,347761482	0,00833025388
2	0	0	1	0	8887,57	1,32710636	1,32749641	-6,2540347203612467	8	-0,356175721	0,00830220897
2	0	0	1	0	8888,92	1,31360507	1,31409955	-6,3341306307857792	8	-0,364692926	0,00832367782
2	0	0	0	0	8890,27	1,30010259	1,30045938	-6,3682677199443136	8	-0,37326321	0,0082816733
2	0	0	1	0	8891,62	1,28660071	1,28708076	-6,3868372365832474	8	-0,381892234	0,00822037552
2	0	0	0	0	8892,97	1,27309895	1,27385259	-6,4611090421676915	8	-0,390561551	0,00823050085
2	0	0	1	0	8894,32	1,25959694	1,25978327	-6,4835502927501952	8	-0,399305403	0,00816786848
2	0	0	0	0	8895,67	1,24609506	1,24666512	-6,5312607983748314	8	-0,408083618	0,00814229529
2	0	0	1	0	8897,02	1,2325933	1,23316646	-6,5997264211376742	8	-0,416938663	0,00813856162
2	0	0	0	0	8898,37	1,21909153	1,21976817	-6,6278150329987392	8	-0,425875098	0,00808439776
2	0	0	1	0	8899,72	1,20558953	1,20623958	-6,6590454255540979	8	-0,434852153	0,00803240389
2	0	0	0	0	8901,07	1,19208777	1,19247043	-6,713339537382112	8	-0,443875134	0,00800545886
2	0	0	1	0	8902,42	1,17858601	1,17910206	-6,77288025120896	8	-0,452985138	0,00798591692
2	0	0	0	0	8903,77	1,16508412	1,16564345	-6,780562207102775	8	-0,462123185	0,00790371839
2	0	0	1	0	8905,12	1,15158212	1,15202475	-6,7977994680404954	8	-0,471283227	0,00783123355
2	0	0	1	0	8906,47	1,13808107	1,13869619	-6,7954657159812518	8	-0,480469257	0,00773797091
2	0	0	0	0	8907,83	1,1245786	1,12515771	-6,8374726027250432	8	-0,489678204	0,00769323483
2	0	0	1	0	8909,18	1,11107671	1,11144865	-6,8811846002936269	8	-0,49893716	0,00764808338
2	0	0	0	0	8910,53	1,09757483	1,09812057	-6,9112298811475622	8	-0,508250535	0,00758936349
2	0	0	1	0	8911,88	1,08407295	1,08460188	-6,9641373381018496	8	-0,517632842	0,00755331665
2	0	0	0	0	8913,23	1,07057118	1,07086289	-6,9771339868505894	8	-0,527042866	0,00747155398
2	0	0	1	0	8914,58	1,05706918	1,0574044	-7,0315287212530816	8	-0,536507666	0,00743516954
2	0	0	0	0	8915,93	1,04356742	1,04420626	-7,0832459305723597	8	-0,546036303	0,00739636971
2	0	0	1	0	8917,28	1,03006554	1,03062761	-7,1222495237986368	8	-0,555611014	0,00734038698
2	0	0	0	0	8918,63	1,01656377	1,01721895	-7,1412160793940416	8	-0,565234244	0,00726418011
2	0	0	1	0	8919,98	1,00306177	1,0035702	-7,2107273961106982	8	-0,574928761	0,00723647093
2	0	0	0	0	8921,33	0,989560127	0,990081728	-7,2350813647111347	8	-0,584672749	0,00716332207
2	0	0	1	0	8922,68	0,976058185	0,976402819	-7,2581445028384909	8	-0,594445646	0,00708687259
2	0	0	0	0	8924,03	0,962556422	0,962924302	-7,2613670850793715	8	-0,604245782	0,00699214684
2	0	0	1	0	8925,38	0,94905448	0,949685991	-7,2748304754495616	8	-0,614070714	0,00690880464
2	0	0	1	0	8926,73	0,935551941	0,935908198	-7,3351624281370957	8	-0,623929143	0,00686503854
2	0	0	0	0	8928,08	0,922050774	0,92259866	-7,3405934522549222	8	-0,633832991	0,00677242177
2	0	0	1	0	8929,43	0,908549011	0,909080029	-7,377090153594793	8	-0,643768549	0,00670636538
2	0	0	0	0	8930,78	0,895047069	0,895381212	-7,4061627537012186	8	-0,653746307	0,00663133897
2	0	0	1	0	8932,13	0,881545305	0,881932735	-7,4361080949505216	8	-0,663768589	0,00655814726
2	0	0	0	0	8933,48	0,868043363	0,868674457	-7,4833056405186931	8	-0,673854232	0,0065005566
2	0	0	1	0	8934,83	0,8545416	0,854995549	-7,5095932384332122	8	-0,683981597	0,00642066868
2	0	0	0	0	8936,18	0,841039658	0,841657221	-7,5518504430850163	8	-0,694145262	0,00635606935
2	0	0	1	0	8937,53	0,827537894	0,827938318	-7,5589613690972429	8	-0,70437336	0,00625835359
2	0	0	0	0	8938,88	0,814035952	0,814419687	-7,5856691747903821	8	-0,714604318	0,00617791852
2	0	0	1	0	8940,23	0,800534189	0,800710678	-7,6197470029195098	8	-0,724856734	0,00610121293
2	0	0	0	0	8941,58	0,787032247	0,787452459	-7,6149790336688742	8	-0,735145986	0,00599643402
2	0	0	1	0	8942,93	0,773530543	0,773943901	-7,6169512073199142	8	-0,745455027	0,00589509308
2	0	0	1	0	8944,28	0,760028601	0,760465384	-7,663574171562999	8	-0,755768359	0,00582788279
2	0	0	0	0	8945,63	0,746526837	0,746876657	-7,6466290578245978	8	-0,766104877	0,00571108889
2	0	0	1	0	8946,98	0,733024895	0,733368039	-7,6557700509826534	8	-0,776441276	0,00561449723
2	0	0	0	0	8948,33	0,719523132	0,719989598	-7,6429325987895142	8	-0,786757827	0,00550283212
2	0	0	1	0	8949,68	0,706021249	0,706310749	-7,6488908131917414	8	-0,797073305	0,00540249376
2	0	0	0	0	8951,03	0,692519426	0,692982376	-7,6405047153433254	8	-0,807374001	0,00529473508
2	0	0	1	0	8952,38	0,679017544	0,679263473	-7,6521603912115098	8	-0,817697227	0,00519783283
2	0	0	0	0	8953,73	0,665515721	0,666035235	-7,6293970619638861	8	-0,8280074	0,00508144731
2	0	0	1	0	8955,08	0,652013838	0,6523965	-7,6466219400366246	8	-0,838331282	0,00498862937
2	0	0	0	0	8956,43	0,638511956	0,638967991	-7,6309040511648051	8	-0,848631799	0,00487590348
2	0	0	1	0	8957,78	0,625010133	0,62558955	-7,6175180946787149	8	-0,858910501	0,00476543978
2	0	0	0	0	8959,13	0,61150831	0,612060905	-7,6209061096111834	8	-0,86919266	0,0046644588
2	0	0	1	0	8960,48	0,598006427	0,598392069	-7,6157296722133901	8	-0,879468024	0,00455719233
2	0	0	0	0	8961,83	0,584504604	0,585143805	-7,6391985242565709	8	-0,889774024	0,00447002985
2	0	0	0	0	8963,18	0,571002722	0,571404874	-7,6371569981177779	8	-0,900074065	0,0043639089
2	0	0	1	0	8964,53	0,557500839	0,557926357	-7,6572934438785152	8	-0,910370588	0,00427220576
2	0	0	0	0	8965,88	0,543999016	0,544497848	-7,6953829179206963	8	-0,920734942	0,00419011945
2	0	0	1	0	8967,23	0,530497134	0,531069338	-7,6766060690085146	8	-0,93110007	0,00407681009
2	0	0	0	0	8968,58	0,516995311	0,517500699	-7,6688307200869018	8	-0,941463232	0,00396862533
2	0	0	1	0	8969,93	0,503493428	0,50410217	-7,697491491834327	8	-0,951837361	0,00388032221
2	1	0	0	0	8971,21	0,509294212	0,50966984	-7,6150271395842278	8	-0,961658955	0,00388114969
2	1	0	1	0	8972,56	0,522796154	0,523078322	-7,4507295961181517	8	-0,971822679	0,00389731512
2	1	0	0	0	8973,91	0,536297917	0,536737204	-7,2893114189307021	8	-0,98177892	0,00391244469
2	1	0	1	0	8975,26	0,5497998	0,550315857	-7,1557846938570291	8	-0,991539419	0,00393794198
2	1	0	0	0	8976,62	0,563301623	0,563804507	-7,0392208695411571	8	-1,00113499	0,00396874454
2	1	0	1	0	8977,97	0,576803505	0,577323079	-6,9456296240290086	8	-1,01058483	0,00400987221
2	1	0	0	0	8979,32	0,590305328	0,590631366	-6,8100501348574771	8	-1,01988149	0,004022229
2	1	0	1	0	8980,67	0,603807211	0,604190111	-6,7263769482572826	8	-1,02902687	0,00406401046
2	1	0	0	0	8982,02	0,617309034	0,617928982	-6,6309766868750349	8	-1,03804028	0,00409747288
2	1	0	1	0	8983,37	0,630810916	0,631277442	-6,5301249896486554	8	-1,04692566	0,00412232056
2	1	0	0	0	8984,72	0,644312799	0,644906163	-6,4399226804574566	8	-1,05568612	0,00415314594
2	1	0	0	0	8986,07	0,657814622	0,658324659	-6,358275279402761	8	-1,06432617	0,00418580929
2	1	0	1	0	8987,42	0,671316445	0,671713114	-6,2496334835887091	8	-1,07283521	0,00419796072
2	1	0	0	0	8988,77	0,684818327	0,685321867	-6,1790699288249152	8	-1,08122349	0,00423465157
2	1	0	1	0	8990,12	0,69832015	0,698930562	-6,0937286478777894	8	-1,08950555	0,0042590932
2	1	0	0	0	8991,47	0,711822033	0,712288976	-6,0152410032848563	8	-1,09767079	0,00428459002
2	1	0	1	0	8992,82	0,725323856	0,725667417	-5,9412689022719987	8	-1,10574317	0,0043113851
2	1	0	0	0	8994,17	0,738825738	0,739576519	-5,8684010244905882	8	-1,11372542	0,00434013177
2	1	0	1	0	8995,52	0,752327561	0,752814829	-5,8043350987136614	8	-1,12160432	0,0043695895
2	1	0	0	0	8996,87	0,765829444	0,766183257	-5,7029085891942157	8	-1,12937343	0,00436947308
2	1	0	1	0	8998,22	0,779331267	0,779771984	-5,6251884313921254	8	-1,13702142	0,00438636448
2	1	0	0	0	8999,57	0,79283309	0,793440819	-5,5538221051295552	8	-1,14457428	0,00440662913
2	1	0	1	0	9000,92	0,806334853	0,80664891	-5,4777277819812224	8	-1,15201688	0,00441860314
2	1	0	0	0	9002,27	0,819836795	0,820277691	-5,4011371843516966	8	-1,1593616	0,00443043234
2	1	0	1	0	9003,62	0,833338678	0,833856463	-5,3169535535077158	8	-1,1666069	0,00443357602
2	1	0	1	0	9004,97	0,846840501	0,847355068	-5,236792402962848	8	-1,17373931	0,00443742238
2	1	0	0	0	9006,32	0,860342383	0,860923767	-5,1534199801584	8	-1,18076015	0,00443670154
2	1	0	1	0	9007,67	0,873844206	0,874322236	-5,0837057679891584	8	-1,18767273	0,00444479706
2	1	0	0	0	9009,02	0,887346148	0,887951016	-5,0011619081099923	8	-1,19448376	0,00444078678
2	1	0	1	0	9010,37	0,900847912	0,901269317	-4,9112943845490451	8	-1,20118153	0,00442639878
2	1	0	0	0	9011,72	0,914349854	0,914868057	-4,8451291086773056	8	-1,20778298	0,00443265401
2	1	0	1	0	9013,07	0,927851617	0,928466856	-4,778802964836359	8	-1,21427894	0,00443695998
2	1	0	0	0	9014,42	0,941353559	0,942125618	-4,6873623418311328	8	-1,22067142	0,00441608392
2	1	0	1	0	9015,77	0,954855323	0,955433905	-4,6233954479296954	8	-1,22695649	0,00441734865
2	1	0	0	0	9017,12	0,968357265	0,968832374	-4,5445359610021254	8	-1,23313975	0,0044028936
2	1	0	1	0	9018,47	0,981858969	0,982290924	-4,4732092482348518	8	-1,23923302	0,00439399295
2	1	0	0	0	9019,82	0,995360911	0,996029794	-4,3940819973746771	8	-1,24521995	0,00437663682
2	1	0	1	0	9021,17	1,00886261	1,0094583	-4,3422693709532576	8	-1,25111485	0,00438334001
2	1	0	1	0	9022,52	1,02236414	1,02289629	-4,2761271616653434	8	-1,25691402	0,0043740347
2	1	0	0	0	9023,87	1,03586638	1,03630543	-4,2066417249540538	8	-1,26263332	0,00435936544
2	1	0	1	0	9025,22	1,04936826	1,04987395	-4,123270640770585	8	-1,26825178	0,00432891445
2	1	0	0	0	9026,57	1,06287003	1,06331265	-4,060475755482919	8	-1,27377892	0,00431755511
2	1	0	1	0	9027,92	1,07637179	1,07679105	-3,9993027796348032	8	-1,27921867	0,00430641323
2	1	0	0	0	9029,27	1,08987379	1,09055007	-3,9287689564128672	8	-1,28456533	0,00428451924
2	1	0	1	0	9030,62	1,10337555	1,10392857	-3,8609556530912742	8	-1,28982198	0,00426221918
2	1	0	0	0	9031,97	1,11687756	1,1174171	-3,795887334893152	8	-1,29499304	0,00424158946
2	1	0	1	0	9033,32	1,13037944	1,1310159	-3,7284562972684864	8	-1,300071	0,0042169434
2	1	0	0	0	9034,67	1,1438812	1,14424396	-3,6571424628297395	8	-1,30506146	0,0041846633
2	1	0	1	0	9036,02	1,15738297	1,15788281	-3,5907942925890349	8	-1,30995727	0,0041577192
2	1	0	0	0	9037,37	1,17088485	1,17147148	-3,5235210061073446	8	-1,31475854	0,00412770454
2	1	0	1	0	9038,72	1,18438685	1,18519044	-3,4660653794805254	8	-1,31948221	0,00410794746
2	1	0	0	0	9040,07	1,19788849	1,19830847	-3,3976467723647802	8	-1,32411826	0,00407142891
2	1	0	0	0	9041,42	1,21139026	1,21194613	-3,3267609875178381	8	-1,32865512	0,00403185515
2	1	0	1	0	9042,77	1,22489226	1,22565615	-3,2613315681616371	8	-1,33310175	0,00399727095
2	1	0	0	0	9044,12	1,23839414	1,23890436	-3,1939803572992672	8	-1,33745909	0,00395703595
2	1	0	1	0	9045,47	1,2518959	1,25265336	-3,1314886584878112	8	-1,34172833	0,00392266968
2	1	0	0	0	9046,82	1,26539791	1,26617193	-3,0688011695941242	8	-1,34591436	0,00388562982
2	1	0	1	0	9048,17	1,27889967	1,27939022	-3,0106350599477805	8	-1,35001981	0,00385177694
2	1	0	0	0	9049,53	1,29240155	1,29308903	-2,9484486418465818	8	-1,35404706	0,00381260668
2	1	0	1	0	9050,88	1,30590332	1,3063575	-2,8889930707712954	8	-1,35798669	0,00377405784
2	1	0	0	0	9052,23	1,31940532	1,31966567	-2,8312552322944029	8	-1,36184669	0,00373631041
2	1	0	1	0	9053,58	1,33290708	1,3332243	-2,7722782579561133	8	-1,36562967	0,00369606866
2	1	0	0	0	9054,93	1,34640896	1,34698331	-2,7165976365407331	8	-1,36933458	0,0036592118
2	1	0	1	0	9056,28	1,35991085	1,36039174	-2,6654064351071901	8	-1,37296712	0,00362599688
2	1	0	0	0	9057,63	1,37341273	1,37393045	-2,6067415010184122	8	-1,37652695	0,00358148152
2	1	0	1	0	9058,98	1,38691449	1,38736892	-2,5453133607904176	8	-1,38000309	0,00353128859
2	1	0	1	0	9060,33	1,40041637	1,40092766	-2,4872252810746448	8	-1,38339877	0,00348442281
2	1	0	0	0	9061,68	1,41391838	1,41442621	-2,430847901850944	8	-1,38671637	0,00343825505
2	1	0	1	0	9063,03	1,42742002	1,42789495	-2,3762857050945315	8	-1,38996077	0,00339308637
2	1	0	0	0	9064,38	1,44092178	1,44146347	-2,3240596794833728	8	-1,39313328	0,00335004716
2	1	0	1	0	9065,73	1,45442379	1,45491195	-2,271319073935352	8	-1,3962357	0,00330456928
2	1	0	0	0	9067,08	1,46792567	1,46838057	-2,2149656526744435	8	-1,39926124	0,00325241243
2	1	0	1	0	9068,43	1,48142743	1,48199928	-2,1566692000875917	8	-1,40221262	0,0031961822
2	1	0	0	0	9069,78	1,49492919	1,49540782	-2,1015446788320986	8	-1,40508652	0,0031426663
2	1	0	1	0	9071,13	1,5084312	1,50889635	-2,0454563641299862	8	-1,40788269	0,00308638159
2	1	0	0	0	9072,48	1,52193308	1,522385	-1,9901603975643738	8	-1,4106065	0,00302979024
2	1	0	1	0	9073,83	1,53543484	1,53591371	-1,9362849084039562	8	-1,4132576	0,00297396653
2	1	0	0	0	9075,18	1,54893672	1,54935217	-1,889104440187417	8	-1,41583908	0,00292688818
2	1	0	1	0	9076,53	1,56243861	1,56285071	-1,8410029516865843	8	-1,41835618	0,00287721283
2	1	0	1	0	9077,88	1,57594001	1,57636917	-1,7885030330655843	8	-1,42080534	0,00281934114
2	1	0	0	0	9079,23	1,58944213	1,58989799	-1,7348531068613155	8	-1,42318428	0,0027582394
2	1	0	1	0	9080,58	1,60294414	1,6034565	-1,6795581194261757	8	-1,42549002	0,00269309827
2	1	0	0	0	9081,93	1,6164459	1,61657476	-1,6307622771710192	8	-1,42772615	0,00263624918
2	1	0	1	0	9083,28	1,62994778	1,63033354	-1,5815627059588842	8	-1,4298954	0,00257847481
2	1	0	0	0	9084,63	1,64344978	1,64405274	-1,5290106969575098	8	-1,43199515	0,0025137742
2	1	0	1	0	9085,98	1,65695155	1,65746093	-1,483742116950456	8	-1,43402767	0,00245924457
2	1	0	0	0	9087,33	1,67045331	1,67092955	-1,4361468814313448	8	-1,43599916	0,00239970023
2	1	0	1	0	9088,68	1,68395519	1,68446815	-1,3858584177990798	8	-1,43790317	0,00233443431
2	1	0	0	0	9090,03	1,69745719	1,69822717	-1,3330736467614842	8	-1,43973684	0,00226386194
2	1	0	1	0	9091,38	1,71095896	1,71150565	-1,2836980040495653	8	-1,44150424	0,00219705631
2	1	0	0	0	9092,73	1,72446072	1,72517419	-1,2364533087238723	8	-1,44320476	0,00213309727
2	1	0	1	0	9094,08	1,7379626	1,73840261	-1,1883434439077973	8	-1,44484103	0,00206581922
2	1	0	0	0	9095,43	1,75146437	1,7521615	-1,1414038194343376	8	-1,44641328	0,00199992373
2	1	0	0	0	9096,78	1,76496589	1,76535881	-1,0906583131876957	8	-1,44791973	0,00192540325
2	1	0	1	0	9098,13	1,77846801	1,7791487	-1,0398365436121803	8	-1,44935799	0,00185002387
2	1	0	0	0	9099,48	1,79197001	1,7923367	-0,9902760386466967	8	-1,45072711	0,00177490804
2	1	0	1	0	9100,83	1,80547178	1,80603576	-0,94499387405812736	8	-1,4520328	0,00170669274
2	1	0	0	0	9102,18	1,81897366	1,81956434	-0,89685889830192166	8	-1,45327556	0,00163189252
2	1	0	1	0	9103,53	1,83247566	1,83294284	-0,84948190177480499	8	-1,45445466	0,00155705179
2	1	0	0	0	9104,88	1,84597743	1,84667158	-0,80439562505732096	8	-1,4555707	0,0014854545
2	1	0	1	0	9106,23	1,85947919	1,86002004	-0,75706438332175091	8	-1,45662391	0,00140815496
2	1	0	0	0	9107,58	1,87298107	1,87349868	-0,71065620488176858	8	-1,45761514	0,00133141351
2	1	0	1	0	9108,93	1,88648307	1,88719749	-0,66863597510382362	8	-1,45854592	0,00126184814
2	1	0	0	0	9110,28	1,89998484	1,90045583	-0,62333685051028902	8	-1,45941615	0,00118462415
2	1	0	1	0	9111,63	1,9134866	1,91404438	-0,57747603223348774	8	-1,46022725	0,0011053147
2	1	0	0	0	9112,98	1,92698848	1,927513	-0,53221011115238112	8	-1,46097517	0,00102584192
2	1	0	1	0	9114,37	1,94089055	1,94148207	-0,48844684520736512	8	-1,46168196	0,000948310771
2	1	0	1	0	9115,72	1,95439231	1,95486069	-0,44317094562575398	8	-1,46230876	0,000866337446
2	1	0	0	0	9117,07	1,96789408	1,96842933	-0,39866448597361702	8	-1,4628756	0,000784742879
2	1	0	1	0	9118,42	1,98139596	1,98195815	-0,35499715424763686	8	-1,46338427	0,000703589525
2	1	0	0	0	9119,77	1,99489796	1,99544668	-0,313330778231224	8	-1,46383488	0,000625234854
2	1	0	1	0	9121,12	2,00839972	2,00884509	-0,27090504563724061	8	-1,46422803	0,000544206297
2	1	0	0	0	9122,48	2,02190137	2,02228355	-0,2280546353043369	8	-1,46456456	0,000461191143
2	1	0	1	0	9123,83	2,03540325	2,03572226	-0,18440230408062554	8	-1,46484196	0,000375391886
2	1	0	0	0	9125,18	2,04890537	2,049371	-0,14257917859746794	8	-1,4650625	0,000292197627
2	1	0	1	0	9126,53	2,06240726	2,0630095	-0,099705930527609792	8	-1,46522558	0,000205694276
2	1	0	0	0	9127,88	2,0759089	2,07647848	-0,057747471185090714	8	-1,46533144	0,000119911383
2	1	0	1	0	9129,27	2,08981085	2,0902071	-0,016252970065882749	8	-1,46538246	3,39720718E-005
2	1	0	0	0	9130,70	2,10411286	2,10459685	0,027054701262386432	8	-1,46537423	5,69392396E-005
2	1	0	1	0	9132,05	2,11761451	2,11805511	0,068326826284949901	8	-1,46530962	0,00014471999
2	1	0	0	0	9133,44	2,13151646	2,13208508	0,11062943314512552	8	-1,46518457	0,000235871368
2	1	0	1	0	9134,79	2,14501834	2,14558339	0,1519337488183128	8	-1,46500707	0,000325986533
2	1	0	0	0	9136,14	2,15852094	2,15902233	0,19318763535975904	8	-1,46477389	0,000417096424
2	1	0	0	0	9137,49	2,1720221	2,17258072	0,23332847740190781	8	-1,46448612	0,000506924931
2	1	0	1	0	9138,84	2,18552399	2,1861093	0,27355970838107168	8	-1,4641434	0,000598031445
2	1	0	0	0	9140,19	2,19902587	2,19978833	0,31427216273732442	8	-1,46374631	0,000691332214
2	1	0	1	0	9141,54	2,21252775	2,21322656	0,35533369231658752	8	-1,46329415	0,000786433986
2	1	0	0	0	9142,89	2,2260294	2,22654486	0,39636844008540038	8	-1,46278632	0,000882532098
2	1	0	1	0	9144,24	2,23953128	2,24015355	0,43712481809779974	8	-1,46222377	0,000979226665
2	1	0	0	0	9145,59	2,25303316	2,25365233	0,47871152451261792	8	-1,46160626	0,00107884931
2	1	0	1	0	9146,94	2,26653481	2,26718092	0,51867295242846189	8	-1,46093428	0,00117592537
2	1	0	0	0	9148,29	2,28003669	2,28065944	0,55727934061238925	8	-1,4602077	0,00127096439
2	1	0	1	0	9149,64	2,29353881	2,29407787	0,59712524851784115	8	-1,45942736	0,00136985187
2	1	0	0	0	9150,99	2,30704069	2,30754638	0,63916654605418176	8	-1,4585917	0,00147490646
2	1	0	1	0	9152,34	2,32054234	2,32102513	0,67526524327695642	8	-1,4577049	0,00156730763
2	1	0	0	0	9153,69	2,33404422	2,33462381	0,71931492909788954	8	-1,45676279	0,00167932978
2	1	0	0	0	9155,04	2,34754705	2,34793258	0,75825770803673011	8	-1,45576334	0,001780338
2	1	0	1	0	9156,39	2,36104798	2,36150074	0,79727623704820518	8	-1,45471132	0,00188276847
2	1	0	0	0	9157,74	2,37454963	2,37531996	0,84117588090399846	8	-1,45360446	0,00199806178
2	1	0	1	0	9159,09	2,38805151	2,3883779	0,88378449995070874	8	-1,45244038	0,00211081142
2	1	0	0	0	9160,44	2,40155363	2,40208673	0,9263249281793815	8	-1,45121813	0,00222511287
2	1	0	1	0	9161,79	2,41505551	2,41563559	0,96938930886487014	8	-1,4499383	0,0023416914
2	1	0	0	0	9163,17	2,42885709	2,42946458	1,0123516612996629	8	-1,44857311	0,00245947251
2	1	0	1	0	9164,52	2,44235897	2,44285297	1,057002565202616	8	-1,44717646	0,00258210185
2	1	0	0	0	9165,87	2,45586109	2,45625138	1,0983046675100886	8	-1,44572008	0,00269771228
2	1	0	1	0	9167,22	2,46936274	2,4699502	1,1453988552093506	8	-1,44420588	0,00282907812
2	1	0	0	0	9168,57	2,48286462	2,48327851	1,1918133646249736	8	-1,44262826	0,00295960461
2	1	0	1	0	9169,92	2,49636674	2,49699759	1,2343239380667584	8	-1,44098759	0,00308210379
2	1	0	0	0	9171,27	2,50986862	2,51036596	1,2781444822127597	8	-1,43928885	0,00320861046
2	1	0	1	0	9172,62	2,52337027	2,52403498	1,3207054044057909	8	-1,43753421	0,00333350664
2	1	0	1	0	9173,97	2,53687215	2,53726387	1,3580545134977622	8	-1,43572676	0,00344574265
2	1	0	0	0	9175,32	2,55037379	2,55092168	1,3984632892534136	8	-1,43386412	0,00356737035
2	1	0	1	0	9176,67	2,56387591	2,56416011	1,4476694933449235	8	-1,43194008	0,00371205644
2	1	0	0	0	9178,02	2,57737756	2,57771873	1,4971061671773568	8	-1,42995346	0,00385911856
2	1	0	1	0	9179,37	2,59087944	2,59133744	1,5440033593525565	8	-1,42789853	0,00400103349
2	1	0	0	0	9180,72	2,60438132	2,60492611	1,5885085084786022	8	-1,42578268	0,00413794722
2	1	0	1	0	9182,07	2,61788344	2,61840487	1,6486161171148198	8	-1,42359447	0,00431674439
2	1	0	0	0	9183,42	2,63138509	2,63196349	1,6895774149646349	8	-1,42133892	0,00444690604
2	1	0	1	0	9184,77	2,64488697	2,64545202	1,7356619381656202	8	-1,41902757	0,00459161028
2	1	0	0	0	9186,12	2,65838861	2,6588304	1,7811524240920883	8	-1,41665471	0,00473578228
2	1	0	1	0	9187,47	2,6718905	2,672369	1,8347190227359498	8	-1,414217	0,00490304641
2	1	0	0	0	9188,82	2,68539238	2,68588781	1,8779646983991043	8	-1,41171241	0,00504400255
2	1	0	1	0	9190,17	2,69889426	2,69952655	1,9333085467418058	8	-1,40913868	0,00521901762
2	1	0	1	0	9191,52	2,71239543	2,71274376	1,985269864042401	8	-1,40649259	0,00538552832
2	1	0	0	0	9192,87	2,72589827	2,72635365	2,0317208574463875	8	-1,40378165	0,00553918956
2	1	0	1	0	9194,22	2,73939991	2,73995209	2,0803527267028806	8	-1,4010061	0,00570006669
2	1	0	0	0	9195,58	2,75290179	2,75338078	2,1360082210352013	8	-1,39815772	0,00588124385
2	1	0	1	0	9196,93	2,76640368	2,7669394	2,1886473055928909	8	-1,39523458	0,00605585426
2	1	0	0	0	9198,28	2,77990532	2,78041792	2,2435729205608298	8	-1,39223719	0,00623807032
2	1	0	1	0	9199,63	2,7934072	2,79393649	2,2933000642806291	8	-1,38917482	0,00640733493
2	1	0	0	0	9200,98	2,80690908	2,80746531	2,354694843913112	8	-1,38603663	0,00661072414
2	1	0	1	0	9202,33	2,82041097	2,82109404	2,4126995255549702	8	-1,38281679	0,00680645229
2	1	0	0	0	9203,68	2,83391285	2,83445239	2,465602609639369	8	-1,37952185	0,00698863342
2	1	0	1	0	9205,03	2,84741473	2,84796095	2,5147103375444714	8	-1,37615979	0,00716179702
2	1	0	0	0	9206,38	2,86091661	2,8613193	2,5713114986817018	8	-1,37272823	0,0073573431
2	1	0	1	0	9207,73	2,8744185	2,87485814	2,6186798450847421	8	-1,36922848	0,00752833299
2	1	0	1	0	9209,08	2,88791943	2,88846564	2,6850935694150522	8	-1,36564469	0,00775580062
2	1	0	0	0	9210,43	2,90142131	2,90193367	2,7363465314790397	8	-1,36198723	0,00794069655
2	1	0	1	0	9211,78	2,91492391	2,91554403	2,7830540314316749	8	-1,35825896	0,00811411627
2	1	0	0	0	9213,13	2,92842579	2,92880249	2,8338730111718214	8	-1,35447025	0,00829985458
2	1	0	1	0	9214,48	2,94192767	2,9424212	2,8931803262482061	8	-1,35060585	0,00851295516
2	1	0	0	0	9215,83	2,95542955	2,9558897	2,9445689550290554	8	-1,34667075	0,00870382134
2	1	0	1	0	9217,18	2,96893144	2,96940827	2,9883821606636013	8	-1,3426652	0,00887372717
2	1	0	0	0	9218,53	2,98243332	2,98293686	3,0623916729042906	8	-1,33857107	0,00913492125
2	1	0	1	0	9219,88	2,9959352	2,99655581	3,1305039885143418	8	-1,33438838	0,00938072987
2	1	0	0	0	9221,23	3,00943685	3,00989389	3,150664862245321	8	-1,33013666	0,00948316697
2	1	0	1	0	9222,58	3,02293873	3,0234127	3,2090836452941146	8	-1,32583725	0,00970238447
2	1	0	0	0	9223,93	3,03644061	3,03713155	3,2633744825919494	8	-1,321468	0,00991129782
2	1	0	1	0	9225,28	3,04994249	3,05049014	3,3175530682007411	8	-1,31701899	0,0101201627
2	1	0	0	0	9226,63	3,06344438	3,06391859	3,3546256745854989	8	-1,31251609	0,0102783004
2	1	0	1	0	9227,98	3,07694674	3,07753921	3,4006784190095802	8	-1,30795741	0,0104657216
2	1	0	1	0	9229,33	3,09044814	3,09069705	3,4635798156796934	8	-1,30332124	0,0107048759
2	1	0	0	0	9230,68	3,10394979	3,10436416	3,508082310358681	8	-1,29861188	0,0108903646
2	1	0	1	0	9232,03	3,11745167	3,11773276	3,5643169221778662	8	-1,29383409	0,0111125875
2	1	0	0	0	9233,38	3,13095331	3,1315217	3,6239247048894592	8	-1,28898299	0,0113483984
2	1	0	1	0	9234,73	3,14445519	3,14482951	3,6634778293470515	8	-1,28407133	0,0115210135
2	1	0	0	0	9236,08	3,15795708	3,15868878	3,6943284161388877	8	-1,27910101	0,0116692334
2	1	0	1	0	9237,43	3,17145872	3,17197728	3,7530695721507072	8	-1,27407086	0,0119046513
2	1	0	0	0	9238,78	3,1849606	3,18539572	3,804198368142039	8	-1,2689662	0,0121178776
2	1	0	1	0	9240,13	3,19846272	3,19912457	3,8883410419027059	8	-1,263767	0,0124392873
2	1	0	0	0	9241,48	3,21196461	3,21235275	3,9227734195689299	8	-1,25849867	0,0126013318
2	1	0	1	0	9242,83	3,22546649	3,22602153	3,9627400785684659	8	-1,25316942	0,012783885
2	1	0	0	0	9244,18	3,23896837	3,23956037	4,0148615849514886	8	-1,24777353	0,0130063863
2	1	0	1	0	9245,53	3,25247002	3,25281858	4,1614704529444243	8	-1,24225414	0,0135365082
2	1	0	1	0	9246,88	3,26597142	3,26651669	4,246795200154599	8	-1,23659241	0,0138722276
2	1	0	0	0	9248,23	3,27947354	3,28005624	4,2655430895586758	8	-1,23085368	0,0139912209
2	1	0	1	0	9249,58	3,29297543	3,29337454	4,2919868032137459	8	-1,22508705	0,0141351204
2	1	0	0	0	9250,93	3,30647731	3,30695319	4,3656955522795398	8	-1,21921992	0,0144371511
2	1	0	1	0	9252,28	3,31997943	3,32053185	4,4187900138397824	8	-1,21329582	0,0146727329
2	1	0	0	0	9253,63	3,33348131	3,33383036	4,4983674945930688	8	-1,20729768	0,0149967941
2	1	0	1	0	9254,98	3,34698319	3,34743881	4,5647688681880538	8	-1,20117736	0,0152802849
2	1	0	0	0	9256,33	3,36048484	3,36115789	4,6140069141983699	8	-1,19497967	0,0155084059
2	1	0	1	0	9257,68	3,37398672	3,37450647	4,622272573411472	8	-1,18873823	0,0155978883
2	1	0	0	0	9259,03	3,38748837	3,38800502	4,716225995371751	8	-1,18242705	0,0159785971
2	1	0	1	0	9260,38	3,40099025	3,40141296	4,8047761892279014	8	-1,17600083	0,0163430274
2	1	0	0	0	9261,73	3,41449213	3,41508222	4,8679777458309984	8	-1,16946745	0,0166245438
2	1	0	1	0	9263,08	3,42799425	3,42846084	4,8959242043395718	8	-1,16285694	0,0167854838
2	1	0	0	0	9264,43	3,44149613	3,44192934	4,9686032608151437	8	-1,15619397	0,0171015821
2	1	0	0	0	9265,78	3,4549973	3,4554472	4,8756751142679846	8	-1,14959967	0,0168476384
2	1	0	1	0	9267,13	3,4684999	3,46901631	4,9599757306277645	8	-1,14293611	0,0172062367
2	1	0	0	0	9268,49	3,48200154	3,48250508	5,0154882433513779	8	-1,13620722	0,0174664631
2	1	0	1	0	9269,84	3,49550343	3,49606371	5,081532120704665	8	-1,1293999	0,01776536
2	1	0	0	0	9271,19	3,50900507	3,50976229	5,2021484449505626	8	-1,12245893	0,0182583053
2	1	0	1	0	9272,54	3,52250695	3,52312088	4,9937327802181242	8	-1,11558998	0,0175935235
2	1	0	0	0	9273,89	3,53600883	3,53660941	5,0638523374994547	8	-1,10881412	0,0179088674
2	1	0	1	0	9275,24	3,54951096	3,55016828	5,1195735620955603	8	-1,10193443	0,0181753468
2	1	0	0	0	9276,59	3,56301284	3,56349683	5,3674445413052998	8	-1,0948447	0,0191268716
2	1	0	1	0	9277,94	3,57651472	3,57703519	5,5089794608453818	8	-1,08752167	0,0197058134
2	1	0	0	0	9279,29	3,59001637	3,59041333	5,5010874842603814	8	-1,08009791	0,0197511781
2	1	0	1	0	9280,64	3,60351825	3,60389233	5,5293654898802342	8	-1,07263255	0,0199272372
2	1	0	0	0	9281,99	3,61701989	3,6175611	5,5991409880419386	8	-1,06511104	0,0202552341
2	1	0	1	0	9283,34	3,63052249	3,63125014	5,7812274379395776	8	-1,05737138	0,0209930837
2	1	0	1	0	9284,69	3,6440239	3,64452767	5,8277106921952678	8	-1,04953349	0,0212392528
2	1	0	0	0	9286,04	3,65752578	3,65804672	5,8985122852027418	8	-1,04162645	0,0215770341
2	1	0	1	0	9287,39	3,67102766	3,6714859	5,8466024560233126	8	-1,0336715	0,0214657187
2	1	0	0	0	9288,74	3,68452954	3,68519449	5,9319644731780058	8	-1,02572262	0,0218604431
2	1	0	1	0	9290,09	3,69803119	3,6987431	5,9982553136845453	8	-1,01766336	0,0221860055
2	1	0	0	0	9291,44	3,71153307	3,71199131	6,056734378139168	8	-1,00951183	0,022482546
2	1	0	1	0	9292,79	3,72503495	3,72568989	6,2119112536311181	8	-1,00123417	0,0231436547
2	1	0	0	0	9294,14	3,7385366	3,73899841	6,2702506532271514	8	-0,992820024	0,023444457
2	1	0	1	0	9295,49	3,75203848	3,75246692	6,4343740219870963	8	-0,984237075	0,0241447762
2	1	0	0	0	9296,84	3,76554036	3,76593566	6,4872249017159053	8	-0,975508571	0,0244304724
2	1	0	1	0	9298,19	3,77904248	3,77966404	6,5439414009451866	8	-0,966709435	0,0247338992
2	1	0	0	0	9299,54	3,79254436	3,79332328	6,5964668790499277	8	-0,957835019	0,0250225309
2	1	0	1	0	9300,89	3,80604601	3,80651116	6,8453820670644352	8	-0,94884491	0,0260570236
2	1	0	1	0	9302,24	3,81954694	3,81992841	7,2913161673483277	8	-0,939226031	0,0278523061
2	1	0	0	0	9303,59	3,83304977	3,83332849	7,3771900137265766	8	-0,929348528	0,0282791927
2	1	0	1	0	9304,94	3,84655142	3,84686685	7,4091276700297971	8	-0,919413507	0,0285019279
2	1	0	0	0	9306,29	3,8600533	3,86076641	7,5554269378384051	8	-0,909267068	0,0291697383
2	1	0	1	0	9307,64	3,87355518	3,87420464	7,6477754463751923	8	-0,898988485	0,029629048
2	1	0	0	0	9308,99	3,8870573	3,88756347	7,8113657310605043	8	-0,888496637	0,0303671807
2	1	0	1	0	9310,34	3,90055871	3,90110183	7,9418523460626598	8	-0,877847493	0,0309819747
2	1	0	0	0	9311,69	3,91406059	3,91457033	8,0101072887579226	8	-0,867080569	0,0313561298
2	1	0	1	0	9313,04	3,92756271	3,92825937	8,2755223413307917	8	-0,856090307	0,0325083993
2	1	0	0	0	9314,39	3,9410646	3,94165754	8,6815029780069888	8	-0,844664514	0,0342195109
2	1	0	1	0	9315,74	3,95456648	3,95499611	8,7765395070115635	8	-0,832887411	0,0347111784
2	1	0	0	0	9317,09	3,96806812	3,9686749	8,8638581012685901	8	-0,820977509	0,035177771
2	1	0	1	0	9318,44	3,98157001	3,98212361	9,0956125607093056	8	-0,808895886	0,0362198539
2	1	0	1	0	9319,79	3,99507093	3,99569178	9,1779126178804659	8	-0,796568513	0,0366721116
2	1	0	1	0	9321,14	4,00857401	4,00910187	9,2909096804527066	8	-0,784136534	0,0372482017
2	1	0	1	0	9322,49	4,0220747	4,02254677	9,4359448125609613	8	-0,771477401	0,0379565284
2	1	0	0	0	9323,84	4,0355773	4,03611803	9,5293095310528883	8	-0,758677959	0,038461417
2	1	0	1	0	9325,19	4,04907942	4,04965687	9,6257345850269184	8	-0,745775461	0,0389809236
2	1	0	0	0	9326,58	4,06298113	4,06364536	10,028465894361318	8	-0,73215735	0,0407521278
2	1	0	1	0	9327,93	4,07648325	4,07714462	10,519888507823168	8	-0,718506694	0,0428911075
2	1	0	0	0	9329,28	4,08998489	4,09055233	10,653474921981514	8	-0,704173684	0,0435785949
2	1	0	1	0	9330,63	4,10348654	4,10380077	10,693004560967256	8	-0,689748824	0,0438819602
2	1	0	0	0	9331,98	4,11698866	4,11731958	10,903919468323381	8	-0,675013959	0,0448949225
2	1	0	1	0	9333,33	4,1304903	4,13092804	11,19663163026172	8	-0,659972608	0,0462524779
2	1	0	0	0	9334,68	4,14399242	4,14465761	11,199569803973048	8	-0,644882917	0,0464183837
2	1	0	1	0	9336,03	4,15749407	4,15812588	11,2261588846644	8	-0,629737675	0,0466797836
2	1	0	0	0	9337,38	4,17099619	4,17159414	11,388096836705976	8	-0,614450395	0,0475065187
2	1	0	1	0	9338,73	4,18449783	4,18521309	11,421019757787406	8	-0,599088967	0,047799401
2	1	0	0	0	9340,09	4,19799995	4,19870234	11,540309654118686	8	-0,583588958	0,0484543256
2	0	0	1	1	9341,37	4,18919849	4,18989992	11,338135880728558	8	-0,568912506	0,0475056544
2	0	0	0	1	9342,72	4,17569685	4,17600012	11,109646454453469	8	-0,553768337	0,0463938862
2	0	0	1	1	9344,07	4,16219473	4,16273212	10,950832309822229	8	-0,538859963	0,0455853827
2	0	0	0	1	9345,42	4,14869308	4,14911318	10,962543485065302	8	-0,524148762	0,0454848334
2	0	0	1	1	9346,77	4,13519144	4,13552475	10,822953375677245	8	-0,509408891	0,0447585918
2	0	0	0	1	9348,12	4,12168932	4,12208605	10,6114622801542	8	-0,494926393	0,0437413603
2	0	0	1	1	9349,47	4,1081872	4,1086874	10,465366072952747	8	-0,480665386	0,0429989174
2	0	0	1	1	9350,82	4,09468603	4,09513044	10,251690964839242	8	-0,466682762	0,04198201
2	0	0	1	1	9352,17	4,08118248	4,08161974	10,062766806198696	8	-0,452982068	0,0410723872
2	0	0	1	1	9353,52	4,06768179	4,06812191	9,9038136079907699	8	-0,439474672	0,0402899198
2	0	0	0	1	9354,87	4,05418015	4,05471325	9,7473285421728806	8	-0,426227868	0,0395226218
2	0	0	1	1	9356,22	4,0406785	4,04111481	9,5425726622342784	8	-0,413190693	0,0385626331
2	0	0	0	1	9357,57	4,02717638	4,02753592	9,383377855022729	8	-0,400399864	0,0377918929
2	0	0	1	1	9358,92	4,01367426	4,01404715	9,164627720912279	8	-0,387883067	0,0367872491
2	0	0	0	1	9360,27	4,00017262	4,00058842	8,9834383105238234	8	-0,375626117	0,0359390378
2	0	0	1	1	9361,62	3,98667073	3,98718023	8,7290623560547827	8	-0,363667548	0,0348043442
2	0	0	0	1	9362,97	3,97316909	3,97395229	8,5254356165727219	8	-0,352018684	0,033879675
2	0	0	1	1	9364,32	3,95966721	3,96022344	8,4085223600267802	8	-0,340565592	0,0332996286
2	0	0	0	1	9365,67	3,94616532	3,94659448	8,2194192633032794	8	-0,329325676	0,0324387141
2	0	0	1	1	9367,02	3,9326632	3,93319607	8,0396119679013645	8	-0,318347126	0,0316213705
2	0	0	0	1	9368,37	3,91916132	3,91968727	7,8021689603725837	8	-0,307632267	0,0305820629
2	0	0	1	1	9369,72	3,90565944	3,90597868	7,6057345047592973	8	-0,297220409	0,029707836
2	0	0	1	1	9371,07	3,89215803	3,89256978	7,3443721398240166	8	-0,28713119	0,0285884812
2	0	0	0	1	9372,42	3,87865639	3,87910104	7,1515297953071744	8	-0,277352154	0,0277415067
2	0	0	1	1	9373,77	3,86515403	3,8655827	6,9893815442919731	8	-0,267807424	0,027018033
2	0	0	0	1	9375,12	3,85165238	3,85220456	6,8110650107264525	8	-0,258495718	0,0262376163
2	0	0	1	1	9376,47	3,8381505	3,83849549	6,616995443900407	8	-0,249438733	0,0253993068
2	0	0	0	1	9377,82	3,82464862	3,8251369	6,4639692306518502	8	-0,24060981	0,0247255675
2	0	0	1	1	9379,17	3,8111465	3,81147814	6,274253077805056	8	-0,23201552	0,0239141788
2	0	0	0	1	9380,52	3,79764462	3,79820013	6,079326065878057	8	-0,223672971	0,0230904967
2	0	0	1	1	9381,87	3,78414297	3,78435087	5,9109774691363277	8	-0,215569615	0,0223692134
2	0	0	0	1	9383,22	3,77064109	3,77132297	5,7508913775284896	8	-0,207682371	0,0216884688
2	0	0	1	1	9384,57	3,75713921	3,75746369	5,5978318937122822	8	-0,200009272	0,0210336503
2	0	0	0	1	9385,92	3,74363756	3,74405551	5,374838375796896	8	-0,192551866	0,0201236941
2	0	0	1	1	9387,27	3,73013568	3,73081708	5,238577944536992	8	-0,185376525	0,0195441768
2	0	0	0	1	9388,62	3,7166338	3,71717834	5,1129120687643661	8	-0,17838271	0,019005606
2	0	0	0	1	9389,97	3,70313215	3,70352936	4,9884098133768474	8	-0,171565786	0,0184747223
2	0	0	1	1	9391,36	3,68922973	3,68972039	4,8498125734428544	8	-0,164748535	0,0178944524
2	0	0	0	1	9392,71	3,67572808	3,67620206	4,7302484822769946	8	-0,158292845	0,0173893496
2	0	0	1	1	9394,06	3,6622262	3,66266322	4,599259818593648	8	-0,151999205	0,0168455392
2	0	0	0	1	9395,41	3,64872432	3,64913487	4,4931921822329491	8	-0,145859808	0,0163962636
2	0	0	1	1	9396,76	3,63522267	3,63589621	4,3811645992100205	8	-0,139869198	0,0159294605
2	0	0	0	1	9398,11	3,62172079	3,62239766	4,2676698515812602	8	-0,134032175	0,0154591976
2	0	0	1	1	9399,46	3,60821891	3,60879922	4,1507564398149766	8	-0,128345892	0,014979247
2	0	0	0	1	9400,81	3,59471679	3,59521055	4,0620479198793651	8	-0,122806817	0,0146039175
2	0	0	1	1	9402,16	3,5812149	3,58174181	3,8814124303559507	8	-0,117477313	0,0139022171
2	0	0	0	1	9403,51	3,5677135	3,568223	3,7871672920882669	8	-0,112305366	0,013513457
2	0	0	1	1	9404,86	3,55421138	3,55484486	3,7116900458931994	8	-0,107244425	0,0131944818
2	0	0	0	1	9406,21	3,5407095	3,54109573	3,6365074552595686	8	-0,102279045	0,0128772212
2	0	0	1	1	9407,56	3,52720761	3,52777743	3,5545981253186803	8	-0,0974263474	0,012539831
2	0	0	0	1	9408,92	3,51370478	3,51405907	3,4971846045050938	8	-0,0926672146	0,0122893136
2	0	0	0	1	9410,27	3,50020409	3,50054002	3,4176384831468346	8	-0,0880024582	0,0119635807
2	0	0	1	1	9411,62	3,4867022	3,48727179	3,3389033079147341	8	-0,0834425762	0,011643663
2	0	0	0	1	9412,97	3,47320008	3,47374296	3,2588471708198342	8	-0,0789884627	0,0113203973
2	0	0	1	1	9414,32	3,45969868	3,46032453	3,1740162968635488	8	-0,0746482089	0,0109831262
2	0	0	0	1	9415,67	3,44619656	3,44681573	3,1039229196806771	8	-0,0704146922	0,01069865
2	0	0	1	1	9417,02	3,43269467	3,43326735	3,0422457990546976	8	-0,0662635565	0,0104448432
2	0	0	0	1	9418,37	3,41919279	3,41967845	2,9920343688378707	8	-0,0621901192	0,0102317957
2	0	0	1	1	9419,72	3,40569115	3,4063201	2,9297162778675558	8	-0,0581924841	0,00997955166
2	0	0	0	1	9421,07	3,39218926	3,39265108	2,855508017043263	8	-0,054287836	0,00968774222
2	0	0	1	1	9422,42	3,37868738	3,37938285	2,8001462581256931	8	-0,0504703969	0,00946276635
2	0	0	0	1	9423,77	3,36518574	3,36584449	2,742636909087497	8	-0,0467304103	0,00923128892
2	0	0	1	1	9425,12	3,35168386	3,35216546	2,6870233472436666	8	-0,0430574268	0,00900734682
2	0	0	0	1	9426,47	3,33818078	3,33871531	2,6462919224605629	8	-0,0394565873	0,00883521512
2	0	0	0	1	9427,82	3,32467985	3,3253684	2,5932379340131958	8	-0,0359223112	0,00862347148
2	0	0	1	1	9429,17	3,31117797	3,31173968	2,5352955075601661	8	-0,0324618071	0,00839623902
2	0	0	0	1	9430,52	3,29767609	3,29838157	2,4938776704172253	8	-0,0290667806	0,00822576042
2	0	0	1	1	9431,87	3,28417444	3,28484273	2,442198015128568	8	-0,025735328	0,00802223664
2	0	0	0	1	9433,22	3,27067256	3,27103353	2,3854430367549283	8	-0,0224756263	0,00780286407
2	0	0	1	1	9434,57	3,25717092	3,25762534	2,3398638584961587	8	-0,0192858446	0,00762239983
2	0	0	0	1	9435,92	3,24366903	3,24425697	2,29657958075404	8	-0,0161589142	0,00745069422
2	0	0	1	1	9437,27	3,23016715	3,23057795	2,2478697778036186	8	-0,0130923074	0,00726191839
2	0	0	0	1	9438,62	3,21666503	3,21712971	2,2183783203363382	8	-0,0100629618	0,00713681057
2	0	0	1	1	9439,97	3,20316315	3,20371127	2,1683194264769555	8	-0,00710101426	0,00694666943
2	0	0	0	1	9441,32	3,18966126	3,19009233	2,1424774931122883	8	-0,00419360446	0,00683470117
2	0	0	1	1	9442,67	3,17615962	3,17661381	2,0976613219827344	8	-0,0013331346	0,00666345982
2	0	0	0	1	9444,02	3,16265774	3,16320539	2,0530410359303133	8	0,00146974449	0,00649419054
2	0	0	0	1	9445,37	3,14915681	3,14967728	2,0279261658567408	8	0,00422064727	0,0063873129
2	0	0	1	1	9446,72	3,13565421	3,13618803	1,9931466933339798	8	0,00693012634	0,00625088299
2	0	0	0	1	9448,07	3,12215257	3,12253928	1,9417514801025373	8	0,00958106015	0,00606319541
2	0	0	1	1	9449,42	3,10865045	3,10910082	1,9266791834185498	8	0,012190477	0,00599023979
2	0	0	0	1	9450,77	3,0951488	3,09558249	1,894218002756432	8	0,0147677176	0,00586370798
2	0	0	1	1	9452,12	3,08164692	3,08218336	1,844125434756279	8	0,0172850341	0,00568393292
2	0	0	0	1	9453,47	3,0681448	3,068645	1,8036196927229504	8	0,019749308	0,00553466845
2	0	0	1	1	9454,82	3,05464292	3,05528688	1,7661541538933872	8	0,0221546255	0,00539610768
2	0	0	0	1	9456,17	3,04114127	3,04157805	1,7297706951697654	8	0,0245157722	0,00526123261
2	0	0	1	1	9457,52	3,02763963	3,02818942	1,6976863654951232	8	0,0268282313	0,00514091598
2	0	0	0	1	9458,87	3,01413774	3,01473069	1,6571727699289731	8	0,0290927328	0,00499592954
2	0	0	1	1	9460,22	3,00063562	3,00116205	1,6225015521049462	8	0,0313105732	0,00486939028
2	0	0	0	1	9461,57	2,98713398	2,98756337	1,593405651549496	8	0,0334827751	0,00476040039
2	0	0	1	1	9462,92	2,9736321	2,97414494	1,5597091952959702	8	0,035611961	0,00463880133
2	0	0	0	1	9464,27	2,96012902	2,96055412	1,5218104537460419	8	0,0376910865	0,00450540241
2	0	0	0	1	9465,62	2,94662809	2,94702744	1,4879875251402445	8	0,0397226736	0,00438514026
2	0	0	1	1	9466,97	2,93312645	2,93359923	1,4579359712079203	8	0,0417094342	0,00427699974
2	0	0	0	1	9468,32	2,91962481	2,91989017	1,4356706393882632	8	0,0436608456	0,00419200072
2	0	0	1	1	9469,67	2,90612292	2,90662217	1,3999542252471056	8	0,0455749743	0,00406913785
2	0	0	0	1	9471,02	2,89262104	2,89329338	1,3915644961719744	8	0,0474453196	0,00402620435
2	0	0	1	1	9472,37	2,87911916	2,87976503	1,353746648877857	8	0,0492980257	0,00389847229
2	0	0	0	1	9473,72	2,86561728	2,8663063	1,3187552616000158	8	0,0511066206	0,00377995661
2	0	0	1	1	9475,07	2,85211539	2,8526175	1,2887620500599333	8	0,0528668202	0,00367634511
2	0	0	0	1	9476,42	2,83861327	2,83929896	1,2547519520545976	8	0,0545825921	0,00356261595
2	0	0	1	1	9477,77	2,82511163	2,82578039	1,218657690410808	8	0,0562548079	0,00344365905
2	0	0	0	1	9479,12	2,81160975	2,81203175	1,1839642788593955	8	0,0578783303	0,00332934503
2	0	0	1	1	9480,47	2,7981081	2,7986331	1,1511843207602642	8	0,0594534837	0,00322174258
2	0	0	0	1	9481,83	2,78460622	2,78508449	1,1136642986287643	8	0,0609813593	0,00310164923
2	0	0	0	1	9483,18	2,77110481	2,77165818	1,0816762061147146	8	0,0624630302	0,0029980368
2	0	0	1	1	9484,53	2,75760245	2,75784683	1,0458202688023413	8	0,0639004037	0,00288421218
2	0	0	0	1	9485,88	2,74410057	2,74475884	1,011674921959635	8	0,0652900785	0,00277680368
2	0	0	1	1	9487,23	2,73059845	2,73107004	0,97856118561078451	8	0,0666331351	0,00267251907
2	0	0	0	1	9488,58	2,71709681	2,71756124	0,93846561852842394	8	0,0679273605	0,0025503377
2	0	0	1	1	9489,93	2,70359492	2,70417285	0,91245057216534771	8	0,069178164	0,00246742414
2	0	0	0	1	9491,28	2,69009328	2,69076443	0,87662082538008896	8	0,0703891516	0,00235878024
2	0	0	1	1	9492,63	2,6765914	2,6771059	0,8421386710057632	8	0,0715499222	0,00225449447
2	0	0	0	1	9493,98	2,66308951	2,66349697	0,81167075348396979	8	0,0726672262	0,00216188258
2	0	0	1	1	9495,33	2,64958763	2,65031862	0,77750810080518029	8	0,0737389922	0,0020606441
2	0	0	0	1	9496,68	2,63608575	2,63645959	0,74741715673978202	8	0,0747669116	0,00197053514
2	0	0	1	1	9498,03	2,62258387	2,62294102	0,71042566715429171	8	0,0757477954	0,00186340464
2	0	0	0	1	9499,38	2,60908198	2,60943246	0,66975883332391462	8	0,0766819641	0,00174769049
2	0	0	0	1	9500,73	2,59558129	2,59601545	0,62581277808984128	8	0,0775520355	0,00162461959
2	0	0	1	1	9502,08	2,58207822	2,58266568	0,5906740832142496	8	0,0783732384	0,00152551371
2	0	0	0	1	9503,43	2,56857657	2,5689466	0,55466272371510605	8	0,0791456327	0,00142489898
2	0	0	1	1	9504,78	2,55507469	2,55563831	0,51793486376603418	8	0,0798690692	0,0013236542
2	0	0	0	1	9506,17	2,54117274	2,54163909	0,47794078026587706	8	0,0805603117	0,00121475302
2	0	0	1	1	9507,52	2,52767086	2,52814031	0,43790541387473427	8	0,0811795816	0,00110708631
2	0	0	0	1	9508,87	2,51416898	2,51444149	0,39940946580221312	8	0,0817444101	0,0010042917
2	0	0	1	1	9510,22	2,5006671	2,50129342	0,36042490104834266	8	0,0822566748	0,00090152846
2	0	0	0	1	9511,57	2,48716521	2,48757458	0,31956928355308947	8	0,082715638	0,000794952444
2	0	0	1	1	9512,92	2,47366333	2,47416592	0,27623141456084886	8	0,0831171721	0,00068344234
2	0	0	0	1	9514,27	2,46016169	2,46073771	0,23151271743699821	8	0,0834594145	0,000569692056
2	0	0	1	1	9515,62	2,4466598	2,44703865	0,18522353963150272	8	0,0837404206	0,000453249173
2	0	0	0	1	9516,97	2,43315792	2,4336102	0,13709594111423851	8	0,0839574635	0,000333638076
2	0	0	1	1	9518,32	2,41965604	2,42015195	0,087719492750087347	8	0,0841087326	0,000212294501
2	0	0	0	1	9519,71	2,40575409	2,40624237	0,035156545006126803	8	0,0841941088	8,45951654E-005
2	0	0	1	1	9520,82	2,39465308	2,39510751	-0,007691615977539465	8	0,0842093602	1,84222463E-005