File: Experimentelles/Rohdaten/Batteriemessungen/AlteZelle/Studenten_Batterietests/Sonstige/ZView-Export/S vs Li_05_GCPL_C02_loop2.txt
EC-Lab ASCII FILE
Nb header lines : 3
mode	ox/red	error	control changes	Ns changes	counter inc.	Ns	time/s	control/V/mA	Ewe/V	dq/mA.h	<I>/mA	P/W	(Q-Qo)/mA.h	x	Capacity/mA.h
1	0	0	1	1	0	1	146805,94	-0,100000001	2,38049579	0	0	0	0	0	0
1	0	0	1	0	0	1	147025,94	-0,100000001	2,22792792	-0,00027770840087698563	-0,09997500867340576	0,000222737115	-0,0061081960956915494	0,00022790500888724698	0,0061081960956915494
1	0	0	1	0	0	1	147245,94	-0,100000001	2,21585441	-0,00027770784252799216	-0,099974807667799578	0,000221529612	-0,012217759601352707	0,0004558610376789623	0,012217759601352707
1	0	0	1	0	0	1	147465,94	-0,100000001	2,20671821	-0,00027770785410660838	-0,099974811836100749	0,000220616232	-0,018327321841442925	0,00068381701925052429	0,018327321841442925
1	0	0	1	0	0	1	147685,94	-0,100000001	2,20097709	-0,00027770765353615085	-0,099974739630747354	0,000220042115	-0,02443689379220681	0,00091177336314037683	0,02443689379220681
1	0	0	1	0	0	1	147905,94	-0,100000001	2,19523621	-0,00027770814171267882	-0,099974915374269914	0,000219468551	-0,030546469865835968	0,0011397298608598762	0,030546469865835968
1	0	0	1	0	0	1	148125,94	-0,100000001	2,18890381	-0,00027770812034027446	-0,099974907680205555	0,000218835456	-0,036656041804350675	0,0013676862042926958	0,036656041804350675
1	0	0	1	0	0	1	148345,94	-0,100000001	2,18007278	-0,00027770814302687843	-0,099974915847381709	0,000217952591	-0,042765621001047162	0,0015956428185380358	0,042765621001047162
1	0	0	1	0	0	1	148565,94	-0,100000001	2,17490387	-0,00027770812504366035	-0,099974909373424205	0,000217435823	-0,048875201201771437	0,0018235994702450029	0,048875201201771437
1	0	0	1	0	0	1	148785,94	-0,100000001	2,16983032	-0,00027770830426406531	-0,099974973892759898	0,000216928733	-0,054984784255899667	0,0020515562284163078	0,054984784255899667
1	0	0	1	0	0	1	149005,94	-0,100000001	2,16778946	-0,00027770811352837421	-0,099974905227921843	0,00021672454	-0,061094360482852672	0,0022795127318565261	0,061094360482852672
1	0	0	1	0	0	1	149225,94	-0,100000001	2,16263962	-0,0002777066378225055	-0,099974373973892224	0,000216208544	-0,067203920254105677	0,0025074686213124525	0,067203920254105677
1	0	0	1	0	0	1	149445,94	-0,100000001	2,15575433	-0,00027770736885443331	-0,099974637145345062	0,000215520762	-0,073313478565744819	0,0027354244563082224	0,073313478565744819
1	0	0	1	0	0	1	149665,94	-0,100000001	2,14877343	-0,00027770704473720653	-0,09997452046316169	0,00021482259	-0,079423040106619994	0,0029633804117911315	0,079423040106619994
1	0	0	1	0	0	1	149885,94	-0,100000001	2,1453402	-0,00027770774518491494	-0,099974772624297254	0,000214479893	-0,085532616151367027	0,003191336908432999	0,085532616151367027
1	0	0	1	0	0	1	150105,94	-0,100000001	2,1378634	-0,0002777069322773152	-0,099974479977607142	0,000213731779	-0,091642167674755264	0,0034192924901500019	0,091642167674755264
1	0	0	1	0	0	1	150325,94	-0,100000001	2,13082528	-0,00027770643777027725	-0,099974301955101325	0,000213027772	-0,097751718441280026	0,0036472480436274106	0,097751718441280026
1	0	0	1	0	0	1	150545,94	-0,100000001	2,12249017	-0,00027770768865984349	-0,099974752275274701	0,000212195431	-0,10386129026029072	0,0038752043826013747	0,10386129026029072
1	0	0	1	0	0	1	150765,94	-0,100000001	2,11423159	-0,00027770919254008269	-0,099975293672076109	0,00021137092	-0,10997087333867013	0,0041031611416775232	0,10997087333867013
1	0	0	1	0	0	1	150985,94	-0,100000001	2,10524797	-0,00027770713470545082	-0,099974552851724557	0,000210471218	-0,11608045258997522	0,0043311177579603846	0,11608045258997522
1	0	0	1	0	0	1	151205,94	-0,100000001	2,0958066	-0,00027770809159676234	-0,09997489733254281	0,000209528051	-0,12219002167870326	0,0045590739950638317	0,12219002167870326
1	0	0	1	0	0	1	151425,94	-0,100000001	2,08626986	-0,00027770756107899878	-0,099974706346177805	0,000208574216	-0,12829959619852998	0,004787030434808873	0,12829959619852998
1	0	0	1	0	0	1	151645,94	-0,100000001	2,07705736	-0,00027770813336595894	-0,099974912369451238	0,000207653633	-0,13440918061941834	0,0050149872439758355	0,13440918061941834
1	0	0	1	0	0	1	151865,94	-0,100000001	2,06794047	-0,0002777096246832775	-0,099975449243601907	0,00020674328	-0,1405187784875244	0,0052429445548765709	0,1405187784875244
1	0	0	1	0	0	1	152085,94	-0,100000001	2,05973887	-0,00027770917962657078	-0,099975289023212557	0,000205922988	-0,14662837815267648	0,0054709019328275098	0,14662837815267648
1	0	0	1	0	0	1	152305,94	-0,100000001	2,05207133	-0,00027770788433609738	-0,099974822718715098	0,000205155462	-0,15273795442946608	0,0056988584381271981	0,15273795442946608
1	0	0	1	0	0	1	152525,94	-0,100000001	2,04306865	-0,00027770745307414067	-0,099974667464434982	0,000204255106	-0,158847526197144	0,0059268147751858662	0,158847526197144
1	0	0	1	0	0	1	152745,94	-0,100000001	2,03755641	-0,00027770861087615286	-0,099975084273094144	0,000203704869	-0,16495711802568518	0,0061547718607423181	0,16495711802568518
1	0	0	1	0	0	1	152965,94	-0,100000001	2,0319109	-0,00027770874424402912	-0,099975132285522099	0,00020314056	-0,17106670487466899	0,0063827287605047859	0,17106670487466899
1	0	0	1	0	0	1	153185,94	-0,100000001	2,02742863	-0,00027770901984473069	-0,099975231501759117	0,000202692652	-0,17717629269558269	0,0066106856965312653	0,17717629269558269
1	0	0	1	0	0	1	153405,94	-0,100000001	2,02437687	-0,00027770795845654272	-0,099974849402071258	0,000202386771	-0,18328588404756528	0,0068386427643066739	0,18328588404756528
1	0	0	1	0	0	1	153625,94	-0,100000001	2,02231693	-0,00027770729179473386	-0,0999746094038576	0,000202180352	-0,18939546676754736	0,007066599510010537	0,18939546676754736
1	0	0	1	0	0	1	153845,94	-0,100000001	2,02159214	-0,00027770722345635296	-0,099974584802044326	0,00020210784	-0,19550503901961062	0,0072945558651422746	0,19550503901961062
1	0	0	1	0	0	1	154065,94	-0,100000001	2,0217638	-0,00027770788605428406	-0,099974823337262208	0,000202125477	-0,20161462530382541	0,0075225127438324506	0,20161462530382541
1	0	0	1	0	0	1	154285,94	-0,100000001	2,0220499	-0,00027770917464130451	-0,099975287228516992	0,000202155017	-0,20772421222888	0,0077504696464332237	0,20772421222888
1	0	0	1	0	0	1	154505,94	-0,100000001	2,02250767	-0,00027770872254338531	-0,099975124473291533	0,000202200463	-0,21383380641880243	0,0079784268200959808	0,21383380641880243
1	0	0	1	0	0	1	154725,94	-0,100000001	2,02275562	-0,00027770794750046397	-0,09997484545788352	0,000202224677	-0,21994337660441616	0,0082063830981257088	0,21994337660441616
1	0	0	1	0	0	1	154945,94	-0,100000001	2,02332783	-0,0002777078752770192	-0,099974819457447462	0,000202281837	-0,22605294890164688	0,0084343394549427046	0,22605294890164688
1	0	0	1	0	0	1	155165,94	-0,100000001	2,02357578	-0,00027770664589272608	-0,099974376879171187	0,000202305731	-0,23216248861538512	0,0086622945960257882	0,23216248861538512
1	0	0	1	0	0	1	155385,94	-0,100000001	2,02355671	-0,00027770743550815517	-0,099974661140681178	0,000202304393	-0,23827203967332566	0,0088902501603763123	0,23827203967332566
1	0	0	1	0	0	1	155605,94	-0,100000001	2,02327061	-0,00027770814426036342	-0,099974916291436224	0,000202276307	-0,24438161096370448	0,0091182064796263091	0,24438161096370448
1	0	0	1	0	0	1	155825,94	-0,100000001	2,02367115	-0,00027770751562342045	-0,099974689982172173	0,000202315889	-0,25049117993683178	0,0093461627124165376	0,25049117993683178
1	0	0	1	0	0	1	156045,94	-0,100000001	2,02344227	-0,0002777078512509664	-0,099974810808069798	0,00020229326	-0,2566007426415633	0,0095741187113244902	0,2566007426415633
1	0	0	1	0	0	1	156265,94	-0,100000001	2,02260303	-0,00027770690133670966	-0,099974468838990886	0,00020220867	-0,26271029450858467	0,0098020743058629069	0,26271029450858467
1	0	0	1	0	0	1	156485,94	-0,100000001	2,02273655	-0,00027770716433061494	-0,099974563516781978	0,000202222203	-0,26881985904967626	0,010030030373287923	0,26881985904967626
1	0	0	1	0	0	1	156705,94	-0,100000001	2,02323246	-0,00027770769154984093	-0,099974753315673626	0,00020227216	-0,27492942302266637	0,01025798641951631	0,27492942302266637
1	0	0	1	0	0	1	156925,94	-0,100000001	2,02252674	-0,0002777080544013944	-0,099974883942212442	0,000202201874	-0,28103899604445731	0,010485942803367624	0,28103899604445731
1	0	0	1	0	0	1	157145,94	-0,100000001	2,02254581	-0,00027770804976175229	-0,099974882271941542	0,000202203781	-0,2871485770674777	0,010713899485755563	0,2871485770674777
1	0	0	1	0	0	1	157365,94	-0,100000001	2,02218342	-0,00027770724243629312	-0,099974591634821722	0,000202166964	-0,29325814813044275	0,01094185579652045	0,29325814813044275
1	0	0	1	0	0	1	157585,94	-0,100000001	2,02214527	-0,00027770774287150966	-0,099974771791471488	0,000202163515	-0,29936772005998912	0,011169812139618648	0,29936772005998912
1	0	0	1	0	0	1	157805,94	-0,100000001	2,02159214	-0,00027770818209441171	-0,099974929911691482	0,000202108538	-0,30547729526093517	0,011397768604777165	0,30547729526093517
1	0	0	1	0	0	1	158025,94	-0,100000001	2,02151585	-0,0002777080462802615	-0,099974881018605069	0,000202100811	-0,31158686570937312	0,011625724892613218	0,31158686570937312
1	0	0	1	0	0	1	158245,94	-0,100000001	2,01998997	-0,00027770815158842339	-0,099974918929537395	0,000201948336	-0,31769643054413626	0,011853680970995515	0,31769643054413626
1	0	0	1	0	0	1	158465,94	-0,100000001	2,01951313	-0,00027770806074680554	-0,09997488622656009	0,000201900591	-0,32380600647978144	0,012081637463566648	0,32380600647978144
1	0	0	1	0	0	1	158685,94	-0,100000001	2,01855946	-0,00027770671451836826	-0,099974401584398502	0,000201804272	-0,32991557401606771	0,012309593642746403	0,32991557401606771
1	0	0	1	0	0	1	158905,94	-0,100000001	2,01678562	-0,00027770688616856931	-0,09997446337846121	0,000201627059	-0,3360251258507072	0,012537549236076611	0,3360251258507072
1	0	0	1	0	0	1	159125,94	-0,100000001	2,01512623	-0,00027770798385929728	-0,099974858547061453	0,000201461953	-0,34213469107443706	0,012765505328971779	0,34213469107443706
1	0	0	1	0	0	1	159345,94	-0,100000001	2,01461124	-0,00027770796477504899	-0,099974851676733146	0,000201410454	-0,34824426186564966	0,012993461629597214	0,34824426186564966
1	0	0	1	0	0	1	159565,94	-0,100000001	2,01337147	-0,00027770707060603635	-0,099974529775938957	0,00020128586	-0,35435382351020499	0,013221417588948566	0,35435382351020499
1	0	0	1	0	0	1	159785,94	-0,100000001	2,01260853	-0,00027770711598007216	-0,099974546110589299	0,000201209623	-0,36046337485878694	0,013449373164143312	0,36046337485878694
1	0	0	1	0	0	1	160005,94	-0,100000001	2,01230335	-0,00027770605454469722	-0,099974163993914112	0,000201178351	-0,36657292534449146	0,013677328707142938	0,36657292534449146
1	0	0	1	0	0	1	160225,94	-0,100000001	2,01064396	-0,00027770641260552739	-0,099974292895792806	0,000201012706	-0,37268247296493946	0,013905284143235994	0,37268247296493946
1	0	0	1	0	0	1	160445,94	-0,100000001	2,010396	-0,00027770643328337203	-0,099974300339815706	0,000200987939	-0,37879201805571379	0,014133239484943523	0,37879201805571379
1	0	0	1	0	0	1	160665,94	-0,100000001	2,00898457	-0,00027770683940210275	-0,099974446542535885	0,00020084712	-0,38490156900355757	0,014361195045186189	0,38490156900355757
1	0	0	1	0	0	1	160885,94	-0,100000001	2,00785923	-0,0002777072814810607	-0,099974605690935859	0,000200734939	-0,39101112831359616	0,014589150917433584	0,39101112831359616
1	0	0	1	0	0	1	161105,94	-0,100000001	2,00755405	-0,00027770785567454166	-0,099974812400556659	0,000200704846	-0,39712070129975469	0,014817107299955405	0,39712070129975469
1	0	0	1	0	0	1	161325,94	-0,100000001	2,00583744	-0,00027770778812923366	-0,099974788084249574	0,000200533177	-0,40323027390693414	0,015045063668337005	0,40323027390693414
1	0	0	1	0	0	1	161545,94	-0,100000001	2,00576115	-0,00027770819819428854	-0,099974935707646234	0,000200525843	-0,40933984704959347	0,01527302005669808	0,40933984704959347
1	0	0	1	0	0	1	161765,94	-0,100000001	2,00492191	-0,00027770714673606886	-0,099974557182746368	0,00020044118	-0,41544940827848147	0,015500976000540326	0,41544940827848147
1	0	0	1	0	0	1	161985,94	-0,100000001	2,00335789	-0,0002777075058652295	-0,099974686469223987	0,000200285082	-0,42155897103279213	0,015728932001298144	0,42155897103279213
1	0	0	1	0	0	1	162205,94	-0,100000001	2,00234699	-0,00027770799106193914	-0,099974861140012122	0,000200184368	-0,42766854331872506	0,015956888357693603	0,42766854331872506
1	0	0	1	0	0	1	162425,94	-0,100000001	2,00204182	-0,00027770714321815302	-0,09997455591629687	0,000200153241	-0,43377811531817139	0,016184844703399862	0,43377811531817139
1	0	0	1	0	0	1	162645,94	-0,100000001	2,00101185	-0,00027770724367184771	-0,099974592079621299	0,000200050345	-0,43988767883673946	0,016412800732673152	0,43988767883673946
1	0	0	1	0	0	1	162865,94	-0,100000001	2,00064945	-0,00027770662467885347	-0,09997436924217824	0,000200013674	-0,44599723040512013	0,016640756316068883	0,44599723040512013
1	0	0	1	0	0	1	163085,94	-0,100000001	1,99981022	-0,00027770678940332598	-0,099974428542979072	0,000199929884	-0,45210677616656634	0,016868711682800083	0,45210677616656634
1	0	0	1	0	0	1	163305,94	-0,100000001	1,99979115	-0,00027770750312548541	-0,099974685482916262	0,000199928487	-0,45821632677397651	0,01709666723034071	0,45821632677397651
1	0	0	1	0	0	1	163525,94	-0,100000001	1,99858952	-0,00027770682756519981	-0,099974442281251507	0,000199807866	-0,46432588917411846	0,017324623217884016	0,46432588917411846
1	0	0	1	0	0	1	163745,94	-0,100000001	1,99744511	-0,00027770798366268477	-0,09997485847628096	0,000199694288	-0,4704354456618183	0,017552578984826163	0,4704354456618183
1	0	0	1	0	0	1	163965,94	-0,100000001	1,99549961	-0,00027770700503016512	-0,099974506168629005	0,000199499089	-0,47654500091339053	0,017780534705646723	0,47654500091339053
1	0	0	1	0	0	1	164185,94	-0,100000001	1,99574757	-0,00027770716551732688	-0,099974563943998195	0,000199523987	-0,48265455501128877	0,018008490383422154	0,48265455501128877
1	0	0	1	0	0	1	164405,94	-0,100000001	1,99479401	-0,00027770681778093181	-0,099974438758915571	0,00019942841	-0,48876411253374515	0,018236446188972451	0,48876411253374515
1	0	0	1	0	0	1	164625,94	-0,100000001	1,99332535	-0,00027770710746157498	-0,09997454304393079	0,000199281785	-0,49487366513648608	0,018464401810961555	0,49487366513648608
1	0	0	1	0	0	1	164845,94	-0,100000001	1,99313462	-0,00027770681392567027	-0,099974437371021632	0,000199262518	-0,50098322214957638	0,018692357597506723	0,50098322214957638
1	0	0	1	0	0	1	165065,95	-0,100000001	1,99267685	-0,00027770747787339821	-0,099974676392166298	0,000199217218	-0,50709277981384083	0,018920313408348077	0,50709277981384083
1	0	0	1	0	0	1	165285,95	-0,100000001	1,99267685	-0,00027770767208147379	-0,099974746307062554	0,000199217364	-0,51320233643097946	0,01914826918011975	0,51320233643097946
1	0	0	1	0	0	1	165505,95	-0,100000001	1,99050248	-0,00027770646965213946	-0,099974313432569933	0,000198999114	-0,51931190229998157	0,019376225297090896	0,51931190229998157
1	0	0	1	0	0	1	165725,95	-0,100000001	1,98855698	-0,00027770719016343354	-0,0999745728165952	0,000198805137	-0,52542144493628653	0,019604180547218874	0,52542144493628653
1	0	0	1	0	0	1	165945,95	-0,100000001	1,98798478	-0,00027770739983229178	-0,099974648297372365	0,000198748079	-0,53153100204949056	0,019832136337499418	0,53153100204949056
1	0	0	1	0	0	1	166165,95	-0,100000001	1,9863826	-0,00027770678206864333	-0,099974425902493709	0,000198587455	-0,53764055757638605	0,020060092068592656	0,53764055757638605
1	0	0	1	0	0	1	166385,95	-0,100000001	1,98592484	-0,00027770773432983293	-0,099974768716468352	0,000198542373	-0,54375011758679405	0,020288047966971776	0,54375011758679405
1	0	0	1	0	0	1	166605,95	-0,100000001	1,98455155	-0,00027770731791315808	-0,099974618806488845	0,000198404785	-0,54985968241370022	0,020516004045060922	0,54985968241370022
1	0	0	1	0	0	1	166825,95	-0,100000001	1,98094666	-0,00027770777631840771	-0,099974783832352896	0,000198044712	-0,55596923553130707	0,020743959686260365	0,55596923553130707
1	0	0	1	0	0	1	167045,95	-0,100000001	1,98075593	-0,00027770695718543395	-0,099974488944528486	0,000198025067	-0,56207879556176307	0,020971915585387504	0,56207879556176307
1	0	0	1	0	0	1	167265,95	-0,100000001	1,9798404	-0,00027770653057967622	-0,099974335366479731	0,00019793323	-0,56818834146465478	0,021199870957396224	0,56818834146465478
1	0	0	1	0	0	1	167485,95	-0,100000001	1,97842896	-0,00027770735031945837	-0,099974630472755136	0,000197792702	-0,57429789230866714	0,0214278265137648	0,57429789230866714
1	0	0	1	0	0	1	167705,95	-0,100000001	1,97745621	-0,000277707315488408	-0,099974617933578957	0,000197695423	-0,5804074548444265	0,021655782506368173	0,5804074548444265
1	0	0	1	0	0	1	167925,95	-0,100000001	1,97526276	-0,00027770709521199267	-0,099974538634081843	0,00019747598	-0,58651701534907853	0,021883738423188202	0,58651701534907853
1	0	0	1	0	0	1	168145,95	-0,100000001	1,97482407	-0,00027770736131154826	-0,099974634429906867	0,00019743231	-0,59262657275722765	0,022111694224473546	0,59262657275722765
1	0	0	1	0	0	1	168365,95	-0,100000001	1,97278333	-0,00027770717877522112	-0,099974568716839386	0,000197228161	-0,59873612829968282	0,022339649956147338	0,59873612829968282
1	0	0	1	0	0	1	168585,95	-0,100000001	1,97177243	-0,00027770712202332083	-0,099974548286158477	0,000197127054	-0,60484568412912141	0,02256760569852887	0,60484568412912141
1	0	0	1	0	0	1	168805,95	-0,100000001	1,96927381	-0,00027770631254588566	-0,099974256874327411	0,000196876688	-0,61095523044738842	0,022795561086035802	0,61095523044738842
1	0	0	1	0	0	1	169025,95	-0,100000001	1,9697125	-0,00027770763847024902	-0,099974734207023539	0,000196921479	-0,61706478691717325	0,02302351685230951	0,61706478691717325
1	0	0	1	0	0	1	169245,95	-0,100000001	1,96624112	-0,00027770892497234877	-0,099975197347706982	0,000196575347	-0,6231743539219081	0,023251473011656371	0,6231743539219081
1	0	0	1	0	0	1	169465,95	-0,100000001	1,96599317	-0,00027770746382822592	-0,09997467133590505	0,000196549518	-0,62928392416252582	0,023479429291738371	0,62928392416252582
1	0	0	1	0	0	1	169685,95	-0,100000001	1,96521115	-0,00027770705753689011	-0,099974525071047053	0,000196471054	-0,63539348359624397	0,023707385168600416	0,63539348359624397
1	0	0	1	0	0	1	169905,95	-0,100000001	1,96328473	-0,00027770675632398989	-0,09997441663441993	0,000196278241	-0,64150302911949107	0,023935340526444086	0,64150302911949107
1	0	0	1	0	0	1	170125,95	-0,100000001	1,96067166	-0,0002777075363099575	-0,099974697429324352	0,000196017558	-0,64761258863931034	0,024163296406518685	0,64761258863931034
1	0	0	1	0	0	1	170345,95	-0,100000001	1,95771527	-0,00027770729610572259	-0,099974610955813312	0,000195721819	-0,65372214220505421	0,024391252064438717	0,65372214220505421
1	0	0	1	0	0	1	170565,95	-0,100000001	1,95441556	-0,00027770791032827562	-0,099974832075897805	0,000195392364	-0,65983170947326605	0,024619208233616259	0,65983170947326605
1	0	0	1	0	0	1	170785,95	-0,100000001	1,95165002	-0,0002777076438450151	-0,099974736141939008	0,000195115703	-0,66594127536189734	0,024847164351319792	0,66594127536189734
1	0	0	1	0	0	1	171005,95	-0,100000001	1,9494375	-0,00027770747606746022	-0,09997467574202871	0,000194894383	-0,67205084156894118	0,025075120480903728	0,67205084156894118
1	0	0	1	0	0	1	171225,95	-0,100000001	1,94854105	-0,00027770778261704573	-0,099974786099862234	0,000194804976	-0,67816040894338675	0,025303076654044989	0,67816040894338675
1	0	0	1	0	0	1	171445,95	-0,100000001	1,94600427	-0,00027770708389787213	-0,099974534560999104	0,00019455087	-0,68426997395872947	0,025531032739164957	0,68426997395872947
1	0	0	1	0	0	1	171665,95	-0,100000001	1,94260919	-0,0002777073654561407	-0,099974635921959923	0,000194211651	-0,69037952601230592	0,025758988340663994	0,69037952601230592
1	0	0	1	0	0	1	171885,95	-0,100000001	1,93927133	-0,00027770684705550474	-0,099974449297760166	0,000193877582	-0,69648908473942182	0,02598694419116176	0,69648908473942182
1	0	0	1	0	0	1	172105,95	-0,100000001	1,9349035	-0,0002777069518541296	-0,099974487025259213	0,000193440981	-0,70259863930758182	0,02621489988648329	0,70259863930758182
1	0	0	1	0	0	1	172325,95	-0,100000001	1,93162298	-0,00027770754970072042	-0,099974702249998234	0,000193113432	-0,70870819252901734	0,026442855531556723	0,70870819252901734
1	0	0	1	0	0	1	172545,95	-0,100000001	1,9275794	-0,00027770677972378003	-0,099974425058343053	0,000192708641	-0,7148177388459145	0,026670810919012541	0,7148177388459145
1	0	0	1	0	0	1	172765,95	-0,100000001	1,9213233	-0,000277706457691888	-0,099974309126880077	0,000192082967	-0,72092728088665702	0,026898766146919283	0,72092728088665702
1	0	0	1	0	0	1	172985,95	-0,100000001	1,91697454	-0,00027770749349809354	-0,099974682017055744	0,000191648927	-0,72703682136026432	0,027126721316354102	0,72703682136026432
1	0	0	1	0	0	1	173205,95	-0,100000001	1,91073763	-0,00027770656715416246	-0,099974348533292723	0,000191024752	-0,73314636857678234	0,027354676737375981	0,73314636857678234
1	0	0	1	0	0	1	173425,95	-0,100000001	1,90329897	-0,00027770623190162909	-0,09997422784239959	0,000190280844	-0,73925590741490406	0,02758263184578864	0,73925590741490406
1	0	0	1	0	0	1	173645,95	-0,100000001	1,8941437	-0,00027770824062286154	-0,099974950981930112	0,000189366925	-0,74536545823872602	0,027810587401403882	0,74536545823872602
1	0	0	1	0	0	1	173865,95	-0,100000001	1,88319564	-0,00027770647117868067	-0,099974313982124685	0,000188271195	-0,75147501847771098	0,028038543308311517	0,75147501847771098
1	0	0	1	0	0	1	174085,95	-0,100000001	1,86854732	-0,00027770708216561213	-0,099974533937385587	0,000186807141	-0,75758456671100582	0,02826649876727071	0,75758456671100582
1	0	0	1	0	0	1	174305,95	-0,100000001	1,84594536	-0,00027770661909836861	-0,099974367233204006	0,000184547214	-0,76369411724280358	0,028494454311990138	0,76369411724280358
1	0	0	1	0	0	1	174525,95	-0,100000001	1,79049897	-0,00027770591337564922	-0,099974113173064755	0,000179003546	-0,76980367027160051	0,028722409949875968	0,76980367027160051
1	0	0	1	0	0	1	174745,95	-0,100000001	1,56083655	-0,00027770651533040736	-0,099974329876743808	0,000156043592	-0,77591321204740582	0,028950365167897542	0,77591321204740582
1	0	0	1	0	0	1	174965,95	-0,100000001	1,4207617	-0,00027770743618367443	-0,09997466138386807	0,000142040168	-0,78202276353374835	0,02917832074823232	0,78202276353374835
1	0	0	1	0	0	1	175185,95	-0,100000001	1,33174622	-0,00027770691536077194	-0,099974473887652518	0,000133140624	-0,78813231569132506	0,029406276353611744	0,78813231569132506
1	0	0	1	0	0	1	175405,95	-0,100000001	1,24576342	-0,00027770700470730662	-0,099974506052399962	0,000124544589	-0,79424186030388966	0,029634231677476621	0,79424186030388966
1	0	0	1	0	0	1	175625,95	-0,100000001	1,1483748	-0,00027770706625489728	-0,099974528209529139	0,00011480823	-0,80035141885844954	0,029862187521536096	0,80035141885844954
1	0	0	1	0	0	1	175845,95	-0,100000001	1,03244674	-0,00027770764409792093	-0,099974736237640538	0,00010321859	-0,80646098669782938	0,030090143712024685	0,80646098669782938
1	1	0	0	0	0	2	176053,97	0,100000001	2,3660953	0,0002778077287839519	0,10001076671431883	0,000236635009	-0,80390509299039091	0,029994779881364518	0,0041671125083677472
1	1	0	0	0	0	2	176273,97	0,100000001	2,39197803	0,00027780735753766362	0,100010633065676	0,000239223242	-0,79779333078486003	0,029766741816124474	0,010278874713898534
1	1	0	0	0	0	2	176493,97	0,100000001	2,37780643	0,00027780706492356125	0,1000105277246156	0,000237805682	-0,79168156883435136	0,029538703760399661	0,016390636664407123
1	1	0	0	0	0	2	176713,97	0,100000001	2,36258602	0,00027780833935199517	0,10001098651878003	0,000236284555	-0,78556979924766464	0,029310665419758778	0,022502406251093997
1	1	0	0	0	0	2	176933,97	0,100000001	2,35327816	0,0002778079850822687	0,10001085898169846	0,000235353364	-0,77945802450476198	0,029082626886732538	0,028614180993996563
1	1	0	0	0	0	2	177153,97	0,100000001	2,34789944	0,00027780673349772893	0,10001040841133464	0,000234814375	-0,77334625721588493	0,028854588631826016	0,034725948282873459
1	1	0	0	0	0	2	177373,97	0,100000001	2,34402752	0,00027780731390168272	0,10001061735672531	0,000234427644	-0,7672344950562377	0,028626550568297965	0,040837710442520659
1	1	0	0	0	0	2	177593,97	0,100000001	2,3421011	0,00027780729963878787	0,10001061222208398	0,000234234962	-0,76112273421834406	0,02839851255408631	0,046949471280414592
1	1	0	0	0	0	2	177813,97	0,100000001	2,34234905	0,00027780697257030346	0,10001049447744798	0,000234259482	-0,75501097430830451	0,028170474574494138	0,053061231190453779
1	1	0	0	0	0	2	178033,97	0,100000001	2,34316921	0,00027780655184057021	0,10001034301476773	0,000234341162	-0,7488992254656544	0,027942437007841149	0,059172980033103757
1	1	0	0	0	0	2	178253,97	0,100000001	2,34561062	0,00027780772773962883	0,10001076633836259	0,000234586318	-0,74278745743424704	0,027714398725229824	0,065284748064511334
1	1	0	0	0	0	2	178473,97	0,100000001	2,34721279	0,00027780654067256381	0,10001033899428605	0,000234745545	-0,73667570163141146	0,02748636089888296	0,071396503867347162
1	1	0	0	0	0	2	178693,97	0,100000001	2,35003567	0,00027780702761602067	0,1000105142939031	0,000235028274	-0,73056394653119514	0,027258323098751757	0,077508258967563456
1	1	0	0	0	0	2	178913,97	0,100000001	2,35312557	0,0002778068888845543	0,10001046435058301	0,000235337182	-0,72445218339865805	0,027030284998923872	0,083620022100100429
1	1	0	0	0	0	2	179133,97	0,100000001	2,35541439	0,0002778081813048985	0,10001092962183414	0,00023556719	-0,718340421692432	0,026802246952313571	0,089731783806326413
1	1	0	0	0	0	2	179353,97	0,100000001	2,3574934	0,00027780745506866112	0,1000106681768296	0,000235774496	-0,71222865317666227	0,026574208651630035	0,095843552322096192
1	1	0	0	0	0	2	179573,97	0,100000001	2,35888577	0,00027780752506810758	0,10001069337662635	0,000235913802	-0,70611688548810522	0,026346170381810918	0,10195532001065323
1	1	0	0	0	0	2	179793,97	0,100000001	2,36100292	0,00027780755372552406	0,10001070369329469	0,000236125561	-0,70000511523357274	0,026118132016251811	0,10806709026518573
1	1	0	0	0	0	2	180013,97	0,100000001	2,36151791	0,00027780731645764576	0,10001061827687186	0,000236176871	-0,69389335647934208	0,025890094079784422	0,11417884901941635
1	1	0	0	0	0	2	180233,97	0,100000001	2,36203289	0,00027780772358054912	0,10001076484109416	0,00023622872	-0,68778159411677491	0,025662056008685146	0,12029061138198344
1	1	0	0	0	0	2	180453,97	0,100000001	2,3628149	0,0002778070038437016	0,10001050573586955	0,00023630631	-0,68166983504675072	0,025434018060435078	0,12640237045200733
1	1	0	0	0	0	2	180673,97	0,100000001	2,36350155	0,00027780822189980083	0,10001094423599669	0,000236376029	-0,67555806896738458	0,02520597985065704	0,13251413653137354
1	1	0	0	0	0	2	180893,97	0,100000001	2,36464572	0,00027780750757041904	0,10001068707745949	0,000236489839	-0,66944630786678771	0,024977941826643578	0,13862589763197038
1	1	0	0	0	0	2	181113,97	0,100000001	2,36464572	0,00027780756287111174	0,10001070699036285	0,000236489897	-0,66333454388051776	0,02474990369496177	0,14473766161824042
1	1	0	0	0	0	2	181333,97	0,100000001	2,36477923	0,00027780660142459802	0,10001036086501494	0,000236502427	-0,65722278896477824	0,024521865901713648	0,15084941653397994
1	1	0	0	0	0	2	181553,97	0,100000001	2,36449313	0,00027780727294335766	0,10001060261173059	0,000236474385	-0,65111103349234931	0,024293828087694698	0,15696117200640854
1	1	0	0	0	0	2	181773,97	0,100000001	2,3645885	0,00027780770087697437	0,10001075666780853	0,00023648428	-0,64499927613117184	0,024065790203203997	0,16307292936758589
1	1	0	0	0	0	2	181993,97	0,100000001	2,36512256	0,00027780657265128362	0,10001035050662339	0,00023653674	-0,63888752327327296	0,023837752486736675	0,16918468222548454
1	1	0	0	0	0	2	182213,97	0,100000001	2,36527514	0,00027780654276327955	0,10001033974694358	0,000236551976	-0,63277576467198835	0,023609714555975914	0,17529644082676925
1	1	0	0	0	0	2	182433,97	0,100000001	2,36554217	0,00027780633924860096	0,10001026648167077	0,000236578504	-0,62666401650254195	0,023381677014441059	0,18140818899621581
1	1	0	0	0	0	2	182653,97	0,100000001	2,36540866	0,00027780674912490781	0,10001041403711814	0,000236565495	-0,62055225477955251	0,023153638967205293	0,18751995071920518
1	1	0	0	0	0	2	182873,97	0,100000001	2,36603808	0,00027780734285588064	0,10001062778023493	0,000236628955	-0,61444049917469517	0,022925601148245261	0,19363170632406253
1	1	0	0	0	0	2	183093,97	0,100000001	2,36596179	0,00027780749610935648	0,1000106829514776	0,000236621461	-0,60832873988158093	0,022697563191671398	0,19974346561717674
1	1	0	0	0	0	2	183313,97	0,100000001	2,36603808	0,00027780763313877917	0,10001073228206205	0,000236629203	-0,60221697883693568	0,022469525169745565	0,20585522666182182
1	1	0	0	0	0	2	183533,97	0,100000001	2,36632419	0,00027780600764229898	0,10001014710342074	0,000236656429	-0,59610523266447027	0,022241487702720755	0,2119669728342872
1	1	0	0	0	0	2	183753,97	0,100000001	2,36695361	0,00027780756557484464	0,10001070795904944	0,000236720705	-0,5899934873256137	0,022013450266799018	0,21807871817314355
1	1	0	0	0	0	2	183973,97	0,100000001	2,36723971	0,00027780739502981302	0,10001064656284765	0,000236749169	-0,5838817270257225	0,021785412272660954	0,22419047847303472
1	1	0	0	0	0	2	184193,97	0,100000001	2,36704898	0,00027780647523121702	0,10001031543540491	0,00023672932	-0,57776997713532902	0,021557374666915248	0,23030222836342835
1	1	0	0	0	0	2	184413,97	0,100000001	2,36771655	0,00027780725520559485	0,10001059622613698	0,000236796739	-0,5716582309638192	0,021329337199926096	0,23641397453493805
1	1	0	0	0	0	2	184633,97	0,100000001	2,36785007	0,00027780808121876586	0,10001089359083203	0,000236810796	-0,56554646798495891	0,021101299105832096	0,24252573751379808
1	1	0	0	0	0	2	184853,97	0,100000001	2,36834598	0,00027780768214041987	0,10001074992264994	0,000236860054	-0,55943472042547674	0,020873261587055827	0,24863748507328016
1	1	0	0	0	0	2	185073,97	0,100000001	2,36908984	0,0002778071412936681	0,10001055521784976	0,000236933993	-0,55332296311606624	0,020645223704496624	0,25474924238269053
1	1	0	0	0	0	2	185293,97	0,100000001	2,36954761	0,00027780725567953453	0,10001059639675525	0,000236979875	-0,54721121134794669	0,020417186028690438	0,26086099415081005
1	1	0	0	0	0	2	185513,97	0,100000001	2,36979556	0,00027780705675524144	0,10001052478402091	0,000237004497	-0,54109945518859136	0,020189148189041338	0,26697275031016531
1	1	0	0	0	0	2	185733,97	0,100000001	2,37006259	0,00027780692690735066	0,10001047803878755	0,000237031098	-0,53498769602504416	0,019961110237301802	0,27308450947371254
1	1	0	0	0	0	2	185953,97	0,100000001	2,37111163	0,00027780757590548858	0,10001071167808067	0,000237136555	-0,52887593128180768	0,019733072077376554	0,27919627421694864
1	1	0	0	0	0	2	186173,97	0,100000001	2,37296176	0,00027780650689908198	0,1000103268358345	0,000237320681	-0,52276418080846086	0,01950503444988008	0,2853080246902951
1	1	0	0	0	0	2	186393,97	0,100000001	2,3733623	0,00027780678006675507	0,10001042517618142	0,000237360975	-0,51665242292518509	0,01927699654590919	0,29141978257357114
1	1	0	0	0	0	2	186613,97	0,100000001	2,37402987	0,00027780691494668522	0,10001047373294867	0,000237427856	-0,51054067076922925	0,01904895885563231	0,2975315347295271
1	1	0	0	0	0	2	186833,97	0,100000001	2,37505984	0,00027780783336609606	0,10001080436388485	0,00023753164	-0,50442891131480384	0,018820920893039712	0,30364329418395251
1	1	0	0	0	0	2	187053,97	0,100000001	2,37673831	0,00027780695780242483	0,10001048916101253	0,000237698754	-0,4983171518556944	0,018592882930272355	0,30975505364306189
1	1	0	0	0	0	2	187273,97	0,100000001	2,37841678	0,00027780759713177878	0,10001071931954395	0,000237867178	-0,49220538925496384	0,018364844850286883	0,31586681624379251
1	1	0	0	0	0	2	187493,97	0,100000001	2,37937045	0,00027780756837088202	0,10001070896562272	0,000237962522	-0,48609363271384742	0,018136806996393763	0,32197857278490886
1	1	0	0	0	0	2	187713,97	0,100000001	2,3816402	0,00027780791775633894	0,10001083474436752	0,000238189823	-0,4799818724106672	0,017908769002132986	0,32809033308808909
1	1	0	0	0	0	2	187933,97	0,100000001	2,38179278	0,00027780792874428963	0,10001083870002915	0,000238205088	-0,47387010842609549	0,017680730870514544	0,3342020970726608
1	1	0	0	0	0	2	188153,97	0,100000001	2,38446307	0,00027780770435101462	0,1000107579184628	0,000238471956	-0,46775834002956653	0,017452692574280042	0,34031386546918982
1	1	0	0	0	0	2	188373,97	0,100000001	2,38589358	0,00027780709538070688	0,10001053868918632	0,000238614506	-0,46164656796723923	0,01722465414126968	0,34642563753151712
1	1	0	0	0	0	2	188593,97	0,100000001	2,38682818	0,00027780745529300634	0,10001066825759386	0,000238708279	-0,4555348156465481	0,016996616444846301	0,35253738985220826
1	1	0	0	0	0	2	188813,97	0,100000001	2,38766742	0,0002778063063807785	0,10001025464925656	0,000238791225	-0,44942306706010931	0,016768578887752902	0,35864913843864704
1	1	0	0	0	0	2	189033,97	0,100000001	2,38967013	0,00027780699334624746	0,10001050195678666	0,000238992114	-0,4433113199166967	0,016540541384500746	0,36476088558205965
1	1	0	0	0	0	2	189253,97	0,100000001	2,39033771	0,00027780743454065587	0,10001066078674886	0,000239059256	-0,43719955848317683	0,016312503348065478	0,37087264701557952
1	1	0	0	0	0	2	189473,97	0,100000001	2,39119601	0,00027780707903289133	0,10001053280397363	0,000239144792	-0,43108780031556013	0,01608446543348545	0,37698440518319622
1	1	0	0	0	0	2	189693,97	0,100000001	2,39342761	0,0002778076674586369	0,10001074463720891	0,000239368484	-0,42497604405088314	0,015856427589906653	0,38309616144787322
1	1	0	0	0	0	2	189913,97	0,100000001	2,39594531	0,00027780686806390678	0,1000104568551511	0,000239619592	-0,41886429700785619	0,015628390090400026	0,38920790849090016
1	1	0	0	0	0	2	190133,97	0,100000001	2,40202975	0,00027780707297556931	0,10001053062333806	0,00024022827	-0,41275254044992128	0,015400352235879386	0,39531966504883507
1	1	0	0	0	0	2	190353,97	0,100000001	2,39869189	0,00027780719503098064	0,10001057456327926	0,000239894551	-0,40664078679610323	0,015172314489715251	0,40143141870265312
1	1	0	0	0	0	2	190573,97	0,100000001	2,39869189	0,00027780705922510883	0,10001052567317309	0,000239894434	-0,40052902016343821	0,014944276259292883	0,40754318533531814
1	1	0	0	0	0	2	190793,97	0,100000001	2,39941669	0,00027780658819981744	0,10001035610409469	0,00023996651	-0,39441726728199782	0,0147162385419472	0,41365493821675853
1	1	0	0	0	0	2	191013,97	0,100000001	2,3998363	0,00027780679459166195	0,1000104304051471	0,000240008667	-0,38830551931853536	0,014488201008097882	0,41976668618022099
1	1	0	0	0	0	2	191233,97	0,100000001	2,40040851	0,00027780652962749206	0,10001033501806085	0,000240065652	-0,38219377251602496	0,014260163517565248	0,42587843298273146
1	1	0	0	0	0	2	191453,97	0,100000001	2,40281177	0,00027780699555989766	0,10001050275370064	0,000240306414	-0,37608202668732486	0,014032126063366787	0,43199017881143149
1	1	0	0	0	0	2	191673,97	0,100000001	2,40389895	0,0002778066129158768	0,10001036500187467	0,000240414811	-0,3699702767790713	0,013804088456954698	0,43810192871968506
1	1	0	0	0	0	2	191893,97	0,100000001	2,4053483	0,00027780669504735203	0,10001039456920112	0,000240559835	-0,36385851850355264	0,013576050538348701	0,44421368699520378
1	1	0	0	0	0	2	192113,97	0,100000001	2,40521479	0,00027780861031057107	0,10001108406385206	0,000240548135	-0,35774675502870726	0,013348012425748834	0,45032545047004909
1	1	0	0	0	0	2	192333,97	0,100000001	2,4088006	0,00027780769941417706	0,10001075614120157	0,000240905967	-0,3516349883543936	0,013119974193772501	0,45643721714436275
1	1	0	0	0	0	2	192553,97	0,100000001	2,41255808	0,00027780786126520902	0,10001081440756394	0,000241281901	-0,34552322482001414	0,012891936078951334	0,46254898067874221
1	1	0	0	0	0	2	192773,97	0,100000001	2,41486597	0,00027780692627322346	0,10001047781050181	0,000241511894	-0,33941146454306445	0,012663898085669256	0,4686607409556919
1	1	0	0	0	0	2	192993,97	0,100000001	2,41601038	0,00027780725357143411	0,10001059563783922	0,000241626636	-0,3332997019552361	0,012435860006165184	0,47477250354352026
1	1	0	0	0	0	2	193213,97	0,100000001	2,41627741	0,00027780746609924566	0,10001067214783939	0,000241653528	-0,32718794164588096	0,01220782201167401	0,48088426385287539
1	1	0	0	0	0	2	193433,97	0,100000001	2,4195962	0,00027780738814837405	0,10001064408553002	0,00024198537	-0,32107617235389894	0,011979783682028954	0,48699603314485741
1	1	0	0	0	0	2	193653,97	0,100000001	2,42068338	0,00027780679036097395	0,10001042888209965	0,000242093578	-0,31496441460843194	0,011751745783199894	0,49310779089032442
1	1	0	0	0	0	2	193873,97	0,100000001	2,41807032	0,00027780778299934336	0,10001078623185672	0,000241833113	-0,30885264952021306	0,011523707610402893	0,4992195559785433
1	1	0	0	0	0	2	194093,97	0,100000001	2,42066431	0,00027780661751992176	0,10001036665933059	0,000242091526	-0,30274090170289709	0,011295670082006496	0,5053313037958592
1	1	0	0	0	0	2	194313,97	0,100000001	2,42108393	0,00027780649973990189	0,10001032425853008	0,000242133392	-0,29662914629331437	0,011067632270332422	0,51144305920544173
1	1	0	0	0	0	2	194533,97	0,100000001	2,42320108	0,00027780673669195837	0,10001040956125706	0,000242345326	-0,29051740666872755	0,010839595047617768	0,51755479883002854
1	1	0	0	0	0	2	194753,97	0,100000001	2,42568064	0,00027780758915137914	0,10001071644660053	0,000242594062	-0,2844056457121375	0,01061155702897739	0,52366655978661824
1	1	0	0	0	0	2	194973,97	0,100000001	2,42631006	0,00027780636838409642	0,10001027697073856	0,000242655937	-0,27829390120698688	0,010383519624162339	0,52977830429176851
1	1	0	0	0	0	2	195193,97	0,100000001	2,43161249	0,00027780673862910928	0,1000104102586313	0,000243186558	-0,27218216135144003	0,010155482392830256	0,53589004414731546
1	1	0	0	0	0	2	195413,97	0,100000001	2,4306016	0,00027780676924313107	0,10001042127967739	0,000243085495	-0,26607041151300048	0,0099274447890230208	0,54200179398575488
1	1	0	0	0	0	2	195633,97	0,100000001	2,43115473	0,00027780653096280163	0,10001033549877222	0,000243140603	-0,25995866510979888	0,0096994073133891354	0,54811354038895622
1	1	0	0	0	0	2	195853,97	0,100000001	2,43172693	0,00027780671591270301	0,10001040208305485	0,000243197981	-0,25384691959347962	0,0094713698708460211	0,55422528590527533
1	1	0	0	0	0	2	196073,97	0,100000001	2,4334054	0,00027780788398658237	0,10001082258725707	0,000243366871	-0,2477351554916105	0,0092433317348510541	0,56033705000714451
1	1	0	0	0	0	2	196293,97	0,100000001	2,43432093	0,00027780756154904758	0,10001070650976272	0,000243458155	-0,24162339025908307	0,0090152935566697062	0,56644881523967206
1	1	0	0	0	0	2	196513,97	0,100000001	2,43981409	0,00027780670561268928	0,10001039837272194	0,000244006776	-0,23551163905062624	0,0087872559017452864	0,57256056644812883
1	1	0	0	0	0	2	196733,97	0,100000001	2,43977594	0,00027780714387281072	0,10001055614634098	0,000244003342	-0,22939987837653171	0,0085592178936451968	0,57867232712222336
1	1	0	0	0	0	2	196953,97	0,100000001	2,44162607	0,00027780721072562867	0,10001058021335165	0,000244188443	-0,22328812077194054	0,0083311800000724058	0,58478408472681459
1	1	0	0	0	0	2	197173,97	0,100000001	2,44042444	0,00027780645391634768	0,10001030776205314	0,000244067603	-0,21717637030921856	0,0081031423729723571	0,59089583518953651
1	1	0	0	0	0	2	197393,97	0,100000001	2,4418931	0,00027780765295359818	0,10001073941539579	0,000244215538	-0,21106461298790134	0,007875104489968896	0,5970075925108535
1	1	0	0	0	0	2	197613,97	0,100000001	2,44456339	0,00027780799176212813	0,10001086138644747	0,000244482886	-0,20495285244369066	0,0076470664867149478	0,60311935305506419
1	1	0	0	0	0	2	197833,97	0,100000001	2,44835877	0,00027780660429679686	0,10001036189900637	0,000244861236	-0,1988410996831607	0,0074190287738805939	0,60923110581559411
1	1	0	0	0	0	2	198053,97	0,100000001	2,44751954	0,00027780748960210218	0,10001068060886642	0,000244778086	-0,1927293402676207	0,0071909908127388659	0,61534286523113408
1	1	0	0	0	0	2	198273,97	0,100000001	2,44887376	0,00027780819150184595	0,10001093329273464	0,000244914147	-0,18661757046234499	0,0069629524639421299	0,62145463503641024
1	1	0	0	0	0	2	198493,97	0,100000001	2,45139146	0,00027780774897005827	0,10001077398131598	0,000245165545	-0,180505796200444	0,0067349139488627136	0,62756640929831104
1	1	0	0	0	0	2	198713,97	0,100000001	2,44845414	0,00027780816683131792	0,10001092441134594	0,00024487215	-0,17439401806048144	0,0065068752890876058	0,63367818743827379
1	1	0	0	0	0	2	198933,97	0,100000001	2,45024705	0,00027780815792580448	0,1000109212053616	0,000245051458	-0,16828224427141341	0,0062788367916502221	0,63978996122734182
1	1	0	0	0	0	2	199153,97	0,100000001	2,44526911	0,00027780850550366768	0,10001104633337277	0,000244553928	-0,16217046933516627	0,0060507982514100442	0,64590173616358886
1	1	0	0	0	0	2	199373,97	0,100000001	2,4470427	0,00027780751118105318	0,10001068837728758	0,000244730414	-0,15605870386908592	0,0058227600645145216	0,65201350162966938
1	1	0	0	0	0	2	199593,97	0,100000001	2,44826341	0,00027780708450203139	0,10001053477286376	0,000244852126	-0,14994693776197574	0,0055947218537013139	0,65812526773677926
1	1	0	0	0	0	2	199813,97	0,100000001	2,45053315	0,00027780837573856112	0,10001099961794173	0,000245080271	-0,14383516861375795	0,0053666835294202918	0,66423703688499699
1	1	0	0	0	0	2	200033,97	0,100000001	2,45579743	0,00027780685430847933	0,10001045190319798	0,000245605421	-0,13772339694346445	0,0051386451110372358	0,6703488085552905
1	1	0	0	0	0	2	200253,97	0,100000001	2,45663667	0,00027780798630995882	0,10001085942366683	0,000245690346	-0,13161161818650741	0,0049106064282412339	0,67646058731224742
1	1	0	0	0	0	2	200473,97	0,100000001	2,4571898	0,00027780828450785744	0,10001096677489354	0,000245745934	-0,12549983852491728	0,0046825677116921549	0,68257236697383731
1	1	0	0	0	0	2	200693,97	0,100000001	2,46043229	0,00027780851638648246	0,1000110502511855	0,000246070413	-0,11938805514912133	0,0044545288565610637	0,68868415034963341
1	1	0	0	0	0	2	200913,97	0,100000001	2,45694184	0,00027780756350399718	0,10001070721354446	0,000245720497	-0,11327628585815958	0,0042264905269540736	0,69479591964059533
1	1	0	0	0	0	2	201133,97	0,100000001	2,4631598	0,00027780765968478387	0,10001074183862226	0,000246342446	-0,10716451689145622	0,0039984522094455994	0,70090768860729843
1	1	0	0	0	0	2	201353,97	0,100000001	2,46617341	0,00027780706845348083	0,10001052899538646	0,000246643322	-0,10105275340778659	0,0037704140965164864	0,70701945209096806
1	1	0	0	0	0	2	201573,97	0,100000001	2,47008348	0,00027780729489607942	0,10001061051470922	0,000247034564	-0,094940989951163008	0,0035423759845964973	0,71313121554759181
1	1	0	0	0	0	2	201793,97	0,100000001	2,46979737	0,00027780663464715082	0,10001037282513208	0,000247005344	-0,088829237096393574	0,0033143382682459411	0,71924296840236122
1	1	0	0	0	0	2	202013,97	0,100000001	2,46809983	0,00027780697645950646	0,10001049587756086	0,000246835902	-0,082717479522270771	0,0030863003758099648	0,72535472597648422
1	1	0	0	0	0	2	202233,97	0,100000001	2,4716475	0,00027780824792964589	0,10001095360673942	0,000247191812	-0,076605721440075891	0,0028582624644171373	0,73146648405867904
1	1	0	0	0	0	2	202453,97	0,100000001	2,46499085	0,00027780754880441558	0,1000107019216959	0,000246525451	-0,070493962294923213	0,0026302245133639248	0,73757824320383194
1	1	0	0	0	0	2	202673,97	0,100000001	2,46687913	0,0002778074787735111	0,10001067671057424	0,000246714248	-0,064382195960853914	0,002402186294082567	0,74369000953790131
1	1	0	0	0	0	2	202893,97	0,100000001	2,46872926	0,00027780696268710826	0,10001049091949829	0,000246898824	-0,05827043003883735	0,0021741480901754515	0,74980177545991795
1	1	0	0	0	0	2	203113,97	0,100000001	2,47088456	0,00027780698023405341	0,10001049723639754	0,000247114396	-0,052158676707758528	0,0019461103560531514	0,75591352879099725
1	1	0	0	0	0	2	203333,97	0,100000001	2,47630143	0,00027780738659037482	0,10001064352465038	0,000247656513	-0,046046911532610515	0,0017180721800127053	0,76202529396614541
1	1	0	0	0	0	2	203553,97	0,100000001	2,48051667	0,00027780714769620035	0,10001055752276102	0,000248077849	-0,039935152452058125	0,0014900342313698163	0,7681370530466976
1	1	0	0	0	0	2	203773,97	0,100000001	2,48082185	0,00027780747225259741	0,10001067436304568	0,00024810867	-0,033823386962868141	0,0012619960436120422	0,77424881853588762
1	1	0	0	0	0	2	203993,97	0,100000001	2,48276734	0,00027780783242608112	0,10001080402547952	0,00024830355	-0,027711607484744115	0,0010339573339083306	0,78036059801401139
1	1	0	0	0	0	2	204213,97	0,100000001	2,48457932	0,00027780882173238531	0,10001116017569331	0,000248485652	-0,021599831125560195	0,00080591874057646758	0,78647237437319526
1	1	0	0	0	0	2	204433,97	0,100000001	2,48490357	0,00027780782623299293	0,10001080179596811	0,000248517201	-0,015488056218159574	0,00057788020141259174	0,79258414928059597
1	1	0	0	0	0	2	204653,97	0,100000001	2,48564744	0,00027780739499835507	0,10001064655152278	0,000248591212	-0,0093762863822826522	0,00034984185147408371	0,79869591911647309
1	1	0	0	0	0	2	204873,97	0,100000001	2,48349214	0,00027780695011176992	0,10001048639237722	0,000248375261	-0,0032645285742509293	0,00012180395031065162	0,80480767692450496
1	1	0	0	0	0	2	205093,97	0,100000001	2,48665833	0,00027780804287435277	0,10001087978684547	0,000248692901	0,0028472334130891898	-0,00010623410678839581	0,81091943891184538
1	1	0	0	0	0	2	205313,97	0,100000001	2,48934746	0,00027780728442884157	0,10001060674650416	0,000248961151	0,0089589968303761958	-0,00033427221724068416	0,81703120232913229
1	1	0	0	0	0	2	205533,97	0,100000001	2,49165535	0,00027780733589331309	0,10001062527371101	0,000249192002	0,015070757575783174	-0,00056231022800153651	0,82314296307453926
1	1	0	0	0	0	2	205753,97	0,100000001	2,4894619	0,00027780737690544787	0,10001064003807722	0,000248972676	0,021182519602216493	-0,00079034828655920358	0,8292547251009728
1	1	0	0	0	0	2	205973,97	0,100000001	2,49318123	0,00027780689181801344	0,10001046540662816	0,000249344215	0,027294269059070406	-0,0010183858761289634	0,83536647455782669
1	1	0	0	0	0	2	206193,97	0,100000001	2,49392509	0,00027780697641604477	0,10001049586191466	0,000249418692	0,033406028406105638	-0,0012464238347146858	0,84147823390486195
1	1	0	0	0	0	2	206413,97	0,100000001	2,49693871	0,00027780749127103226	0,10001068120968114	0,000249720528	0,03951779276358512	-0,0014744619802468192	0,84758999826234138
1	1	0	0	0	0	2	206633,97	0,100000001	2,49787331	0,0002778067995417449	0,10001043218717667	0,000249813398	0,045629550193142675	-0,001702499867288871	0,85370175569189888
1	1	0	0	0	0	2	206853,97	0,100000001	2,49875069	0,00027780853520913261	0,10001105702733846	0,000249902689	0,051741303528000198	-0,0019305376015521597	0,85981350902675648
1	1	0	0	0	0	2	207073,97	0,100000001	2,48898506	0,00027780707354098557	0,10001053082688787	0,000248924713	0,05785306822806112	-0,0021585757598664678	0,86592527372681754
1	1	0	0	0	0	2	207293,97	0,100000001	2,50506401	0,00027780646967763702	0,10001031343611643	0,000250532234	0,063964813384549594	-0,0023866131889838109	0,87203701888330624
1	1	0	0	0	0	2	207513,97	0,100000001	2,50720024	0,00027780705450723568	0,10001052397473898	0,000250746409	0,070076564015908902	-0,0026146508223759459	0,87814876951466534
1	1	0	0	0	0	2	207733,97	0,100000001	2,50477791	0,0002778078232734567	0,10001080073053526	0,000250504847	0,076188324892920845	-0,0028426888380471562	0,88426053039167744
1	1	0	0	0	0	2	207953,97	0,100000001	2,51006126	0,00027780741505283446	0,10001065377579134	0,000251032878	0,08230009376720311	-0,0030707271521072749	0,89037229926595968
1	1	0	0	0	0	2	208173,97	0,100000001	2,511549	0,00027780697012899651	0,10001049359857765	0,000251181249	0,088411862645562867	-0,0032987654663195296	0,89648406814431936
1	1	0	0	0	0	2	208393,97	0,100000001	2,51345634	0,00027780680924695398	0,10001043568105139	0,00025137185	0,094523624282764198	-0,0035268035103544288	0,90259582978152051
1	1	0	0	0	0	2	208613,97	0,100000001	2,51456261	0,00027780746357308496	0,10001067123842168	0,000251483085	0,10063537594204373	-0,0037548411820996486	0,9087075814408
1	1	0	0	0	0	2	208833,97	0,100000001	2,51498222	0,00027780727177113293	0,10001060218972976	0,000251524878	0,10674712295503933	-0,0039828786804857696	0,91481932845379584
1	1	0	0	0	0	2	209053,97	0,100000001	2,50824928	0,00027780801821003357	0,10001087090769194	0,000250852201	0,11285887181458352	-0,0042109162477690995	0,9209310773133399
1	1	0	0	0	0	2	209273,97	0,100000001	2,4998188	0,00027780725899669859	0,10001059759093411	0,000250008365	0,11897063252876344	-0,0044389542573648294	0,92704283802751962
1	1	0	0	0	0	2	209493,97	0,100000001	2,49686241	0,00027780727609412541	0,1000106037460068	0,000249712728	0,12508238829505794	-0,0046669920823483002	0,93315459379381427
1	1	0	0	0	0	2	209713,97	0,100000001	2,49289513	0,00027780633392723072	0,10001026456597778	0,000249315111	0,13119413954604184	-0,0048950297388594618	0,93926634504479821
1	1	0	0	0	0	2	209933,97	0,100000001	2,49646187	0,00027780750410507126	0,10001068582993446	0,000249672856	0,13730589608126232	-0,0051230675925325946	0,94537810158001856
1	1	0	0	0	0	2	210153,97	0,100000001	2,49592781	0,00027780661206775242	0,10001036469654994	0,000249618664	0,14341765849131232	-0,0053511056654035162	0,95148986399006874
1	1	0	0	0	0	2	210373,97	0,100000001	2,50126839	0,00027780700009440384	0,10001050438612259	0,000250153127	0,14952941633015139	-0,0055791435677164109	0,95760162182890778
1	1	0	0	0	0	2	210593,97	0,100000001	2,50411034	0,00027780585435322592	0,10001009191936309	0,000250436307	0,1556411779610391	-0,0058071816115157402	0,96371338345979546
1	1	0	0	0	0	2	210813,97	0,100000001	2,50245094	0,00027780694148358371	0,10001048328623062	0,000250271318	0,16175292427658704	-0,0060352190838791514	0,96982512977534336
1	1	0	0	0	0	2	211033,97	0,100000001	2,50720024	0,00027780664139530726	0,10001037525446802	0,00025074603	0,16786467689234762	-0,0062632567913119654	0,97593688239110438
1	1	0	0	0	0	2	211253,97	0,100000001	2,52030373	0,00027780762325765354	0,10001072872485739	0,00025205742	0,17397642876685869	-0,0064912944710877645	0,98204863426561523
1	1	0	0	0	0	2	211473,97	0,100000001	2,52482414	0,00027780725164380336	0,10001059494389226	0,00025250917	0,18008819326972848	-0,0067193326220446054	0,98816039876848499
1	1	0	0	0	0	2	211693,97	0,100000001	2,5260067	0,00027780709997398982	0,10001054034276794	0,000252627302	0,18619995809952755	-0,0069473707851996186	0,99427216359828416
1	1	0	0	0	0	2	211903,97	0,100000001	2,52739906	0,00027780771843219798	0,10001076298768802	0,000252767117	0,19203391233551926	-0,0071650434615793626	1,0001061178342758