File: Experimentelles/Rohdaten/Batteriemessungen/AlteZelle/Studenten_Batterietests/Sonstige/ZView-Export/S vs Li_01_OCV_C02.txt
EC-Lab ASCII FILE
Nb header lines : 48

Open Circuit Voltage

Run on channel : 2 (SN 6986)
Grouped channel(s) : 2
User :
CE vs. WE compliance from -10 V to 10 V
Electrode connection : standard
Ewe ctrl range : min = 0,00 V, max = 5,00 V
Acquisition started on : 01.22.2015 12:13:34
Saved on :
	File : S vs Li_01_OCV_C02.mpr
	Directory : C:\Hupfer\Studenten Batterietests\
	Host : 192.168.0.2
Device : VMP3 (SN 0324)
Address : 192.168.0.1
EC-Lab for windows v10.33 (software)
Internet server v10.33 (firmware)
Command interpretor v10.32 (firmware)
Electrode material : S vs Li
Initial state : charged
Electrolyte : DME:Diox 1:2, 1M LiTFSi
Comments :
Mass of active material : 0,001 mg
 at x = 0,000
Molecular weight of active material (at x = 0) : 0,001 g/mol
Atomic weight of intercalated ion : 0,001 g/mol
Acquisition started at : xo = 0,000
Number of e- transfered per intercalated ion : 1
for DX = 1, DQ = 26,801 mA.h
Battery capacity : 0,000 A.h
Reference electrode : Li+/Li (-3,020 V)
Electrode surface area : 0,001 cm²
Characteristic mass : 0,001 g
Create one data file per loop
tR (h:m:s)          1:00:0,0000
dER/dt (mV/h)       0,0
dER (mV)            0,00
dtR (s)             5,0000
E range min (V)     0,000
E range max (V)     5,000

Number of loops : 1
Loop 0 from point number 0 to 720

mode	error	time/s	Ewe/V
3	1	0,0000	2,53045058
3	0	5,0000	2,52724648
3	0	10,0000	2,5240612
3	0	15,0000	2,52102852
3	0	20,0000	2,51801491
3	0	25,0000	2,51488686
3	0	30,0000	2,5117588
3	0	35,0000	2,50880241
3	0	40,0000	2,50584602
3	0	45,0000	2,50296593
3	0	50,0000	2,50004768
3	0	55,0000	2,49712944
3	0	60,0000	2,49434471
3	0	65,0000	2,4916935
3	0	70,0000	2,48898506
3	0	75,0000	2,48620057
3	0	80,0000	2,48364472
3	0	85,0000	2,48105073
3	0	90,0000	2,47853303
3	0	95,0000	2,47593904
3	0	100,0000	2,4735167
3	0	105,0000	2,47101808
3	0	110,0000	2,4685576
3	0	115,0000	2,46619248
3	0	120,0000	2,46382737
3	0	125,0000	2,46142411
3	0	130,0000	2,45888734
3	0	135,0000	2,45659852
3	0	140,0000	2,45413804
3	0	145,0000	2,45202088
3	0	150,0000	2,44978929
3	0	155,0000	2,44780564
3	0	160,0000	2,44572687
3	0	165,0000	2,4440484
3	0	170,0000	2,44240808
3	0	175,0000	2,44088221
3	0	180,0000	2,43941355
3	0	185,0000	2,43811655
3	0	190,0000	2,43702936
3	0	195,0000	2,4359231
3	0	200,0000	2,43485498
3	0	205,0000	2,43390131
3	0	210,0000	2,433043
3	0	215,0000	2,43205118
3	0	220,0000	2,43128824
3	0	225,0000	2,43031549
3	0	230,0000	2,42972422
3	0	235,0000	2,42920923
3	0	240,0000	2,42850351
3	0	245,0000	2,4280076
3	0	250,0000	2,42732096
3	0	255,0000	2,42676783
3	0	260,0000	2,42623377
3	0	265,0000	2,42579508
3	0	270,0000	2,42526102
3	0	275,0000	2,42478418
3	0	280,0000	2,42419291
3	0	285,0000	2,42392588
3	0	290,0000	2,42342997
3	0	295,0000	2,42316294
3	0	300,0000	2,42266703
3	0	305,0000	2,42222834
3	0	310,0000	2,42190409
3	0	315,0000	2,42161798
3	0	320,0000	2,42125559
3	0	325,0000	2,42098856
3	0	330,0000	2,42056894
3	0	335,0000	2,42034006
3	0	340,0000	2,41997766
3	0	345,0000	2,41971064
3	0	350,0000	2,4195199
3	0	355,0000	2,41915751
3	0	360,0000	2,41890955
3	0	365,0000	2,41866159
3	0	370,0000	2,41850901
3	0	375,0000	2,4182229
3	0	380,0000	2,4180131
3	0	385,0000	2,41768885
3	0	390,0000	2,41751719
3	0	395,0000	2,41738367
3	0	400,0000	2,41702127
3	0	405,0000	2,41684961
3	0	410,0000	2,41683054
3	0	415,0000	2,41633463
3	0	420,0000	2,41633463
3	0	425,0000	2,41622019
3	0	430,0000	2,41595316
3	0	435,0000	2,4157052
3	0	440,0000	2,41560984
3	0	445,0000	2,41538095
3	0	450,0000	2,41524744
3	0	455,0000	2,41509485
3	0	460,0000	2,41496134
3	0	465,0000	2,41467524
3	0	470,0000	2,41454172
3	0	475,0000	2,41440821
3	0	480,0000	2,41421747
3	0	485,0000	2,41410303
3	0	490,0000	2,41410303
3	0	495,0000	2,41389322
3	0	500,0000	2,41370249
3	0	505,0000	2,41362619
3	0	510,0000	2,41347361
3	0	515,0000	2,41322565
3	0	520,0000	2,4132638
3	0	525,0000	2,41305399
3	0	530,0000	2,41301584
3	0	535,0000	2,41272974
3	0	540,0000	2,41257715
3	0	545,0000	2,41253901
3	0	550,0000	2,41242456
3	0	555,0000	2,4123292
3	0	560,0000	2,4122529
3	0	565,0000	2,41200495
3	0	570,0000	2,41200495
3	0	575,0000	2,41189051
3	0	580,0000	2,41183329
3	0	585,0000	2,41173792
3	0	590,0000	2,41156626
3	0	595,0000	2,41133738
3	0	600,0000	2,41143274
3	0	605,0000	2,41120386
3	0	610,0000	2,41120386
3	0	615,0000	2,41101313
3	0	620,0000	2,4110322
3	0	625,0000	2,41089869
3	0	630,0000	2,4106698
3	0	635,0000	2,41061258
3	0	640,0000	2,41059351
3	0	645,0000	2,41047907
3	0	650,0000	2,41040277
3	0	655,0000	2,41028833
3	0	660,0000	2,41036463
3	0	665,0000	2,41007853
3	0	670,0000	2,41007853
3	0	675,0000	2,40992594
3	0	680,0000	2,40992594
3	0	685,0000	2,40979242
3	0	690,0000	2,4097352
3	0	695,0000	2,40962076
3	0	700,0000	2,40948725
3	0	705,0000	2,40946817
3	0	710,0000	2,40952539
3	0	715,0000	2,40937281
3	0	720,0000	2,40922022
3	0	725,0000	2,40925837
3	0	730,0000	2,40906763
3	0	735,0000	2,4090867
3	0	740,0000	2,40893412
3	0	745,0000	2,40897226
3	0	750,0000	2,4088769
3	0	755,0000	2,4088006
3	0	760,0000	2,40878153
3	0	765,0000	2,40870523
3	0	770,0000	2,40868616
3	0	775,0000	2,40853357
3	0	780,0000	2,40849543
3	0	785,0000	2,40830469
3	0	790,0000	2,40840006
3	0	795,0000	2,4082284
3	0	800,0000	2,40820932
3	0	805,0000	2,40819025
3	0	810,0000	2,40798044
3	0	815,0000	2,407866
3	0	820,0000	2,40782785
3	0	825,0000	2,407866
3	0	830,0000	2,40771341
3	0	835,0000	2,40782785
3	0	840,0000	2,40759897
3	0	845,0000	2,40765619
3	0	850,0000	2,40748453
3	0	855,0000	2,4075036
3	0	860,0000	2,40748453
3	0	865,0000	2,40738916
3	0	870,0000	2,40738916
3	0	875,0000	2,4072938
3	0	880,0000	2,40727472
3	0	885,0000	2,40717936
3	0	890,0000	2,40708399
3	0	895,0000	2,40704584
3	0	900,0000	2,4069314
3	0	905,0000	2,4069314
3	0	910,0000	2,40691233
3	0	915,0000	2,40687418
3	0	920,0000	2,40674067
3	0	925,0000	2,40674067
3	0	930,0000	2,40668344
3	0	935,0000	2,40668344
3	0	940,0000	2,40658808
3	0	945,0000	2,40658808
3	0	950,0000	2,40649271
3	0	955,0000	2,40643549
3	0	960,0000	2,40632105
3	0	965,0000	2,40632105
3	0	970,0000	2,40624475
3	0	975,0000	2,40613031
3	0	980,0000	2,40614939
3	0	985,0000	2,40614939
3	0	990,0000	2,40607309
3	0	995,0000	2,40603495
3	0	1000,0000	2,4059968
3	0	1005,0000	2,40603495
3	0	1010,0000	2,40574884
3	0	1015,0000	2,40588236
3	0	1020,0000	2,40569162
3	0	1025,0000	2,40567255
3	0	1030,0000	2,40567255
3	0	1035,0000	2,4057107
3	0	1040,0000	2,40567255
3	0	1045,0000	2,4056344
3	0	1050,0000	2,40550089
3	0	1055,0000	2,40548182
3	0	1060,0000	2,40546274
3	0	1065,0000	2,40540552
3	0	1070,0000	2,40546274
3	0	1075,0000	2,40529108
3	0	1080,0000	2,40525293
3	0	1085,0000	2,40521479
3	0	1090,0000	2,4050622
3	0	1095,0000	2,40508127
3	0	1100,0000	2,40508127
3	0	1105,0000	2,40510035
3	0	1110,0000	2,40504313
3	0	1115,0000	2,40510035
3	0	1120,0000	2,40481424
3	0	1125,0000	2,40490961
3	0	1130,0000	2,40479541
3	0	1135,0000	2,40471911
3	0	1140,0000	2,40479541
3	0	1145,0000	2,40460467
3	0	1150,0000	2,4045856
3	0	1155,0000	2,40466189
3	0	1160,0000	2,40460467
3	0	1165,0000	2,4045856
3	0	1170,0000	2,40450931
3	0	1175,0000	2,40441394
3	0	1180,0000	2,40450931
3	0	1185,0000	2,40431857
3	0	1190,0000	2,40435672
3	0	1195,0000	2,40420413
3	0	1200,0000	2,40424228
3	0	1205,0000	2,40431857
3	0	1210,0000	2,40414691
3	0	1215,0000	2,40408969
3	0	1220,0000	2,40412784
3	0	1225,0000	2,40410876
3	0	1230,0000	2,40387988
3	0	1235,0000	2,40399432
3	0	1240,0000	2,40389895
3	0	1245,0000	2,40399432
3	0	1250,0000	2,40386081
3	0	1255,0000	2,40374637
3	0	1260,0000	2,40378451
3	0	1265,0000	2,40370822
3	0	1270,0000	2,40376544
3	0	1275,0000	2,40361285
3	0	1280,0000	2,40355563
3	0	1285,0000	2,40344119
3	0	1290,0000	2,40346026
3	0	1295,0000	2,40351748
3	0	1300,0000	2,40346026
3	0	1305,0000	2,40338397
3	0	1310,0000	2,40332675
3	0	1315,0000	2,40332675
3	0	1320,0000	2,40338397
3	0	1325,0000	2,40325046
3	0	1330,0000	2,40323138
3	0	1335,0000	2,40325046
3	0	1340,0000	2,40315509
3	0	1345,0000	2,40323138
3	0	1350,0000	2,4030025
3	0	1355,0000	2,40307879
3	0	1360,0000	2,40311694
3	0	1365,0000	2,40292621
3	0	1370,0000	2,40288806
3	0	1375,0000	2,40292621
3	0	1380,0000	2,40288806
3	0	1385,0000	2,40277362
3	0	1390,0000	2,40281177
3	0	1395,0000	2,40277362
3	0	1400,0000	2,40275455
3	0	1405,0000	2,40269732
3	0	1410,0000	2,40273547
3	0	1415,0000	2,40262103
3	0	1420,0000	2,40258288
3	0	1425,0000	2,40250659
3	0	1430,0000	2,40250659
3	0	1435,0000	2,40237308
3	0	1440,0000	2,40256381
3	0	1445,0000	2,40233493
3	0	1450,0000	2,40231586
3	0	1455,0000	2,40223956
3	0	1460,0000	2,40218234
3	0	1465,0000	2,40218234
3	0	1470,0000	2,40218234
3	0	1475,0000	2,40218234
3	0	1480,0000	2,40210605
3	0	1485,0000	2,40201068
3	0	1490,0000	2,40202975
3	0	1495,0000	2,40197253
3	0	1500,0000	2,40197253
3	0	1505,0000	2,40193439
3	0	1510,0000	2,40191531
3	0	1515,0000	2,4017818
3	0	1520,0000	2,40187716
3	0	1525,0000	2,40189624
3	0	1530,0000	2,40172458
3	0	1535,0000	2,4017818
3	0	1540,0000	2,40174365
3	0	1545,0000	2,40168643
3	0	1550,0000	2,40164828
3	0	1555,0000	2,40159106
3	0	1560,0000	2,40161014
3	0	1565,0000	2,40155292
3	0	1570,0000	2,40145755
3	0	1575,0000	2,40147662
3	0	1580,0000	2,4014194
3	0	1585,0000	2,40132403
3	0	1590,0000	2,40147662
3	0	1595,0000	2,40122867
3	0	1600,0000	2,40134311
3	0	1605,0000	2,40120959
3	0	1610,0000	2,40115237
3	0	1615,0000	2,40122867
3	0	1620,0000	2,40103793
3	0	1625,0000	2,40122867
3	0	1630,0000	2,40101886
3	0	1635,0000	2,40103793
3	0	1640,0000	2,40103793
3	0	1645,0000	2,40101886
3	0	1650,0000	2,401057
3	0	1655,0000	2,40090442
3	0	1660,0000	2,40094256
3	0	1665,0000	2,40092349
3	0	1670,0000	2,4007709
3	0	1675,0000	2,40071368
3	0	1680,0000	2,40073276
3	0	1685,0000	2,40080905
3	0	1690,0000	2,40069461
3	0	1695,0000	2,40069461
3	0	1700,0000	2,40067554
3	0	1705,0000	2,40073276
3	0	1710,0000	2,40067554
3	0	1715,0000	2,40052295
3	0	1720,0000	2,40063739
3	0	1725,0000	2,40052295
3	0	1730,0000	2,4004848
3	0	1735,0000	2,40037036
3	0	1740,0000	2,40033221
3	0	1745,0000	2,40027499
3	0	1750,0000	2,40031314
3	0	1755,0000	2,40029407
3	0	1760,0000	2,40016055
3	0	1765,0000	2,40027499
3	0	1770,0000	2,40014148
3	0	1775,0000	2,40016055
3	0	1780,0000	2,4001987
3	0	1785,0000	2,40002704
3	0	1790,0000	2,40006518
3	0	1795,0000	2,40008426
3	0	1800,0000	2,40010333
3	0	1805,0000	2,39998889
3	0	1810,0000	2,39996982
3	0	1815,0000	2,3998363
3	0	1820,0000	2,39981723
3	0	1825,0000	2,39977908
3	0	1830,0000	2,39985538
3	0	1835,0000	2,39979815
3	0	1840,0000	2,39974093
3	0	1845,0000	2,39968371
3	0	1850,0000	2,39977908
3	0	1855,0000	2,39964557
3	0	1860,0000	2,39966464
3	0	1865,0000	2,39958835
3	0	1870,0000	2,3995502
3	0	1875,0000	2,39956927
3	0	1880,0000	2,39937854
3	0	1885,0000	2,39949298
3	0	1890,0000	2,39943576
3	0	1895,0000	2,39939761
3	0	1900,0000	2,39947391
3	0	1905,0000	2,39934039
3	0	1910,0000	2,39939761
3	0	1915,0000	2,3992641
3	0	1920,0000	2,39928317
3	0	1925,0000	2,3992641
3	0	1930,0000	2,39930224
3	0	1935,0000	2,3991878
3	0	1940,0000	2,39907336
3	0	1945,0000	2,39911151
3	0	1950,0000	2,39924502
3	0	1955,0000	2,39903522
3	0	1960,0000	2,39901614
3	0	1965,0000	2,39895892
3	0	1970,0000	2,39907336
3	0	1975,0000	2,39892077
3	0	1979,9999	2,39895892
3	0	1984,9999	2,3989017
3	0	1989,9999	2,3989017
3	0	1994,9999	2,39878726
3	0	1999,9999	2,39878726
3	0	2004,9999	2,39874911
3	0	2009,9999	2,39855838
3	0	2014,9999	2,39863467
3	0	2019,9999	2,39865375
3	0	2024,9999	2,3986156
3	0	2029,9999	2,39846301
3	0	2034,9999	2,39850116
3	0	2039,9999	2,39855838
3	0	2044,9999	2,3985393
3	0	2049,9999	2,39842486
3	0	2054,9999	2,39836764
3	0	2059,9999	2,3983295
3	0	2064,9999	2,3983295
3	0	2069,9999	2,39836764
3	0	2074,9999	2,39836764
3	0	2079,9999	2,3983295
3	0	2084,9999	2,3982532
3	0	2089,9999	2,39821506
3	0	2094,9999	2,39827228
3	0	2099,9999	2,39821506
3	0	2104,9999	2,39821506
3	0	2109,9999	2,39813876
3	0	2114,9999	2,39819598
3	0	2119,9999	2,39789081
3	0	2124,9999	2,39802432
3	0	2129,9999	2,39804339
3	0	2134,9999	2,39800525
3	0	2139,9999	2,39787173
3	0	2144,9999	2,39785266
3	0	2149,9999	2,39787173
3	0	2154,9999	2,39789081
3	0	2159,9999	2,39785266
3	0	2164,9999	2,39785266
3	0	2169,9999	2,39777637
3	0	2174,9999	2,39775729
3	0	2179,9999	2,39777637
3	0	2184,9999	2,39773822
3	0	2189,9999	2,39770007
3	0	2194,9999	2,39749026
3	0	2199,9999	2,39750934
3	0	2204,9999	2,39752841
3	0	2209,9999	2,39764285
3	0	2214,9999	2,39743304
3	0	2219,9999	2,39750934
3	0	2224,9999	2,39749026
3	0	2229,9999	2,39729953
3	0	2234,9999	2,39747119
3	0	2239,9999	2,39735675
3	0	2244,9999	2,3973186
3	0	2249,9999	2,39737582
3	0	2254,9999	2,3973186
3	0	2259,9999	2,3973186
3	0	2264,9999	2,39724231
3	0	2269,9999	2,39712787
3	0	2274,9999	2,39718509
3	0	2279,9999	2,39712787
3	0	2284,9999	2,39714694
3	0	2289,9999	2,39710879
3	0	2294,9999	2,3970325
3	0	2299,9999	2,39708972
3	0	2304,9999	2,39693713
3	0	2309,9999	2,39701343
3	0	2314,9999	2,39684176
3	0	2319,9999	2,39689898
3	0	2324,9999	2,39691806
3	0	2329,9999	2,39680362
3	0	2334,9999	2,39676547
3	0	2339,9999	2,39672732
3	0	2344,9999	2,39676547
3	0	2349,9999	2,39676547
3	0	2354,9999	2,39661288
3	0	2359,9999	2,39663196
3	0	2364,9999	2,39676547
3	0	2369,9999	2,39663196
3	0	2374,9999	2,39657474
3	0	2379,9999	2,39659381
3	0	2384,9999	2,39653659
3	0	2389,9999	2,39653659
3	0	2394,9999	2,39655566
3	0	2399,9999	2,39655566
3	0	2404,9999	2,396384
3	0	2409,9999	2,39630771
3	0	2414,9999	2,39634585
3	0	2419,9999	2,39626956
3	0	2424,9999	2,39626956
3	0	2429,9999	2,39621234
3	0	2434,9999	2,39630771
3	0	2439,9999	2,39619327
3	0	2444,9999	2,3960979
3	0	2449,9999	2,39617419
3	0	2454,9999	2,39605975
3	0	2459,9999	2,39619327
3	0	2464,9999	2,39621234
3	0	2469,9999	2,39613605
3	0	2474,9999	2,3960216
3	0	2479,9999	2,39594531
3	0	2484,9999	2,39596438
3	0	2489,9999	2,39596438
3	0	2494,9999	2,39592624
3	0	2499,9999	2,39590716
3	0	2504,9999	2,39588809
3	0	2509,9999	2,39604068
3	0	2514,9999	2,3958118
3	0	2519,9999	2,39575458
3	0	2524,9999	2,39575458
3	0	2529,9999	2,39571643
3	0	2534,9999	2,39569736
3	0	2539,9999	2,39560199
3	0	2544,9999	2,39550662
3	0	2549,9999	2,39558291
3	0	2554,9999	2,39558291
3	0	2559,9999	2,39552569
3	0	2564,9999	2,39552569
3	0	2569,9999	2,39543033
3	0	2574,9999	2,39546847
3	0	2579,9999	2,39556384
3	0	2584,9999	2,39546847
3	0	2589,9999	2,39531589
3	0	2594,9999	2,39539218
3	0	2599,9999	2,39523959
3	0	2604,9999	2,39533496
3	0	2609,9999	2,39529681
3	0	2614,9999	2,3951633
3	0	2619,9999	2,39522052
3	0	2624,9999	2,39514422
3	0	2629,9999	2,39518237
3	0	2634,9999	2,3951633
3	0	2639,9999	2,3951633
3	0	2644,9999	2,39501071
3	0	2649,9999	2,39501071
3	0	2654,9999	2,39510608
3	0	2659,9999	2,39506793
3	0	2664,9999	2,39506793
3	0	2669,9999	2,39493442
3	0	2674,9999	2,39493442
3	0	2679,9999	2,3948772
3	0	2684,9999	2,39485812
3	0	2689,9999	2,39476275
3	0	2694,9999	2,39483905
3	0	2699,9999	2,39485812
3	0	2704,9999	2,39483905
3	0	2709,9999	2,39483905
3	0	2714,9999	2,39468646
3	0	2719,9999	2,39462924
3	0	2724,9999	2,39476275
3	0	2729,9999	2,39466739
3	0	2734,9999	2,39466739
3	0	2739,9999	2,39457202
3	0	2744,9999	2,39455295
3	0	2749,9999	2,39457202
3	0	2754,9999	2,3945148
3	0	2759,9999	2,39449573
3	0	2764,9999	2,39443851
3	0	2769,9999	2,39445758
3	0	2774,9999	2,39430499
3	0	2779,9999	2,39428592
3	0	2784,9999	2,39434314
3	0	2789,9999	2,39432406
3	0	2794,9999	2,39434314
3	0	2799,9999	2,39424777
3	0	2804,9999	2,3942287
3	0	2809,9999	2,39426684
3	0	2814,9999	2,39426684
3	0	2819,9999	2,39411426
3	0	2824,9999	2,39411426
3	0	2829,9999	2,39419055
3	0	2834,9999	2,39411426
3	0	2839,9999	2,39409518
3	0	2844,9999	2,39401889
3	0	2849,9999	2,39407611
3	0	2854,9999	2,39398074
3	0	2859,9999	2,39382815
3	0	2864,9999	2,39398074
3	0	2869,9999	2,39390445
3	0	2874,9999	2,39375186
3	0	2879,9999	2,39382815
3	0	2884,9999	2,39390445
3	0	2889,9999	2,39384723
3	0	2894,9999	2,39377093
3	0	2899,9999	2,39373279
3	0	2904,9999	2,39365649
3	0	2909,9999	2,39371371
3	0	2914,9999	2,39365649
3	0	2919,9999	2,39361835
3	0	2924,9999	2,39365649
3	0	2929,9999	2,39352298
3	0	2934,9999	2,39356112
3	0	2939,9999	2,39348483
3	0	2944,9999	2,3935802
3	0	2949,9999	2,39338946
3	0	2954,9999	2,39338946
3	0	2959,9999	2,39337039
3	0	2964,9999	2,39344668
3	0	2969,9999	2,39333224
3	0	2974,9999	2,39335132
3	0	2979,9999	2,39333224
3	0	2984,9999	2,39327502
3	0	2989,9999	2,39333224
3	0	2994,9999	2,39325595
3	0	2999,9999	2,39319873
3	0	3004,9999	2,3932178
3	0	3009,9999	2,39316058
3	0	3014,9999	2,39310336
3	0	3019,9999	2,39304614
3	0	3024,9999	2,39304614
3	0	3029,9999	2,39298892
3	0	3034,9999	2,39302707
3	0	3039,9999	2,39298892
3	0	3044,9999	2,39300799
3	0	3049,9999	2,39295077
3	0	3054,9999	2,39289355
3	0	3059,9999	2,39295077
3	0	3064,9999	2,39285541
3	0	3069,9999	2,39281726
3	0	3074,9999	2,39283633
3	0	3079,9999	2,39287448
3	0	3084,9999	2,39281726
3	0	3089,9999	2,39276004
3	0	3094,9999	2,39268374
3	0	3099,9999	2,39277911
3	0	3104,9999	2,39266467
3	0	3109,9999	2,3926456
3	0	3114,9999	2,39266467
3	0	3119,9999	2,39249301
3	0	3124,9999	2,3925693
3	0	3129,9999	2,3925693
3	0	3134,9999	2,39253116
3	0	3139,9999	2,39255023
3	0	3144,9999	2,39243579
3	0	3149,9999	2,39243579
3	0	3154,9999	2,39245486
3	0	3159,9999	2,39249301
3	0	3164,9999	2,3922832
3	0	3169,9999	2,39243579
3	0	3174,9999	2,39226413
3	0	3179,9999	2,39220691
3	0	3184,9999	2,39226413
3	0	3189,9999	2,39226413
3	0	3194,9999	2,39222598
3	0	3199,9999	2,39216876
3	0	3204,9999	2,39211154
3	0	3209,9999	2,39216876
3	0	3214,9999	2,39209247
3	0	3219,9999	2,39216876
3	0	3224,9999	2,39193988
3	0	3229,9999	2,39201617
3	0	3234,9999	2,39190173
3	0	3239,9999	2,39197803
3	0	3244,9999	2,3919208
3	0	3249,9999	2,3919208
3	0	3254,9999	2,39184451
3	0	3259,9999	2,39197803
3	0	3264,9999	2,39184451
3	0	3269,9999	2,39180636
3	0	3274,9999	2,39174914
3	0	3279,9999	2,39173007
3	0	3284,9999	2,39178729
3	0	3289,9999	2,39169192
3	0	3294,9999	2,39169192
3	0	3299,9999	2,39153934
3	0	3304,9999	2,39155841
3	0	3309,9999	2,3916347
3	0	3314,9999	2,39150119
3	0	3319,9999	2,39159656
3	0	3324,9999	2,39148211
3	0	3329,9999	2,39150119
3	0	3334,9999	2,39150119
3	0	3339,9999	2,39153934
3	0	3344,9999	2,39142489
3	0	3349,9999	2,39127231
3	0	3354,9999	2,39142489
3	0	3359,9999	2,39131045
3	0	3364,9999	2,39119601
3	0	3369,9999	2,39129138
3	0	3374,9999	2,39125323
3	0	3379,9999	2,39113879
3	0	3384,9999	2,39104342
3	0	3389,9999	2,39117694
3	0	3394,9999	2,39121509
3	0	3399,9999	2,39119601
3	0	3404,9999	2,3910625
3	0	3409,9999	2,39102435
3	0	3414,9999	2,39108157
3	0	3419,9999	2,39117694
3	0	3424,9999	2,3909862
3	0	3429,9999	2,39090991
3	0	3434,9999	2,39102435
3	0	3439,9999	2,39096713
3	0	3444,9999	2,39094806
3	0	3449,9999	2,39085269
3	0	3454,9999	2,39100528
3	0	3459,9999	2,39085269
3	0	3464,9999	2,39089084
3	0	3469,9999	2,39071918
3	0	3474,9999	2,3907001
3	0	3479,9999	2,39075732
3	0	3484,9999	2,3907764
3	0	3489,9999	2,39066195
3	0	3494,9999	2,39068103
3	0	3499,9999	2,39062381
3	0	3504,9999	2,39058566
3	0	3509,9999	2,39054751
3	0	3514,9999	2,39052844
3	0	3519,9999	2,39047122
3	0	3524,9999	2,39058566
3	0	3529,9999	2,39043307
3	0	3534,9999	2,39035678
3	0	3539,9999	2,39037585
3	0	3544,9999	2,39050937
3	0	3549,9999	2,39043307
3	0	3554,9999	2,39045215
3	0	3559,9999	2,39035678
3	0	3564,9999	2,39037585
3	0	3569,9999	2,39033771
3	0	3574,9999	2,39029956
3	0	3579,9999	2,39031863
3	0	3584,9999	2,39028049
3	0	3589,9999	2,39029956
3	0	3594,9999	2,39022326
3	0	3599,9999	2,39018512