File: Experimentelles/Rohdaten/Batteriemessungen/AlteZelle/Studenten_Batterietests/Sonstige/ZView-Export/S vs Li_02_CV_C02_loop6.txt
EC-Lab ASCII FILE
Nb header lines : 3
mode	ox/red	error	control changes	counter inc.	time/s	control/V	Ewe/V	<I>/mA	cycle number	(Q-Qo)/C	P/W
2	0	0	1	0	8040,75	2,39355302	2,39390588	-0,02476387843489647	7	0	5,92823926E-005
2	0	0	0	0	8042,03	2,38075066	2,38131809	-0,082751547549075213	7	-6,88775399E-005	0,000197057758
2	0	0	1	0	8043,37	2,36734891	2,36771941	-0,14683831013583904	7	-0,000222926552	0,000347671914
2	0	0	0	0	8044,67	2,35434699	2,35501194	-0,21132796133558074	7	-0,000456191367	0,000497679866
2	0	0	1	0	8045,97	2,34134531	2,34187412	-0,27883915044367312	7	-0,000775254564	0,000653006195
2	0	0	0	0	8047,27	2,32834339	2,32843518	-0,34898965580699405	7	-0,00118336745	0,000812599785
2	0	0	1	0	8048,57	2,31534171	2,31582785	-0,42140455994134387	7	-0,00168438652	0,000975900388
2	0	0	0	0	8049,87	2,30234003	2,30287004	-0,4954439598756544	7	-0,00228123134	0,00114094303
2	0	0	1	0	8051,17	2,28933811	2,28992224	-0,57207645897443091	7	-0,00297532789	0,00131001056
2	0	0	1	0	8052,47	2,27633643	2,2768743	-0,65377367908755968	7	-0,00377247669	0,00148856046
2	0	0	0	0	8053,77	2,26333475	2,2638464	-0,73717038426548326	7	-0,00467731617	0,00166884053
2	0	0	1	0	8055,07	2,25033259	2,25095844	-0,82364222841958144	7	-0,00569392508	0,00185398443
2	0	0	0	0	8056,38	2,23733091	2,23785043	-0,90912540970991168	7	-0,0068225055	0,00203448674
2	0	0	1	0	8057,69	2,22417903	2,2244606	-0,99977543116325402	7	-0,00807886198	0,00222396106
2	0	0	0	0	8059,01	2,21102738	2,2115643	-1,0843670023605227	7	-0,009449278	0,00239814725
2	0	0	1	0	8060,31	2,19802594	2,19852662	-1,1712663027768384	7	-0,0109201111	0,00257506012
2	0	0	0	0	8061,61	2,18502378	2,18538809	-1,2629612938811422	7	-0,0125023369	0,0027600606
2	0	0	1	0	8062,91	2,1720221	2,17228007	-1,3471169167508706	7	-0,0141990716	0,00292631518
2	0	0	1	0	8064,21	2,15902042	2,15954256	-1,4396983115002531	7	-0,0160108134	0,0031090898
2	0	0	0	0	8065,51	2,14601851	2,14645457	-1,5279880712429677	7	-0,0179437045	0,00327975699
2	0	0	1	0	8066,81	2,13301682	2,13353682	-1,6168300583958589	7	-0,0199838765	0,00344956643
2	0	0	0	0	8068,11	2,12001514	2,12028861	-1,7035260957976205	7	-0,0221417621	0,00361196697
2	0	0	1	0	8069,41	2,10701323	2,10752082	-1,8011123314499856	7	-0,0244193319	0,00379588176
2	0	0	0	0	8070,71	2,09401131	2,09454298	-1,8856018017977546	7	-0,0268141497	0,00394947408
2	0	0	1	0	8072,01	2,08100963	2,08139491	-1,9841160786648605	7	-0,0293334816	0,00412972923
2	0	0	0	0	8073,31	2,06800771	2,06841707	-2,0821072869002874	7	-0,0319774747	0,00430666609
2	0	0	1	0	8074,61	2,05500603	2,05569959	-2,1823620256036557	7	-0,03474712	0,00448628049
2	0	0	1	0	8075,91	2,04200506	2,04259324	-2,2806258082001101	7	-0,0376463942	0,00465839077
2	0	0	0	0	8077,21	2,02900243	2,02937317	-2,3849249059955309	7	-0,0406780206	0,00483990274
2	0	0	1	0	8078,51	2,01600075	2,01647544	-2,4889502475658989	7	-0,0438459478	0,00501890713
2	0	0	0	0	8079,81	2,00299883	2,00334764	-2,5845010125388742	7	-0,0471481606	0,00517765386
2	0	0	1	0	8081,11	1,98999715	1,99074018	-2,684772024552033	7	-0,0505803563	0,00534468377
2	0	0	0	0	8082,41	1,97699535	1,97756207	-2,7761741094291245	7	-0,0541254804	0,0054900567
2	0	0	1	0	8083,71	1,96399343	1,96447384	-2,8759243898093773	7	-0,0578077473	0,00564967841
2	0	0	0	0	8085,01	1,95099187	1,95153606	-2,9765159537394938	7	-0,0616117828	0,00580877811
2	0	0	1	0	8086,31	1,93799007	1,93832791	-3,074626009290416	7	-0,0655463785	0,00595963327
2	0	0	0	0	8087,61	1,92498815	1,9255904	-3,1798943007985869	7	-0,0696070418	0,00612317398
2	0	0	0	0	8088,91	1,91198659	1,91243231	-3,2661184358100141	7	-0,073800005	0,00624623057
2	0	0	1	0	8090,21	1,89898479	1,89944446	-3,3707987541953773	7	-0,0781159773	0,00640264479
2	0	0	0	0	8091,51	1,88598287	1,88645637	-3,4633384297291488	7	-0,0825681239	0,00653343694
2	0	0	1	0	8092,81	1,87298107	1,87363875	-3,5698652255038432	7	-0,0871436298	0,00668863766
2	0	0	0	0	8094,11	1,85997927	1,86082125	-3,6587297717730234	7	-0,091841422	0,00680824229
2	0	0	1	0	8095,41	1,84697747	1,84749281	-3,7385760098695757	7	-0,0966504589	0,00690699229
2	0	0	0	0	8096,71	1,83397579	1,83437479	-3,8283227918048864	7	-0,101571731	0,00702257873
2	0	0	1	0	8098,01	1,82097399	1,82138681	-3,9130236258109222	7	-0,106602117	0,00712712947
2	0	0	0	0	8099,31	1,80797219	1,80869913	-3,9986983562509267	7	-0,111743405	0,00723244203
2	0	0	0	0	8100,61	1,79497004	1,79537058	-4,0603767415579667	7	-0,116984144	0,00728988089
2	0	0	1	0	8101,91	1,78196847	1,78216279	-4,1495514276127034	7	-0,122316778	0,00739517622
2	0	0	0	0	8103,21	1,76896691	1,76970565	-4,2254065213104186	7	-0,127762496	0,00747772586
2	0	0	1	0	8104,51	1,75596511	1,75654757	-4,290009664992496	7	-0,133296043	0,00753560616
2	0	0	0	0	8105,81	1,74296319	1,74353957	-4,3775305896997427	7	-0,138928846	0,00763239758
2	0	0	1	0	8107,11	1,72996163	1,73032129	-4,4496813106040122	7	-0,144663781	0,0076993783
2	0	0	0	0	8108,41	1,71695983	1,71754372	-4,4553885161876749	7	-0,15044637	0,00765232462
2	0	0	1	0	8109,71	1,70395792	1,70433557	-4,4949387299517837	7	-0,15625371	0,00766088394
2	0	0	0	0	8111,01	1,69095612	1,69143784	-4,5669070569177562	7	-0,162146747	0,00772463949
2	0	0	0	0	8112,31	1,67795432	1,67850006	-4,6253400388835149	7	-0,168117315	0,0077636335
2	0	0	1	0	8113,61	1,66495252	1,66543198	-4,705749394992992	7	-0,174174234	0,00783710554
2	0	0	0	0	8114,91	1,65195072	1,65252423	-4,76590339466928	7	-0,180327207	0,00787577126
2	0	0	1	0	8116,21	1,63894904	1,63951623	-4,8176017800966874	7	-0,186555162	0,00789853651
2	0	0	0	0	8117,51	1,62594724	1,62640822	-4,9023444131016589	7	-0,192876428	0,00797321368
2	0	0	1	0	8118,81	1,61294544	1,61341035	-4,9521966179211974	7	-0,199291006	0,00798992533
2	0	0	0	0	8120,11	1,59994364	1,60056269	-5,0079483265678208	7	-0,205771953	0,00801553484
2	0	0	1	0	8121,41	1,58694196	1,58749461	-5,0737810842692992	7	-0,212326407	0,0080546001
2	0	0	0	0	8122,71	1,57394016	1,5746069	-5,1347208681206029	7	-0,218965292	0,00808516704
2	0	0	0	0	8124,01	1,56093895	1,56133938	-5,2089200057417946	7	-0,225698292	0,00813289173
2	0	0	1	0	8125,31	1,54793668	1,54852092	-5,2741205058992051	7	-0,232517928	0,00816708617
2	0	0	0	0	8126,61	1,53493488	1,53543293	-5,3393391370773171	7	-0,239428863	0,008198197
2	0	0	1	0	8127,91	1,52193308	1,52246511	-5,4221889277299341	7	-0,246422723	0,00825509336
2	0	0	0	0	8129,22	1,50893128	1,50924695	-5,4787327460944794	7	-0,253505647	0,00826876052
2	0	0	1	0	8130,52	1,49592936	1,49669969	-5,5382816034058637	7	-0,260665834	0,00828914437
2	0	0	0	0	8131,82	1,48292768	1,48341131	-5,617939167966455	7	-0,267924517	0,00833371468
2	0	0	1	0	8133,12	1,46992588	1,47038341	-5,7775248897572493	7	-0,275365919	0,00849517714
2	0	0	0	0	8134,42	1,45692408	1,45753562	-5,8402217738330291	7	-0,282914221	0,00851233117
2	0	0	1	0	8135,72	1,4439224	1,44461787	-5,8841881354649818	7	-0,290525079	0,00850040372
2	0	0	1	0	8137,02	1,4309206	1,43121934	-5,9355348286529331	7	-0,298214823	0,00849505235
2	0	0	0	0	8138,32	1,41791868	1,41852188	-5,9891186617314893	7	-0,305969894	0,00849569589
2	0	0	1	0	8139,62	1,404917	1,40529358	-6,0239130804936422	7	-0,313777715	0,00846536644
2	0	0	0	0	8140,92	1,3919152	1,39251602	-6,0791911631822592	7	-0,321647197	0,00846537109
2	0	0	1	0	8142,22	1,3789134	1,37948811	-6,1261658867200384	7	-0,32957235	0,00845097285
2	0	0	0	0	8143,52	1,36591148	1,36642003	-6,166441732396663	7	-0,337563783	0,00842594914
2	0	0	1	0	8144,82	1,35290992	1,35321188	-6,2087284289300518	7	-0,345611662	0,00840172544
2	0	0	0	0	8146,12	1,33990812	1,34014392	-6,2658249189456115	7	-0,353717208	0,00839710701
2	0	0	1	0	8147,42	1,3269062	1,32743633	-6,3166721910238272	7	-0,361894637	0,00838498026
2	0	0	1	0	8148,72	1,31390429	1,31433773	-6,3657400276372442	7	-0,370139331	0,00836673193
2	0	0	0	0	8150,02	1,30090272	1,3014406	-6,4100130523244723	7	-0,378446519	0,00834225118
2	0	0	1	0	8151,32	1,28790092	1,28858292	-6,4499499946832947	7	-0,386818856	0,00831129495
2	0	0	0	0	8152,62	1,27489901	1,27535462	-6,5221055696408141	7	-0,39524895	0,00831799768
2	0	0	1	0	8153,92	1,26189733	1,26254702	-6,6491276298960141	7	-0,403841138	0,00839483645
2	0	0	0	0	8155,22	1,24889565	1,24936879	-6,6830747152368269	7	-0,412501723	0,00834962539
2	0	0	1	0	8156,52	1,23589373	1,23636091	-6,7597209910551898	7	-0,421239316	0,00835745502
2	0	0	0	0	8157,82	1,22289205	1,22365355	-6,7973824913302963	7	-0,430063665	0,00831764098
2	0	0	1	0	8159,12	1,20989037	1,21040511	-6,8470087423920666	7	-0,438938051	0,00828765426
2	0	0	0	0	8160,42	1,19688845	1,19734716	-6,8921243945757453	7	-0,447865546	0,00825226586
2	0	0	0	0	8161,72	1,18388665	1,18438935	-6,9268906190991398	7	-0,456839174	0,00820413511
2	0	0	1	0	8163,02	1,17088485	1,17144144	-6,9800583099325594	7	-0,465885252	0,00817672908
2	0	0	0	0	8164,32	1,15788317	1,15842354	-7,048351985712841	7	-0,474992126	0,00816497672
2	0	0	1	0	8165,62	1,14488137	1,14527547	-7,0765280003349171	7	-0,484159142	0,00810457394
2	0	0	0	0	8166,92	1,13187945	1,13248777	-7,0933255429069389	7	-0,493370682	0,00803310424
2	0	0	1	0	8168,22	1,11887777	1,11940992	-7,1112705171108454	7	-0,502604842	0,00796042662
2	0	0	0	0	8169,52	1,10587597	1,10638189	-7,132791146636023	7	-0,51186645	0,00789159071
2	0	0	1	0	8170,82	1,09287405	1,09335387	-7,1764371767640115	7	-0,521185279	0,00784638524
2	0	0	1	0	8172,12	1,07987309	1,08023715	-7,2175583864642214	7	-0,530542552	0,0077966745
2	0	0	0	0	8173,42	1,06687069	1,06740808	-7,2565762400627277	7	-0,539949656	0,00774572836
2	0	0	1	0	8174,72	1,05386877	1,05433023	-7,2977791577577728	7	-0,549404144	0,00769426906
2	0	0	0	0	8176,02	1,04086709	1,0412823	-7,3294971535603674	7	-0,558912992	0,00763207581
2	0	0	1	0	8177,32	1,02786541	1,02839434	-7,3471898188193587	7	-0,568463981	0,00755580841
2	0	0	0	0	8178,62	1,01486349	1,0152663	-7,3954113249977664	7	-0,578065515	0,00750831189
2	0	0	1	0	8179,92	1,00186169	1,00236857	-7,4696642706791603	7	-0,587731183	0,00748735666
2	0	0	0	0	8181,22	0,988859951	0,989320576	-7,5004586527744909	7	-0,597461343	0,00742035825
2	0	0	1	0	8182,52	0,975858092	0,976412892	-7,5175135905544294	7	-0,607230961	0,00734019699
2	0	0	0	0	8183,82	0,962856472	0,9631446	-7,563135333359241	7	-0,617039084	0,00728439307
2	0	0	0	0	8185,12	0,949854672	0,95032686	-7,5916921223203533	7	-0,626893282	0,00721458904
2	0	0	1	0	8186,42	0,936852813	0,937328994	-7,6226973409454144	7	-0,636788487	0,00714497501
2	0	0	0	0	8187,72	0,923851132	0,924411178	-7,6675082618991578	7	-0,646727145	0,00708793057
2	0	0	1	0	8189,02	0,910849392	0,911423326	-7,6868832558393626	7	-0,656725287	0,00700600492
2	0	0	0	0	8190,32	0,897847533	0,89842546	-7,7329469770193165	7	-0,666754127	0,00694747642
2	0	0	1	0	8191,62	0,884845734	0,885397434	-7,7443544516961114	7	-0,676822007	0,00685683172
2	0	0	0	0	8192,92	0,871843934	0,872439563	-7,7794138640165466	7	-0,686921418	0,00678706821
2	0	0	1	0	8194,22	0,858842194	0,859401643	-7,8265623450279373	7	-0,697066724	0,00672616065
2	0	0	0	0	8195,52	0,845840454	0,846343637	-7,8431155557433958	7	-0,70724988	0,00663797092
2	0	0	1	0	8196,82	0,832838655	0,833335757	-7,8545681687196237	7	-0,717461407	0,00654549245
2	0	0	1	0	8198,12	0,819836795	0,820277691	-7,9149164631962957	7	-0,727710247	0,00649242941
2	0	0	0	0	8199,42	0,806834996	0,807199717	-7,9695909271637786	7	-0,738039434	0,00643305155
2	0	0	1	0	8200,72	0,793833137	0,79403162	-8,0007222493489677	7	-0,748431981	0,00635282649
2	0	0	0	0	8202,03	0,780831456	0,781394124	-7,9663151726126605	7	-0,758831322	0,00622483203
2	0	0	1	0	8203,33	0,767829716	0,768316209	-7,9835522944728717	7	-0,769211173	0,00613389257
2	0	0	0	0	8204,63	0,754827917	0,755328298	-8,0284088725845069	7	-0,779639423	0,00606408436
2	0	0	1	0	8205,93	0,741826117	0,742290318	-8,043119619290039	7	-0,790077448	0,00597032998
2	0	0	0	0	8207,23	0,728824377	0,729512751	-8,0668065448602419	7	-0,800554991	0,00588483829
2	0	0	1	0	8208,53	0,715822577	0,716314554	-8,1151827250917709	7	-0,811064839	0,00581302354
2	0	0	1	0	8209,83	0,702820778	0,703296661	-8,119547155996201	7	-0,821622193	0,00571045047
2	0	0	0	0	8211,13	0,689818978	0,690198541	-8,1265080620845542	7	-0,832174242	0,00560890418
2	0	0	1	0	8212,43	0,676817238	0,677531064	-8,1020829975605299	7	-0,842733979	0,0054894127
2	0	0	0	0	8213,73	0,663815498	0,664132655	-8,1582228392362598	7	-0,853304625	0,0054181423
2	0	0	1	0	8215,03	0,650813699	0,651064694	-8,1920720338821338	7	-0,863926232	0,0053335689
2	0	0	0	0	8216,33	0,63781184	0,638216913	-8,1823451220989222	7	-0,874571919	0,00522211101
2	0	0	1	0	8217,63	0,6248101	0,625259101	-8,2115324810147712	7	-0,885228097	0,00513433525
2	0	0	0	0	8218,93	0,6118083	0,612361312	-8,2646273896098278	7	-0,89595592	0,00506093819
2	0	0	1	0	8220,23	0,59880656	0,599313378	-8,2649729326367667	7	-0,906697571	0,00495330896
2	0	0	1	0	8221,53	0,58580476	0,586235344	-8,2962647030751066	7	-0,917472899	0,00486356346
2	0	0	0	0	8222,83	0,572802961	0,573257446	-8,302264312903127	7	-0,928260744	0,00475933496
2	0	0	1	0	8224,13	0,559801161	0,560289562	-8,357634266217559	7	-0,939096689	0,00468269503
2	0	0	0	0	8225,43	0,546799362	0,54716152	-8,3552656223376742	7	-0,949973524	0,00457167998
2	0	0	1	0	8226,73	0,533797622	0,534193635	-8,4064654111862259	7	-0,960882068	0,00449068053
2	0	0	0	0	8228,03	0,520795822	0,521135688	-8,428853077193097	7	-0,971820533	0,00439257594
2	0	0	1	0	8229,33	0,507794082	0,508318007	-8,4513190562526285	7	-0,982802093	0,00429595774
2	1	0	0	0	8230,59	0,504793644	0,505263805	-8,368747562170057	7	-0,993435264	0,00422842521
2	1	0	1	0	8231,89	0,517795384	0,518261731	-8,2378466476996838	7	-1,00421512	0,00426936056
2	1	0	0	0	8233,19	0,530797243	0,531209528	-8,0591770534714445	7	-1,01480079	0,00428111153
2	1	0	1	0	8234,49	0,543798983	0,544147372	-7,8910544936855731	7	-1,02516961	0,00429389672
2	1	0	0	0	8235,79	0,556800783	0,557525814	-7,7818856487671629	7	-1,0353539	0,00433860207
2	1	0	0	0	8237,09	0,569802582	0,570393503	-7,6368580336372134	7	-1,04538381	0,00435601408
2	1	0	1	0	8238,39	0,582804322	0,583101034	-7,5133990397056038	7	-1,05524838	0,00438107084
2	1	0	0	0	8239,69	0,595806122	0,596058905	-7,4268962865074291	7	-1,06495595	0,0044268677
2	1	0	1	0	8240,99	0,608807862	0,609267116	-7,3183507372935706	7	-1,07454014	0,00445883023
2	1	0	0	0	8242,29	0,621809661	0,622325063	-7,2246968746185446	7	-1,08399165	0,00449611014
2	1	0	1	0	8243,59	0,634811521	0,635322928	-7,1279180273413658	7	-1,09331274	0,00452852994
2	1	0	0	0	8244,89	0,647813261	0,648350954	-6,9855251510937946	7	-1,10249531	0,00452907197
2	1	0	1	0	8246,19	0,660815001	0,661268711	-6,867192419866711	7	-1,11149907	0,00454105949
2	1	0	0	0	8247,49	0,6738168	0,674286604	-6,7635436604420211	7	-1,12036407	0,00456056697
2	1	0	0	0	8248,79	0,6868186	0,686994195	-6,6677164956927206	7	-1,12908626	0,00458068261
2	1	0	1	0	8250,09	0,69982034	0,700292528	-6,5736710180839002	7	-1,13768148	0,00460349256
2	1	0	0	0	8251,39	0,712822139	0,713360488	-6,480647248526409	7	-1,1461674	0,00462303776
2	1	0	1	0	8252,69	0,725823939	0,726418436	-6,4091260010997363	7	-1,15453827	0,00465570716
2	1	0	0	0	8253,99	0,738825738	0,739376307	-6,3409619952241562	7	-1,16282213	0,004688357
2	1	0	1	0	8255,29	0,751827538	0,752274156	-6,2457330885032998	7	-1,17100465	0,00469850376
2	1	0	0	0	8256,59	0,764829278	0,765302002	-6,1652194621662208	7	-1,17907214	0,00471825479
2	1	0	1	0	8257,89	0,777831078	0,778059661	-6,0790891597668378	7	-1,18701804	0,00472989399
2	1	0	0	0	8259,19	0,790832818	0,791277826	-6,0005569321413914	7	-1,1948657	0,00474810787
2	1	0	0	0	8260,49	0,803834319	0,804245293	-5,9191322291866214	7	-1,20261121	0,00476043439
2	1	0	1	0	8261,79	0,816836476	0,817373753	-5,8489918559789581	7	-1,21025229	0,00478081265
2	1	0	0	0	8263,09	0,829838216	0,830341578	-5,7556905833383392	7	-1,21779716	0,00477918936
2	1	0	1	0	8264,39	0,842839897	0,843369544	-5,6883017222086637	7	-1,22523546	0,00479734037
2	1	0	0	0	8265,69	0,855841756	0,856297314	-5,6176084056496762	7	-1,23258054	0,00481034303
2	1	0	1	0	8266,99	0,868843555	0,869245231	-5,5430722385644998	7	-1,23983955	0,00481828908
2	1	0	0	0	8268,29	0,881845355	0,882283211	-5,4697594617803917	7	-1,24700165	0,00482587703
2	1	0	1	0	8269,59	0,894847095	0,895411193	-5,4066996263961043	7	-1,2540673	0,00484121917
2	1	0	0	0	8270,90	0,907848835	0,908268988	-5,3265753736098771	7	-1,26103449	0,00483796326
2	1	0	1	0	8272,20	0,920850635	0,921437144	-5,2355168933669773	7	-1,26789284	0,00482419971
2	1	0	1	0	8273,50	0,933852494	0,934535146	-5,1427927066882458	7	-1,27463484	0,00480612041
2	1	0	0	0	8274,80	0,946854234	0,947392881	-5,0728549013535373	7	-1,2812798	0,00480598677
2	1	0	1	0	8276,10	0,959855914	0,960140467	-4,9949889692167418	7	-1,28782308	0,00479589123
2	1	0	0	0	8277,40	0,972857773	0,973488808	-4,9174272244175373	7	-1,29426599	0,00478706043
2	1	0	1	0	8278,70	0,985859573	0,986346483	-4,8356164023280429	7	-1,30061018	0,00476959301
2	1	0	0	0	8280,00	0,998861432	0,999534667	-4,7580189866324346	7	-1,30684698	0,00475580478
2	1	0	1	0	8281,30	1,01186311	1,0122323	-4,6866291152934278	7	-1,31298625	0,00474395743
2	1	0	0	0	8282,60	1,02486479	1,02545035	-4,6153270217279642	7	-1,31903434	0,00473278854
2	1	0	1	0	8283,90	1,03786671	1,03845823	-4,5410023455818515	7	-1,32498407	0,00471564103
2	1	0	1	0	8285,20	1,05086768	1,05128586	-4,4578953765953171	7	-1,33083916	0,0046865223
2	1	0	0	0	8286,50	1,06387007	1,06455421	-4,3944012025992122	7	-1,33659613	0,00467807846
2	1	0	1	0	8287,80	1,07687199	1,07749212	-4,3293538925548346	7	-1,34226513	0,00466484483
2	1	0	0	0	8289,10	1,08987379	1,09043002	-4,2602619317670758	7	-1,34785175	0,00464551756
2	1	0	1	0	8290,40	1,10287559	1,10335767	-4,1878499512871238	7	-1,35333931	0,00462069642
2	1	0	0	0	8291,70	1,11587727	1,1164856	-4,1250387392938278	7	-1,35874021	0,00460554613
2	1	0	1	0	8293,00	1,12887919	1,12955391	-4,080198728789895	7	-1,36407864	0,00460880436
2	1	0	0	0	8294,30	1,14188087	1,14254165	-4,008774703989424	7	-1,36932802	0,00458019227
2	1	0	1	0	8295,60	1,15488255	1,15540934	-3,908515771230071	7	-1,37448621	0,00451593567
2	1	0	1	0	8296,90	1,16788518	1,1683892	-3,8599791693252518	7	-1,37954819	0,00450995797
2	1	0	0	0	8298,20	1,18088627	1,18151534	-3,7872578427195552	7	-1,38451946	0,00447470322
2	1	0	1	0	8299,50	1,19388819	1,19457328	-3,7303712417682022	7	-1,38940692	0,00445620203
2	1	0	0	0	8300,80	1,20688975	1,20740104	-3,6654107458889536	7	-1,39421153	0,00442562066
2	1	0	1	0	8302,10	1,21989155	1,22045898	-3,5913729829092794	7	-1,39892828	0,00438312348
2	1	0	0	0	8303,40	1,23289347	1,23348701	-3,524638288964823	7	-1,40355361	0,00434759539
2	1	0	1	0	8304,70	1,24589503	1,24652493	-3,4695550402005466	7	-1,4080981	0,00432488695
2	1	0	0	0	8306,00	1,25889683	1,25929248	-3,3935672019918784	7	-1,41255236	0,00427349377
2	1	0	1	0	8307,30	1,27189875	1,27238071	-3,3309704015652531	7	-1,41691864	0,00423826231
2	1	0	0	0	8308,60	1,28490055	1,2852484	-3,280056099096953	7	-1,42121577	0,00421568705
2	1	0	0	0	8309,90	1,29790235	1,29837644	-3,2165466969211917	7	-1,42543292	0,00417628838
2	1	0	1	0	8311,20	1,31090403	1,31149447	-3,139817114919431	7	-1,42956436	0,00411785301
2	1	0	0	0	8312,50	1,32390594	1,3241719	-3,0830538347363456	7	-1,43361735	0,00408249348
2	1	0	1	0	8313,80	1,33690763	1,33747029	-3,0189669970422982	7	-1,43758881	0,00403777882
2	1	0	0	0	8315,10	1,34990931	1,35043812	-2,9675502913693574	7	-1,44147921	0,00400749315
2	1	0	1	0	8316,40	1,36291122	1,36325574	-2,9009750497837888	7	-1,44528973	0,00395477097
2	1	0	0	0	8317,70	1,37591302	1,37637377	-2,8405460460732499	7	-1,449018	0,00390965305
2	1	0	1	0	8319,00	1,3889147	1,38947189	-2,7821484276404006	7	-1,45267451	0,00386571698
2	1	0	0	0	8320,30	1,4019165	1,40241981	-2,7200232042620557	7	-1,45624959	0,00381461438
2	1	0	0	0	8321,60	1,41491842	1,41535747	-2,6635769133766515	7	-1,45974278	0,00376991346
2	1	0	1	0	8322,90	1,4279201	1,42844558	-2,6044171607742685	7	-1,46316242	0,00372026814
2	1	0	0	0	8324,20	1,44092178	1,44145346	-2,5432341601699555	7	-1,46650982	0,00366595364
2	1	0	1	0	8325,50	1,4539237	1,45439124	-2,4739182597647158	7	-1,46977162	0,00359804509
2	1	0	0	0	8326,80	1,4669255	1,4673692	-2,415892174467441	7	-1,47295022	0,00354500581
2	1	0	1	0	8328,10	1,4799273	1,48052728	-2,3662514562408195	7	-1,47605813	0,00350329978
2	1	0	0	0	8329,40	1,4929291	1,4936353	-2,300645496696241	7	-1,47908008	0,00343632535
2	1	0	1	0	8330,70	1,5059309	1,50634301	-2,2420679647475552	7	-1,48203313	0,0033773235
2	1	0	0	0	8332,00	1,51893282	1,51948082	-2,1853569472829478	7	-1,48491251	0,00332060806
2	1	0	0	0	8333,30	1,53193414	1,53246808	-2,1249307770812038	7	-1,48771465	0,00325638847
2	1	0	1	0	8334,60	1,54493618	1,54521644	-2,0728659778833443	7	-1,49044812	0,00320302648
2	1	0	0	0	8335,90	1,5579381	1,55839455	-2,0116114243865014	7	-1,49310541	0,00313488417
2	1	0	1	0	8337,20	1,57093954	1,57138252	-1,9681487766405005	7	-1,49568915	0,00309271459
2	1	0	0	0	8338,50	1,58394146	1,58465075	-1,9116265308111907	7	-1,49820983	0,00302926032
2	1	0	1	0	8339,80	1,59694326	1,59725797	-1,8571952053656275	7	-1,50065804	0,00296641979
2	1	0	0	0	8341,10	1,60994506	1,61040628	-1,8003680265198163	7	-1,5030371	0,00289932406
2	1	0	1	0	8342,40	1,62294674	1,62347424	-1,7484051349262445	7	-1,50534582	0,00283849076
2	1	0	0	0	8343,71	1,63594854	1,63651216	-1,6994826650867872	7	-1,50758851	0,00278122397
2	1	0	1	0	8345,01	1,64894998	1,64935899	-1,6463535485775581	7	-1,50976908	0,00271542813
2	1	0	1	0	8346,31	1,66195214	1,66239786	-1,5915210793415824	7	-1,51187289	0,00264574122
2	1	0	0	0	8347,61	1,67495394	1,67541575	-1,5487230590855104	7	-1,51391113	0,00259475503
2	1	0	1	0	8348,91	1,68795586	1,6883738	-1,4866734814519728	7	-1,5158838	0,00251006056
2	1	0	0	0	8350,21	1,70095766	1,70128131	-1,4320969215283838	7	-1,51778495	0,00243639969
2	1	0	1	0	8351,51	1,71395922	1,71453965	-1,3826416557033898	7	-1,51961458	0,00237059384
2	1	0	0	0	8352,81	1,72696114	1,72743738	-1,330316343344748	7	-1,52137792	0,00229803822
2	1	0	1	0	8354,11	1,73996294	1,74056542	-1,274271232386429	7	-1,52307284	0,00221795239
2	1	0	0	0	8355,41	1,7529645	1,75338304	-1,2254901382451245	7	-1,52469885	0,00214875373
2	1	0	1	0	8356,71	1,76596642	1,76634097	-1,1728960664942925	7	-1,52625716	0,00207173428
2	1	0	1	0	8358,01	1,77896821	1,77957916	-1,1248240089044011	7	-1,52775216	0,00200171326
2	1	0	0	0	8359,31	1,79197001	1,79267728	-1,0741694824149235	7	-1,52918124	0,00192563923
2	1	0	1	0	8360,61	1,80497181	1,80564523	-1,0252557133014016	7	-1,53054678	0,00185124809
2	1	0	0	0	8361,91	1,81797349	1,81848276	-0,97479038281987315	7	-1,53184557	0,00177263946
2	1	0	1	0	8363,21	1,83097529	1,83133054	-0,92404376870642138	7	-1,53307927	0,00169222953
2	1	0	0	0	8364,51	1,84397709	1,84447873	-0,8766524819657216	7	-1,53424883	0,00161696691
2	1	0	1	0	8365,81	1,85697889	1,85757661	-0,82895516852537869	7	-1,53535748	0,0015398477
2	1	0	0	0	8367,11	1,86998069	1,87067473	-0,77819955023005786	7	-1,53640223	0,00145575823
2	1	0	1	0	8368,41	1,88298261	1,88356256	-0,72889780284216154	7	-1,53738236	0,00137292466
2	1	0	1	0	8369,71	1,89598441	1,89650011	-0,68109937353680832	7	-1,53829885	0,00129170506
2	1	0	0	0	8371,01	1,90898597	1,90961838	-0,63517858305325171	7	-1,5391537	0,0012129487
2	1	0	1	0	8372,31	1,92198789	1,92274654	-0,58671737462282176	7	-1,53994763	0,00112810882
2	1	0	0	0	8373,61	1,93498969	1,93550408	-0,54157482103134227	7	-1,54068053	0,00104822032
2	1	0	1	0	8374,93	1,9481914	1,94879746	-0,49531741331641843	7	-1,54136384	0,000965273299
2	1	0	0	0	8376,25	1,96139324	1,96169019	-0,44743688994397779	7	-1,54198587	0,000877732527
2	1	0	1	0	8377,55	1,97439504	1,97498834	-0,4015394710004345	7	-1,54253709	0,000793035782
2	1	0	0	0	8378,85	1,98739684	1,9880265	-0,35565945963996134	7	-1,54302859	0,000707060448
2	1	0	1	0	8380,15	2,00039864	2,00086403	-0,3103563683107504	7	-1,54346085	0,000620980922
2	1	0	0	0	8381,45	2,01340055	2,01392198	-0,26534415013156787	7	-1,54383516	0,000534382416
2	1	0	0	0	8382,75	2,02640176	2,02698898	-0,22136827815108128	7	-1,54415131	0,000448711071
2	1	0	1	0	8384,05	2,03940392	2,03988791	-0,1775994746712969	7	-1,54441023	0,000362283026
2	1	0	0	0	8385,35	2,05240583	2,05290556	-0,13344368032024568	7	-1,54461193	0,000273947284
2	1	0	1	0	8386,65	2,06540728	2,06593394	-0,090184718157009498	7	-1,54475665	0,000186315665
2	1	0	0	0	8387,95	2,07840919	2,07911205	-0,047300208845020672	7	-1,54484546	9,83424325E-005
2	1	0	1	0	8389,31	2,09201097	2,0927856	-0,0018584592715645552	7	-1,54487872	3,88935678E-006
2	1	0	0	0	8390,67	2,10561299	2,10603881	0,041715703012111251	7	-1,54485142	8,7854889E-005
2	1	0	1	0	8391,97	2,11861467	2,11911678	0,084507108258548902	7	-1,54476893	0,000179080438
2	1	0	0	0	8393,31	2,13201666	2,13254547	0,1287266746706639	7	-1,54462564	0,000274515478
2	1	0	1	0	8394,61	2,14501834	2,14542317	0,17057591909542637	7	-1,54443073	0,00036595753
2	1	0	1	0	8395,91	2,15801954	2,15851068	0,21234755898501901	7	-1,54418135	0,00045835448
2	1	0	0	0	8397,21	2,17102194	2,1715591	0,25486440483170192	7	-1,54387724	0,000553453108
2	1	0	1	0	8398,51	2,18402362	2,18445683	0,29669422920172384	7	-1,54351842	0,000648115762
2	1	0	0	0	8399,81	2,1970253	2,1976552	0,33776208711788102	7	-1,5431062	0,000742284581
2	1	0	1	0	8401,11	2,21002746	2,21047306	0,38076261446500582	7	-1,54263902	0,000841665489
2	1	0	0	0	8402,41	2,22302914	2,22363091	0,42219714851428947	7	-1,54211617	0,000938810641
2	1	0	1	0	8403,71	2,23603082	2,23649859	0,46437404258176685	7	-1,5415386	0,00103857194
2	1	0	0	0	8405,01	2,24903274	2,24960685	0,50621395356332141	7	-1,54090714	0,00113878236
2	1	0	1	0	8406,31	2,26203442	2,26242423	0,54819847177714022	7	-1,54022014	0,00124025752
2	1	0	1	0	8407,61	2,27503514	2,27573323	0,59345705643296128	7	-1,53947735	0,00135054998
2	1	0	0	0	8408,91	2,28803802	2,28870082	0,63256969194238272	7	-1,53867984	0,00144776283
2	1	0	1	0	8410,21	2,3010397	2,30169868	0,67867235218485082	7	-1,53782654	0,00156209921
2	1	0	0	0	8411,51	2,31404138	2,31452608	0,71899819156775795	7	-1,53691828	0,00166414003
2	1	0	1	0	8412,81	2,32704329	2,32761407	0,76622261479496781	7	-1,53595293	0,00178347051
2	1	0	0	0	8414,11	2,34004498	2,34062195	0,80738691271593408	7	-1,53492963	0,0018897875
2	1	0	1	0	8415,41	2,35304689	2,35342979	0,84950751004119667	7	-1,53385055	0,0019992562
2	1	0	0	0	8416,72	2,36604857	2,36656785	0,89598002874602752	7	-1,5327158	0,00212039752
2	1	0	1	0	8418,02	2,37905025	2,37954593	0,93894556971887693	7	-1,53152335	0,00223426404
2	1	0	0	0	8419,32	2,39205217	2,3926537	0,9840851730356608	7	-1,53027177	0,00235457509
2	1	0	0	0	8420,66	2,40545416	2,40603209	1,0269705426568763	7	-1,52892494	0,00247092405
2	1	0	1	0	8421,96	2,41845584	2,41890001	1,0710044763982331	7	-1,52756119	0,00259065279
2	1	0	0	0	8423,26	2,43145776	2,43206811	1,1165886903181672	7	-1,52613771	0,00271561975
2	1	0	1	0	8424,56	2,44445944	2,44499588	1,1620742057760552	7	-1,52465653	0,00284126657
2	1	0	0	0	8425,86	2,45746112	2,45800376	1,2052737881118994	7	-1,52311695	0,00296256761
2	1	0	1	0	8427,16	2,47046304	2,47085142	1,2527526263147522	7	-1,52151763	0,0030953656
2	1	0	0	0	8428,46	2,48346472	2,48409986	1,3018991192802787	7	-1,51985705	0,00323404744
2	1	0	1	0	8429,76	2,4964664	2,49715781	1,3463446317861454	7	-1,51813519	0,00336203491
2	1	0	0	0	8431,06	2,50946856	2,5098052	1,3962566762541728	7	-1,51635158	0,00350433215
2	1	0	0	0	8432,36	2,52246952	2,52303052	1,4418961728682832	7	-1,51450574	0,00363794807
2	1	0	1	0	8433,66	2,53547192	2,53589129	1,4915610492850342	7	-1,51259685	0,00378243672
2	1	0	0	0	8434,96	2,54847383	2,54890919	1,5366268229360368	7	-1,51062548	0,00391672226
2	1	0	1	0	8436,26	2,56147552	2,56195688	1,5915613658726144	7	-1,50858772	0,00407751137
2	1	0	0	0	8437,56	2,5744772	2,57507515	1,6411652980993238	7	-1,50648558	0,00422612391
2	1	0	1	0	8438,86	2,58747911	2,58810306	1,6893953786542042	7	-1,50431848	0,00437232945
2	1	0	0	0	8440,16	2,60048103	2,60098076	1,7404593496272918	7	-1,50208962	0,00452690106
2	1	0	1	0	8441,46	2,61348248	2,61391854	1,7812458965927363	7	-1,49980068	0,00465603173
2	1	0	0	0	8442,76	2,62648439	2,62711668	1,8338224378724845	7	-1,49745286	0,00481766555
2	1	0	0	0	8444,06	2,63948512	2,63995337	1,8820327061220397	7	-1,49503517	0,00496847881
2	1	0	1	0	8445,36	2,65248775	2,65287232	1,9266116091360637	7	-1,49255478	0,00511105452
2	1	0	0	0	8446,66	2,66548967	2,66602039	1,9792445165415558	7	-1,49001396	0,00527670607
2	1	0	1	0	8447,96	2,67849135	2,67899823	2,027035187308993	7	-1,48741138	0,00543042365
2	1	0	0	0	8449,26	2,69149327	2,69211626	2,0815709431966099	7	-1,48473918	0,0056038308
2	1	0	1	0	8450,56	2,70449519	2,70505428	2,125188132747999	7	-1,48200262	0,00574874924
2	1	0	0	0	8451,86	2,71749687	2,71804214	2,1847696422288704	7	-1,47920012	0,00593829574
2	1	0	1	0	8453,16	2,73049855	2,73099017	2,2367961822698384	7	-1,47633529	0,00610866817
2	1	0	0	0	8454,46	2,74350047	2,74382758	2,2881670451412576	7	-1,47339439	0,00627833605
2	1	0	0	0	8455,76	2,75650144	2,75694418	2,3440739775931405	7	-1,47037828	0,00646248134
2	1	0	1	0	8457,06	2,76950407	2,76997352	2,4045615028589894	7	-1,46729338	0,00666057179
2	1	0	0	0	8458,36	2,78250575	2,78297138	2,4523620760689139	7	-1,46413541	0,00682485336
2	1	0	1	0	8459,66	2,79550743	2,79596949	2,5109340871373754	7	-1,46090674	0,0070204949
2	1	0	0	0	8460,96	2,80850935	2,80919766	2,5777521375566669	7	-1,45759571	0,00724141533
2	1	0	1	0	8462,26	2,82151127	2,82205534	2,6363513047496419	7	-1,45420408	0,00743992906
2	1	0	0	0	8463,56	2,83451271	2,83490324	2,6958366204053091	7	-1,45074248	0,00764243584
2	1	0	1	0	8464,86	2,84751463	2,84797096	2,7558791550497181	7	-1,44720304	0,00784866419
2	1	0	0	0	8466,16	2,86051655	2,861099	2,8058631153156278	7	-1,44358861	0,00802785251
2	1	0	1	0	8467,46	2,87351823	2,87392688	2,8470966517925226	7	-1,43991435	0,00818234775
2	1	0	1	0	8468,76	2,88652015	2,88718581	2,9043722447512416	7	-1,43617535	0,00838546269
2	1	0	0	0	8470,06	2,89952207	2,90002298	2,9632931196441203	7	-1,43236303	0,00859361794
2	1	0	1	0	8471,36	2,91252375	2,91291046	3,0313081194956979	7	-1,4284668	0,00882992893
2	1	0	0	0	8472,66	2,92552543	2,92584825	3,0699864967415706	7	-1,42450571	0,00898231473
2	1	0	1	0	8473,96	2,93852735	2,93899632	3,1483074488739078	7	-1,42045641	0,00925286394
2	1	0	0	0	8475,26	2,95152903	2,95221448	3,2008757752676813	7	-1,41633737	0,00944967195
2	1	0	1	0	8476,56	2,96453071	2,96507239	3,2680281276504243	7	-1,41213489	0,00968994014
2	1	0	0	0	8477,86	2,97753263	2,97788	3,3061813563108301	7	-1,40785301	0,0098454114
2	1	0	1	0	8479,16	2,99053431	2,99092793	3,366696705420807	7	-1,40350926	0,0100695472
2	1	0	0	0	8480,46	3,00353694	3,00406647	3,4233976395241542	7	-1,39909685	0,0102841137
2	1	0	0	0	8481,76	3,0165379	3,01709414	3,4960245552162163	7	-1,39460051	0,0105478354
2	1	0	1	0	8483,06	3,02953959	3,02999187	3,5375632035235539	7	-1,3900429	0,010718788
2	1	0	0	0	8484,36	3,04254127	3,04322004	3,6133137419819834	7	-1,38540125	0,0109961089
2	1	0	1	0	8485,66	3,05554318	3,05589771	3,6464977972209312	7	-1,38069403	0,011143324
2	1	0	0	0	8486,96	3,06854486	3,06907582	3,697204944988087	7	-1,37592614	0,0113470023
2	1	0	1	0	8488,26	3,08154678	3,08193326	3,7650694462160282	7	-1,37106621	0,0116036925
2	1	0	0	0	8489,57	3,0945487	3,09501147	3,8185988118251117	7	-1,36613774	0,0118186073
2	1	0	1	0	8490,87	3,10755038	3,10807943	3,8909470823903846	7	-1,36111784	0,0120933726
2	1	0	0	0	8492,17	3,12055135	3,12115669	3,9313627507060787	7	-1,35603654	0,0122703994
2	1	0	0	0	8493,47	3,1335535	3,13416529	4,0050407983362675	7	-1,35087705	0,0125524597
2	1	0	1	0	8494,77	3,14655542	3,14702272	4,04777704551816	7	-1,34564674	0,0127384467
2	1	0	0	0	8496,07	3,1595571	3,15985084	4,1234365664422515	7	-1,3403374	0,013029444
2	1	0	1	0	8497,37	3,17255926	3,17305875	4,1366735324263501	7	-1,3349669	0,0131259086
2	1	0	0	0	8498,67	3,1855607	3,1860168	4,202688861638279	7	-1,32954192	0,013389837
2	1	0	1	0	8499,97	3,19856286	3,1991446	4,2660513011117882	7	-1,32403648	0,0136477146
2	1	0	0	0	8501,27	3,21156454	3,21210265	4,3840813102821555	7	-1,31839561	0,0140821189
2	1	0	1	0	8502,57	3,22456598	3,22511029	4,4367379173636435	7	-1,31266773	0,0143089695
2	1	0	1	0	8503,87	3,23756742	3,23812699	4,4678888327663347	7	-1,30688024	0,0144675914
2	1	0	0	0	8505,17	3,25056982	3,25111628	4,509292514373847	7	-1,30103946	0,0146602346
2	1	0	1	0	8506,47	3,26357174	3,26405406	4,5826753290991034	7	-1,29510772	0,0149581004
2	1	0	0	0	8507,77	3,27657342	3,27713227	4,6460054740309574	7	-1,28910077	0,0152255744
2	1	0	1	0	8509,07	3,28957534	3,29005957	4,6822258830070214	7	-1,2830354	0,0154048018
2	1	0	0	0	8510,37	3,30257702	3,3031683	4,7558070731659539	7	-1,27689469	0,0157092307
2	1	0	1	0	8511,67	3,3155787	3,31599545	4,8478325580556998	7	-1,27066445	0,0160753913
2	1	0	0	0	8512,97	3,32858062	3,329144	4,8845351872344762	7	-1,26436412	0,0162613206
2	1	0	1	0	8514,27	3,3415823	3,34215188	4,9994277060031821	7	-1,2579062	0,0167088471
2	1	0	0	0	8515,57	3,35458398	3,35497952	5,0508022730549203	7	-1,25136614	0,0169453379
2	1	0	0	0	8516,87	3,3675859	3,36798859	5,0672821016802202	7	-1,24477911	0,0170665476
2	1	0	1	0	8518,17	3,38058758	3,3810854	5,2218981894354074	7	-1,23810625	0,0176556837
2	1	0	0	0	8519,47	3,39358926	3,39405346	5,3172373833755539	7	-1,23126459	0,0180469882
2	1	0	1	0	8520,77	3,40659118	3,40711117	5,4034042209386739	7	-1,22432041	0,0184099991
2	1	0	0	0	8522,07	3,41959286	3,42003918	5,5520792417228154	7	-1,21720541	0,0189883281
2	1	0	1	0	8523,37	3,43259454	3,43294692	5,6069378840426618	7	-1,20997775	0,0192483198
2	1	0	0	0	8524,67	3,44559646	3,4460144	5,7186531970898355	7	-1,20260441	0,0197065622
2	1	0	1	0	8525,97	3,45859814	3,45914268	5,8740358427166899	7	-1,19504249	0,0203191284
2	1	0	0	0	8527,27	3,47160006	3,47211099	5,904601215074464	7	-1,18737984	0,0205014311
2	1	0	1	0	8528,57	3,48460293	3,48498917	5,9454974655444032	7	-1,17968273	0,0207199939
2	1	0	1	0	8529,87	3,49760389	3,49792647	5,9956377769509926	7	-1,17191494	0,0209723003
2	1	0	0	0	8531,17	3,51060534	3,51117468	6,0381937325000691	7	-1,1640805	0,0212011524
2	1	0	1	0	8532,47	3,52360702	3,52411222	6,1751168618599475	7	-1,15615749	0,0217618048
2	1	0	0	0	8533,77	3,53660917	3,53717041	6,1987772099673664	7	-1,14809716	0,0219261311
2	1	0	1	0	8535,07	3,54961061	3,55031848	6,2439981314043034	7	-1,14000511	0,0221681818
2	1	0	0	0	8536,37	3,56261277	3,56331635	6,3446074873208998	7	-1,1318109	0,0226078443
2	1	0	1	0	8537,67	3,57561445	3,57617378	6,4274116406837939	7	-1,12350142	0,0229855403
2	1	0	0	0	8538,97	3,58861637	3,58910179	6,4688308537006374	7	-1,11510003	0,0232172925
2	1	0	1	0	8540,27	3,60161805	3,60195971	6,5865156249205082	7	-1,10659695	0,0237243641
2	1	0	1	0	8541,57	3,61461973	3,61525774	6,6912943646312038	7	-1,09795892	0,0241907537
2	1	0	0	0	8542,87	3,62762165	3,62812567	6,5142081603407718	7	-1,08926523	0,0236343667
2	1	0	1	0	8544,17	3,64062333	3,64091349	6,5876064673066099	7	-1,08061171	0,0239849053
2	1	0	0	0	8545,47	3,65362525	3,65407157	6,761885426938505	7	-1,071944	0,0247084126
2	1	0	1	0	8546,77	3,66662693	3,66709971	6,824349177380384	7	-1,06310868	0,0250255689
2	1	0	0	0	8548,07	3,67962861	3,68023729	6,9919501716891827	7	-1,05415344	0,0257320367
2	1	0	1	0	8549,37	3,69263053	3,69331574	7,0215829685330112	7	-1,04504848	0,025932923
2	1	0	0	0	8550,67	3,70563221	3,70617318	7,1019059990843226	7	-1,03586364	0,0263208933
2	1	0	1	0	8551,97	3,71863389	3,71912122	7,1913494517405888	7	-1,02658188	0,0267455
2	1	0	1	0	8553,27	3,73163462	3,73225713	7,287692862924032	7	-1,01717865	0,027199544
2	1	0	0	0	8554,57	3,74463749	3,74510694	7,3685692523916083	7	-1,00765789	0,0275960807
2	1	0	1	0	8555,87	3,75763917	3,75802469	7,4632076273361677	7	-0,998002708	0,028046919
2	1	0	0	0	8557,17	3,77064109	3,77097273	7,5516463940342362	7	-0,988240659	0,0284770522
2	1	0	1	0	8558,47	3,78364277	3,78414083	7,7088953281442368	7	-0,978286803	0,0291715451
2	1	0	0	0	8559,77	3,79664469	3,79711819	7,7929514621694976	7	-0,968212605	0,0295907576
2	1	0	1	0	8561,07	3,80964637	3,81016636	7,9195689062277376	7	-0,958020866	0,0301748756
2	1	0	0	0	8562,38	3,82264805	3,82301378	8,0409983669718131	7	-0,947691262	0,0307408478
2	1	0	1	0	8563,68	3,83564997	3,8359921	8,142395767072855	7	-0,937156141	0,0312341657
2	1	0	1	0	8564,98	3,84865141	3,84912968	8,2020466569150579	7	-0,926529765	0,03157074
2	1	0	0	0	8566,28	3,8616538	3,86202812	8,2199747587243622	7	-0,915872574	0,0317457728
2	1	0	1	0	8567,58	3,87465525	3,8752861	8,2937209804852608	7	-0,905135393	0,0321405418
2	1	0	0	0	8568,88	3,8876574	3,88809395	8,3863048255443392	7	-0,894281149	0,0326067396
2	1	0	1	0	8570,18	3,90065908	3,9011519	8,3971560274561344	7	-0,883371294	0,0327585824
2	1	0	0	0	8571,48	3,91366053	3,91414976	8,3113706360260403	7	-0,872392535	0,0325319506
2	1	0	1	0	8572,78	3,92666268	3,92723775	8,7922780215740198	7	-0,861288309	0,0345293656
2	1	0	0	0	8574,08	3,93966436	3,94030571	8,8761756072441638	7	-0,849816024	0,034974847
2	1	0	1	0	8575,38	3,95266628	3,9529233	8,9574435750643597	7	-0,838229716	0,0354080871
2	1	0	0	0	8576,68	3,96566868	3,96624231	9,069487741673513	7	-0,826524258	0,0359717868
2	1	0	0	0	8577,98	3,97866988	3,9789989	9,1474869921803187	7	-0,814679384	0,0363978408
2	1	0	1	0	8579,28	3,99167156	3,99230742	9,236960488061079	7	-0,802731097	0,0368767865
2	1	0	0	0	8580,58	4,004673	4,00522518	9,4637955824534362	7	-0,790569663	0,0379046313
2	1	0	1	0	8581,88	4,01767492	4,01835346	9,7897918423016678	7	-0,777926922	0,0393388458
2	1	0	0	0	8583,18	4,03067684	4,03113079	9,8112605462471552	7	-0,765243292	0,0395504758
2	1	0	1	0	8584,52	4,04407883	4,04467916	10,016109148661286	7	-0,75188148	0,0405119471
2	1	0	0	0	8585,82	4,05708027	4,057477	10,078035391867146	7	-0,738812089	0,0408913977
2	1	0	1	0	8587,12	4,07008219	4,07050514	10,237528791030254	7	-0,72559607	0,0416719131
2	1	0	0	0	8588,42	4,08308411	4,08364344	10,356697748104722	7	-0,712199569	0,0422930606
2	1	0	1	0	8589,72	4,09608603	4,09672308	10,65443586023801	7	-0,698539972	0,0436482728
2	1	0	0	0	8591,02	4,10908937	4,10961056	10,85391978186837	7	-0,684503794	0,0446053818
2	1	0	0	0	8592,32	4,12208939	4,12275696	10,891433698435642	7	-0,670371294	0,0449027345
2	1	0	1	0	8593,62	4,13509083	4,13574505	11,492327938477131	7	-0,655880213	0,0475293398
2	1	0	0	0	8594,92	4,14809322	4,14858246	11,523233359058661	7	-0,641015828	0,0478050821
2	1	0	1	0	8596,22	4,16109467	4,1618309	11,906760180989898	7	-0,625816703	0,0495539233
2	1	0	0	0	8597,52	4,17409611	4,17468882	12,202676164607227	7	-0,610259533	0,0509423763
2	1	0	1	0	8598,82	4,1870985	4,18768644	12,44724966833985	7	-0,594213903	0,0521251783
2	1	0	0	0	8600,10	4,19990063	4,20047474	12,654888987541184	7	-0,578179896	0,0531565398
2	0	0	1	1	8601,34	4,18769789	4,18820715	12,734985962510109	7	-0,562322438	0,0533367582
2	0	0	0	1	8602,64	4,17469645	4,17538929	12,479864304264368	7	-0,546007335	0,0521082915
2	0	0	1	1	8603,94	4,161695	4,16223145	12,535215348005322	7	-0,529638588	0,0521744676
2	0	0	0	1	8605,24	4,14869308	4,1492939	12,293236066897693	7	-0,513495505	0,0510082506
2	0	0	1	1	8606,54	4,13569117	4,13632584	12,180943846702576	7	-0,49751243	0,0503843538
2	0	0	0	1	8607,84	4,12268972	4,12336826	11,911885268986211	7	-0,48184213	0,0491170883
2	0	0	1	1	8609,14	4,10968637	4,11002779	11,667002413856606	7	-0,466518223	0,0479517058
2	0	0	1	1	8610,44	4,09668636	4,09728241	11,447180707821776	7	-0,451485634	0,0469023325
2	0	0	0	1	8611,74	4,08368397	4,08423424	11,249014213681221	7	-0,436705917	0,0459436104
2	0	0	1	1	8613,04	4,07068205	4,07103634	11,046612910926357	7	-0,42219758	0,0449711643
2	0	0	0	1	8614,34	4,05768061	4,05818796	10,737207124630573	7	-0,408034444	0,043573603
2	0	0	1	1	8615,64	4,04467869	4,04505014	10,465524482230322	7	-0,394249827	0,0423335731
2	0	0	0	1	8616,94	4,03167677	4,03196239	10,186640712122125	7	-0,380828053	0,0410721526
2	0	0	1	1	8618,24	4,01867533	4,01932478	9,8719541504978995	7	-0,367785007	0,0396785885
2	0	0	0	1	8619,54	4,00567341	4,00615644	9,6032965605457152	7	-0,355126977	0,0384723097
2	0	0	1	1	8620,84	3,99267173	3,99308872	9,3742904191215821	7	-0,342785329	0,0374323726
2	0	0	1	1	8622,14	3,97966957	3,98018146	9,1405982975664563	7	-0,330757886	0,0363812409
2	0	0	0	1	8623,44	3,96666813	3,96709251	8,9085785299539277	7	-0,319038749	0,0353411548
2	0	0	1	1	8624,74	3,95366645	3,95421481	8,6626241231957837	7	-0,307616025	0,0342538767
2	0	0	0	1	8626,04	3,94066453	3,94101691	8,353175044059753	7	-0,296534449	0,0329200029
2	0	0	1	1	8627,34	3,92766285	3,9282794	8,1260274251301606	7	-0,285814583	0,0319213048
2	0	0	0	1	8628,64	3,91466093	3,91512132	7,8914497668544358	7	-0,275402427	0,0308959838
2	0	0	1	1	8629,94	3,90165925	3,9022131	7,6569079384207731	7	-0,265286803	0,0298788864
2	0	0	0	1	8631,25	3,88865709	3,88915539	7,4728433688481459	7	-0,255460531	0,0290630497
2	0	0	1	1	8632,55	3,87565565	3,87616754	7,2716879323124915	7	-0,24587743	0,0281862803
2	0	0	0	1	8633,85	3,86265397	3,86291909	7,009758825103433	7	-0,236574918	0,0270781312
2	0	0	0	1	8635,15	3,8496511	3,84994054	6,8238435514095744	7	-0,227581635	0,0262713917
2	0	0	1	1	8636,45	3,83665037	3,83711362	6,6342321236928038	7	-0,218829289	0,0254563019
2	0	0	0	1	8637,75	3,82364821	3,82406545	6,4750806738932736	7	-0,210292801	0,0247611329
2	0	0	1	1	8639,05	3,81064653	3,8112781	6,2799078921476902	7	-0,201994285	0,0239344761
2	0	0	0	1	8640,35	3,79764462	3,79809976	6,0739821915825126	7	-0,193966314	0,0230695903
2	0	0	1	1	8641,65	3,78464293	3,78516197	5,9144597289462771	7	-0,186176002	0,0223871879
2	0	0	0	1	8642,95	3,77164125	3,7721343	5,7252041051784915	7	-0,178606167	0,021596238
2	0	0	1	1	8644,25	3,75863934	3,75898623	5,5806783152123245	7	-0,171219274	0,0209776927
2	0	0	0	1	8645,55	3,74563766	3,74580765	5,4101501268645293	7	-0,164065793	0,0202653818
2	0	0	1	1	8646,85	3,73263526	3,73317146	5,2429272594708749	7	-0,15714027	0,019572746
2	0	0	1	1	8648,15	3,71963406	3,71994209	5,0756396378079955	7	-0,150430396	0,0188810863
2	0	0	0	1	8649,49	3,70623231	3,70655394	4,9082007880012173	7	-0,143740073	0,0181925111
2	0	0	1	1	8650,79	3,69323039	3,69375587	4,8036893655856403	7	-0,137405366	0,0177436564
2	0	0	0	1	8652,09	3,68022871	3,68078828	4,7066531243423616	7	-0,131201401	0,0173241943
2	0	0	1	1	8653,39	3,66722703	3,66778016	4,5735656047860685	7	-0,125173613	0,0167748332
2	0	0	0	1	8654,69	3,65422511	3,65482259	4,4703788186112909	7	-0,119293183	0,0163384415
2	0	0	1	1	8655,99	3,64122343	3,6415844	4,438386819014951	7	-0,113517582	0,0161627606
2	0	0	0	1	8657,29	3,62822175	3,62880659	4,329068124294281	7	-0,107820675	0,0157093517
2	0	0	0	1	8658,59	3,61522055	3,61576962	4,2334486462175674	7	-0,102253005	0,015307175
2	0	0	1	1	8659,89	3,60221815	3,60270047	4,1421943505605018	7	-0,0968156084	0,0149230855
2	0	0	0	1	8661,19	3,58921647	3,58976269	4,0408978313207571	7	-0,0914967656	0,0145058641
2	0	0	1	1	8662,49	3,57621455	3,5766046	3,9444459018608032	7	-0,0863050669	0,0141077237
2	0	0	0	1	8663,79	3,56321287	3,56386709	3,8535451690356	7	-0,081234768	0,013733523
2	0	0	1	1	8665,09	3,55021095	3,55086946	3,7807922934492384	7	-0,0762681141	0,0134250997
2	0	0	0	1	8666,39	3,53720927	3,53765106	3,6913992539048192	7	-0,0714089647	0,0130588822
2	0	0	1	1	8667,69	3,52420712	3,52480316	3,6014181027809683	7	-0,066673167	0,0126942899
2	0	0	0	1	8668,99	3,51120567	3,51168537	3,5316514534254893	7	-0,062028084	0,0124020483
2	0	0	0	1	8670,29	3,49820423	3,49858785	3,4479025123560947	7	-0,0574851707	0,0120627899
2	0	0	1	1	8671,59	3,48520184	3,48564935	3,3778527875741274	7	-0,0530417003	0,01177401
2	0	0	0	1	8672,89	3,47220039	3,47279191	3,308257320274912	7	-0,0486998931	0,0114888893
2	0	0	1	1	8674,19	3,45919824	3,45941329	3,2327011935412742	7	-0,0444473922	0,0111832498
2	0	0	0	1	8675,49	3,44619656	3,44693613	3,1687333323061485	7	-0,0402841158	0,0109224217
2	0	0	1	1	8676,79	3,43319464	3,43374777	3,1044814971586022	7	-0,0362005308	0,0106600067
2	0	0	0	1	8678,09	3,42019296	3,42067981	3,0402316755304672	7	-0,0322074108	0,0103996592
2	0	0	1	1	8679,39	3,40719104	3,40774226	2,9791484121233242	7	-0,0282814745	0,0101521695
2	0	0	0	1	8680,69	3,39418936	3,39463425	2,9284109274546285	7	-0,0244335905	0,00994088408
2	0	0	1	1	8681,99	3,38118768	3,38181615	2,8693487712492506	7	-0,020666847	0,00970361009
2	0	0	1	1	8683,29	3,36818576	3,36875796	2,8109182610199498	7	-0,0169748124	0,0094693033
2	0	0	0	1	8684,59	3,35518408	3,35575032	2,7518325317651069	7	-0,0133600272	0,00923446286
2	0	0	1	1	8685,89	3,3421824	3,34279275	2,7008876415590422	7	-0,00981774274	0,0090285074
2	0	0	0	1	8687,19	3,32918048	3,32948446	2,6474366473654899	7	-0,00634189043	0,00881459936
2	0	0	1	1	8688,49	3,3161788	3,31674695	2,5939981117844582	7	-0,00293545681	0,00860363524
2	0	0	0	1	8689,79	3,30317712	3,30378842	2,5592856556177104	7	0,000417641713	0,00845533796
2	0	0	1	1	8691,09	3,2901752	3,29074097	2,5062360453108995	7	0,00371097471	0,00824737363
2	0	0	0	1	8692,39	3,27717352	3,27775288	2,4540235425035136	7	0,00693168771	0,00804368313
2	0	0	1	1	8693,69	3,26417184	3,2644949	2,397591588397823	7	0,0100848256	0,00782692526
2	0	0	0	1	8694,99	3,25116944	3,2517662	2,3530115658252058	7	0,0131697226	0,00765144359
2	0	0	0	1	8696,29	3,23816824	3,23871922	2,3130803971240893	7	0,0162010081	0,00749141816
2	0	0	1	1	8697,59	3,22516632	3,2257812	2,2638188054164275	7	0,0191761721	0,00730258413
2	0	0	0	1	8698,89	3,21216464	3,21270323	2,2139391377568208	7	0,0220863633	0,00711272936
2	0	0	1	1	8700,19	3,19916296	3,19982576	2,172237636521465	7	0,0249399245	0,00695078215
2	0	0	0	1	8701,49	3,18616104	3,18665743	2,1359738713751178	7	0,0277434699	0,00680661714
2	0	0	1	1	8702,79	3,17315936	3,17370987	2,0867934798200912	7	0,0304840226	0,00662287697
2	0	0	0	1	8704,10	3,1601572	3,16076183	2,0400899052619898	7	0,0331663564	0,00644823816
2	0	0	1	1	8705,40	3,14715576	3,14783406	2,0008479747921158	7	0,0358027443	0,0062983376
2	0	0	0	1	8706,70	3,1341536	3,13453579	1,9582394727816173	7	0,0383746512	0,00613817153
2	0	0	0	1	8708,00	3,12115264	3,12177873	1,9313821482777059	7	0,0408981964	0,00602934789
2	0	0	1	1	8709,30	3,10815048	3,10864019	1,9200160969048739	7	0,0434024595	0,00596863916
2	0	0	0	1	8710,60	3,0951488	3,09552217	1,8755774851888419	7	0,0458663665	0,00580589147
2	0	0	1	1	8711,90	3,08214688	3,08266425	1,8428128231316733	7	0,0482812822	0,00568077341
2	0	0	0	1	8713,20	3,0691452	3,0693562	1,8042313798020349	7	0,0506502092	0,0055378289
2	0	0	1	1	8714,50	3,05614328	3,05655837	1,7614886400600368	7	0,0529692955	0,00538409268
2	0	0	0	1	8715,80	3,04314137	3,04360056	1,7318121145168989	7	0,0552416854	0,00527094444
2	0	0	1	1	8717,10	3,03013968	3,03059268	1,6943216832975523	7	0,0574677065	0,00513479905
2	0	0	0	1	8718,40	3,017138	3,01752472	1,6599054473141805	7	0,0596482046	0,00500880554
2	0	0	0	1	8719,70	3,00413609	3,00476718	1,6252650779982362	7	0,0617853701	0,00488354312
2	0	0	1	1	8721,00	2,99113441	2,99149895	1,5941154385606352	7	0,0638776943	0,00476879487
2	0	0	0	1	8722,30	2,97813272	2,97878122	1,5799215318014176	7	0,0659350306	0,00470624072
2	0	0	1	1	8723,60	2,96513081	2,96568322	1,539634071911376	7	0,0679654256	0,0045660669
2	0	0	0	1	8724,90	2,95212889	2,95248532	1,5094627877697312	7	0,0699471831	0,00445666676
2	0	0	1	1	8726,20	2,93912745	2,93964744	1,4751925437400768	7	0,0718880594	0,00433654618
2	0	0	0	1	8727,50	2,92612553	2,92666936	1,4396887909000107	7	0,0737832189	0,00421349285
2	0	0	1	1	8728,80	2,91312361	2,91363168	1,412629939305285	7	0,0756367743	0,00411588326
2	0	0	0	1	8730,10	2,90012217	2,90085411	1,3817448898528966	7	0,0774526745	0,00400824053
2	0	0	0	1	8731,40	2,88711977	2,88766432	1,3504002499689741	7	0,0792267397	0,00389950257
2	0	0	1	1	8732,70	2,87411833	2,87485814	1,3157409705842547	7	0,0809611306	0,00378256873
2	0	0	0	1	8734,00	2,86111641	2,86150956	1,2863375988478438	7	0,0826523528	0,00368086738
2	0	0	1	1	8735,30	2,84811497	2,84867191	1,2536700678368416	7	0,0843039081	0,00357129471
2	0	0	0	1	8736,60	2,83511305	2,83581424	1,2248115353286266	7	0,0859130919	0,00347333797
2	0	0	1	1	8737,90	2,82211113	2,82265615	1,1909015985826627	7	0,0874812528	0,00336150569
2	0	0	0	1	8739,20	2,80910969	2,80987859	1,1603849294284955	7	0,0890084207	0,00326054078
2	0	0	1	1	8740,50	2,79610777	2,79652047	1,131650337638951	7	0,0904963762	0,00316468324
2	0	0	0	1	8741,80	2,78310585	2,78353214	1,0997496017565318	7	0,0919470936	0,00306118838
2	0	0	1	1	8743,10	2,77010298	2,77062345	1,0641009680505658	7	0,0933543593	0,00294822315
2	0	0	1	1	8744,40	2,75710225	2,75769663	1,0312566580250859	7	0,0947175771	0,0028438929
2	0	0	0	1	8745,70	2,74410057	2,74460864	1,0022240933030853	7	0,0960388109	0,00275071291
2	0	0	1	1	8747,00	2,73109865	2,73156071	0,9747823517148681	7	0,0973238796	0,00266267709
2	0	0	0	1	8748,30	2,71809697	2,71851277	0,94373915189256154	7	0,0985715017	0,00256556692
2	0	0	1	1	8749,60	2,70509529	2,70551467	0,91186303241799219	7	0,0997782275	0,00246705883
2	0	0	0	1	8750,90	2,69209337	2,69259715	0,88202504906803546	7	0,100944482	0,00237493822
2	0	0	1	1	8752,20	2,67909169	2,67953897	0,84823445603251098	7	0,102068454	0,00227287738
2	0	0	0	1	8753,50	2,66608977	2,66644096	0,81964315536121293	7	0,103153378	0,00218553003
2	0	0	1	1	8754,80	2,65308785	2,65362334	0,78950336420287923	7	0,104198843	0,00209504459
2	0	0	1	1	8756,10	2,64008617	2,64059544	0,75752289375911014	7	0,105204053	0,00200031139
2	0	0	0	1	8757,40	2,62708449	2,6276176	0,72514473600312973	7	0,106167629	0,0019054031
2	0	0	1	1	8758,70	2,61408257	2,61460948	0,69301199680194189	7	0,107089549	0,00181195571
2	0	0	0	1	8760,00	2,60108089	2,60148144	0,65800990738595469	7	0,107967503	0,00171180058
2	0	0	1	1	8761,30	2,58807921	2,58849359	0,62407409880931136	7	0,108799532	0,00161541183
2	0	0	0	1	8762,60	2,5750773	2,57559586	0,59107231302186752	7	0,109588228	0,0015223634
2	0	0	1	1	8763,90	2,56207561	2,5627079	0,55599134322255936	7	0,110332899	0,00142484345
2	0	0	0	1	8765,20	2,54907393	2,54948974	0,52067523604879853	7	0,11103186	0,00132745621
2	0	0	1	1	8766,54	2,53567195	2,53594112	0,48133723003168781	7	0,111703254	0,00122064282
2	0	0	1	1	8767,84	2,52267027	2,52314448	0,44315548358878765	7	0,112303935	0,0011181453
2	0	0	0	1	8769,14	2,50966859	2,51012588	0,40329835703596294	7	0,112853788	0,00101232959
2	0	0	1	1	8770,44	2,49666667	2,49718785	0,362309517959752	7	0,113351069	0,00090475491
2	0	0	0	1	8771,74	2,48366475	2,48422003	0,32001080278617523	7	0,113794468	0,000794977241
2	0	0	1	1	8773,04	2,47066283	2,4711318	0,27592655830085312	7	0,114181511	0,000681850885
2	0	0	0	1	8774,34	2,45766115	2,45823407	0,22917007911019027	7	0,114509344	0,000563353708
2	0	0	1	1	8775,64	2,44465947	2,44506598	0,18037695666619856	7	0,114775352	0,000441033568
2	0	0	0	1	8776,95	2,43165755	2,43229842	0,13109697564505085	7	0,114977501	0,00031886698
2	0	0	1	1	8778,25	2,41865587	2,41934061	0,079178758567043648	7	0,115113921	0,000191560379
2	0	0	0	1	8779,59	2,40525413	2,40565181	0,024309531276230755	7	0,115183063	5,84802692E-005
2	0	0	1	1	8780,71	2,39395308	2,39462686	-0,024011673198805914	7	0,115183428	5,74989972E-005