File: Experimentelles/Rohdaten/Batteriemessungen/AlteZelle/Studenten_Batterietests/Sonstige/ZView-Export/S vs Li_05_GCPL_C02_loop0.txt
EC-Lab ASCII FILE
Nb header lines : 3
mode	ox/red	error	control changes	Ns changes	counter inc.	Ns	time/s	control/V/mA	Ewe/V	dq/mA.h	<I>/mA	P/W	(Q-Qo)/mA.h	x	Capacity/mA.h
1	0	0	1	1	0	1	15341,20	-0,100000001	2,29113698	0	0	0	0	0	0
1	0	0	1	0	0	1	15571,20	-0,100000001	2,24127913	-0,00027770969615462749	-0,099975491826088512	0,000224072981	-0,0063859468045212582	0,00023826826127348317	0,0063859468045212582
1	0	0	1	0	0	1	15801,20	-0,100000001	2,22119498	-0,00027770854183824528	-0,099975076272185882	0,000222064133	-0,012773256490515613	0,00047658737348714118	0,012773256490515613
1	0	0	1	0	0	1	16031,20	-0,100000001	2,20261741	-0,00027770868930593133	-0,09997512936055351	0,000220206959	-0,019160560655003485	0,00071490627968596864	0,019160560655003485
1	0	0	1	0	0	1	16261,20	-0,100000001	2,18632889	-0,00027770899646439488	-0,099975239937601728	0,00021857876	-0,025547865704365757	0,0009532252189006496	0,025547865704365757
1	0	0	1	0	0	1	16491,20	-0,100000001	2,17183304	-0,00027770901352746614	-0,099975246080307456	0,000217129549	-0,031935169801817856	0,0011915441225982822	0,031935169801817856
1	0	0	1	0	0	1	16721,20	-0,100000001	2,1590538	-0,00027770920971284314	-0,099975316707044032	0,000215852095	-0,038322471738822208	0,0014298629456867046	0,038322471738822208
1	0	0	1	0	0	1	16951,20	-0,100000001	2,14720941	-0,00027770883497388826	-0,099975181801018637	0,000214667656	-0,044709773695595834	0,0016681817695127453	0,044709773695595834
1	0	0	1	0	0	1	17181,20	-0,100000001	2,13610864	-0,00027770891763559645	-0,099975211559233958	0,000213557913	-0,051097072617822931	0,0019065004801157747	0,051097072617822931
1	0	0	1	0	0	1	17411,20	-0,100000001	2,12561822	-0,00027770801996770832	-0,09997488839879031	0,000212508443	-0,05748437428826496	0,0021448192932583984	0,05748437428826496
1	0	0	1	0	0	1	17641,20	-0,100000001	2,11539507	-0,0002777085006415016	-0,09997506144135799	0,000211486753	-0,063871675549474317	0,0023831380911320013	0,063871675549474317
1	0	0	1	0	0	1	17871,20	-0,100000001	2,10530519	-0,00027770831171174848	-0,099974993426646042	0,000210477869	-0,070258969674733645	0,0026214566227537139	0,070258969674733645
1	0	0	1	0	0	1	18101,20	-0,100000001	2,09485292	-0,00027770886492480835	-0,099975192583350003	0,000209433318	-0,076646260570015194	0,0028597750338606125	0,076646260570015194
1	0	0	1	0	0	1	18331,20	-0,100000001	2,08466768	-0,00027770889259585075	-0,099975202544925402	0,000208415076	-0,083033561708484954	0,0030980938271546355	0,083033561708484954
1	0	0	1	0	0	1	18561,20	-0,100000001	2,07556987	-0,00027770899715440141	-0,099975240186004096	0,000207505596	-0,089420860245980621	0,0033364125234028179	0,089420860245980621
1	0	0	1	0	0	1	18791,20	-0,100000001	2,07318568	-0,00027770794110455446	-0,099974860008054566	0,00020726645	-0,095808151089644966	0,0035747309325838099	0,095808151089644966
1	0	0	1	0	0	1	19021,20	-0,100000001	2,07679057	-0,00027770814131697021	-0,09997493208452512	0,000207627003	-0,10219543397529162	0,0038130490448404614	0,10219543397529162
1	0	0	1	0	0	1	19251,20	-0,100000001	2,08014727	-0,00027770795062060157	-0,099974863433831578	0,000207962439	-0,10858271871399742	0,0040513672262372416	0,10858271871399742
1	0	0	1	0	0	1	19481,20	-0,100000001	2,08287477	-0,00027770774176923763	-0,099974788247339661	0,000208234967	-0,11496999794172318	0,0042896852020119475	0,11496999794172318
1	0	0	1	0	0	1	19711,20	-0,100000001	2,08483934	-0,00027770682412468723	-0,09997445789529751	0,000208430676	-0,12135727072440618	0,0045280029373134413	0,12135727072440618
1	0	0	1	0	0	1	19941,20	-0,100000001	2,08651781	-0,0002777074226058192	-0,099974673348507622	0,00020859894	-0,12774453914588474	0,0047663205098925344	0,12774453914588474
1	0	0	1	0	0	1	20171,20	-0,100000001	2,08745241	-0,00027770786867497693	-0,099974833933406349	0,000208692712	-0,13413180967799728	0,0050046381612222195	0,13413180967799728
1	0	0	1	0	0	1	20401,20	-0,100000001	2,08871126	-0,00027770740679899853	-0,099974667658052122	0,000208818208	-0,14051907535162637	0,0052429556312753536	0,14051907535162637
1	0	0	1	0	0	1	20631,20	-0,100000001	2,08934069	-0,00027770815311662022	-0,099974936332399181	0,000208881698	-0,14690635767371357	0,0054812737225048448	0,14690635767371357
1	0	0	1	0	0	1	20861,20	-0,100000001	2,08993196	-0,0002777076091791193	-0,099974740514896461	0,000208940401	-0,15329363034060749	0,0057195914534860922	0,15329363034060749
1	0	0	1	0	0	1	21091,20	-0,100000001	2,0904088	-0,00027770777242340973	-0,099974799282841741	0,000208988204	-0,15968089961284173	0,0059579090578080243	0,15968089961284173
1	0	0	1	0	0	1	21321,20	-0,100000001	2,09082842	-0,00027770883805842864	-0,099975182911453184	0,000209030957	-0,16606818486842941	0,0061962272584903629	0,16606818486842941
1	0	0	1	0	0	1	21551,20	-0,100000001	2,09119081	-0,00027770850787146221	-0,099975064044143846	0,00020906693	-0,17245548509648499	0,0064345460178156083	0,17245548509648499
1	0	0	1	0	0	1	21781,20	-0,100000001	2,09162951	-0,00027770910037391718	-0,099975277345030208	0,00020911124	-0,17884277655872592	0,0066728644500765235	0,17884277655872592
1	0	0	1	0	0	1	22011,20	-0,100000001	2,09208727	-0,00027770798571697542	-0,09997487606852631	0,000209156162	-0,18523006045086237	0,0069111825998866624	0,18523006045086237
1	0	0	1	0	0	1	22241,20	-0,100000001	2,0923543	-0,00027770889715270861	-0,09997520418539424	0,000209183549	-0,19161734817203763	0,0071495008925633882	0,19161734817203763
1	0	0	1	0	0	1	22471,20	-0,100000001	2,09265947	-0,00027770860135265523	-0,099975097697373722	0,000209213831	-0,19800463021236867	0,0073878189732801779	0,19800463021236867
1	0	0	1	0	0	1	22701,20	-0,100000001	2,09281206	-0,00027770793916905917	-0,099974859311276262	0,000209228587	-0,20439191390570083	0,0076261371156726618	0,20439191390570083
1	0	0	1	0	0	1	22931,20	-0,100000001	2,0930028	-0,00027770822912661562	-0,099974963695997837	0,000209247883	-0,210779202872044	0,0078644554548082778	0,210779202872044
1	0	0	1	0	0	1	23161,20	-0,100000001	2,09319353	-0,0002777075468637049	-0,099974718081347021	0,000209266436	-0,21716648638393018	0,0081027735904307674	0,21716648638393018
1	0	0	1	0	0	1	23391,20	-0,100000001	2,09307909	-0,00027770788201358586	-0,099974838735305613	0,000209255246	-0,22355376384817549	0,0083410915004076454	0,22355376384817549
1	0	0	1	0	0	1	23621,20	-0,100000001	2,09302187	-0,0002777082421849999	-0,099974968397016256	0,000209249789	-0,22994105586897318	0,008579409953509065	0,22994105586897318
1	0	0	1	0	0	1	23851,20	-0,100000001	2,09279299	-0,00027770770973091322	-0,09997477671354272	0,000209226506	-0,23632834691787667	0,0088177283703478054	0,23632834691787667
1	0	0	1	0	0	1	24081,20	-0,100000001	2,09288836	-0,00027770751547482278	-0,099974706781349325	0,000209235906	-0,24271562411128301	0,0090560462702193178	0,24271562411128301
1	0	0	1	0	0	1	24311,20	-0,100000001	2,0926404	-0,00027770815415183702	-0,099974936705077222	0,00020921159	-0,24910289650530685	0,0092943639910194163	0,24910289650530685
1	0	0	1	0	0	1	24541,20	-0,100000001	2,09267855	-0,00027770809724388851	-0,099974916218215514	0,000209215359	-0,2554901756875343	0,0095326819650965184	0,2554901756875343
1	0	0	1	0	0	1	24771,20	-0,100000001	2,09241152	-0,00027770711975006595	-0,099974564320435136	0,000209187929	-0,26187744823812714	0,0097709996917384166	0,26187744823812714
1	0	0	1	0	0	1	25001,20	-0,100000001	2,09204912	-0,00027770734182952179	-0,099974644269040205	0,000209151869	-0,26826471692156438	0,010009317274091542	0,26826471692156438
1	0	0	1	0	0	1	25231,20	-0,100000001	2,09180117	-0,00027770790317447648	-0,099974846353226342	0,000209127495	-0,27465198153990202	0,010247634704770331	0,27465198153990202
1	0	0	1	0	0	1	25461,20	-0,100000001	2,09145784	-0,00027770782998783718	-0,099974820006035878	0,000209093123	-0,28103925682325814	0,010485952533375304	0,28103925682325814
1	0	0	1	0	0	1	25691,20	-0,100000001	2,09120989	-0,00027770741368912992	-0,09997467013849943	0,000209068021	-0,28742653513675658	0,010724270475038957	0,28742653513675658
1	0	0	1	0	0	1	25921,20	-0,100000001	2,0906949	-0,00027770743099972608	-0,099974676370314125	0,000209016551	-0,2938137988100265	0,010962587870456002	0,2938137988100265
1	0	0	1	0	0	1	26151,20	-0,100000001	2,09035158	-0,00027770748166036272	-0,099974694608143539	0,000208982266	-0,30020107237449299	0,011200905634926891	0,30020107237449299
1	0	0	1	0	0	1	26381,20	-0,100000001	2,08991289	-0,00027770729937156038	-0,099974628984173914	0,000208938261	-0,30658834610627686	0,011439223405640614	0,30658834610627686
1	0	0	1	0	0	1	26611,20	-0,100000001	2,0894742	-0,00027770661031413411	-0,099974380923497446	0,000208893893	-0,31297561113635258	0,011677540851681907	0,31297561113635258
1	0	0	1	0	0	1	26841,20	-0,100000001	2,08838701	-0,00027770749431517389	-0,099974699163875622	0,000208785859	-0,31936287321247706	0,011915858187507307	0,31936287321247706
1	0	0	1	0	0	1	27071,20	-0,100000001	2,08811998	-0,00027770781091642048	-0,099974813140325773	0,000208759404	-0,32575014347535366	0,012154175828791437	0,32575014347535366
1	0	0	1	0	0	1	27301,20	-0,100000001	2,08752871	-0,00027770798377402957	-0,099974875369065792	0,000208700425	-0,33213742852273818	0,012392494021705437	0,33213742852273818
1	0	0	1	0	0	1	27531,20	-0,100000001	2,08688021	-0,00027770872297758854	-0,099975141482350246	0,000208636149	-0,33852471883826893	0,012630812411181053	0,33852471883826893
1	0	0	1	0	0	1	27761,20	-0,100000001	2,08596468	-0,00027770781260356307	-0,099974813747697126	0,000208543934	-0,34491200569259098	0,012869130671514322	0,34491200569259098
1	0	0	1	0	0	1	27991,20	-0,100000001	2,08535433	-0,00027770675790309907	-0,099974434055525491	0,000208482117	-0,3512992667038384	0,013107447967607726	0,3512992667038384
1	0	0	1	0	0	1	28221,20	-0,100000001	2,08474398	-0,00027770827946149642	-0,099974981816555162	0,000208422236	-0,35768653874409504	0,013345765675208294	0,35768653874409504
1	0	0	1	0	0	1	28451,20	-0,100000001	2,0838666	-0,0002777075683015088	-0,099974725798956531	0,000208333993	-0,36407382823307136	0,013584084033844053	0,36407382823307136
1	0	0	1	0	0	1	28681,20	-0,100000001	2,08325624	-0,00027770777221065427	-0,099974799206249766	0,000208273123	-0,37046110119733888	0,013822401775920712	0,37046110119733888
1	0	0	1	0	0	1	28911,20	-0,100000001	2,08211184	-0,00027770729006537133	-0,099974625633945805	0,000208158352	-0,37684837323398854	0,014060719483386701	0,37684837323398854
1	0	0	1	0	0	1	29141,20	-0,100000001	2,08188295	-0,0002777070565948056	-0,099974541584541133	0,000208135287	-0,38323563902545645	0,014299036957836557	0,38323563902545645
1	0	0	1	0	0	1	29371,20	-0,100000001	2,0812726	-0,00027770673743718202	-0,099974426687795251	0,000208074038	-0,38962289733880064	0,014537354153267565	0,38962289733880064
1	0	0	1	0	0	1	29601,20	-0,100000001	2,0806241	-0,00027770700900629162	-0,099974524452675891	0,000208009398	-0,39601015775071795	0,014775671426999162	0,39601015775071795
1	0	0	1	0	0	1	29831,20	-0,100000001	2,07972765	-0,00027770738419931795	-0,099974659522167014	0,000207920064	-0,40239742246629395	0,015013988861306045	0,40239742246629395
1	0	0	1	0	0	1	30061,20	-0,100000001	2,07896471	-0,00027770707806282576	-0,099974549313028493	0,000207843565	-0,40878468667290586	0,015252306276622797	0,40878468667290586
1	0	0	1	0	0	1	30291,20	-0,100000001	2,07808733	-0,00027770734088040061	-0,09997464392735657	0,000207756035	-0,41517195440591066	0,01549062382351401	0,41517195440591066
1	0	0	1	0	0	1	30521,20	-0,100000001	2,07720995	-0,00027770720769092438	-0,09997459597914455	0,000207668229	-0,42155922383237568	0,015728941433590496	0,42155922383237568
1	0	0	1	0	0	1	30751,20	-0,100000001	2,07656169	-0,00027770659181227286	-0,099974374262827315	0,000207602949	-0,42794647942691974	0,015967258527579418	0,42794647942691974
1	0	0	1	0	0	1	30981,20	-0,100000001	2,07568431	-0,0002777071595672104	-0,099974578654607296	0,000207515666	-0,4343337432796009	0,016205575929690541	0,4343337432796009
1	0	0	1	0	0	1	31211,20	-0,100000001	2,074826	-0,00027770648391958742	-0,099974335421460083	0,000207429344	-0,44072099944646381	0,016443893045033446	0,44072099944646381
1	0	0	1	0	0	1	31441,20	-0,100000001	2,07404399	-0,0002777075940163599	-0,099974735056303027	0,000207352001	-0,44710826742470304	0,016682210601074682	0,44710826742470304
1	0	0	1	0	0	1	31671,20	-0,100000001	2,07330012	-0,0002777072315886617	-0,099974604582330086	0,000207277364	-0,45349553770212627	0,016920528242901568	0,45349553770212627
1	0	0	1	0	0	1	31901,20	-0,100000001	2,07255626	-0,00027770730748110349	-0,099974631903609459	0,000207203047	-0,45988280116401696	0,01715884563043177	0,45988280116401696
1	0	0	1	0	0	1	32131,20	-0,100000001	2,07169795	-0,00027770646103223168	-0,099974327182011917	0,000207116609	-0,46627006191189971	0,017397162916698682	0,46627006191189971
1	0	0	1	0	0	1	32361,20	-0,100000001	2,07083964	-0,00027770829682010742	-0,099974988065655206	0,000207032164	-0,47265732450938106	0,017635480271976611	0,47265732450938106
1	0	0	1	0	0	1	32591,20	-0,100000001	2,06994319	-0,00027770710278550784	-0,099974558213194138	0,000206941651	-0,47904459927189267	0,017873798081148176	0,47904459927189267
1	0	0	1	0	0	1	32821,20	-0,100000001	2,06906581	-0,00027770774049560227	-0,099974786392199258	0,000206854413	-0,485431879477056	0,018112116093392387	0,485431879477056
1	0	0	1	0	0	1	33051,20	-0,100000001	2,06839824	-0,00027770770917129187	-0,099974775115447539	0,000206787648	-0,49181915591958381	0,018350433965247613	0,49181915591958381
1	0	0	1	0	0	1	33281,20	-0,100000001	2,06771159	-0,00027770742842265302	-0,099974674045937741	0,000206718789	-0,49820641806280627	0,018588751303576528	0,49820641806280627
1	0	0	1	0	0	1	33511,20	-0,100000001	2,06675792	-0,00027770747200523814	-0,099974689735668352	0,000206623488	-0,50459369852982592	0,018827069325590957	0,50459369852982592
1	0	0	1	0	0	1	33741,20	-0,100000001	2,06595683	-0,00027770746147094499	-0,099974685943322829	0,00020654338	-0,5109809647716167	0,01906538681684297	0,5109809647716167
1	0	0	1	0	0	1	33971,20	-0,100000001	2,06490779	-0,00027770749381101792	-0,099974697585749082	0,000206438533	-0,51736823412684352	0,019303704424261466	0,51736823412684352
1	0	0	1	0	0	1	34201,20	-0,100000001	2,06408763	-0,00027770708385730784	-0,099974550002413722	0,000206356228	-0,52375549701354963	0,019542021790330755	0,52375549701354963
1	0	0	1	0	0	1	34431,20	-0,100000001	2,06290507	-0,00027770727982951539	-0,099974620552408294	0,000206238154	-0,5301427600733081	0,019780339162856861	0,5301427600733081
1	0	0	1	0	0	1	34661,20	-0,100000001	2,06244731	-0,00027770712681735558	-0,099974565468030874	0,000206192271	-0,53653002635396717	0,020018656655559104	0,53653002635396717
1	0	0	1	0	0	1	34891,20	-0,100000001	2,06141734	-0,00027770663020056157	-0,099974386685985344	0,000206088938	-0,5429172789410841	0,02025697363733687	0,5429172789410841
1	0	0	1	0	0	1	35121,20	-0,100000001	2,06057811	-0,00027770686299064093	-0,099974470490413773	0,000206005207	-0,54930452850236544	0,020495290506216646	0,54930452850236544
1	0	0	1	0	0	1	35351,20	-0,100000001	2,0593574	-0,00027770725963720016	-0,099974613283174835	0,000205883465	-0,55569179184053677	0,020733607889130714	0,55569179184053677
1	0	0	1	0	0	1	35581,20	-0,100000001	2,05798411	-0,00027770678285674915	-0,0999744416422128	0,000205745819	-0,56207904211608928	0,020971924784660909	0,56207904211608928
1	0	0	1	0	0	1	35811,20	-0,100000001	2,05697322	-0,00027770767832381859	-0,099974764010357184	0,00020564541	-0,5684662950492999	0,021210241779351901	0,5684662950492999
1	0	0	1	0	0	1	36041,20	-0,100000001	2,055619	-0,000277707316349364	-0,099974633699553766	0,000205509758	-0,5748535598049904	0,021448559215155514	0,5748535598049904
1	0	0	1	0	0	1	36271,20	-0,100000001	2,05464625	-0,00027770761628283392	-0,099974741675602752	0,000205412725	-0,5812408279348215	0,021686876776852848	0,5812408279348215
1	0	0	1	0	0	1	36501,20	-0,100000001	2,05329204	-0,00027770756564413507	-0,099974723445671194	0,000205277305	-0,58762811118830374	0,021925194902833939	0,58762811118830374
1	0	0	1	0	0	1	36731,20	-0,100000001	2,05224299	-0,0002777067081199752	-0,099974414736974221	0,000205171789	-0,59401537677972621	0,022163512369819834	0,59401537677972621
1	0	0	1	0	0	1	36961,20	-0,100000001	2,05111766	-0,00027770774598792195	-0,099974788369434355	0,00020506006	-0,60040264985041075	0,022401830115867056	0,60040264985041075
1	0	0	1	0	0	1	37191,20	-0,100000001	2,04978251	-0,00027770817384537722	-0,099974942398117965	0,000204926895	-0,60678992278368077	0,022640147856787155	0,60678992278368077
1	0	0	1	0	0	1	37421,20	-0,100000001	2,04854274	-0,00027770698602497578	-0,099974514782774234	0,000204802069	-0,61317719479476429	0,022878465563299235	0,61317719479476429
1	0	0	1	0	0	1	37651,20	-0,100000001	2,04755092	-0,00027770694284141066	-0,099974499236690816	0,000204702883	-0,61956446033562266	0,023116783028398512	0,61956446033562266
1	0	0	1	0	0	1	37881,20	-0,100000001	2,0458343	-0,00027770726109958355	-0,099974613809632845	0,00020453149	-0,62595172640221517	0,023355100513113642	0,62595172640221517
1	0	0	1	0	0	1	38111,20	-0,100000001	2,04415584	-0,00027770673286666474	-0,099974423645782438	0,000204363299	-0,63233899416769536	0,023593418061216554	0,63233899416769536
1	0	0	1	0	0	1	38341,20	-0,100000001	2,04289699	-0,0002777076702573233	-0,099974761106418893	0,000204238138	-0,63872626531660109	0,023831735735559622	0,63872626531660109
1	0	0	1	0	0	1	38571,20	-0,100000001	2,0417335	-0,00027770735871336531	-0,099974648950594214	0,000204121592	-0,64511352935630118	0,024070053144648669	0,64511352935630118
1	0	0	1	0	0	1	38801,20	-0,100000001	2,04030299	-0,00027770815325611168	-0,099974934985982374	0,000203979158	-0,65150079942960307	0,02430837077885951	0,65150079942960307
1	0	0	1	0	0	1	39031,20	-0,100000001	2,03845286	-0,00027770821774047283	-0,099974958200352346	0,000203794247	-0,65788808676317184	0,024546689057074115	0,65788808676317184
1	0	0	1	0	0	1	39261,20	-0,100000001	2,03681254	-0,00027770771348848941	-0,099974776669638656	0,000203629883	-0,66427536647753126	0,024785007051005776	0,66427536647753126
1	0	0	1	0	0	1	39491,20	-0,100000001	2,03534412	-0,00027770806279198992	-0,099974902418898598	0,000203483331	-0,67066264515391194	0,025023325006209056	0,67066264515391194
1	0	0	1	0	0	1	39721,20	-0,100000001	2,03376102	-0,00027770743761542771	-0,099974677355336614	0,000203324598	-0,67704992544670733	0,025261643021722944	0,67704992544670733
1	0	0	1	0	0	1	39951,20	-0,100000001	2,03240681	-0,00027770781147231661	-0,099974811943816384	0,000203189484	-0,68343719758651482	0,025499960733037885	0,68343719758651482
1	0	0	1	0	0	1	40181,20	-0,100000001	2,03051853	-0,00027770713223848077	-0,099974567419635942	0,000203000207	-0,68982446573393139	0,02573827829539136	0,68982446573393139
1	0	0	1	0	0	1	40411,20	-0,100000001	2,02891636	-0,00027770730602575674	-0,099974629983055168	0,000202840165	-0,6962117322194679	0,02597659579573785	0,6962117322194679
1	0	0	1	0	0	1	40641,20	-0,100000001	2,02714252	-0,00027770701564889818	-0,099974525447386278	0,000202662617	-0,7025989987423479	0,026214913297477677	0,7025989987423479
1	0	0	1	0	0	1	40871,20	-0,100000001	2,02515888	-0,00027770748139669501	-0,099974693116592819	0,000202464638	-0,70898626347238246	0,026453230732324032	0,70898626347238246
1	0	0	1	0	0	1	41101,20	-0,100000001	2,02292728	-0,00027770664630499152	-0,099974392483580134	0,000202240932	-0,7153735265138144	0,026691548104166352	0,7153735265138144
1	0	0	1	0	0	1	41331,20	-0,100000001	2,02077198	-0,00027770709782880211	-0,099974555032151629	0,000202025782	-0,72176078262561306	0,026929865217454739	0,72176078262561306
1	0	0	1	0	0	1	41561,20	-0,100000001	2,01817799	-0,00027770668807542989	-0,099974407520937907	0,000201766146	-0,72814804691983475	0,027168182636040326	0,72814804691983475
1	0	0	1	0	0	1	41791,20	-0,100000001	2,01541233	-0,00027770667752085459	-0,099974403721290816	0,000201489645	-0,73453530985934336	0,02740650000407975	0,73453530985934336
1	0	0	1	0	0	1	42021,20	-0,100000001	2,01188374	-0,00027770758078371488	-0,099974728895919923	0,000201137533	-0,74092258128775629	0,02764481768885161	0,74092258128775629
1	0	0	1	0	0	1	42251,20	-0,100000001	2,00862217	-0,00027770703284028506	-0,099974531636285542	0,00020081106	-0,74730984981287923	0,027883135265297811	0,74730984981287923
1	0	0	1	0	0	1	42481,20	-0,100000001	2,00436878	-0,00027770729521827565	-0,099974626092361971	0,000200386014	-0,75369711385878298	0,02812145267461833	0,75369711385878298
1	0	0	1	0	0	1	42711,20	-0,100000001	1,99900913	-0,00027770635520873798	-0,09997428768892905	0,000199849514	-0,76008438304890995	0,028359770275876723	0,76008438304890995
1	0	0	1	0	0	1	42941,20	-0,100000001	1,99261963	-0,00027770764531484912	-0,099974752127128192	0,000199211659	-0,76647164831446618	0,028598087730704115	0,76647164831446618
1	0	0	1	0	0	1	43171,20	-0,100000001	1,98460877	-0,00027770629035971232	-0,099974264343279846	0,000198409805	-0,77285890445406464	0,028836404845029741	0,77285890445406464
1	0	0	1	0	0	1	43401,20	-0,100000001	1,97484314	-0,00027770582913152045	-0,099974098301131085	0,000197433168	-0,77924615195883597	0,029074721637178368	0,77924615195883597
1	0	0	1	0	0	1	43631,20	-0,100000001	1,9615109	-0,00027770640693977475	-0,099974306312102259	0,000196100693	-0,78563340178332774	0,02931303851587888	0,78563340178332774
1	0	0	1	0	0	1	43861,20	-0,100000001	1,94073999	-0,00027770654925910963	-0,09997435754706272	0,000194024236	-0,79202064904142746	0,029551355298823853	0,79202064904142746
1	0	0	1	0	0	1	44091,20	-0,100000001	1,90907824	-0,00027770661426128611	-0,099974380947846208	0,000190858918	-0,79840790127484966	0,0297896722674048	0,79840790127484966
1	0	0	1	0	0	1	44321,20	-0,100000001	1,84653664	-0,00027770669615517062	-0,099974410429644582	0,000184606411	-0,80479515748185779	0,030027989384245581	0,80479515748185779
1	0	0	1	0	0	1	44551,20	-0,100000001	1,73810446	-0,00027770571794981754	-0,099974058275718118	0,000173765351	-0,81118241477388659	0,030266306541569939	0,81118241477388659
1	0	0	1	0	0	1	44781,20	-0,100000001	1,55095649	-0,00027770611650662288	-0,099974201756167782	0,000155055634	-0,81756966099115699	0,030504623285680173	0,81756966099115699
1	0	0	1	0	0	1	45011,20	-0,100000001	1,44166613	-0,00027770618379529981	-0,099974225980091405	0,000144129459	-0,82395690316982118	0,030742939879104576	0,82395690316982118
1	0	0	1	0	0	1	45241,20	-0,100000001	1,3578577	-0,00027770708608958454	-0,099974550806033318	0,000135751208	-0,8303441561643712	0,030981256876084224	0,8303441561643712
1	0	0	1	0	0	1	45471,20	-0,100000001	1,27326727	-0,00027770690236530368	-0,099974484665292339	0,000127294246	-0,83673140901305318	0,031219573867621338	0,83673140901305318
1	0	0	1	0	0	1	45701,20	-0,100000001	1,17303669	-0,00027770695703311098	-0,099974504345702925	0,000117273761	-0,84311865816042726	0,031457890721057683	0,84311865816042726
1	0	0	1	0	0	1	45931,20	-0,100000001	1,05558276	-0,00027770714688590832	-0,09997457269270985	0,000105531435	-0,84950591755360256	0,031696207956778637	0,84950591755360256
1	1	0	0	0	0	2	46149,96	0,100000001	2,28520513	0,0002778058797398375	0,10001011652005814	0,000228543635	-0,85002602453005594	0,031715613847361376	0,0027780632280281024
1	1	0	0	0	0	2	46379,96	0,100000001	2,33077145	0,00027780628333364925	0,10001026181383011	0,000233101062	-0,84363649130906099	0,031477211772067277	0,0091675964490233203
1	1	0	0	0	0	2	46609,96	0,100000001	2,309829	0,00027780581375749574	0,10001009276641517	0,000231006212	-0,83724695890671936	0,031238809727318227	0,015557128851364883
1	1	0	0	0	0	2	46839,96	0,100000001	2,29834676	0,00027780649106245904	0,10001033659620149	0,00022985843	-0,83085741363948058	0,031000407202562566	0,021946674118603677
1	1	0	0	0	0	2	47069,96	0,100000001	2,29310155	0,00027780628331336707	0,10001026180652853	0,000229333687	-0,82446787234670566	0,030762004826099501	0,028336215411378275
1	1	0	0	0	0	2	47299,96	0,100000001	2,29252934	0,00027780555058519046	0,10000999802438542	0,000229275858	-0,81807833666436314	0,03052360265896921	0,034725751093720806
1	1	0	0	0	0	2	47529,96	0,100000001	2,29298711	0,00027780638504897558	0,10001029843134749	0,000229322322	-0,81168879196051187	0,030285200155234298	0,041115295797571962
1	1	0	0	0	0	2	47759,96	0,100000001	2,29302526	0,00027780629579929837	0,10001026630146378	0,000229326062	-0,80529923830643763	0,030046797317554528	0,047504849451646227
1	1	0	0	0	0	2	47989,96	0,100000001	2,29344487	0,00027780687102261517	0,10001047338185744	0,00022936851	-0,7989096878081376	0,029808394597620947	0,053894399949946362
1	1	0	0	0	0	2	48219,96	0,100000001	2,29354024	0,00027780679855868221	0,10001044729484163	0,000229377983	-0,79252013704882624	0,029569991867948672	0,060283950709257715
1	1	0	0	0	0	2	48449,96	0,100000001	2,29333043	0,00027780624713997046	0,10001024878410576	0,000229356549	-0,78613058412132787	0,029331589057378432	0,066673503636756301
1	1	0	0	0	0	2	48679,96	0,100000001	2,2918427	0,00027780675226201616	0,10001043062804187	0,000229208177	-0,77974104637177933	0,029093186813117901	0,073063041386305037
1	1	0	0	0	0	2	48909,96	0,100000001	2,29081273	0,00027780593380497562	0,10001013598350782	0,000229104495	-0,7733514991478368	0,028854784215354995	0,079452588610247578
1	1	0	0	0	0	2	49139,96	0,100000001	2,2889626	0,00027780788974919248	0,10001084012342459	0,000228921068	-0,76696193645871296	0,028616381040565379	0,085842151299371482
1	1	0	0	0	0	2	49369,96	0,100000001	2,28739858	0,00027780741795607738	0,10001067027790346	0,000228764271	-0,76057236734323558	0,028377977625999875	0,092231720414849216
1	1	0	0	0	0	2	49599,96	0,100000001	2,28535771	0,0002778068108993272	0,10001045173747381	0,000228559657	-0,75418280409381914	0,028139574430304989	0,098621283664265869
1	1	0	0	0	0	2	49829,96	0,100000001	2,28343129	0,00027780706849156154	0,100010544470678	0,000228367207	-0,74779324218073933	0,027901171284470624	0,10501084557734554
1	1	0	0	0	0	2	50059,96	0,100000001	2,28112364	0,00027780656521146499	0,10001036328984357	0,000228136007	-0,74140368672768691	0,02766276837966856	0,11140040103039805
1	1	0	0	0	0	2	50289,96	0,100000001	2,2790637	0,00027780811459239984	0,10001092106697907	0,000227931261	-0,7350141330648512	0,027424365541661894	0,11778995469323376
1	1	0	0	0	0	2	50519,96	0,100000001	2,27723265	0,00027780680406962829	0,10001044927878221	0,000227747063	-0,72862458039166438	0,027185962740580358	0,12417950736642045
1	1	0	0	0	0	2	50749,96	0,100000001	2,27540159	0,00027780619630672864	0,10001023048413875	0,000227563432	-0,72223502986021632	0,026947560019409974	0,13056905789786861
1	1	0	0	0	0	2	50979,96	0,100000001	2,27397108	0,00027780592719755235	0,10001013360483546	0,000227420154	-0,71584547661350579	0,026709157196929498	0,13695861114457896
1	1	0	0	0	0	2	51209,96	0,100000001	2,27261686	0,00027780666570779354	0,10001039946852179	0,000227285316	-0,70945592508869952	0,026470754438695578	0,14334816266938526
1	1	0	0	0	0	2	51439,96	0,100000001	2,2715106	0,00027780603845293325	0,10001017365677251	0,000227174169	-0,70306637720375232	0,026232351816269702	0,14973771055433254
1	1	0	0	0	0	2	51669,96	0,100000001	2,27025175	0,00027780691476787126	0,1000104891301496	0,000227048993	-0,6966768257131671	0,025993949059312624	0,15612726204491754
1	1	0	0	0	0	2	51899,96	0,100000001	2,26950788	0,00027780564511815709	0,10001003205625334	0,000226973556	-0,69028728353917171	0,025755546649970029	0,16251680421891283
1	1	0	0	0	0	2	52129,96	0,100000001	2,26916456	0,00027780631025756397	0,10001027150643939	0,000226939766	-0,68389774253488128	0,02551714428427071	0,16890634522320304
1	1	0	0	0	0	2	52359,96	0,100000001	2,26845884	0,00027780528426211744	0,10000990214807931	0,000226868346	-0,67750820428108006	0,025278742021195834	0,17529588347700422
1	1	0	0	0	0	2	52589,96	0,100000001	2,26824903	0,00027780596608047683	0,10001014760268824	0,000226847915	-0,67111867383592384	0,025040340049472003	0,18168541392216019
1	1	0	0	0	0	2	52819,96	0,100000001	2,26824903	0,00027780619207107357	0,10001022895930291	0,000226848104	-0,66472914593463821	0,024801938172663408	0,18807494182344586
1	1	0	0	0	0	2	53049,96	0,100000001	2,26807737	0,00027780593439605501	0,10001013619629642	0,000226830729	-0,65833960960667226	0,024563535981444038	0,19446447815141181
1	1	0	0	0	0	2	53279,96	0,100000001	2,26803923	0,00027780617290362714	0,10001022205902224	0,000226827106	-0,65195008429935795	0,024325134201419997	0,20085400345872608
1	1	0	0	0	0	2	53509,96	0,100000001	2,26790571	0,00027780566799019776	0,10001004029018798	0,000226813339	-0,64556054674430694	0,024086731964416435	0,20724354101377702
1	1	0	0	0	0	2	53739,96	0,100000001	2,26790571	0,00027780644515694842	0,1000103200702177	0,00022681398	-0,63917100556588634	0,02384832959222008	0,21363308219219766
1	1	0	0	0	0	2	53969,96	0,100000001	2,26821089	0,00027780693858158259	0,10001049770308566	0,000226844902	-0,63278145253674995	0,023609926777857581	0,22002263522133421
1	1	0	0	0	0	2	54199,96	0,100000001	2,26849699	0,00027780617952222627	0,10001022444171787	0,0002268729	-0,62639190385649024	0,023371524125757526	0,22641218390159376
1	1	0	0	0	0	2	54429,96	0,100000001	2,26874495	0,00027780601473483773	0,10001016511825814	0,000226897551	-0,62000235826153024	0,02313312158877415	0,23280172949655382
1	1	0	0	0	0	2	54659,96	0,100000001	2,26914549	0,00027780664382047117	0,10001039158908576	0,000226938122	-0,61361282034588403	0,022894719338316291	0,23919126741219997
1	1	0	0	0	0	2	54889,96	0,100000001	2,26956511	0,00027780585017593373	0,10001010587705278	0,00022697945	-0,60722327292548672	0,022656316733223395	0,24558081483259734
1	1	0	0	0	0	2	55119,96	0,100000001	2,27008009	0,00027780697136496506	0,10001050950510333	0,000227031866	-0,60083372807102643	0,022417914223869056	0,25197035968705782
1	1	0	0	0	0	2	55349,96	0,100000001	2,27044249	0,00027780701871878573	0,10001052655247874	0,000227068143	-0,59444417066517798	0,022179511246205552	0,25835991709290624
1	1	0	0	0	0	2	55579,96	0,100000001	2,2708621	0,00027780758091145091	0,10001072894183782	0,000227110577	-0,58805460671203738	0,02194110802425377	0,26474948104604678
1	1	0	0	0	0	2	55809,96	0,100000001	2,27160597	0,00027780620113801626	0,10001023222340227	0,000227183846	-0,58166504731899354	0,021702704972445334	0,27113904043909053
1	1	0	0	0	0	2	56039,96	0,100000001	2,27221632	0,00027780645755802592	0,10001032453460558	0,000227245095	-0,57527549734319494	0,021464302272006976	0,27752859041488931
1	1	0	0	0	0	2	56269,96	0,100000001	2,27271223	0,00027780679982486694	0,10001044775066813	0,000227294964	-0,56888593810932397	0,021225899226137494	0,28391814964876022
1	1	0	0	0	0	2	56499,96	0,100000001	2,2733798	0,0002778063842472103	0,100010298142712	0,000227361394	-0,56249638600271725	0,020987496446195821	0,29030770175536666
1	1	0	0	0	0	2	56729,96	0,100000001	2,27406645	0,00027780540282569002	0,10000994483096536	0,000227429264	-0,55610684887208173	0,02074909422502777	0,29669723888600243
1	1	0	0	0	0	2	56959,96	0,100000001	2,27488661	0,00027780611620677843	0,1000102016481567	0,000227511875	-0,54971732006041094	0,020510692314251478	0,30308676769767334
1	1	0	0	0	0	2	57189,96	0,100000001	2,27547789	0,00027780579521134496	0,10001008608980088	0,000227570737	-0,54332778875907482	0,020272290310582426	0,30947629899900954
1	1	0	0	0	0	2	57419,96	0,100000001	2,27618361	0,00027780637479366525	0,10001029473943581	0,000227641794	-0,53693825949484474	0,020033888382920538	0,31586582826323994
1	1	0	0	0	0	2	57649,96	0,100000001	2,27685118	0,00027780605820400848	0,10001018076715958	0,000227708297	-0,53054872211341139	0,019795486152394886	0,32225536564467328
1	1	0	0	0	0	2	57879,96	0,100000001	2,27786207	0,00027780675259812013	0,1000104307490393	0,000227809971	-0,5241591768635001	0,019557083628285738	0,32864491089458451
1	1	0	0	0	0	2	58109,96	0,100000001	2,27856779	0,00027780669153440326	0,10001040876610128	0,00022788049	-0,51776962396494899	0,019318680818795552	0,33503446379313613
1	1	0	0	0	0	2	58339,96	0,100000001	2,27944517	0,00027780664214491843	0,10001039098588677	0,000227968208	-0,5113800752714368	0,019080278166201027	0,34142401248664813
1	1	0	0	0	0	2	58569,96	0,100000001	2,2802844	0,00027780819135366214	0,10001094870103346	0,00022805341	-0,50499051861190157	0,018841875216383475	0,34781356914618298
1	1	0	0	0	0	2	58799,96	0,100000001	2,28118086	0,00027780715778552829	0,10001057661650595	0,00022814222	-0,49860095477176877	0,018603471998648166	0,35420313298631546
1	1	0	0	0	0	2	59029,96	0,100000001	2,28177214	0,00027780702799144714	0,10001052989063685	0,000228201243	-0,49221138694210387	0,018365068632058054	0,36059270081598035
1	1	0	0	0	0	2	59259,96	0,100000001	2,28259206	0,00027780607072098387	0,1000101852732707	0,000228282457	-0,48582183355104102	0,0181266658041916	0,3669822542070432
1	1	0	0	0	0	2	59489,96	0,100000001	2,28398442	0,00027780657450068326	0,10001036663396214	0,000228422126	-0,4794322801701104	0,01788826297670319	0,37337180758797376
1	1	0	0	0	0	2	59719,96	0,100000001	2,28455663	0,00027780575586358704	0,10001007192460808	0,000228478675	-0,47304271874416659	0,017649859849044518	0,37976136901391763
1	1	0	0	0	0	2	59949,96	0,100000001	2,28573918	0,00027780729442255363	0,10001062580583502	0,000228598205	-0,4666531665071447	0,01741145706423688	0,38615092125093946
1	1	0	0	0	0	2	60179,96	0,100000001	2,28669286	0,00027780724224779341	0,10001060702292136	0,000228693534	-0,46026360600005747	0,017173053970861987	0,39254048175802669
1	1	0	0	0	0	2	60409,96	0,100000001	2,28755116	0,00027780701481882074	0,10001052514849133	0,000228779187	-0,4538740425354983	0,016934650767139837	0,39893004522258592
1	1	0	0	0	0	2	60639,96	0,100000001	2,28842854	0,0002778066097998784	0,1000103793416724	0,0002288666	-0,44748448407007226	0,016696247749942067	0,40531960368801197
1	1	0	0	0	0	2	60869,96	0,100000001	2,28938222	0,00027780684444391066	0,10001046381352384	0,000228962177	-0,44109492750967078	0,016457844803823328	0,41170916024841344
1	1	0	0	0	0	2	61099,96	0,100000001	2,29056478	0,00027780645217125613	0,10001032259536846	0,00022908012	-0,43470537107063206	0,01621944186223279	0,41809871668745216
1	1	0	0	0	0	2	61329,96	0,100000001	2,29144216	0,00027780682596315942	0,10001045716045341	0,000229168174	-0,42831581842160928	0,015981039062052845	0,42448826933647494
1	1	0	0	0	0	2	61559,96	0,100000001	2,2931397	0,00027780740034580227	0,10001066393820445	0,000229338417	-0,42192625712548378	0,015742635939237872	0,43087783063260045
1	1	0	0	0	0	2	61789,96	0,100000001	2,29390264	0,0002778072642994424	0,10001061496151496	0,000229414611	-0,4155366951609607	0,015504232791484086	0,43726739259712352
1	1	0	0	0	0	2	62019,96	0,100000001	2,295295	0,00027780747479076186	0,10001069073838986	0,000229554033	-0,40914712822271558	0,015265829458154045	0,44365695953536858
1	1	0	0	0	0	2	62249,96	0,100000001	2,29609609	0,00027780641804552742	0,10001031031010614	0,000229633282	-0,40275757913084627	0,015027426790696278	0,45004650862723795
1	1	0	0	0	0	2	62479,96	0,100000001	2,29733586	0,00027780708724922605	0,1000105512234372	0,000229757832	-0,39636802464586912	0,01478902392201441	0,4564360631122151
1	1	0	0	0	0	2	62709,96	0,100000001	2,29823232	0,00027780756731331344	0,10001072404650837	0,000229847879	-0,38997847363643859	0,014550621183009856	0,46282561412164563
1	1	0	0	0	0	2	62939,96	0,100000001	2,29966283	0,00027780644035463533	0,10001031834138498	0,000229990008	-0,38358891321645485	0,01431221809288491	0,46921517454162938
1	1	0	0	0	0	2	63169,96	0,100000001	2,30025411	0,00027780735325896074	0,10001064698694154	0,000230049904	-0,37719935885156429	0,014073815228683632	0,47560472890651987
1	1	0	0	0	0	2	63399,96	0,100000001	2,30132222	0,0002778074897602201	0,10001069612739478	0,000230156831	-0,37080979479620128	0,013835412002917798	0,48199429296188288
1	1	0	0	0	0	2	63629,96	0,100000001	2,30300069	0,00027780844368081955	0,10001103953880997	0,000230325488	-0,3644202269121712	0,013597008634299246	0,48838386084591302
1	1	0	0	0	0	2	63859,96	0,100000001	2,30376363	0,00027780668256721562	0,10001040553791373	0,000230400328	-0,35803065537697722	0,013358605129450859	0,49477343238110701
1	1	0	0	0	0	2	64089,96	0,100000001	2,30555654	0,00027780702287124262	0,10001052804736323	0,000230579928	-0,35164109741520864	0,01312020213104523	0,50116299034287558
1	1	0	0	0	0	2	64319,96	0,100000001	2,30643392	0,00027780668963781661	0,10001040808333008	0,0002306674	-0,34525154945252902	0,012881799505719048	0,50755253830555514
1	1	0	0	0	0	2	64549,96	0,100000001	2,30801702	0,00027780661962636646	0,10001038287920808	0,000230825666	-0,33886200242553459	0,012643396915304542	0,5139420853325495
1	1	0	0	0	0	2	64779,96	0,100000001	2,30872273	0,00027780647226712771	0,10001032982988221	0,000230896127	-0,33247245482992109	0,012404994303674091	0,52033163292816307
1	1	0	0	0	0	2	65009,96	0,100000001	2,31055379	0,00027780612859668003	0,1000102061085213	0,000231078957	-0,32608291184413491	0,012166591864042496	0,52672117591394906
1	1	0	0	0	0	2	65239,96	0,100000001	2,31143117	0,00027780666303882995	0,1000103985076949	0,000231167156	-0,31969336605065651	0,01192818931965213	0,53311072170742746
1	1	0	0	0	0	2	65469,96	0,100000001	2,31295705	0,00027780585871098774	0,10001010894967224	0,000231319093	-0,31330381178563923	0,011689786459177258	0,53950027597244474
1	1	0	0	0	0	2	65699,97	0,100000001	2,3135674	0,00027781193133898906	0,10001031858574094	0,000231380618	-0,30691417767477248	0,011451380619546389	0,54588991008331155
1	1	0	0	0	0	2	65929,97	0,100000001	2,31495976	0,00027781256613549261	0,10001054744210611	0,000231520389	-0,30052449751013773	0,011212973061587514	0,55227959024794637
1	1	0	0	0	0	2	66159,97	0,100000001	2,31606603	0,00027781184731713597	0,10001028830005142	0,000231630431	-0,29413480925698246	0,010974565201835064	0,55866927850110157
1	1	0	0	0	0	2	66389,98	0,100000001	2,31742024	0,00027781160596220032	0,10001020156185154	0,000231765662	-0,28774513179555238	0,010736157744736392	0,56505895596253139
1	1	0	0	0	0	2	66619,98	0,100000001	2,31846929	0,00027781172441484195	0,10001024442865989	0,000231870683	-0,28135545605713946	0,010497750351925806	0,57144863170094419
1	1	0	0	0	0	2	66849,99	0,100000001	2,32007146	0,00027781197829792899	0,10001033545104067	0,000232031118	-0,27496578075163059	0,010259342975267453	0,57783830700645299
1	1	0	0	0	0	2	67079,99	0,100000001	2,3211205	0,00027781191626687843	0,10001031338255123	0,000232135993	-0,26857610404264298	0,010020935546243421	0,58422798371544051
1	1	0	0	0	0	2	67310,00	0,100000001	2,32239842	0,00027781143185744682	0,10001013911124315	0,000232263395	-0,26218642669336528	0,009782528093329303	0,59061766106471821
1	1	0	0	0	0	2	67540,00	0,100000001	2,32297039	0,00027781201277880198	0,10001034786507387	0,000232321079	-0,25579675882974378	0,0095441209943377728	0,59700732892833958
1	1	0	0	0	0	2	67770,01	0,100000001	2,3244772	0,00027781231318165856	0,10001045638052538	0,000232472026	-0,2494070785499351	0,0093057134320816051	0,60339700920814848
1	1	0	0	0	0	2	68000,01	0,100000001	2,32579327	0,00027781194238654438	0,10001032280494634	0,000232603328	-0,24301739065444259	0,0090673055856740326	0,6097866971036407
1	1	0	0	0	0	2	68230,02	0,100000001	2,3272047	0,00027781151755402486	0,10001016958782333	0,000232744133	-0,23662771152686822	0,0088288980664092774	0,6161763762312151
1	1	0	0	0	0	2	68460,02	0,100000001	2,32823467	0,00027781159942804109	0,10001019943546501	0,000232847218	-0,23023804810622835	0,0085904911331913664	0,62256603965185485
1	1	0	0	0	0	2	68690,02	0,100000001	2,32949352	0,00027781092332179344	0,10000995583595413	0,000232972539	-0,22384838150826637	0,0083520840814232922	0,62895570624981683
1	1	0	0	0	0	2	68920,03	0,100000001	2,33038998	0,00027781167093788586	0,10001022480594064	0,000233062819	-0,21745871775095744	0,0081136771356438067	0,63534537000712576
1	1	0	0	0	0	2	69150,03	0,100000001	2,33128643	0,00027781194584237203	0,10001032414215974	0,000233152707	-0,21106904770943152	0,0078752699553917338	0,6417350400486519
1	1	0	0	0	0	2	69380,04	0,100000001	2,33243084	0,00027781258217203949	0,10001055289847206	0,000233267696	-0,20467937359121478	0,0076368626230328461	0,64812471416686861
1	1	0	0	0	0	2	69610,04	0,100000001	2,33359432	0,00027781185426107706	0,10001029081961306	0,000233383442	-0,1982896946899448	0,0073984551122118093	0,65451439306813862
1	1	0	0	0	0	2	69840,05	0,100000001	2,3348341	0,00027781262067125901	0,1000105670748851	0,000233508079	-0,19190001319621213	0,0071600475046625062	0,66090407456187123
1	1	0	0	0	0	2	70070,05	0,100000001	2,33588314	0,00027781157163861728	0,1000101890589105	0,000233612111	-0,18551034180904928	0,0069216402742029107	0,66729374594903398
1	1	0	0	0	0	2	70300,06	0,100000001	2,3367033	0,00027781228522045744	0,10001044607718451	0,000233694736	-0,17912066225499216	0,0066832327390255091	0,67368342550309133
1	1	0	0	0	0	2	70530,06	0,100000001	2,33758068	0,00027781216200937824	0,1000104019595799	0,000233782383	-0,17273098883743971	0,0064448254328093478	0,68007309892064371
1	1	0	0	0	0	2	70760,07	0,100000001	2,33897305	0,00027781201123404832	0,10001034731013779	0,000233921513	-0,1663413155198752	0,006206418130323872	0,686462772238208
1	1	0	0	0	0	2	70990,07	0,100000001	2,33925915	0,0002778127955777777	0,10001062991410261	0,000233950777	-0,15995163719342784	0,00596801064095024	0,69285245056465574
1	1	0	0	0	0	2	71220,07	0,100000001	2,34046078	0,00027781235590411552	0,10001047176147021	0,000234070583	-0,15356195705865414	0,0057296030841055226	0,69924213069942963
1	1	0	0	0	0	2	71450,08	0,100000001	2,3417387	0,00027781250641867523	0,1000105255724979	0,000234198524	-0,14717227225065984	0,0054911953528966618	0,70563181550742349
1	1	0	0	0	0	2	71680,08	0,100000001	2,34250164	0,00027781175339677264	0,10001025484914203	0,000234274179	-0,14078259042593224	0,0052527877329974918	0,7120214973321513
1	1	0	0	0	0	2	71910,09	0,100000001	2,34376049	0,00027781220003838336	0,10001041557640338	0,000234400461	-0,13439291660714941	0,0050143804118108858	0,71841117115093414
1	1	0	0	0	0	2	72140,09	0,100000001	2,34440899	0,00027781199491065408	0,10001034143266774	0,000234465144	-0,12800324622534101	0,0047759732188624154	0,72480084153274266
1	1	0	0	0	0	2	72370,10	0,100000001	2,34543896	0,00027781236490110554	0,10001047500032262	0,000234568462	-0,12161356734407373	0,0045375657087877075	0,73119052041400986
1	1	0	0	0	0	2	72600,10	0,100000001	2,34692669	0,00027781188687847722	0,10001030272827834	0,000234716848	-0,11522387410887509	0,0042991576631485216	0,73758021364920858
1	1	0	0	0	0	2	72830,11	0,100000001	2,34831905	0,00027781307501138909	0,1000107302624113	0,0002348571	-0,10883420055683795	0,0040607503519145555	0,7439698872012457
1	1	0	0	0	0	2	73060,11	0,100000001	2,34902477	0,00027781217124437296	0,10001040528411229	0,00023492692	-0,10244452246199062	0,0038223428711822336	0,75035956529609331
1	1	0	0	0	0	2	73290,12	0,100000001	2,34971142	0,00027781287951519094	0,10001065995851901	0,000234996187	-0,096054839015459136	0,0035839351907713805	0,75674924874262477
1	1	0	0	0	0	2	73520,12	0,100000001	2,35173321	0,00027781254986880554	0,10001054121947482	0,000235198109	-0,089665150161951488	0,0033455273086189766	0,76313893759613222
1	1	0	0	0	0	2	73750,12	0,100000001	2,35259151	0,00027781266697827312	0,10001058374478968	0,000235284053	-0,083275471623075648	0,0031071198113193536	0,769528616135008
1	1	0	0	0	0	2	73980,13	0,100000001	2,35356426	0,00027781213733057178	0,10001039270398901	0,000235380881	-0,076885796505345011	0,0028687124416672582	0,77591829125273843
1	1	0	0	0	0	2	74210,13	0,100000001	2,35476589	0,00027781246223466266	0,10001050978241091	0,000235501342	-0,070496110234358426	0,0026303046558721878	0,78230797752372506
1	1	0	0	0	0	2	74440,14	0,100000001	2,35587215	0,00027781300144352848	0,10001070415106648	0,000235612431	-0,064106412436839782	0,0023918964400067082	0,78869767532124378
1	1	0	0	0	0	2	74670,14	0,100000001	2,35686398	0,00027781228598910896	0,10001044622000464	0,000235711021	-0,057716721894981312	0,0021534884948596656	0,79508736586310234
1	1	0	0	0	0	2	74900,15	0,100000001	2,35751247	0,00027781290149812896	0,10001066802590187	0,000235776402	-0,05132702980192521	0,0019150804918353533	0,80147705795615834
1	1	0	0	0	0	2	75130,15	0,100000001	2,35838985	0,00027781192591662211	0,10001031696903152	0,000235863321	-0,044937343139423034	0,0016766726914323091	0,8078667446186601
1	1	0	0	0	0	2	75360,16	0,100000001	2,35995388	0,00027781166581064461	0,10001022295915155	0,000236019507	-0,038547664016886074	0,0014382651723555054	0,81425642374119718
1	1	0	0	0	0	2	75590,16	0,100000001	2,35968685	0,00027781195634148192	0,10001032788916558	0,000235993051	-0,032157983750984256	0,0011998576106182213	0,82064610400709901
1	1	0	0	0	0	2	75820,17	0,100000001	2,36010647	0,0002778115964444975	0,10001019829970534	0,000236034713	-0,025768307263655981	0,00096145018986459661	0,82703578049442726
1	1	0	0	0	0	2	76050,17	0,100000001	2,36077404	0,00027781131978912486	0,10001009839372096	0,000236101245	-0,019378636240845936	0,00072304297299949389	0,83342545151723738
1	1	0	0	0	0	2	76280,17	0,100000001	2,36115551	0,00027781145975655974	0,10001014915472534	0,000236139516	-0,012988974596710843	0,00048463610606536365	0,83981511316137242
1	1	0	0	0	0	2	76510,18	0,100000001	2,36168957	0,00027781146044532454	0,10001014922920277	0,000236192922	-0,0065992951001853683	0,00024622857303454547	0,84620479265789786
1	1	0	0	0	0	2	76740,18	0,100000001	2,36270046	0,00027781205150443645	0,10001036180486248	0,000236294523	-0,00020963976463817376	7,8219414823115789E-006	0,85259444799344512
1	1	0	0	0	0	2	76970,19	0,100000001	2,36357784	0,00027781195001428326	0,10001032564285386	0,000236382184	0,0061800335205067238	-0,00023058535979354608	0,85898412127859008
1	1	0	0	0	0	2	77200,19	0,100000001	2,36407351	0,00027781036687807904	0,10000975543751459	0,000236430409	0,01256969214262961	-0,00046899211397233779	0,86537377990071283
1	1	0	0	0	0	2	77430,20	0,100000001	2,36485553	0,00027781144802189533	0,10001014455660594	0,000236509542	0,018959346658836048	-0,00070739871495386637	0,87176343441691942
1	1	0	0	0	0	2	77660,20	0,100000001	2,3680408	0,0002778115822689401	0,10001019325714646	0,000236828215	0,025349008527249744	-0,00094580559025613286	0,87815309628533286
1	1	0	0	0	0	2	77890,21	0,100000001	2,36908984	0,0002778106991810103	0,10000987498037984	0,000236932377	0,031738660713697286	-0,0011842121043112246	0,88454274847178048
1	1	0	0	0	0	2	78120,21	0,100000001	2,37073016	0,00027781038461998106	0,1000097618374253	0,000237096159	0,038128316842932493	-0,0014226187654770253	0,89093240460101555
1	1	0	0	0	0	2	78350,22	0,100000001	2,37299991	0,00027781129063541686	0,10001008827231704	0,000237323926	0,044517974223773331	-0,0016610254733419149	0,89732206198185626
1	1	0	0	0	0	2	78580,22	0,100000001	2,37469745	0,00027781103275509344	0,100009995063512	0,000237493485	0,050907633629878982	-0,0018994322567721581	0,90371172138796186
1	1	0	0	0	0	2	78810,22	0,100000001	2,37591815	0,00027781021733126704	0,10000970172630032	0,000237614862	0,057297288737298509	-0,0021378388798126416	0,91010137649538138
1	1	0	0	0	0	2	79040,23	0,100000001	2,37677646	0,00027781020546166435	0,10000969761748608	0,000237700689	0,063686918212596557	-0,0023762445464842109	0,9164910059706793
1	1	0	0	0	0	2	79270,23	0,100000001	2,37719607	0,0002778109395330151	0,10000996150422712	0,000237743283	0,070076557270262182	-0,0026146505706867974	0,92288064502834496
1	1	0	0	0	0	2	79500,24	0,100000001	2,3774631	0,0002778108615146743	0,10000993374300414	0,000237769927	0,076466199300701235	-0,0028530567058075574	0,92927028705878387
1	1	0	0	0	0	2	79730,24	0,100000001	2,37830234	0,00027781072377993002	0,10000988416558837	0,000237853747	0,08285583860174592	-0,003091462739090944	0,93565992635982861
1	1	0	0	0	0	2	79960,25	0,100000001	2,37944674	0,0002778114570967025	0,10001014782463618	0,000237968823	0,089245497101312947	-0,0033298694886970118	0,94204958485939597
1	1	0	0	0	0	2	80190,25	0,100000001	2,38068652	0,0002778109796436297	0,10000997631632181	0,000238092398	0,095635156495243546	-0,0035682762716729869	0,94843924425332659
1	1	0	0	0	0	2	80420,26	0,100000001	2,38276553	0,00027781085832996502	0,1000099324905851	0,000238300214	0,1020248116624817	-0,0038066828969453843	0,95482889942056486
1	1	0	0	0	0	2	80650,26	0,100000001	2,38368106	0,00027781109581515197	0,10001001776584864	0,000238391978	0,10841447083557955	-0,0040450896716817933	0,96121855859366259
1	1	0	0	0	0	2	80880,27	0,100000001	2,38497806	0,00027781150463264848	0,10001016530863378	0,000238522043	0,11480412936781325	-0,0042834964225066976	0,96760821712589632
1	1	0	0	0	0	2	81110,27	0,100000001	2,38576007	0,00027781194076148995	0,10001032204297226	0,000238600638	0,12119379352001574	-0,0045219033830201952	0,97399788127809882
1	1	0	0	0	0	2	81340,27	0,100000001	2,38638949	0,00027781146764010192	0,1000101516190207	0,000238663182	0,12758345782449029	-0,0047603103492151674	0,98038754558257344
1	1	0	0	0	0	2	81570,28	0,100000001	2,39222598	0,00027781163419948685	0,1000102119529381	0,000239247034	0,13397311780702837	-0,0049987171541528787	0,98677720556511155
1	1	0	0	0	0	2	81800,28	0,100000001	2,39518237	0,00027781160790266259	0,10001020211370878	0,000239542671	0,14036278744342906	-0,0052371243192891846	0,99316687520151194
1	1	0	0	0	0	2	82030,29	0,100000001	2,39762378	0,00027781184241506787	0,10001028661567504	0,000239787041	0,1467524570614065	-0,0054755314837380934	0,99955654481948915
1	1	0	0	0	0	2	82049,96	0,100000001	2,39708972	0,0002686384436984857	0,10001019938425782	0,000239733417	0,1472989076618112	-0,0054959202903498394	1,0001029954198939