File: Experimentelles/Rohdaten/Batteriemessungen/AlteZelle/150511_LLTO_LTO_Tests/ZView-Export/LLTO_LP30_LTO_05_GCPL_C01_loop6.txt
EC-Lab ASCII FILE
Nb header lines : 3
mode	ox/red	error	control changes	Ns changes	counter inc.	Ns	time/s	control/V/mA	Ewe/V	dq/mA.h	<I>/mA	P/W	(Q-Qo)/mA.h	x	Capacity/mA.h
1	0	0	1	1	0	1	242530,80	-0,0100000007	2,57484508	0	0	0	0	0	0
1	0	0	1	0	0	1	242670,80	-0,0100000007	2,27513146	-2,7756953365479907E-005	-0,0099925016483567066	2,27342553E-005	-0,00038845965031875002	1,4493951842947226E-005	0,00038845965031875002
1	0	0	1	0	0	1	242810,80	-0,0100000007	2,12063456	-2,775732078097968E-005	-0,0099926339176832717	2,11907245E-005	-0,00077706229718985766	2,8993239079523827E-005	0,00077706229718985766
1	0	0	1	0	0	1	242950,80	-0,0100000007	2,00129128	-2,7757443250001722E-005	-0,0099926780065243085	1,99982587E-005	-0,001165665911523616	4,3492562413432691E-005	0,001165665911523616
1	0	0	1	0	0	1	243090,80	-0,0100000007	1,90003097	-2,7756642957580173E-005	-0,0099923899012976294	1,89858511E-005	-0,0015542658597740461	5,7991748960843482E-005	0,0015542658597740461
1	0	0	1	0	0	1	243230,80	-0,0100000007	1,81005573	-2,7756758984695706E-005	-0,0099924316710526848	1,80868574E-005	-0,001942864328724841	7,2490880313595942E-005	0,001942864328724841
1	0	0	1	0	0	1	243370,80	-0,0100000007	1,72829139	-2,7757474169031613E-005	-0,0099926891373733286	1,72702785E-005	-0,0023314648135131549	8,6990086879956544E-005	0,0023314648135131549
1	0	0	1	0	0	1	243510,80	-0,0100000007	1,65399313	-2,775692251045257E-005	-0,0099924905403159462	1,65275105E-005	-0,0027200625362902688	0,00010148919039196573	0,0027200625362902688
1	0	0	1	0	0	1	243650,80	-0,0100000007	1,5863589	-2,7756901347440563E-005	-0,009992482921516489	1,5851665E-005	-0,0031086586867250515	0,0001159882352377685	0,0031086586867250515
1	0	0	1	0	0	1	243790,80	-0,0100000007	1,52535069	-2,7757093677297232E-005	-0,0099925521603703834	1,52421462E-005	-0,0034972551976457766	0,00013048729353378645	0,0034972551976457766
1	0	0	1	0	0	1	243930,80	-0,0100000007	1,47001362	-2,7756605955151222E-005	-0,0099923765804252915	1,46889297E-005	-0,003885848949261207	0,00014498624887641395	0,003885848949261207
1	0	0	1	0	0	1	244070,80	-0,0100000007	1,42004228	-2,7756765314377843E-005	-0,0099924339497378995	1,4189679E-005	-0,0042744408794512058	0,0001594851362592096	0,0042744408794512058
1	0	0	1	0	0	1	244210,80	-0,0100000007	1,37427175	-2,7756904951607187E-005	-0,009992484219132599	1,37323887E-005	-0,0046630371865962758	0,0001739841869520839	0,0046630371865962758
1	0	0	1	0	0	1	244350,80	-0,0100000007	1,33212936	-2,7756483452135904E-005	-0,0099923324793466778	1,33110798E-005	-0,0050516269458660576	0,00018848299333492746	0,0050516269458660576
1	0	0	1	0	0	1	244490,80	-0,0100000007	1,2929275	-2,7757508877871766E-005	-0,0099927016325538278	1,29198388E-005	-0,0054402213855219098	0,00020298197434926816	0,0054402213855219098
1	0	0	1	0	0	1	244630,80	-0,0100000007	1,25603616	-2,7757061157737757E-005	-0,0099925404533308045	1,25509923E-005	-0,0058288188663104269	0,00021748106883235747	0,0058288188663104269
1	0	0	1	0	0	1	244770,80	-0,0100000007	1,220806	-2,7756550857538566E-005	-0,0099923567452878387	1,21987287E-005	-0,0062174179278242138	0,00023198022229443181	0,0062174179278242138
1	0	0	1	0	0	1	244910,80	-0,0100000007	1,18717992	-2,775678320073833E-005	-0,0099924403888266675	1,1862825E-005	-0,0066060136071988301	0,00024647924956434643	0,0066060136071988301
1	0	0	1	0	0	1	245050,80	-0,0100000007	1,15471852	-2,7756732764912563E-005	-0,0099924222319322317	1,15384346E-005	-0,0069946109105246067	0,00026097833742606227	0,0069946109105246067
1	0	0	1	0	0	1	245190,80	-0,0100000007	1,12338376	-2,7756693137706154E-005	-0,0099924079661401574	1,12253092E-005	-0,0073832089717920474	0,00027547745356760064	0,0073832089717920474
1	0	0	1	0	0	1	245330,80	-0,0100000007	1,09290838	-2,7757156400268691E-005	-0,0099925747406365747	1,09209686E-005	-0,0077718061289076301	0,00028997653597401754	0,0077718061289076301
1	0	0	1	0	0	1	245470,80	-0,0100000007	1,063254	-2,7757377471360896E-005	-0,0099926543262173171	1,06247298E-005	-0,0081604050146274496	0,00030447568287698266	0,0081604050146274496
1	0	0	1	0	0	1	245610,80	-0,0100000007	1,03421056	-2,7756584315819459E-005	-0,0099923687902670758	1,03342136E-005	-0,0085489979098368269	0,0003189746062659488	0,0085489979098368269
1	0	0	1	0	0	1	245750,80	-0,0100000007	1,00583553	-2,775686472840607E-005	-0,0099924697387824614	1,00507814E-005	-0,008937591378966185	0,00033347355106864115	0,008937591378966185
1	0	0	1	0	0	1	245890,80	-0,0100000007	0,978147924	-2,7758173977800954E-005	-0,0099929410684908749	9,77457421E-006	-0,0093262022586451891	0,0003479731454823495	0,0093262022586451891
1	0	0	1	0	0	1	246030,80	-0,0100000007	0,951147735	-2,7758545839641658E-005	-0,0099930749387325811	9,50489084E-006	-0,0097148234906687027	0,00036247312615595034	0,0097148234906687027
1	0	0	1	0	0	1	246170,80	-0,0100000007	0,925216854	-2,7758530445189939E-005	-0,0099930693967308314	9,24575579E-006	-0,010103445889126243	0,00037697315035077312	0,010103445889126243
1	0	0	1	0	0	1	246310,80	-0,0100000007	0,90046984	-2,7757805243444938E-005	-0,0099928083241434778	8,99822226E-006	-0,010492064868044259	0,00039147304695797843	0,010492064868044259
1	1	0	0	0	0	2	246433,25	0,0100000007	1,09488785	2,7794753332622349E-005	0,010006109634166194	1,09555676E-005	-0,010165327985011603	0,00037928205454961869	0,00033353915752925811
1	1	0	0	0	0	2	246573,25	0,0100000007	1,22618437	2,7794771181574714E-005	0,010006116059788038	1,22693427E-005	-0,0097762030368583296	0,00036476327954996294	0,00072266410568253056
1	1	0	0	0	0	2	246713,25	0,0100000007	1,33420432	2,7795086459101485E-005	0,01000622955967992	1,33503545E-005	-0,0093870730327308186	0,00035024431590511053	0,0011117941098100406
1	1	0	0	0	0	2	246853,25	0,0100000007	1,42855215	2,7794754996688829E-005	0,010006110233230032	1,42942499E-005	-0,008997942619108119	0,00033572533698144211	0,0015009245234327395
1	1	0	0	0	0	2	246993,25	0,0100000007	1,51285625	2,7794942554034707E-005	0,010006177753863984	1,51379081E-005	-0,0086088161031839142	0,00032120650348614502	0,0018900510393569456
1	1	0	0	0	0	2	247133,25	0,0100000007	1,58908308	2,7794796732564765E-005	0,010006125258143018	1,59005649E-005	-0,0082196882898679654	0,0003066876215834176	0,002279178852672896
1	1	0	0	0	0	2	247273,25	0,0100000007	1,65908504	2,7794791599476918E-005	0,010006123410231683	1,66010104E-005	-0,0078305605730015923	0,00029216874327935354	0,0026683065695392701
1	1	0	0	0	0	2	247413,25	0,0100000007	1,72351122	2,7794205056865597E-005	0,010005912254924646	1,72453019E-005	-0,0074414352615088563	0,00027764995472301395	0,0030574318810320045
1	1	0	0	0	0	2	247553,25	0,0100000007	1,78264821	2,7794976257770842E-005	0,010006189887207094	1,78375158E-005	-0,0070523112728951642	0,00026313121552507008	0,0034465558696456973
1	1	0	0	0	0	2	247693,25	0,0100000007	1,83682036	2,7794333852620589E-005	0,010005958621389187	1,8379149E-005	-0,0066631881981267443	0,00024861251042392198	0,0038356789444141184
1	1	0	0	0	0	2	247833,25	0,0100000007	1,88570333	2,7794675725822646E-005	0,010006081695722672	1,88685008E-005	-0,0062740612418937139	0,00023409366050011059	0,0042248059006471488
1	1	0	0	0	0	2	247973,25	0,0100000007	1,9301945	2,7795441403157181E-005	0,010006357339519978	1,9314215E-005	-0,0058849337837616333	0,00021957479184977088	0,0046139333587792282
1	1	0	0	0	0	2	248113,25	0,0100000007	1,96989286	2,779471633029688E-005	0,010006096313331107	1,97109384E-005	-0,0054958032457266054	0,0002050558082841112	0,0050030638968142566
1	1	0	0	0	0	2	248253,25	0,0100000007	2,00565767	2,7794041466174858E-005	0,010005853362285192	2,00683171E-005	-0,0051066829983814477	0,00019053720867792653	0,005392184144159415
1	1	0	0	0	0	2	248393,25	0,0100000007	2,03777528	2,7793761841435398E-005	0,010005752697394739	2,0389476E-005	-0,0047175667325537626	0,00017601875762751203	0,0057813004099870989
1	1	0	0	0	0	2	248533,25	0,0100000007	2,06679964	2,7794204358425405E-005	0,010005912003486216	2,0680216E-005	-0,0043284460492821178	0,00016150014175632403	0,0061704210932587443
1	1	0	0	0	0	2	248673,25	0,0100000007	2,09263492	2,7794040625035347E-005	0,010005853059475018	2,0938598E-005	-0,0039393298996222803	0,0001469816950402881	0,0065595372429185818
1	1	0	0	0	0	2	248813,25	0,0100000007	2,11594987	2,7794324511144723E-005	0,010005955258458403	2,11720999E-005	-0,0035502141987469229	0,00013246326506900446	0,0069486529437939405
1	1	0	0	0	0	2	248953,25	0,0100000007	2,13718343	2,7794284688929715E-005	0,010005940922463242	2,13845306E-005	-0,0031610983062094675	0,0001179448279465503	0,0073377688363313946
1	1	0	0	0	0	2	249093,25	0,0100000007	2,15627837	2,7793974214750864E-005	0,010005829151776342	2,15753535E-005	-0,0027719855800660099	0,00010342650896651344	0,0077268815624748506
1	1	0	0	0	0	2	249233,25	0,0100000007	2,17399836	2,7794749538776362E-005	0,010006108268381851	2,17532634E-005	-0,0023828684396070099	8,8908025282428595E-005	0,0081159987029338509
1	1	0	0	0	0	2	249373,25	0,0100000007	2,19030547	2,7794137743456909E-005	0,010005888022101309	2,19159519E-005	-0,0019937499682460886	7,4389491940603661E-005	0,0085051171742947725
1	1	0	0	0	0	2	249513,25	0,0100000007	2,20470929	2,7794799058025498E-005	0,010006126095308752	2,20605998E-005	-0,0016046288563647904	5,9870860077413222E-005	0,0088942382861760717
1	1	0	0	0	0	2	249653,25	0,0100000007	2,21853399	2,7794082280869283E-005	0,010005868055572886	2,21983591E-005	-0,001215509467782657	4,5352292512831642E-005	0,0092833576747582029
1	1	0	0	0	0	2	249793,25	0,0100000007	2,23142314	2,779489573039528E-005	0,010006160897356429	2,23279785E-005	-0,00082638957546464806	3,0833706153187258E-005	0,0096724775670762099
1	1	0	0	0	0	2	249933,25	0,0100000007	2,24335742	2,7794023591041981E-005	0,010005846927238365	2,24466912E-005	-0,00043726755850958445	1,6315040520477754E-005	0,01006159958403127
1	1	0	0	0	0	2	250073,25	0,0100000007	2,25452805	2,779495523932079E-005	0,010006182320566261	2,25592194E-005	-4,8146035636824E-005	1,7963933226432851E-006	0,010450721106904034
1	1	0	0	0	0	2	250213,25	0,0100000007	2,2646482	2,7794435706662221E-005	0,010005995288838437	2,26600587E-005	0,00034097636653710861	-1,272228668310015E-005	0,010839843509077968
1	1	0	0	0	0	2	250353,25	0,0100000007	2,27446294	2,7794621253179178E-005	0,010006062085574093	2,27584169E-005	0,00073010073438256026	-2,7241040030690835E-005	0,011228967876923414
1	1	0	0	0	0	2	250493,25	0,0100000007	2,28338027	2,7794209903726973E-005	0,010005913999794467	2,28473073E-005	0,0011192226490575022	-4,1759701847191482E-005	0,011618089791598358
1	1	0	0	0	0	2	250633,25	0,0100000007	2,29168653	2,7794342650100589E-005	0,010005961788481493	2,29305278E-005	0,0015083458188444195	-5,627841049360745E-005	0,012007212961385277
1	1	0	0	0	0	2	250773,25	0,0100000007	2,299191	2,7794398218496803E-005	0,010005981793101002	2,3005663E-005	0,001897468838427529	-7,0797113535717376E-005	0,012396335980968387
1	1	0	0	0	0	2	250913,25	0,0100000007	2,30644703	2,7794637158461328E-005	0,01000606781147477	2,30784663E-005	0,0022865932664564429	-8,5315869128833958E-005	0,012785460408997299
1	1	0	0	0	0	2	251053,25	0,0100000007	2,31297755	2,7794978077316451E-005	0,010006190542243411	2,31440936E-005	0,0026757207572980198	-9,9834738999608986E-005	0,013174587899838877
1	1	0	0	0	0	2	251193,25	0,0100000007	2,31916428	2,7795461661078864E-005	0,01000636463237064	2,32064031E-005	0,0030648502401911373	-0,00011435368319650534	0,013563717382731994
1	1	0	0	0	0	2	251333,25	0,0100000007	2,3248353	2,7794838862545373E-005	0,010006140424933666	2,3262628E-005	0,003453980344554153	-0,00012887265058127918	0,013952847487095006
1	1	0	0	0	0	2	251473,25	0,0100000007	2,33025837	2,7795026378913059E-005	0,01000620793081547	2,33170504E-005	0,003843112724593584	-0,00014339170287459973	0,014341979867134438
1	1	0	0	0	0	2	251613,25	0,0100000007	2,33528042	2,7795054662351808E-005	0,010006218112851826	2,33673254E-005	0,0042322380112765581	-0,00015791049050525376	0,014731105153817414
1	1	0	0	0	0	2	251753,25	0,0100000007	2,34018779	2,779428833278103E-005	0,01000594223424951	2,34157833E-005	0,0046213614429363251	-0,00017242920892249782	0,015120228585477184
1	1	0	0	0	0	2	251893,25	0,0100000007	2,34482765	2,7795049569673005E-005	0,010006216279487744	2,34628533E-005	0,0050104863009407789	-0,0001869479805585799	0,015509353443481642
1	1	0	0	0	0	2	252033,25	0,0100000007	2,34918141	2,7794028678339802E-005	0,010005848758665293	2,35055541E-005	0,0053996105332284512	-0,00020146672884832758	0,015898477675769315
1	1	0	0	0	0	2	252173,25	0,0100000007	2,35340142	2,7794258503708986E-005	0,010005931495785256	2,35479729E-005	0,0057887314067261466	-0,00021598535181710528	0,016287598549267011
1	1	0	0	0	0	2	252313,25	0,0100000007	2,35731578	2,779415658230169E-005	0,01000589480408437	2,35870539E-005	0,0061778526493234317	-0,0002305039885574849	0,016676719791864291
1	1	0	0	0	0	2	252453,25	0,0100000007	2,36124945	2,7794782346476698E-005	0,010006120079152125	2,36269461E-005	0,0065669792489351462	-0,00024502282517527552	0,01706584639147601
1	1	0	0	0	0	2	252593,25	0,0100000007	2,36482024	2,7794866502285002E-005	0,010006150375238376	2,36627475E-005	0,0069561035309558592	-0,00025954157532062979	0,01745497067349672
1	1	0	0	0	0	2	252733,25	0,0100000007	2,36850548	2,7794389341750906E-005	0,010005978597472976	2,36992146E-005	0,0073452271152697971	-0,0002740602994336063	0,017844094257810656
1	1	0	0	0	0	2	252873,25	0,0100000007	2,37194252	2,7794130110544048E-005	0,010005885274253109	2,37333843E-005	0,0077343450150676019	-0,00028857881144964282	0,018233212157608464
1	1	0	0	0	0	2	253013,25	0,0100000007	2,37543702	2,7794294697284285E-005	0,010005944525936262	2,37684908E-005	0,0081234640255317888	-0,00030309736490613549	0,01862233116807265
1	1	0	0	0	0	2	253153,25	0,0100000007	2,37860656	2,7795469253582675E-005	0,010006367365671586	2,38012108E-005	0,0085125888550074534	-0,00031761613547777005	0,019011455997548317
1	1	0	0	0	0	2	253293,25	0,0100000007	2,38173819	2,7794886366826381E-005	0,010006157526472152	2,38320481E-005	0,0089017176131851315	-0,00033213505263455898	0,019400584755725997
1	1	0	0	0	0	2	253433,25	0,0100000007	2,38486981	2,7795045046032301E-005	0,010006214650977344	2,38635184E-005	0,0092908411383978573	-0,00034665377454238976	0,019789708280938726
1	1	0	0	0	0	2	253573,25	0,0100000007	2,38794398	2,7793777426446061E-005	0,010005758307997699	2,38931898E-005	0,0096799610749681766	-0,00036117236255314733	0,020178828217509046
1	1	0	0	0	0	2	253713,25	0,0100000007	2,39090371	2,7793948588323677E-005	0,010005819926264	2,39229521E-005	0,01006907432597317	-0,00037569070111647373	0,020567941468514026
1	1	0	0	0	0	2	253853,25	0,0100000007	2,393749	2,7794227082385786E-005	0,010005920184110672	2,39516612E-005	0,010458188188614794	-0,00039020906250078515	0,020957055331155648
1	1	0	0	0	0	2	253993,25	0,0100000007	2,39653683	2,7794024638779875E-005	0,010005847304423947	2,39793808E-005	0,010847304611669648	-0,00040472751941755686	0,021346171754210502
1	1	0	0	0	0	2	254133,25	0,0100000007	2,39930558	2,7794099675387971E-005	0,010005874317598637	2,40071495E-005	0,011236422022044763	-0,00041924601317257485	0,021735289164585622
1	1	0	0	0	0	2	254273,25	0,0100000007	2,4019978	2,779425243138232E-005	0,010005929309747998	2,40342197E-005	0,011625539511813264	-0,00043376450988986682	0,022124406654354128
1	1	0	0	0	0	2	254413,25	0,0100000007	2,40463305	2,7794769235938374E-005	0,010006115359359067	2,40610352E-005	0,0120146668311788	-0,00044828337336264019	0,02251353397371967
1	1	0	0	0	0	2	254553,25	0,0100000007	2,40721083	2,7794273423134451E-005	0,010005936866777582	2,40863992E-005	0,012403788861711459	-0,0004628020395019481	0,02290265600425233
1	1	0	0	0	0	2	254693,25	0,0100000007	2,40975046	2,7794031013268979E-005	0,010005849599239666	2,41116013E-005	0,01279290561795944	-0,0004773205088506032	0,023291772760500304
1	1	0	0	0	0	2	254833,25	0,0100000007	2,41217542	2,7794210688262765E-005	0,010005914282227309	2,41360212E-005	0,013182023811480968	-0,00049183903182586682	0,02368089095402183
1	1	0	0	0	0	2	254973,25	0,0100000007	2,41463876	2,7794409631699738E-005	0,010005985902086384	2,41608413E-005	0,013571145113907709	-0,00050635767079856397	0,024070012256448573
1	1	0	0	0	0	2	255113,25	0,0100000007	2,41687274	2,7794298406949059E-005	0,010005945860949434	2,41830985E-005	0,013960262931491878	-0,00052087617974709926	0,024459130074032742
1	1	0	0	0	0	2	255253,25	0,0100000007	2,41922164	2,779401873347039E-005	0,010005845178512866	2,42063579E-005	0,014349383652984739	-0,00053539479704437222	0,02484825079552561
1	1	0	0	0	0	2	255393,25	0,0100000007	2,4213984	2,7794220257653958E-005	0,0100059177272076	2,42283131E-005	0,014738503394116602	-0,00054991337776305811	0,025237370536657475
1	1	0	0	0	0	2	255533,25	0,0100000007	2,42378521	2,7794488542195824E-005	0,010006014309627558	2,42524293E-005	0,015127623855536912	-0,00056443198535667462	0,025626490998077789
1	1	0	0	0	0	2	255673,25	0,0100000007	2,42580938	2,7794221364996502E-005	0,010005918125850851	2,42724509E-005	0,015516741667693174	-0,00057895049410268749	0,026015608810234051
1	1	0	0	0	0	2	255813,25	0,0100000007	2,42811966	2,7793695083094966E-005	0,010005728664395942	2,42951064E-005	0,01590585652357009	-0,00059346889254594304	0,026404723666110966
1	1	0	0	0	0	2	255953,25	0,0100000007	2,43029666	2,779363461537287E-005	0,010005706895902912	2,43168361E-005	0,016294974238418931	-0,00060798739766128512	0,026793841380959808
1	1	0	0	0	0	2	256093,25	0,0100000007	2,43247342	2,7793761983720794E-005	0,010005752748617472	2,43387276E-005	0,016684089741580714	-0,00062250582025560934	0,02718295688412159
1	1	0	0	0	0	2	256233,25	0,0100000007	2,43442106	2,7793834923093933E-005	0,010005779006787696	2,43582799E-005	0,017073203575324272	-0,00063702418056169523	0,027572070717865149
1	1	0	0	0	0	2	256373,25	0,0100000007	2,43648338	2,7793800614049866E-005	0,010005766655533763	2,43788836E-005	0,017462321178090966	-0,0006515426814951017	0,027961188320631843
1	1	0	0	0	0	2	256513,25	0,0100000007	2,43856478	2,7793956654767194E-005	0,010005822830183211	2,43998475E-005	0,01785144140656008	-0,00066606128039699584	0,028350308549100957
1	1	0	0	0	0	2	256653,25	0,0100000007	2,44039774	2,7794648822966134E-005	0,010006072010695843	2,44187959E-005	0,01824056276154135	-0,00068057992133057293	0,028739429904082227
1	1	0	0	0	0	2	256793,25	0,0100000007	2,44234538	2,7794262921541101E-005	0,010005933086204566	2,44379444E-005	0,018629680284495821	-0,00069509841928607821	0,029128547427036698
1	1	0	0	0	0	2	256933,25	0,0100000007	2,44438863	2,7794159192126246E-005	0,010005895743621061	2,4458297E-005	0,01901879760445504	-0,0007096169096675575	0,029517664746995917
1	1	0	0	0	0	2	257073,25	0,0100000007	2,4459734	2,7793718112115229E-005	0,010005736954841941	2,44737657E-005	0,019407912695312874	-0,00072413531687826714	0,029906779837853747
1	1	0	0	0	0	2	257213,25	0,0100000007	2,44788289	2,7794407926499846E-005	0,010005985287981549	2,44934799E-005	0,019797030954796355	-0,00073865384231465997	0,030295898097337235
1	1	0	0	0	0	2	257353,25	0,0100000007	2,44967794	2,7794378146891379E-005	0,010005974567324176	2,45114152E-005	0,020186149933537629	-0,00075317239458752794	0,030685017076078509
1	1	0	0	0	0	2	257493,25	0,0100000007	2,45151091	2,7794019373237258E-005	0,010005845408828902	2,45294395E-005	0,020575262502575971	-0,00076769070770576179	0,031074129645116845
1	1	0	0	0	0	2	257633,25	0,0100000007	2,45271397	2,7793766962002138E-005	0,010005754540798475	2,45412539E-005	0,020964381175135674	-0,00078220924855458381	0,031463248317676544
1	1	0	0	0	0	2	257773,25	0,0100000007	2,45399332	2,7794038960089283E-005	0,010005852460094528	2,45542942E-005	0,021353496304686957	-0,00079672765720899789	0,031852363447227827
1	1	0	0	0	0	2	257913,25	0,0100000007	2,45548272	2,779413154374601E-005	0,010005885790205734	2,4569279E-005	0,02174261367573025	-0,0008112461494964928	0,032241480818271123
1	1	0	0	0	0	2	258053,25	0,0100000007	2,45693398	2,7793603253085168E-005	0,010005695605597589	2,45833344E-005	0,022131725390494022	-0,00082576443074059392	0,032630592533034893
1	1	0	0	0	0	2	258193,25	0,0100000007	2,45838523	2,779431935886128E-005	0,010005953403636653	2,45984884E-005	0,02252084381522103	-0,0008402829623424448	0,033019710957761914
1	1	0	0	0	0	2	258333,25	0,0100000007	2,45993185	2,7793449177561946E-005	0,010005640138417907	2,46131931E-005	0,022909961305568813	-0,00085480145908135053	0,033408828448109696
1	1	0	0	0	0	2	258473,25	0,0100000007	2,46140218	2,7794008531711168E-005	0,01000584150588012	2,46283998E-005	0,023299076703814051	-0,00086931987776109747	0,033797943846354938
1	1	0	0	0	0	2	258613,25	0,0100000007	2,46279621	2,7794530391175715E-005	0,010006029375257963	2,46428117E-005	0,023688192522870778	-0,00088383831214188698	0,034187059665411661
1	1	0	0	0	0	2	258753,25	0,0100000007	2,46430469	2,7794140181762886E-005	0,010005888899891325	2,46575582E-005	0,024077312760978458	-0,00089835691140340877	0,034576179903519341
1	1	0	0	0	0	2	258893,25	0,0100000007	2,46579409	2,779363330127671E-005	0,010005706422944853	2,46720119E-005	0,024466425060704285	-0,00091287521447323059	0,034965292203245178
1	1	0	0	0	0	2	259033,25	0,0100000007	2,46734071	2,7794312580695584E-005	0,010005950963497384	2,468809E-005	0,024855543077991178	-0,00092739373087294298	0,035354410220532045
1	1	0	0	0	0	2	259173,25	0,0100000007	2,46881104	2,7793375872334259E-005	0,010005613748540067	2,47019689E-005	0,025244653324235066	-0,00094191195732459251	0,035743520466775917
1	1	0	0	0	0	2	259313,25	0,0100000007	2,47012854	2,7793830506917504E-005	0,010005777416964429	2,47155567E-005	0,025633765534068237	-0,00095643025704039846	0,036132632676609088
1	1	0	0	0	0	2	259453,25	0,0100000007	2,47146511	2,7793882285089546E-005	0,010005796057103446	2,47289754E-005	0,026022880019811123	-0,00097094864167345587	0,036521747162351981
1	1	0	0	0	0	2	259593,25	0,0100000007	2,47284007	2,7794255646876992E-005	0,010005930467325898	2,47430653E-005	0,026411999427289382	-0,00098546720994307738	0,036910866569830234
1	1	0	0	0	0	2	259733,25	0,0100000007	2,47423387	2,7793915574749309E-005	0,010005808041379088	2,47567095E-005	0,026801120067341914	-0,00099998582420170202	0,037299987209882771
1	1	0	0	0	0	2	259873,25	0,0100000007	2,47560883	2,7794214939853798E-005	0,010005915812799843	2,47707339E-005	0,027190237371582003	-0,0010145043139966797	0,037689104514122861
1	1	0	0	0	0	2	260013,25	0,0100000007	2,4769454	2,7794692174634995E-005	0,010006087617294192	2,47845328E-005	0,027579359531829584	-0,0010290229849758256	0,038078226674370426
1	1	0	0	0	0	2	260153,25	0,0100000007	2,47824383	2,7794253099709747E-005	0,010005929550345834	2,47971329E-005	0,027968478862675562	-0,0010435415503861936	0,038467346005216416
1	1	0	0	0	0	2	260293,25	0,0100000007	2,47940874	2,7794448285984496E-005	0,010005999817393749	2,48089636E-005	0,028357599642757462	-0,0010580601698695024	0,038856466785298317
1	1	0	0	0	0	2	260433,25	0,0100000007	2,48078346	2,7793889105009536E-005	0,010005798512274259	2,48222186E-005	0,028746719346849696	-0,0010725787492061899	0,039245586489390554
1	1	0	0	0	0	2	260573,25	0,0100000007	2,4819293	2,7793575053672413E-005	0,010005685453810584	2,48334036E-005	0,029135833297123546	-0,0010870971138601776	0,039634700439664403
1	1	0	0	0	0	2	260713,25	0,0100000007	2,48309398	2,7793574774948259E-005	0,010005685353469904	2,48450579E-005	0,029524948170798906	-0,0011016155129675171	0,040023815313339776
1	1	0	0	0	0	2	260853,25	0,0100000007	2,48425889	2,7793836411347405E-005	0,010005779542558859	2,48569468E-005	0,029914061033055571	-0,0011161338370261208	0,040412928175596442
1	1	0	0	0	0	2	260993,25	0,0100000007	2,48544264	2,7793898683300035E-005	0,010005801960458301	2,48688466E-005	0,030303176031878816	-0,0011306522408028962	0,040802043174419674
1	1	0	0	0	0	2	261133,25	0,0100000007	2,48656917	2,7794006399034214E-005	0,010005840738116536	2,48802153E-005	0,03069228886651136	-0,0011451705638308067	0,04119115600905223
1	1	0	0	0	0	2	261273,25	0,0100000007	2,48754311	2,7793771342995267E-005	0,010005756117955755	2,48897504E-005	0,031081401213680678	-0,0011596888686708088	0,041580268356221549
1	1	0	0	0	0	2	261413,25	0,0100000007	2,48874617	2,7793416257999424E-005	0,010005628287377253	2,49014684E-005	0,031470511530581773	-0,0011742070977587738	0,041969378673122656
1	1	0	0	0	0	2	261553,25	0,0100000007	2,48992991	2,7794475116197846E-005	0,010006009476269045	2,49142631E-005	0,031859624801535232	-0,0011887254370664043	0,042358491944076115
1	1	0	0	0	0	2	261693,25	0,0100000007	2,49096107	2,7794612375605437E-005	0,010006058889648045	2,49247023E-005	0,032248746922842515	-0,0012032441065926354	0,042747614065383398
1	1	0	0	0	0	2	261833,25	0,0100000007	2,49212599	2,7793904449221574E-005	0,010005804036189728	2,49357236E-005	0,032637864600326682	-0,0012177626103138512	0,043136731742867565
1	1	0	0	0	0	2	261973,25	0,0100000007	2,49317598	2,7794394391330166E-005	0,010005980415321226	2,49466702E-005	0,033026983257229005	-0,0012322811505784755	0,043525850399769888
1	1	0	0	0	0	2	262113,25	0,0100000007	2,494169	2,7793706856409296E-005	0,010005732902788438	2,49559889E-005	0,03341609677795209	-0,0012467994992053466	0,043914963920492973
1	1	0	0	0	0	2	262253,25	0,0100000007	2,49529552	2,7794105473440141E-005	0,01000568531142272	2,49671411E-005	0,03380521923258023	-0,0012613181811682269	0,044304086375121114
1	1	0	0	0	0	2	262393,26	0,0100000007	2,49634576	2,7794446991911782E-005	0,010005808255705224	2,49779569E-005	0,034194336825179584	-0,0012758366817222763	0,044693203967720467
1	1	0	0	0	0	2	262533,26	0,0100000007	2,49743438	2,7795084675877459E-005	0,010006037817978598	2,49894219E-005	0,034583466073726963	-0,0012903556171754181	0,045082333216267846
1	1	0	0	0	0	2	262673,26	0,0100000007	2,49838901	2,7795263646584416E-005	0,010006102246192546	2,49991353E-005	0,034972594438313811	-0,001304874519646804	0,045471461580854694
1	1	0	0	0	0	2	262813,27	0,0100000007	2,49905729	2,7794629214952387E-005	0,010005873855202662	2,50052526E-005	0,035361722912863603	-0,001319393426221055	0,045860590055404486
1	1	0	0	0	0	2	262953,27	0,0100000007	2,50010753	2,7794454055941766E-005	0,010005810799172976	2,50156027E-005	0,035750849320015238	-0,0013339122556579013	0,046249716462556122
1	1	0	0	0	0	2	263093,27	0,0100000007	2,50132966	2,7794937727972867E-005	0,010005984917751536	2,50282665E-005	0,036139979747349184	-0,0013484312350931549	0,046638846889890067
1	1	0	0	0	0	2	263233,27	0,0100000007	2,50228429	2,7794854514197341E-005	0,010005954961369154	2,50377434E-005	0,036529110403675782	-0,0013629502230724322	0,047027977546216666
1	1	0	0	0	0	2	263373,28	0,0100000007	2,50323915	2,7795461383596477E-005	0,010006173429680307	2,50478442E-005	0,036918242806568992	-0,0013774692762184576	0,047417109949109875
1	1	0	0	0	0	2	263513,28	0,0100000007	2,50417471	2,7794657311919664E-005	0,01000588396968316	2,50564808E-005	0,037307376634394784	-0,0013919883825306342	0,047806243776935667
1	1	0	0	0	0	2	263653,28	0,0100000007	2,50526309	2,7794809009155466E-005	0,010005938579636539	2,50675093E-005	0,037696502362545203	-0,001406507186633032	0,048195369505086086
1	1	0	0	0	0	2	263793,28	0,0100000007	2,50614142	2,7795327580637405E-005	0,010006125261775485	2,50767644E-005	0,038085630794033754	-0,0014210260916006102	0,048584497936574637
1	1	0	0	0	0	2	263933,29	0,0100000007	2,50715351	2,7794513181783258E-005	0,01000583208360015	2,50861576E-005	0,03847476262117207	-0,001435545123264447	0,048973629763712954
1	1	0	0	0	0	2	264073,29	0,0100000007	2,5081656	2,7794479896107482E-005	0,010005820101453518	2,5096253E-005	0,03886388749039895	-0,0014500638953192531	0,049362754632939834
1	1	0	0	0	0	2	264213,29	0,0100000007	2,50904393	2,7794811823250102E-005	0,010005939592924066	2,51053425E-005	0,03925301811446201	-0,0014645828820947341	0,049751885257002893
1	1	0	0	0	0	2	264353,29	0,0100000007	2,50988412	2,7795511527142176E-005	0,01000619148147512	2,51143811E-005	0,039642150967540147	-0,0014791019520377648	0,05014101811008103
1	1	0	0	0	0	2	264493,30	0,0100000007	2,51087713	2,7794200695999382E-005	0,010005719591349915	2,51231322E-005	0,040031276318342822	-0,0014936207420608109	0,050530143460883706
1	1	0	0	0	0	2	264633,30	0,0100000007	2,51164079	2,7794782567872768E-005	0,010005929061191013	2,51312995E-005	0,040420400760147392	-0,0015081394981679162	0,050919267902688275
1	1	0	0	0	0	2	264773,30	0,0100000007	2,51271009	2,7794421687722208E-005	0,010005799146838299	2,51416732E-005	0,040809530093374438	-0,0015226584367805699	0,051308397235915322
1	1	0	0	0	0	2	264913,31	0,0100000007	2,51349306	2,7794539133035062E-005	0,010005841425870915	2,51496131E-005	0,041198651082631846	-0,0015371770640684982	0,05169751822517273
1	1	0	0	0	0	2	265053,31	0,0100000007	2,51448607	2,779464897296081E-005	0,010005880967482811	2,51596484E-005	0,041587773900578406	-0,0015516957595872774	0,05208664104311929
1	1	0	0	0	0	2	265193,31	0,0100000007	2,51519251	2,7794112014325546E-005	0,010005687666329085	2,51662314E-005	0,041976893362928634	-0,0015662143299042458	0,052475760505469517
1	1	0	0	0	0	2	265333,31	0,0100000007	2,51610899	2,7794111636519021E-005	0,010005687530263115	2,51754009E-005	0,042366012457599654	-0,0015807328865026083	0,052864879600140538
1	1	0	0	0	0	2	265473,32	0,0100000007	2,51691103	2,7794360922649504E-005	0,010005777271600368	2,51836518E-005	0,042755133051068736	-0,0015952514990231421	0,053254000193609619
1	1	0	0	0	0	2	265613,32	0,0100000007	2,51777029	2,779470001000704E-005	0,010005899340465683	2,51925558E-005	0,043144256361014931	-0,0016097702128990893	0,053643123503555814
1	1	0	0	0	0	2	265753,32	0,0100000007	2,5187633	2,7794489118425798E-005	0,010005823421424189	2,52023001E-005	0,043533378039090682	-0,0016242888658877558	0,054032245181631565
1	1	0	0	0	0	2	265893,32	0,0100000007	2,51945066	2,7794595854977766E-005	0,010005861845843037	2,52092759E-005	0,043922504814779334	-0,0016388077090752138	0,054421371957320218
1	1	0	0	0	0	2	266033,33	0,0100000007	2,5202527	2,7795054766504714E-005	0,010006027050811733	2,5217716E-005	0,044311627582325549	-0,0016533264027134883	0,054810494724866432
1	1	0	0	0	0	2	266173,33	0,0100000007	2,52109289	2,7793753222562371E-005	0,010005558504014314	2,52249429E-005	0,0447007473611528	-0,00166784498483864	0,055199614503693683
1	1	0	0	0	0	2	266313,33	0,0100000007	2,52183747	2,779452113620937E-005	0,010005834947604336	2,52330901E-005	0,045089868789676371	-0,0016823636285161792	0,055588735932217254
1	1	0	0	0	0	2	266453,34	0,0100000007	2,52263951	2,7793500388351581E-005	0,010005467485450982	2,52401878E-005	0,04547898633198713	-0,0016968821271938934	0,055977853474528013
1	1	0	0	0	0	2	266593,34	0,0100000007	2,52344155	2,7793854692743885E-005	0,01000559503211039	2,52485352E-005	0,045868107222007258	-0,0017114007507791453	0,056366974364548141
1	1	0	0	0	0	2	266733,34	0,0100000007	2,52435803	2,7793771593624518E-005	0,01000556511723639	2,52576283E-005	0,04625722600634311	-0,0017259192957984858	0,056756093148883994
1	1	0	0	0	0	2	266873,34	0,0100000007	2,525141	2,779405426647928E-005	0,010005666877388237	2,52657192E-005	0,046646341366645594	-0,0017404377130625376	0,057145208509186483
1	1	0	0	0	0	2	267013,35	0,0100000007	2,52603841	2,7795390023849907E-005	0,010006147740899152	2,52759128E-005	0,04703546633832377	-0,0017549564889399392	0,057534333480864653
1	1	0	0	0	0	2	267153,35	0,0100000007	2,52668762	2,7795301601756365E-005	0,010006115909325418	2,52823284E-005	0,047424597655779981	-0,0017694755015868512	0,057923464798320858
1	1	0	0	0	0	2	267293,35	0,0100000007	2,52748966	2,7794759595611443E-005	0,010005920790870243	2,52898608E-005	0,047813727610493114	-0,0017839944633879866	0,058312594753033997
1	1	0	0	0	0	2	267433,35	0,0100000007	2,52842522	2,7794344565365462E-005	0,010005771383324456	2,52988448E-005	0,048202851564768954	-0,0017985132013047389	0,058701718707309837
1	1	0	0	0	0	2	267573,36	0,0100000007	2,52911282	2,7793789978294323E-005	0,010005571735823038	2,53052203E-005	0,048591971319576986	-0,0018130317825337014	0,059090838462117875
1	1	0	0	0	0	2	267713,36	0,0100000007	2,52987647	2,779424206674513E-005	0,010005734484531619	2,5313273E-005	0,048981092675431738	-0,0018275504234998691	0,059479959817972621
1	1	0	0	0	0	2	267853,36	0,0100000007	2,53071666	2,7794543442212874E-005	0,010005842977610981	2,53219532E-005	0,049370215808836902	-0,001842069130788833	0,059869082951377792
1	1	0	0	0	0	2	267993,36	0,0100000007	2,5314424	2,7794673962932493E-005	0,010005889964165322	2,53293347E-005	0,049759336769720442	-0,0018565877570180941	0,060258203912261325
1	1	0	0	0	0	2	268133,37	0,0100000007	2,53222513	2,7794607270922925E-005	0,010005865955038237	2,53371054E-005	0,050148458533891686	-0,0018711064132190995	0,060647325676432576
1	1	0	0	0	0	2	268273,37	0,0100000007	2,5324924	2,7794586944755994E-005	0,010005858637759037	2,53397611E-005	0,050537583276146298	-0,0018856251805363994	0,061036450418687181
1	1	0	0	0	0	2	268413,37	0,0100000007	2,53308439	2,7795092050244826E-005	0,010006040472466768	2,53461458E-005	0,050926707842580442	-0,0019001439412936013	0,061425574985121331
1	1	0	0	0	0	2	268553,38	0,0100000007	2,53373361	2,7794989035257866E-005	0,010006003387843766	2,53525468E-005	0,051315839187153504	-0,0019146629549522794	0,061814706329694387
1	1	0	0	0	0	2	268693,38	0,0100000007	2,53445935	2,779437651267896E-005	0,010005782883902907	2,53592498E-005	0,051704969528817357	-0,0019291819311910662	0,062203836671358234
1	1	0	0	0	0	2	268833,38	0,0100000007	2,53512764	2,7794461307788477E-005	0,010005813409321602	2,53660146E-005	0,052094097872754611	-0,0019437008328919878	0,062592965015295501
1	1	0	0	0	0	2	268973,38	0,0100000007	2,53573871	2,7794375918650381E-005	0,010005782670289696	2,537205E-005	0,052483219928498707	-0,0019582194999719686	0,062982087071039603
1	1	0	0	0	0	2	269113,39	0,0100000007	2,53634977	2,7794508807154166E-005	0,010005830509229923	2,53782855E-005	0,052872339485428723	-0,0019727380738178358	0,063371206627969638
1	1	0	0	0	0	2	269253,39	0,0100000007	2,53697991	2,7794632424703904E-005	0,01000587501069096	2,53847047E-005	0,053261458181314285	-0,001987256615536977	0,063760325323855194
1	1	0	0	0	0	2	269393,39	0,0100000007	2,53766727	2,779453637590632E-005	0,010005840433789603	2,53914932E-005	0,053650585038192627	-0,0020017754617537315	0,064149452180733555
1	1	0	0	0	0	2	269533,39	0,0100000007	2,53827834	2,7795064913264166E-005	0,0100060307035748	2,53980907E-005	0,054039713469119251	-0,0020162943667003437	0,064538580611660134
1	1	0	0	0	0	2	269673,40	0,0100000007	2,5389657	2,7794995786259987E-005	0,010006005818332459	2,54049064E-005	0,054428845641146349	-0,0020308134112324442	0,064927712783687194
1	1	0	0	0	0	2	269813,40	0,0100000007	2,53969121	2,7795201152977018E-005	0,010006079748461128	2,54123534E-005	0,054817977967368486	-0,0020453324615177693	0,065316845109909325
1	1	0	0	0	0	2	269953,40	0,0100000007	2,54034042	2,779436015094527E-005	0,01000577699379219	2,54180795E-005	0,05520710461440377	-0,0020598512999049971	0,065705971756944602
1	1	0	0	0	0	2	270093,41	0,0100000007	2,54098964	2,7794214224287619E-005	0,010005724461206947	2,54244424E-005	0,05559622816029207	-0,0020743700225842611	0,066095095302832909
1	1	0	0	0	0	2	270233,41	0,0100000007	2,54171538	2,779479592283153E-005	0,010005933868534149	2,54322367E-005	0,055985351696021798	-0,0020888887448844954	0,066484218838562624
1	1	0	0	0	0	2	270373,41	0,0100000007	2,54245996	2,7794527566940006E-005	0,010005837262156866	2,54394399E-005	0,056374472047643885	-0,0021034073483813926	0,066873339190184704
1	1	0	0	0	0	2	270513,41	0,0100000007	2,54265094	2,7794781994902426E-005	0,010005928854459733	2,54415845E-005	0,056763601258049555	-0,002117926282411416	0,067262468400590374
1	1	0	0	0	0	2	270653,42	0,0100000007	2,5434339	2,7794918247343354E-005	0,010005977904859944	2,54495426E-005	0,057152730605818963	-0,002132445221566665	0,067651597748359757
1	1	0	0	0	0	2	270793,42	0,0100000007	2,54427409	2,7794551356799072E-005	0,010005845826807152	2,54576134E-005	0,057541860784944166	-0,0021469641917409165	0,068040727927484941
1	1	0	0	0	0	2	270933,42	0,0100000007	2,54496145	2,7794585215807376E-005	0,010005858015815442	2,54645238E-005	0,057930990600890854	-0,0021614831483644896	0,068429857743431629
1	1	0	0	0	0	2	271073,42	0,0100000007	2,54562974	2,7795056145741709E-005	0,01000602754732749	2,54716415E-005	0,05832012130782263	-0,0021760021382319139	0,068818988450363405
1	1	0	0	0	0	2	271213,43	0,0100000007	2,54633641	2,7795314498142234E-005	0,010006120552400875	2,54789484E-005	0,058709251545794624	-0,0021905211106018179	0,069208118688335411
1	1	0	0	0	0	2	271353,43	0,0100000007	2,54698563	2,7795280894161098E-005	0,010006108455200595	2,54854149E-005	0,05909838171759255	-0,0022050400805026794	0,069597248860133325
1	1	0	0	0	0	2	271493,43	0,0100000007	2,54774928	2,779482641702311E-005	0,010005944846115261	2,54926381E-005	0,059487514749786829	-0,0022195591571287744	0,069986381892327642
1	1	0	0	0	0	2	271633,43	0,0100000007	2,54836035	2,7795545360590848E-005	0,01000620366104915	2,5499412E-005	0,059876647261669261	-0,0022340782143413341	0,070375514404210061
1	1	0	0	0	0	2	271773,44	0,0100000007	2,54895234	2,7795602610800416E-005	0,010006224270611272	2,55053892E-005	0,060265782216212928	-0,0022485973626928694	0,070764649358753754
1	1	0	0	0	0	2	271913,44	0,0100000007	2,54967785	2,7795206993663062E-005	0,010006081851300587	2,5512285E-005	0,06065491913669719	-0,0022631165843962912	0,071153786279238016
1	1	0	0	0	0	2	272053,44	0,0100000007	2,55011702	2,7795292868485882E-005	0,010006112765408579	2,55167579E-005	0,061044054477520563	-0,0022776357471604413	0,071542921620061402
1	1	0	0	0	0	2	272193,45	0,0100000007	2,55067086	2,7795119202385347E-005	0,010006050247282114	2,55221403E-005	0,061433183846857472	-0,0022921546871204029	0,071932050989398285
1	1	0	0	0	0	2	272333,45	0,0100000007	2,55124378	2,779468437993071E-005	0,010005893714212474	2,55274736E-005	0,061822312312307738	-0,0023066735933551389	0,07232117945484855
1	1	0	0	0	0	2	272473,45	0,0100000007	2,55191207	2,7794887178318781E-005	0,010005966720226456	2,55343475E-005	0,062211442040408986	-0,00232119254670108	0,072710309182949798
1	1	0	0	0	0	2	272613,45	0,0100000007	2,55256128	2,7794729406324528E-005	0,010005909923402141	2,55406976E-005	0,062600569963861274	-0,0023357114327131424	0,073099437106402125
1	1	0	0	0	0	2	272753,46	0,0100000007	2,55305767	2,7794401789084077E-005	0,010005791983466502	2,55453633E-005	0,062989695103167654	-0,0023502302148449773	0,073488562245708506
1	1	0	0	0	0	2	272893,46	0,0100000007	2,55378342	2,779494666111552E-005	0,01000598813362097	2,55531268E-005	0,06337882183103113	-0,0023647490562480138	0,073877688973571981
1	1	0	0	0	0	2	273033,46	0,0100000007	2,55406976	2,779486070221497E-005	0,010005957188546677	2,55559135E-005	0,063767948228858752	-0,0023792678853369686	0,074266815371399603
1	1	0	0	0	0	2	273173,46	0,0100000007	2,55448985	2,7794962421628752E-005	0,010005993806830555	2,55602099E-005	0,064157081621440678	-0,0023937869754096109	0,07465594876398153
1	1	0	0	0	0	2	273313,47	0,0100000007	2,55513906	2,7795462294636915E-005	0,010006173757765034	2,55671657E-005	0,06454621392937879	-0,0024083060250127344	0,075045081071919642
1	1	0	0	0	0	2	273453,47	0,0100000007	2,55582643	2,7794514992481302E-005	0,010005832735671858	2,5573172E-005	0,064935347369537152	-0,0024228251168605178	0,075434214512078003
1	1	0	0	0	0	2	273593,47	0,0100000007	2,55630398	2,7794526897681254E-005	0,010005837021461317	2,55779614E-005	0,065324473606777382	-0,0024373439399577411	0,075823340749318234
1	1	0	0	0	0	2	273733,48	0,0100000007	2,55693388	2,7794460179180736E-005	0,010005813003030637	2,55842024E-005	0,065713596189612774	-0,0024518626267042058	0,076212463332153613
1	1	0	0	0	0	2	273873,48	0,0100000007	2,55756402	2,7795472728864598E-005	0,010006177514364128	2,55914401E-005	0,066102724819935027	-0,002466381539090537	0,076601591962475878
1	1	0	0	0	0	2	274013,48	0,0100000007	2,55815601	2,7794889684404349E-005	0,010005967622399888	2,55968262E-005	0,066491855935064192	-0,0024809005441883552	0,076990723077605043
1	1	0	0	0	0	2	274153,48	0,0100000007	2,55878615	2,7794203306186118E-005	0,010005720530999048	2,56024996E-005	0,066880979730439693	-0,0024954192761763222	0,077379846872980531
1	1	0	0	0	0	2	274293,49	0,0100000007	2,55945444	2,7795040351442163E-005	0,010006021861489134	2,56099574E-005	0,067270110980823078	-0,002509938286320657	0,07776897812336393
1	1	0	0	0	0	2	274433,49	0,0100000007	2,56002736	2,7795002184446074E-005	0,010006008121635101	2,56156545E-005	0,067659240599915341	-0,0025244572355993264	0,078158107742456179
1	1	0	0	0	0	2	274573,49	0,0100000007	2,5606575	2,7795116053221539E-005	0,010006049113604971	2,56220646E-005	0,068048373008187597	-0,0025389762889460522	0,078547240150728448
1	1	0	0	0	0	2	274713,49	0,0100000007	2,56111574	2,7795078127748435E-005	0,010006035460231606	2,56266158E-005	0,068437503454183552	-0,0025534952690776099	0,078936370596724403
1	1	0	0	0	0	2	274853,50	0,0100000007	2,56172681	2,7794917857791814E-005	0,010005977764391122	2,5632582E-005	0,068826637006838976	-0,0025680143651228096	0,079325504149379814
1	1	0	0	0	0	2	274993,50	0,0100000007	2,56237602	2,7795813143718986E-005	0,010006300061119104	2,56399035E-005	0,069215772787269005	-0,0025825335442892758	0,079714639929809856
1	1	0	0	0	0	2	275133,50	0,0100000007	2,56292987	2,7795125588567722E-005	0,010006052546030534	2,56448111E-005	0,0696049077002048	-0,0025970526910883651	0,080103774842745651
1	1	0	0	0	0	2	275273,51	0,0100000007	2,56354094	2,7794580164106771E-005	0,010005856196772317	2,56504227E-005	0,069994032784087078	-0,0026115714711522528	0,08049289992662793
1	1	0	0	0	0	2	275413,51	0,0100000007	2,56283426	2,7795191297048912E-005	0,010006076200395328	2,56439143E-005	0,070383162405033254	-0,0026260904205000938	0,080882029547574106
1	1	0	0	0	0	2	275553,51	0,0100000007	2,56310153	2,7794791725050243E-005	0,010005932357711429	2,56462208E-005	0,07077229464142249	-0,002640609467433632	0,081271161783963328
1	1	0	0	0	0	2	275693,51	0,0100000007	2,56352162	2,779422005892007E-005	0,010005726561867146	2,5649897E-005	0,071161423700165146	-0,002655128395804905	0,081660290842705997
1	1	0	0	0	0	2	275833,52	0,0100000007	2,56396103	2,7795099648077869E-005	0,010006043207866965	2,56551048E-005	0,07155055245803575	-0,0026696473129502362	0,082049419600576602
1	1	0	0	0	0	2	275973,52	0,0100000007	2,56447649	2,7794693330147613E-005	0,01000589693622852	2,56598869E-005	0,07193968124920855	-0,0026841662313381174	0,082438548391749402
1	1	0	0	0	0	2	276113,52	0,0100000007	2,56483936	2,7795726564040202E-005	0,010006268893267853	2,56644726E-005	0,07232881235905705	-0,0026986852362389072	0,082827679501597901
1	1	0	0	0	0	2	276253,52	0,0100000007	2,56527853	2,7794474704035869E-005	0,010005818231877805	2,56677104E-005	0,072717941906241792	-0,0027132041828346102	0,083216809048782643
1	1	0	0	0	0	2	276393,53	0,0100000007	2,5658896	2,7795118460845616E-005	0,010006049979867018	2,56744188E-005	0,073107077543150554	-0,0027277233566461046	0,083605944685691405
1	1	0	0	0	0	2	276533,53	0,0100000007	2,56638598	2,7795450843767158E-005	0,010006169635647779	2,56796939E-005	0,07349621062490071	-0,0027422424351211952	0,083995077767441562
1	1	0	0	0	0	2	276673,53	0,0100000007	2,56711149	2,7796027140122736E-005	0,010006377098224619	2,56874864E-005	0,073885349072282368	-0,0027567617137952122	0,084384216214823206
1	1	0	0	0	0	2	276813,53	0,0100000007	2,56753159	2,7795767382563405E-005	0,010006283587420294	2,569145E-005	0,074274489602528614	-0,0027712810701837069	0,084773356745069453
1	1	0	0	0	0	2	276953,54	0,0100000007	2,56806636	2,7796215018257498E-005	0,010006444732934341	2,56972144E-005	0,07466363754718359	-0,002785800703213761	0,085162504689724442
1	1	0	0	0	0	2	277093,54	0,0100000007	2,56873465	2,7796243968626688E-005	0,010006455155332531	2,57039283E-005	0,075052783143003853	-0,002800320248605633	0,085551650285544704
1	1	0	0	0	0	2	277233,54	0,0100000007	2,56913567	2,7795378366847421E-005	0,010006143544692029	2,57071406E-005	0,075441926001329971	-0,0028148396918579178	0,085940793143870822
1	1	0	0	0	0	2	277373,55	0,0100000007	2,56959391	2,7796070683695786E-005	0,010006392773958552	2,57123666E-005	0,07583106734156192	-0,0028293590784680685	0,086329934484102771
1	1	0	0	0	0	2	277513,55	0,0100000007	2,57016683	2,7796421560044918E-005	0,010006519087012093	2,57184238E-005	0,076220209751671398	-0,0028438785049967882	0,08671907689421225
1	1	0	0	0	0	2	277653,55	0,0100000007	2,57072043	2,7795123126099094E-005	0,010006051659791864	2,57227621E-005	0,076609351159711014	-0,0028583978941369338	0,087108218302251866
1	1	0	0	0	0	2	277793,55	0,0100000007	2,57140803	2,7795347255292454E-005	0,010006132344747893	2,57298489E-005	0,076998484804398246	-0,0028729169936159638	0,087497351946939098
1	1	0	0	0	0	2	277933,56	0,0100000007	2,57203817	2,7795290575880144E-005	0,010006111940086403	2,57361025E-005	0,077387620674041984	-0,002887436176111113	0,087886487816582822
1	1	0	0	0	0	2	278073,56	0,0100000007	2,57249641	2,7795427565048966E-005	0,01000616125547059	2,57408137E-005	0,077776757041054682	-0,0029019553771637664	0,08827562418359552
1	1	0	0	0	0	2	278213,56	0,0100000007	2,57293558	2,779603110279681E-005	0,010006378524759818	2,57457668E-005	0,078165900630336422	-0,0029164748476889888	0,088664767772877274
1	1	0	0	0	0	2	278353,56	0,0100000007	2,573241	2,7795520191184349E-005	0,01000619460012079	2,57483498E-005	0,078555038958459302	-0,0029309941219133005	0,089053906101000154
1	1	0	0	0	0	2	278493,57	0,0100000007	2,57379484	2,7795724966304582E-005	0,010006268317628163	2,57540814E-005	0,078944178883075494	-0,0029455134557049235	0,089443046025616346
1	1	0	0	0	0	2	278633,57	0,0100000007	2,57419586	2,7795825408254234E-005	0,010006304476033806	2,57581869E-005	0,079333320633879258	-0,0029600328576340602	0,089832187776420109
1	1	0	0	0	0	2	278773,57	0,0100000007	2,57476854	2,7795978945938662E-005	0,01000635974900188	2,57640604E-005	0,079722467126447782	-0,002974552436484816	0,090221334268988634
1	1	0	0	0	0	2	278913,58	0,0100000007	2,57530332	2,7795589497312902E-005	0,010006219550196122	2,57690499E-005	0,08011161094777751	-0,0029890719156680602	0,090610478090318362
1	1	0	0	0	0	2	279053,58	0,0100000007	2,57572341	2,7796441635582595E-005	0,010006526314066502	2,57740448E-005	0,080500755515182899	-0,003003591422688391	0,09099962265772375
1	1	0	0	0	0	2	279193,58	0,0100000007	2,5762198	2,7795871494700096E-005	0,01000632106730081	2,57784832E-005	0,08088990091230903	-0,0030181109606667181	0,091388768054849882
1	1	0	0	0	0	2	279333,58	0,0100000007	2,57667804	2,779619166063559E-005	0,010006436324818314	2,57833653E-005	0,08127904818923657	-0,0030326305687829626	0,091777915331777408
1	1	0	0	0	0	2	279473,59	0,0100000007	2,57709813	2,779567224232273E-005	0,010006249337826101	2,5787087E-005	0,081668190007878771	-0,0030471499732432435	0,092167057150419622
1	1	0	0	0	0	2	279613,59	0,0100000007	2,57761383	2,7796285602833248E-005	0,010006470142892344	2,5792815E-005	0,082057337713234522	-0,0030616695973447206	0,092556204855775373
1	1	0	0	0	0	2	279753,59	0,0100000007	2,57795739	2,779641368524689E-005	0,01000651625190641	2,57963729E-005	0,082446482897835994	-0,0030761891273934669	0,092945350040376832
1	1	0	0	0	0	2	279893,59	0,0100000007	2,57843494	2,7796444251098566E-005	0,010006527255459387	2,58011787E-005	0,082835634419689651	-0,0030907088938936128	0,093334501562230502
1	1	0	0	0	0	2	280033,60	0,0100000007	2,57883596	2,7796511124612554E-005	0,010006551329402635	2,58052551E-005	0,083224784399986445	-0,003105228602876199	0,093723651542527296
1	1	0	0	0	0	2	280173,60	0,0100000007	2,57940865	2,7796470934266429E-005	0,010006536860923638	2,58109485E-005	0,083613937084343654	-0,0031197484127509158	0,094112804226884506
1	1	0	0	0	0	2	280313,60	0,0100000007	2,57984781	2,7796579117990202E-005	0,010006575806780262	2,58154432E-005	0,084003082225544576	-0,003134267941180329	0,094501949368085427
1	1	0	0	0	0	2	280453,60	0,0100000007	2,58030605	2,779611129888023E-005	0,010006407395143421	2,58195942E-005	0,08439223252970359	-0,0031487876622466502	0,094891099672244429
1	1	0	0	0	0	2	280593,61	0,0100000007	2,58084083	2,7796216320505158E-005	0,010006445202200426	2,5825042E-005	0,08478137643020425	-0,0031633071443838694	0,095280243572745101
1	1	0	0	0	0	2	280733,61	0,0100000007	2,58137536	2,7796261956708298E-005	0,010006461630917222	2,58304335E-005	0,085170525936289229	-0,0031778268356729747	0,095669393078830067
1	1	0	0	0	0	2	280873,61	0,0100000007	2,58181477	2,7796105701321117E-005	0,010006405380060941	2,58346845E-005	0,085559675861994893	-0,0031923465426186931	0,096058543004535744
1	1	0	0	0	0	2	281013,62	0,0100000007	2,58223486	2,7796005444963357E-005	0,01000636928846709	2,58387954E-005	0,085948824004528013	-0,0032068661830318464	0,096447691147068864
1	1	0	0	0	0	2	281153,62	0,0100000007	2,58278847	2,7796564951280336E-005	0,01000657070639695	2,58448563E-005	0,086337972680215104	-0,0032213858433376909	0,096836839822755955
1	1	0	0	0	0	2	281293,62	0,0100000007	2,58322763	2,7795480153782083E-005	0,010006180186817016	2,58482414E-005	0,086727115582607424	-0,0032359052882341453	0,097225982725148275
1	1	0	0	0	0	2	281433,62	0,0100000007	2,58378148	2,7795994656419174E-005	0,01000636540443299	2,58542623E-005	0,08711625851031351	-0,0032504247340750899	0,097615125652854362
1	1	0	0	0	0	2	281573,63	0,0100000007	2,58422065	2,7796451456068701E-005	0,01000652984902396	2,58590808E-005	0,087505408377468454	-0,0032649444388362016	0,098004275520009306
1	1	0	0	0	0	2	281713,63	0,0100000007	2,58446884	2,7796511648791949E-005	0,010006551517870605	2,58616201E-005	0,087894556261996314	-0,003279464069622832	0,098393423404537165
1	1	0	0	0	0	2	281853,63	0,0100000007	2,58502269	2,7796369788443878E-005	0,010006500449128624	2,58670316E-005	0,088283703418307379	-0,0032939836732387136	0,09878257056084823
1	1	0	0	0	0	2	281993,63	0,0100000007	2,5854044	2,7795818518019386E-005	0,010006301996062968	2,58703367E-005	0,088672851619865229	-0,0033085033158541587	0,09917171876240608
1	1	0	0	0	0	2	282133,64	0,0100000007	2,58607292	2,7796401266836454E-005	0,010006511781597712	2,5877569E-005	0,08906200130441257	-0,003323023013801936	0,099560868446953421
1	1	0	0	0	0	2	282273,64	0,0100000007	2,58643556	2,7796222582097267E-005	0,010006447456330182	2,58810323E-005	0,089451145019374694	-0,0033375424890164621	0,099950012161915546
1	1	0	0	0	0	2	282313,24	0,0100000007	2,58662653	2,6675045938593232E-005	0,010006485177990954	2,58830405E-005	0,089561209231824051	-0,0033416491327658554	0,1000600763743649