File: Experimentelles/Rohdaten/Batteriemessungen/AlteZelle/150511_LLTO_LTO_Tests/ZView-Export/LLTO_LP30_LTO_05_GCPL_C01_loop0.txt
EC-Lab ASCII FILE
Nb header lines : 3
mode	ox/red	error	control changes	Ns changes	counter inc.	Ns	time/s	control/V/mA	Ewe/V	dq/mA.h	<I>/mA	P/W	(Q-Qo)/mA.h	x	Capacity/mA.h
1	1	0	0	1	0	2	12843,50	0,0100000007	0,634738743	0	0	0	0	0	0
1	1	0	0	0	0	2	12973,50	0,0100000007	0,903919637	2,7794440268021491E-005	0,010005998617632298	9,04461831E-006	0,00036118911271104461	-1,3476451419175965E-005	0,00036118911271104461
1	1	0	0	0	0	2	13103,50	0,0100000007	1,0437516	2,7794618141268275E-005	0,010006062652001917	1,04438441E-005	0,00072251842051818842	-2,6958133705881706E-005	0,00072251842051818842
1	1	0	0	0	0	2	13233,50	0,0100000007	1,155285	2,7793917230951286E-005	0,010005810324284746	1,15595622E-005	0,0010838417818727579	-4,0439594122446803E-005	0,0010838417818727579
1	1	0	0	0	0	2	13363,50	0,0100000007	1,25285995	2,7794140567589136E-005	0,010005890725475344	1,25359802E-005	0,0014451648882690285	-5,3921045026174989E-005	0,0014451648882690285
1	1	0	0	0	0	2	13493,50	0,0100000007	1,34168947	2,7794861590593226E-005	0,010006150293759958	1,34251468E-005	0,0018064925801468586	-6,7402667020385382E-005	0,0018064925801468586
1	1	0	0	0	0	2	13623,50	0,0100000007	1,42393124	2,7794574849462758E-005	0,010006047066951741	1,4247923E-005	0,0021678212471455014	-8,0884325397664371E-005	0,0021678212471455014
1	1	0	0	0	0	2	13753,50	0,0100000007	1,50055909	2,779453381632144E-005	0,010006032295020688	1,50146425E-005	0,0025291491593023341	-9,4365955610780518E-005	0,0025291491593023341
1	1	0	0	0	0	2	13883,50	0,0100000007	1,57290971	2,779409536160529E-005	0,010005874451320962	1,57383365E-005	0,0028904754818376973	-0,0001078475265129824	0,0028904754818376973
1	1	0	0	0	0	2	14013,50	0,0100000007	1,6412313	2,7794633804044374E-005	0,010006068290601379	1,64222729E-005	0,0032518020430610496	-0,00012132910632095406	0,0032518020430610496
1	1	0	0	0	0	2	14143,50	0,0100000007	1,70628762	2,7793938942770989E-005	0,010005818140539933	1,70728035E-005	0,0036131314502280506	-0,00013481079231490966	0,0036131314502280506
1	1	0	0	0	0	2	14273,50	0,0100000007	1,76809788	2,7794546258325376E-005	0,01000603677414216	1,76916528E-005	0,003974461728256112	-0,0001482925108018623	0,003974461728256112
1	1	0	0	0	0	2	14403,50	0,0100000007	1,82712018	2,7794245816767216E-005	0,010005928615179912	1,82820349E-005	0,0043357919194761658	-0,00016177422604989149	0,0043357919194761658
1	1	0	0	0	0	2	14533,50	0,0100000007	1,88322103	2,7794679570839635E-005	0,010006084766647874	1,88436697E-005	0,0046971203118058963	-0,00017525587417890403	0,0046971203118058963
1	1	0	0	0	0	2	14663,50	0,0100000007	1,93661034	2,7793978099918202E-005	0,010005832237113099	1,93773976E-005	0,0050584465905947091	-0,0001887374434488633	0,0050584465905947091
1	1	0	0	0	0	2	14793,50	0,0100000007	1,98723102	2,779446796964233E-005	0,010006008590215922	1,98842499E-005	0,0054197757037120755	-0,00020221911847143168	0,0054197757037120755
1	1	0	0	0	0	2	14923,50	0,0100000007	2,03546476	2,7794528727419677E-005	0,01000603046301603	2,03669224E-005	0,0057811022690288486	-0,00021570069843213437	0,0057811022690288486
1	1	0	0	0	0	2	15053,50	0,0100000007	2,08123517	2,7794266098385885E-005	0,01000593591656272	2,08247056E-005	0,0061424328006060659	-0,00022918242637934694	0,0061424328006060659
1	1	0	0	0	0	2	15183,50	0,0100000007	2,12511539	2,7794725794966022E-005	0,010006101407333574	2,12641207E-005	0,0065037618862284109	-0,0002426641003760391	0,0065037618862284109
1	1	0	0	0	0	2	15313,50	0,0100000007	2,16712427	2,7793963504386032E-005	0,010005826982721456	2,16838707E-005	0,006865086514772503	-0,00025614560807314906	0,006865086514772503
1	1	0	0	0	0	2	15443,50	0,0100000007	2,20694351	2,7795410904929872E-005	0,010006348046923544	2,20834445E-005	0,0072264136516643469	-0,00026962720936008611	0,0072264136516643469
1	1	0	0	0	0	2	15573,50	0,0100000007	2,24545789	2,7795563940890134E-005	0,010006403139869909	2,24689575E-005	0,0075877553863344998	-0,00028310935530975882	0,0075877553863344998
1	1	0	0	0	0	2	15703,50	0,0100000007	2,2820437	2,7796211757904125E-005	0,010006636353997768	2,28355821E-005	0,007949097514612617	-0,00029659151594547386	0,007949097514612617
1	1	0	0	0	0	2	15833,50	0,0100000007	2,31700659	2,779566498535375E-005	0,01000643951587725	2,31849863E-005	0,0083104402473940083	-0,00031007369913601888	0,0083104402473940083
1	1	0	0	0	0	2	15963,50	0,0100000007	2,35009789	2,7795145417667098E-005	0,01000625247150779	2,35156731E-005	0,0086717800110615987	-0,00032355577154493594	0,0086717800110615987
1	1	0	0	0	0	2	16093,50	0,0100000007	2,38139462	2,7795444774286202E-005	0,010006360239891971	2,38290922E-005	0,0090331121365533184	-0,0003370375589632416	0,0090331121365533184
1	1	0	0	0	0	2	16223,50	0,0100000007	2,4108007	2,7795210552143139E-005	0,010006275919919448	2,41231373E-005	0,0093944478564779981	-0,00035051948049467379	0,0093944478564779981
1	1	0	0	0	0	2	16353,50	0,0100000007	2,43833542	2,7794499890723578E-005	0,010006020081805309	2,43980339E-005	0,009755782987892128	-0,00036400138006798611	0,009755782987892128
1	1	0	0	0	0	2	16483,50	0,0100000007	2,46438098	2,7795078614830141E-005	0,010006228422486194	2,4659159E-005	0,0101171145763772	-0,00037748314744985171	0,0101171145763772
1	1	0	0	0	0	2	16613,50	0,0100000007	2,48907065	2,7794529578545027E-005	0,01000603076942116	2,49057175E-005	0,010478447035521856	-0,00039096494731719712	0,010478447035521856
1	1	0	0	0	0	2	16743,50	0,0100000007	2,51213741	2,7794414156426986E-005	0,010005989217458162	2,51364199E-005	0,010839776740128707	-0,00040444664440903341	0,010839776740128707
1	1	0	0	0	0	2	16873,50	0,0100000007	2,53396273	2,7794448085801885E-005	0,010006001432033272	2,53548351E-005	0,011201102333066584	-0,0004179281880889721	0,011201102333066584
1	1	0	0	0	0	2	17003,50	0,0100000007	2,55473804	2,7795041723849459E-005	0,010006215141732989	2,55632585E-005	0,01156243692991511	-0,00043141006771692301	0,01156243692991511
1	1	0	0	0	0	2	17133,50	0,0100000007	2,57400489	2,7794346291416637E-005	0,010005964786054141	2,5755402E-005	0,011923768949884931	-0,00044489185119806477	0,011923768949884931
1	1	0	0	0	0	2	17263,50	0,0100000007	2,59199214	2,7795281552709638E-005	0,010006301480123698	2,5936255E-005	0,012285100921850816	-0,00045837363288811514	0,012285100921850816
1	1	0	0	0	0	2	17393,50	0,0100000007	2,60856652	2,7795469718002198E-005	0,01000636921962984	2,61022797E-005	0,01264644184600863	-0,00047185574859648275	0,01264644184600863
1	1	0	0	0	0	2	17523,50	0,0100000007	2,62418628	2,7795394045921664E-005	0,010006341977680517	2,62585054E-005	0,013007778750202578	-0,0004853377143145936	0,013007778750202578
1	1	0	0	0	0	2	17653,50	0,0100000007	2,63829732	2,7795349804374077E-005	0,010006326050723194	2,63996626E-005	0,01336912151904064	-0,00049881989885046144	0,01336912151904064
1	1	0	0	0	0	2	17783,50	0,0100000007	2,65143466	2,7795804338477968E-005	0,010006489683002576	2,65315539E-005	0,013730463393973872	-0,00051230205003353824	0,013730463393973872
1	1	0	0	0	0	2	17913,50	0,0100000007	2,66348362	2,779571601986471E-005	0,010006457888301418	2,66520365E-005	0,014091805851251158	-0,00052578422294465466	0,014091805851251158
1	1	0	0	0	0	2	18043,50	0,0100000007	2,67461586	2,7795296716710762E-005	0,010006306939164168	2,67630276E-005	0,014453149187210653	-0,00053926642864058554	0,014453149187210653
1	1	0	0	0	0	2	18173,50	0,0100000007	2,68507981	2,7796102942536688E-005	0,010006597180465014	2,68685126E-005	0,014814494549208595	-0,0005527487099307351	0,014814494549208595
1	1	0	0	0	0	2	18303,50	0,0100000007	2,69451284	2,7796021093924842E-005	0,010006567714964394	2,69628254E-005	0,015175841923077037	-0,00056623106628647795	0,015175841923077037
1	1	0	0	0	0	2	18433,50	0,0100000007	2,70337272	2,7795796532080406E-005	0,010006486872699418	2,70512628E-005	0,015537189226958086	-0,00057971342003089715	0,015537189226958086
1	1	0	0	0	0	2	18563,50	0,0100000007	2,71186996	2,7796034586201939E-005	0,010006572572184208	2,71365243E-005	0,015898538480732803	-0,00059319584652847078	0,015898538480732803
1	1	0	0	0	0	2	18693,50	0,0100000007	2,71983266	2,7794868727059414E-005	0,010006152862887818	2,7215061E-005	0,01625988270942593	-0,00060667808553349376	0,01625988270942593
1	1	0	0	0	0	2	18823,50	0,0100000007	2,72729874	2,7795790904615488E-005	0,010006484846812022	2,72906727E-005	0,016621222966455027	-0,00062016017635039194	0,016621222966455027
1	1	0	0	0	0	2	18953,50	0,0100000007	2,7344594	2,7795366304357434E-005	0,010006331990717272	2,7361908E-005	0,016982561415369568	-0,00063364219970410509	0,016982561415369568
1	1	0	0	0	0	2	19083,50	0,0100000007	2,7415626	2,7795944395009427E-005	0,01000654010335451	2,74335562E-005	0,01734390438985664	-0,00064712439191301402	0,01734390438985664
1	1	0	0	0	0	2	19213,50	0,0100000007	2,74830317	2,7796210910555805E-005	0,010006636048952368	2,75012699E-005	0,017705251881608486	-0,00066060675266714509	0,017705251881608486
1	1	0	0	0	0	2	19343,50	0,0100000007	2,75473809	2,7796043714404931E-005	0,010006575858337325	2,75654966E-005	0,018066595544229325	-0,00067408897055125005	0,018066595544229325
1	1	0	0	0	0	2	19473,50	0,0100000007	2,76119232	2,7796132907633565E-005	0,010006607967900022	2,76301689E-005	0,018427941504672131	-0,00068757127417018202	0,018427941504672131
1	1	0	0	0	0	2	19603,50	0,0100000007	2,76735997	2,7795994018773651E-005	0,010006557967909846	2,76917472E-005	0,018789290497715597	-0,00070105369093952205	0,018789290497715597
1	1	0	0	0	0	2	19733,50	0,0100000007	2,77339387	2,7795425044993558E-005	0,010006353137346536	2,77515592E-005	0,019150630628887885	-0,00071453577706053338	0,019150630628887885
1	1	0	0	0	0	2	19863,50	0,0100000007	2,77923679	2,7795832149270509E-005	0,01000649969488801	2,78104326E-005	0,019511973163149482	-0,00072801795284403802	0,019511973163149482
1	1	0	0	0	0	2	19993,50	0,0100000007	2,78492713	2,7796120792368637E-005	0,010006603606404594	2,78676616E-005	0,01987331887347128	-0,00074150024713061888	0,01987331887347128
1	1	0	0	0	0	2	20123,50	0,0100000007	2,79042649	2,7796340134874397E-005	0,010006682569707626	2,79229116E-005	0,020234670890606688	-0,00075498277673289523	0,020234670890606688
1	1	0	0	0	0	2	20253,50	0,0100000007	2,79584956	2,7796208165999917E-005	0,010006635060912237	2,79770466E-005	0,02059602273606768	-0,00076846529992976832	0,02059602273606768
1	1	0	0	0	0	2	20383,50	0,0100000007	2,80113864	2,7795514674391597E-005	0,010006385403930218	2,80292734E-005	0,020957369637502051	-0,0007819476386583607	0,020957369637502051
1	1	0	0	0	0	2	20513,50	0,0100000007	2,80608439	2,7796207874082032E-005	0,010006634955821797	2,80794629E-005	0,021318718525909203	-0,00079543005152357914	0,021318718525909203
1	1	0	0	0	0	2	20643,50	0,0100000007	2,81083894	2,7795758677129117E-005	0,01000647324491679	2,81265839E-005	0,021680064699912598	-0,00080891236311074394	0,021680064699912598
1	1	0	0	0	0	2	20773,50	0,0100000007	2,81540275	2,77957458431936E-005	0,010006468624699947	2,81722387E-005	0,02204141066290055	-0,00082239466682463872	0,02204141066290055
1	1	0	0	0	0	2	20903,50	0,0100000007	2,82013822	2,7796333983385315E-005	0,01000668035517153	2,82202218E-005	0,02240276191365729	-0,00083587716783229645	0,02240276191365729
1	1	0	0	0	0	2	21033,50	0,0100000007	2,82441545	2,7796131326765235E-005	0,010006607398787418	2,82628171E-005	0,02276411527002359	-0,00084935974740307802	0,02276411527002359
1	1	0	0	0	0	2	21163,50	0,0100000007	2,82876897	2,7796579289353555E-005	0,010006768665321163	2,83068366E-005	0,023125466834611149	-0,0008628422601201856	0,023125466834611149
1	1	0	0	0	0	2	21293,50	0,0100000007	2,83285546	2,7795942908101197E-005	0,010006539568067541	2,83470799E-005	0,02348681711454001	-0,00087632472490494976	0,02348681711454001
1	1	0	0	0	0	2	21423,50	0,0100000007	2,83676982	2,7796591408861181E-005	0,01000677302834396	2,83869122E-005	0,023848166642717133	-0,00088980716164084621	0,023848166642717133
1	1	0	0	0	0	2	21553,50	0,0100000007	2,84068441	2,7796292383223773E-005	0,010006665379113192	2,84257785E-005	0,024209522391878688	-0,00090328983049003558	0,024209522391878688
1	1	0	0	0	0	2	21683,50	0,0100000007	2,8444078	2,7796315640987206E-005	0,010006673751908131	2,84630605E-005	0,024570874317741014	-0,00091677235668679066	0,024570874317741014
1	1	0	0	0	0	2	21813,50	0,0100000007	2,84797859	2,7796932991956256E-005	0,010006895998259677	2,84994258E-005	0,024932227440779405	-0,00093025492755179405	0,024932227440779405
1	1	0	0	0	0	2	21943,50	0,0100000007	2,85120559	2,7796111854207187E-005	0,010006600388666434	2,85308743E-005	0,025293581809245974	-0,00094373754488539738	0,025293581809245974
1	1	0	0	0	0	2	22073,50	0,0100000007	2,85447073	2,7796282949133053E-005	0,010006661982840491	2,85637234E-005	0,025654934885514173	-0,00095722011400534208	0,025654934885514173
1	1	0	0	0	0	2	22203,50	0,0100000007	2,85769796	2,7796448630125574E-005	0,01000672162799852	2,85961887E-005	0,0260162923847888	-0,00097070284815360346	0,0260162923847888
1	1	0	0	0	0	2	22333,50	0,0100000007	2,86060023	2,7796684708239302E-005	0,010006806616120493	2,86254726E-005	0,026377649263041658	-0,00098418555913070771	0,026377649263041658
1	1	0	0	0	0	2	22463,50	0,0100000007	2,86342645	2,7796147158472899E-005	0,010006613098202246	2,86532013E-005	0,026739002014281277	-0,00099766811612339904	0,026739002014281277
1	1	0	0	0	0	2	22593,50	0,0100000007	2,86621428	2,7796167266658611E-005	0,010006620337149187	2,86811173E-005	0,027100357419556102	-0,0010111507721417125	0,027100357419556102
1	1	0	0	0	0	2	22723,50	0,0100000007	2,86873484	2,7796138432032118E-005	0,010006609956683525	2,87063103E-005	0,027461710359201402	-0,0010246333361640733	0,027461710359201402
1	1	0	0	0	0	2	22853,50	0,0100000007	2,87133169	2,7796385683378E-005	0,01000669896716912	2,87325511E-005	0,027823061287969402	-0,0010381158251578979	0,027823061287969402
1	1	0	0	0	0	2	22983,50	0,0100000007	2,87368035	2,7796197657835568E-005	0,010006631277973026	2,87558596E-005	0,028184414423893725	-0,0010515983965036931	0,028184414423893725
1	1	0	0	0	0	2	23113,50	0,0100000007	2,87618184	2,7796332776908659E-005	0,010006679920839926	2,87810308E-005	0,028545768700115642	-0,0010650810103955243	0,028545768700115642
1	1	0	0	0	0	2	23243,50	0,0100000007	2,87828207	2,7797299783159459E-005	0,01000702804309443	2,88030496E-005	0,028907127799886125	-0,0010785638042604381	0,028907127799886125
1	1	0	0	0	0	2	23373,50	0,0100000007	2,88032532	2,7797270654597216E-005	0,010007017556811894	2,8823466E-005	0,029268489699199123	-0,001092046702580047	0,029268489699199123
1	1	0	0	0	0	2	23503,50	0,0100000007	2,88233042	2,7797087797895072E-005	0,010006951728398326	2,88433421E-005	0,029629850624435174	-0,0011055295645555352	0,029629850624435174
1	1	0	0	0	0	2	23633,50	0,0100000007	2,88414431	2,7796912492563328E-005	0,010006888618478134	2,88613101E-005	0,029991208770435098	-0,0011190123228339872	0,029991208770435098
1	1	0	0	0	0	2	23763,50	0,0100000007	2,88592005	2,7796553874284854E-005	0,010006759515896322	2,88787087E-005	0,030352565013401779	-0,0011324950101077098	0,030352565013401779
1	1	0	0	0	0	2	23893,50	0,0100000007	2,88775325	2,7796806226277517E-005	0,010006850362614781	2,88973151E-005	0,03071392386185879	-0,0011459777945957802	0,03071392386185879
1	1	0	0	0	0	2	24023,50	0,0100000007	2,88947177	2,7796722594441642E-005	0,010006820255153501	2,89144245E-005	0,031075280383069171	-0,0011594604922511491	0,031075280383069171
1	1	0	0	0	0	2	24153,50	0,0100000007	2,89092302	2,779642650541953E-005	0,01000671366310425	2,89286381E-005	0,031436632909285939	-0,0011729430408479352	0,031436632909285939
1	1	0	0	0	0	2	24283,50	0,0100000007	2,89245057	2,7796709036299338E-005	0,010006815374222211	2,89442196E-005	0,031797989528617101	-0,001186425742164323	0,031797989528617101
1	1	0	0	0	0	2	24413,50	0,0100000007	2,8936727	2,7796006098389626E-005	0,010006562316571651	2,89557156E-005	0,032159337738358208	-0,001199908129707599	0,032159337738358208
1	1	0	0	0	0	2	24543,50	0,0100000007	2,89495206	2,7796508077169872E-005	0,010006743028934728	2,89690415E-005	0,032520692119134387	-0,0012133907475004902	0,032520692119134387
1	1	0	0	0	0	2	24673,50	0,0100000007	2,89617419	2,7796138999621488E-005	0,010006610161015701	2,89808868E-005	0,03288204821957239	-0,0012268734294562765	0,03288204821957239
1	1	0	0	0	0	2	24803,50	0,0100000007	2,89728165	2,779705934309297E-005	0,010006941484669445	2,89929285E-005	0,033243405822909741	-0,0012403561674872581	0,033243405822909741
1	1	0	0	0	0	2	24933,50	0,0100000007	2,89810276	2,7796910879564368E-005	0,010006888037798502	2,90009903E-005	0,033604763657740422	-0,0012538389141555669	0,033604763657740422
1	1	0	0	0	0	2	25063,50	0,0100000007	2,89913392	2,7796781583533933E-005	0,010006841491226981	2,9011173E-005	0,033966117894585869	-0,001267321526578209	0,033966117894585869
1	1	0	0	0	0	2	25193,50	0,0100000007	2,8999548	2,7797210716642438E-005	0,010006995979147915	2,90198368E-005	0,034327480786376218	-0,0012808044619284822	0,034327480786376218
1	1	0	0	0	0	2	25323,50	0,0100000007	2,90071869	2,7796583671588451E-005	0,010006770242925746	2,90268254E-005	0,034688841359181536	-0,0012942873107543062	0,034688841359181536
1	1	0	0	0	0	2	25453,50	0,0100000007	2,90142512	2,7797128716845891E-005	0,010006966459220802	2,90344633E-005	0,035050200075819872	-0,0013077700903240445	0,035050200075819872
1	1	0	0	0	0	2	25583,50	0,0100000007	2,90205526	2,7796677862500976E-005	0,010006804151654666	2,90402986E-005	0,035411561566232602	-0,0013212529733870346	0,035411561566232602
1	1	0	0	0	0	2	25713,50	0,0100000007	2,90259004	2,7797085349034106E-005	0,010006950846808368	2,90460757E-005	0,035772921918697146	-0,0013347358139916477	0,035772921918697146
1	1	0	0	0	0	2	25843,50	0,0100000007	2,90323925	2,77966660548312E-005	0,010006799900893494	2,90521348E-005	0,036134281668973318	-0,0013482186321278034	0,036134281668973318
1	1	0	0	0	0	2	25973,50	0,0100000007	2,90352559	2,7797117192660355E-005	0,010006962310513955	2,90554708E-005	0,036495641399056096	-0,0013617014495105162	0,036495641399056096
1	1	0	0	0	0	2	26103,50	0,0100000007	2,90402222	2,779747602255601E-005	0,010007091489277955	2,90608168E-005	0,036857006739617594	-0,0013751844762277334	0,036857006739617594
1	1	0	0	0	0	2	26233,50	0,0100000007	2,90430856	2,7797508865750083E-005	0,010007103312827966	2,90637163E-005	0,037218374660863296	-0,001388667599233748	0,037218374660863296
1	1	0	0	0	0	2	26363,50	0,0100000007	2,9045949	2,7797156607835654E-005	0,010006976499977238	2,90662138E-005	0,037579738461545357	-0,0014021505684959933	0,037579738461545357
1	1	0	0	0	0	2	26493,50	0,0100000007	2,90480494	2,7796394625989098E-005	0,010006702186509155	2,9067518E-005	0,037941098764591482	-0,0014156334072567389	0,037941098764591482
1	1	0	0	0	0	2	26623,50	0,0100000007	2,9048624	2,7797095316203517E-005	0,010006954434989398	2,90688258E-005	0,03830245979596192	-0,0014291162731922437	0,03830245979596192
1	1	0	0	0	0	2	26753,50	0,0100000007	2,90501499	2,7797263336160944E-005	0,010007014922174805	2,90705284E-005	0,038663820744947405	-0,0014425991360538554	0,038663820744947405
1	1	0	0	0	0	2	26883,50	0,0100000007	2,90503407	2,7796586290622749E-005	0,010006771185778104	2,90700118E-005	0,039025179646195917	-0,0014560819225116474	0,039025179646195917
1	1	0	0	0	0	2	27013,50	0,0100000007	2,90497684	2,77966201882292E-005	0,010006783388916574	2,90694734E-005	0,039386537668798509	-0,0014695646761859789	0,039386537668798509
1	1	0	0	0	0	2	27143,50	0,0100000007	2,90490055	2,779682700573984E-005	0,010006857843221306	2,90689277E-005	0,039747899964340058	-0,0014830475892894077	0,039747899964340058
1	1	0	0	0	0	2	27273,50	0,0100000007	2,90467143	2,7796857460764134E-005	0,010006868807030186	2,90666667E-005	0,04010926006085785	-0,0014965304203443037	0,04010926006085785
1	1	0	0	0	0	2	27403,50	0,0100000007	2,9045949	2,7797404324014982E-005	0,010007065677802874	2,90664721E-005	0,040470620773037037	-0,0015100132743703542	0,040470620773037037
1	1	0	0	0	0	2	27533,50	0,0100000007	2,90440392	2,7797750027436349E-005	0,010007190131036074	2,90649223E-005	0,040831988888106637	-0,001523496404608199	0,040831988888106637
1	1	0	0	0	0	2	27663,50	0,0100000007	2,90413666	2,7797758902992224E-005	0,010007193326236227	2,90622575E-005	0,041193357172872429	-0,0015369795411776368	0,041193357172872429
1	1	0	0	0	0	2	27793,50	0,0100000007	2,90390754	2,7797294726853981E-005	0,010007026222824437	2,9059478E-005	0,041554727763035622	-0,0015504627637645514	0,041554727763035622
1	1	0	0	0	0	2	27923,50	0,0100000007	2,90364027	2,779789840755984E-005	0,010007243547881176	2,90574353E-005	0,04191609627693977	-0,0015639459088834496	0,04191609627693977
1	1	0	0	0	0	2	28053,50	0,0100000007	2,90331554	2,7797951518764925E-005	0,010007262667915238	2,90542412E-005	0,042277463635735808	-0,001577429010903711	0,042277463635735808
1	1	0	0	0	0	2	28183,50	0,0100000007	2,90276194	2,7797330130305558E-005	0,010007038968067157	2,90480511E-005	0,042638828786029299	-0,0015909120305217734	0,042638828786029299
1	1	0	0	0	0	2	28313,50	0,0100000007	2,90255189	2,7797068139486429E-005	0,01000694465137113	2,90456755E-005	0,043000196672546285	-0,0016043951522320128	0,043000196672546285
1	1	0	0	0	0	2	28443,50	0,0100000007	2,90211272	2,7797512006376768E-005	0,010007104443453586	2,90417447E-005	0,043361564811224243	-0,0016178782833507174	0,043361564811224243
1	1	0	0	0	0	2	28573,50	0,0100000007	2,90155888	2,7797183219498646E-005	0,010006986080176029	2,90358585E-005	0,043722936019630093	-0,0016313615290050966	0,043722936019630093
1	1	0	0	0	0	2	28703,50	0,0100000007	2,90113878	2,779771727690887E-005	0,010007178340846038	2,90322132E-005	0,044084305478113402	-0,001644844709367513	0,044084305478113402
1	1	0	0	0	0	2	28833,50	0,0100000007	2,90073776	2,779712808370176E-005	0,01000696623128891	2,90275857E-005	0,044445666939199706	-0,001658327591336295	0,044445666939199706
1	1	0	0	0	0	2	28963,50	0,0100000007	2,90026045	2,7796957164537162E-005	0,010006904700388909	2,90226308E-005	0,044807030588688646	-0,0016718105549573216	0,044807030588688646
1	1	0	0	0	0	2	29093,50	0,0100000007	2,89972568	2,7798141769030029E-005	0,010007331158011504	2,90185144E-005	0,04516840352205607	-0,0016852938649723363	0,04516840352205607
1	1	0	0	0	0	2	29223,50	0,0100000007	2,89922929	2,7797848115882112E-005	0,010007225442876974	2,90132411E-005	0,045529777121294042	-0,0016987771998318771	0,045529777121294042
1	1	0	0	0	0	2	29353,50	0,0100000007	2,89867544	2,7798128506996566E-005	0,0100073263836794	2,90079915E-005	0,045891146172823194	-0,0017122603650102867	0,045891146172823194
1	1	0	0	0	0	2	29483,50	0,0100000007	2,89794993	2,7797775628252163E-005	0,010007199347329877	2,90003627E-005	0,046252518632254118	-0,0017257436573420934	0,046252518632254118
1	1	0	0	0	0	2	29613,50	0,0100000007	2,89737701	2,7797410075294061E-005	0,010007067748263368	2,89942473E-005	0,046613888259160282	-0,0017392268439885936	0,046613888259160282
1	1	0	0	0	0	2	29743,50	0,0100000007	2,89676595	2,7797707554625552E-005	0,010007174840824002	2,89884429E-005	0,046975258401958118	-0,0017527100498837053	0,046975258401958118
1	1	0	0	0	0	2	29873,50	0,0100000007	2,89607859	2,7797106625460499E-005	0,010006958506321963	2,89809377E-005	0,047336622046957306	-0,0017661930133372128	0,047336622046957306
1	1	0	0	0	0	2	30003,50	0,0100000007	2,89539123	2,779751338975297E-005	0,010007104941469026	2,89744839E-005	0,047697988224516102	-0,0017796760712839248	0,047697988224516102
1	1	0	0	0	0	2	30133,50	0,0100000007	2,89472294	2,7797651359500986E-005	0,01000715461057891	2,89679392E-005	0,048059357587668307	-0,0017931592480894096	0,048059357587668307
1	1	0	0	0	0	2	30263,50	0,0100000007	2,8939209	2,7798135192495667E-005	0,010007328790459106	2,89604177E-005	0,048420732468453542	-0,0018066426307652016	0,048420732468453542
1	1	0	0	0	0	2	30393,50	0,0100000007	2,89317632	2,7797269413351184E-005	0,010007017109963318	2,89520649E-005	0,048782102000909901	-0,0018201258138876522	0,048782102000909901
1	1	0	0	0	0	2	30523,50	0,0100000007	2,89254618	2,7797658997484378E-005	0,010007157360252965	2,89461641E-005	0,049143472548389018	-0,0018336090348819664	0,049143472548389018
1	1	0	0	0	0	2	30653,50	0,0100000007	2,89180136	2,7798138418079664E-005	0,010007329951669358	2,89392101E-005	0,04950484469343431	-0,0018470923154836227	0,04950484469343431
1	1	0	0	0	0	2	30783,50	0,0100000007	2,89101839	2,779835810119079E-005	0,010007409037590323	2,89316031E-005	0,04986621721317696	-0,0018605756100657414	0,04986621721317696
1	1	0	0	0	0	2	30913,50	0,0100000007	2,89023566	2,7797976469983242E-005	0,010007271650353941	2,8923374E-005	0,050227586803962995	-0,0018740587953645507	0,050227586803962995
1	1	0	0	0	0	2	31043,50	0,0100000007	2,88952899	2,7797722925742467E-005	0,010007180374426158	2,8916038E-005	0,050588959755615584	-0,0018875421060618099	0,050588959755615584
1	1	0	0	0	0	2	31173,50	0,0100000007	2,88866973	2,7797870556047808E-005	0,010007233521336723	2,89075924E-005	0,05095033307517945	-0,0019010254304863328	0,05095033307517945
1	1	0	0	0	0	2	31303,50	0,0100000007	2,88792515	2,7798184667662202E-005	0,010007346601519274	2,89004674E-005	0,051311709277780576	-0,0019145088624808531	0,051311709277780576
1	1	0	0	0	0	2	31433,50	0,0100000007	2,88721871	2,7798401959395658E-005	0,010007424826544266	2,88936244E-005	0,051673087141574176	-0,0019279923564566976	0,051673087141574176
1	1	0	0	0	0	2	31563,50	0,0100000007	2,88643575	2,779805093062007E-005	0,010007298456183523	2,88854244E-005	0,052034464712442278	-0,0019414758395030982	0,052034464712442278
1	1	0	0	0	0	2	31693,50	0,0100000007	2,88569093	2,779816665050263E-005	0,01000734011534175	2,88780902E-005	0,05239583964931543	-0,0019549592242716058	0,05239583964931543
1	1	0	0	0	0	2	31823,50	0,0100000007	2,88479352	2,77982656092176E-005	0,010007375740479571	2,88692136E-005	0,052757218937325254	-0,0019684427713868723	0,052757218937325254
1	1	0	0	0	0	2	31953,50	0,0100000007	2,88305593	2,7798528661227059E-005	0,010007470439204122	2,88520969E-005	0,053118601871589325	-0,0019819264545487875	0,053118601871589325
1	1	0	0	0	0	2	32083,50	0,0100000007	2,88217759	2,7798540466258096E-005	0,010007474689015347	2,88433184E-005	0,053479981451910259	-0,0019954100125705754	0,053479981451910259
1	1	0	0	0	0	2	32213,50	0,0100000007	2,8815856	2,7798844476282182E-005	0,010007584132625342	2,88377105E-005	0,053841361747469254	-0,002008893597278856	0,053841361747469254
1	1	0	0	0	0	2	32343,50	0,0100000007	2,88066912	2,7798105439792077E-005	0,010007318079485683	2,88277715E-005	0,054202735460318022	-0,0020223769363773683	0,054202735460318022
1	1	0	0	0	0	2	32473,50	0,0100000007	2,87973332	2,7797927956665971E-005	0,010007254185559512	2,88182237E-005	0,054564107514479942	-0,0020358602135880435	0,054564107514479942
1	1	0	0	0	0	2	32603,50	0,0100000007	2,87874055	2,7797982052692938E-005	0,010007273660129456	2,88083447E-005	0,054925482148718336	-0,002049343587064841	0,054925482148718336
1	1	0	0	0	0	2	32733,50	0,0100000007	2,87799573	2,7797774247721661E-005	0,010007198850338891	2,88006759E-005	0,055286848670284506	-0,0020628266578469309	0,055286848670284506
1	1	0	0	0	0	2	32863,50	0,0100000007	2,87706017	2,779787094787591E-005	0,010007233522595402	2,87914136E-005	0,055648219634973741	-0,0020763098944079155	0,055648219634973741
1	1	0	0	0	0	2	32993,50	0,0100000007	2,87620091	2,7797568592656819E-005	0,010007124674716733	2,87825005E-005	0,05600958961661024	-0,002089793094289881	0,05600958961661024
1	1	0	0	0	0	2	33123,50	0,0100000007	2,8752079	2,7797745906489178E-005	0,010007188507696264	2,87727471E-005	0,056370961485745587	-0,0021032763645969667	0,056370961485745587
1	1	0	0	0	0	2	33253,50	0,0100000007	2,87425303	2,779760923365959E-005	0,010007139305477702	2,87630501E-005	0,056732330809562822	-0,0021167595399348109	0,056732330809562822
1	1	0	0	0	0	2	33383,50	0,0100000007	2,87339377	2,779810762519224E-005	0,010007318726429123	2,87549665E-005	0,057093697971204429	-0,0021302426345989754	0,057093697971204429
1	1	0	0	0	0	2	33513,50	0,0100000007	2,87251544	2,7797407320700589E-005	0,010007066616812597	2,87454532E-005	0,057455069742947488	-0,0021437259012722234	0,057455069742947488
1	1	0	0	0	0	2	33643,50	0,0100000007	2,87163711	2,7797850548548416E-005	0,01000722617883752	2,87371222E-005	0,057816442814237939	-0,0021572092164333318	0,057816442814237939
1	1	0	0	0	0	2	33773,50	0,0100000007	2,87072062	2,7797742966200326E-005	0,010007187449192278	2,87278399E-005	0,05817781142348247	-0,0021706923651095078	0,05817781142348247
1	1	0	0	0	0	2	33903,50	0,0100000007	2,86995673	2,7798403132086E-005	0,010007425108910678	2,87208768E-005	0,058539183725228672	-0,0021841756515578858	0,058539183725228672
1	1	0	0	0	0	2	34033,50	0,0100000007	2,86896396	2,7798372555317149E-005	0,010007414101273912	2,87109106E-005	0,058900561234871526	-0,0021976591323198902	0,058900561234871526
1	1	0	0	0	0	2	34163,50	0,0100000007	2,86823821	2,7798585280724285E-005	0,010007490682420338	2,87038674E-005	0,059261944032796467	-0,0022111428103948093	0,059261944032796467
1	1	0	0	0	0	2	34293,50	0,0100000007	2,86728358	2,7798695585793917E-005	0,010007530392245333	2,86944269E-005	0,059623324827264448	-0,0022246264137180554	0,059623324827264448
1	1	0	0	0	0	2	34423,50	0,0100000007	2,8666153	2,7797547308469398E-005	0,010007117012409275	2,86865543E-005	0,059984700123463322	-0,0022381098118934886	0,059984700123463322
1	1	0	0	0	0	2	34553,50	0,0100000007	2,86564136	2,7798517919507706E-005	0,010007466432382416	2,86778104E-005	0,060346076636937779	-0,0022515932554871104	0,060346076636937779
1	1	0	0	0	0	2	34683,50	0,0100000007	2,86497307	2,7798801636892474E-005	0,010007568570640741	2,86714148E-005	0,060707453777780096	-0,0022650767224886704	0,060707453777780096
1	1	0	0	0	0	2	34813,50	0,0100000007	2,86405659	2,7797960748016419E-005	0,010007265850645926	2,86613758E-005	0,061068827669068672	-0,0022785600682450115	0,061068827669068672
1	1	0	0	0	0	2	34943,50	0,0100000007	2,86334991	2,7798879754574349E-005	0,010007596693006163	2,86552513E-005	0,061430207108599322	-0,0022920436210137242	0,061430207108599322
1	1	0	0	0	0	2	35073,50	0,0100000007	2,86250973	2,7798297281273539E-005	0,010007387002618262	2,86462418E-005	0,06179158597599776	-0,002305527152435415	0,06179158597599776
1	1	0	0	0	0	2	35203,50	0,0100000007	2,86165047	2,7798691670720778E-005	0,010007528982819005	2,86380491E-005	0,06215296504937536	-0,0023190106915424646	0,06215296504937536
1	1	0	0	0	0	2	35333,50	0,0100000007	2,86079121	2,7798509823106643E-005	0,010007463517678038	2,86292634E-005	0,06251434961060631	-0,0023324944354087018	0,06251434961060631
1	1	0	0	0	0	2	35463,50	0,0100000007	2,85998917	2,7797996551315818E-005	0,010007278739833686	2,86207087E-005	0,062875728804968038	-0,0023459779790298323	0,062875728804968038
1	1	0	0	0	0	2	35593,50	0,0100000007	2,85922551	2,7799098021040362E-005	0,010007675268933782	2,86142003E-005	0,063237111263562573	-0,0023594616444438774	0,063237111263562573
1	1	0	0	0	0	2	35723,50	0,0100000007	2,85851884	2,7798274913388819E-005	0,010007378950179779	2,86062805E-005	0,063598492194960282	-0,0023729452528761558	0,063598492194960282
1	1	0	0	0	0	2	35853,50	0,0100000007	2,85777426	2,7798889009281994E-005	0,01000760002470091	2,85994611E-005	0,063959873414920755	-0,0023864288720750986	0,063959873414920755
1	1	0	0	0	0	2	35983,50	0,0100000007	2,85695314	2,7798641045422602E-005	0,010007510757711696	2,859099E-005	0,064321256130023693	-0,0023999125470598176	0,064321256130023693
1	1	0	0	0	0	2	36113,50	0,0100000007	2,85630393	2,7798381204872083E-005	0,010007417215113683	2,85842252E-005	0,064682639231574298	-0,0024133962364634186	0,064682639231574298
1	1	0	0	0	0	2	36243,50	0,0100000007	2,85555935	2,7798483139990518E-005	0,010007453911756253	2,85768783E-005	0,065044018980724877	-0,0024268798007844669	0,065044018980724877
1	1	0	0	0	0	2	36373,50	0,0100000007	2,85487175	2,7798516330464435E-005	0,010007465860326838	2,85700316E-005	0,065405398503932237	-0,0024403633566752698	0,065405398503932237
1	1	0	0	0	0	2	36503,50	0,0100000007	2,85426068	2,7798178135313923E-005	0,01000734411007288	2,85635688E-005	0,06576677737265225	-0,0024538468881462704	0,06576677737265225
1	1	0	0	0	0	2	36633,50	0,0100000007	2,8535161	2,7798625219716797E-005	0,010007505060457614	2,85565766E-005	0,066128156543081613	-0,0024673304308744518	0,066128156543081613
1	1	0	0	0	0	2	36763,50	0,0100000007	2,85280967	2,7797423646837059E-005	0,010007072494221717	2,85482729E-005	0,066489529673751936	-0,002480813748251103	0,066489529673751936
1	1	0	0	0	0	2	36893,50	0,0100000007	2,8521986	2,7798199526913878E-005	0,010007351811048851	2,85429542E-005	0,066850902538084813	-0,0024942970556903469	0,066850902538084813
1	1	0	0	0	0	2	37023,50	0,0100000007	2,851511	2,7797593713893245E-005	0,010007133718361829	2,85354527E-005	0,067212275830353139	-0,0025077803790964368	0,067212275830353139
1	1	0	0	0	0	2	37153,50	0,0100000007	2,85091925	2,7798047587068547E-005	0,010007297112704634	2,85299957E-005	0,067573650026268314	-0,0025212637362188061	0,067573650026268314
1	1	0	0	0	0	2	37283,50	0,0100000007	2,85032725	2,7799006845232931E-005	0,010007642445643166	2,85250553E-005	0,067935025494381056	-0,0025347471408085766	0,067935025494381056
1	1	0	0	0	0	2	37413,50	0,0100000007	2,84975433	2,7797439231899462E-005	0,01000707810484417	2,85177139E-005	0,068296404035043315	-0,0025482306600393011	0,068296404035043315
1	1	0	0	0	0	2	37543,50	0,0100000007	2,84910512	2,7798614433293955E-005	0,0100075011773454	2,85124224E-005	0,068657780037447232	-0,0025617140845641939	0,068657780037447232
1	1	0	0	0	0	2	37673,50	0,0100000007	2,8485322	2,7798794293362234E-005	0,010007565926969859	2,85068745E-005	0,0690191638285456	-0,0025751977996957488	0,0690191638285456
1	1	0	0	0	0	2	37803,50	0,0100000007	2,84805489	2,7798664196135683E-005	0,010007519091968389	2,85019632E-005	0,069380545644084813	-0,0025886814411165354	0,069380545644084813
1	1	0	0	0	0	2	37933,50	0,0100000007	2,84723377	2,7798431468661875E-005	0,010007435310077974	2,84935086E-005	0,069741927635018214	-0,0026021650890815152	0,069741927635018214
1	1	0	0	0	0	2	38063,50	0,0100000007	2,84683275	2,7798545803564288E-005	0,010007476470642768	2,84896123E-005	0,070103306651169651	-0,0026156486260533802	0,070103306651169651
1	1	0	0	0	0	2	38193,50	0,0100000007	2,84631729	2,7798623698970512E-005	0,010007504512988954	2,84845337E-005	0,070464686294191514	-0,0026291321864146234	0,070464686294191514
1	1	0	0	0	0	2	38323,50	0,0100000007	2,84568715	2,7799075897265642E-005	0,010007667304374896	2,84786911E-005	0,07082606916895552	-0,002642615867356511	0,07082606916895552
1	1	0	0	0	0	2	38453,50	0,0100000007	2,84526706	2,7799429673805005E-005	0,010007794663928832	2,84748476E-005	0,071187454924976806	-0,0026560996558019818	0,071187454924976806
1	1	0	0	0	0	2	38583,50	0,0100000007	2,84473252	2,7799441444118403E-005	0,010007798901241648	2,84695107E-005	0,071548844256158618	-0,0026695835776414989	0,071548844256158618
1	1	0	0	0	0	2	38713,50	0,0100000007	2,84425497	2,7799515458237792E-005	0,010007825546324578	2,84648067E-005	0,071910238912763584	-0,0026830676981797136	0,071910238912763584
1	1	0	0	0	0	2	38843,50	0,0100000007	2,8438158	2,779917104438775E-005	0,010007701557338792	2,84600592E-005	0,072271624919541376	-0,002696551495981247	0,072271624919541376
1	1	0	0	0	0	2	38973,50	0,0100000007	2,84330034	2,7798159158633398E-005	0,010007337278467906	2,84538655E-005	0,072633008758681254	-0,002710035212905295	0,072633008758681254
1	1	0	0	0	0	2	39103,50	0,0100000007	2,84272742	2,7798404148055446E-005	0,010007425474659678	2,84483831E-005	0,072994386262780518	-0,0027235186934604605	0,072994386262780518
1	1	0	0	0	0	2	39233,50	0,0100000007	2,84223104	2,7798338454785862E-005	0,010007401825082672	2,84433481E-005	0,07335576763998976	-0,0027370023185265664	0,07335576763998976
1	1	0	0	0	0	2	39363,50	0,0100000007	2,84190631	2,779868371406984E-005	0,010007526118424672	2,84404523E-005	0,073717147153172531	-0,0027504858740433386	0,073717147153172531
1	1	0	0	0	0	2	39493,50	0,0100000007	2,84144807	2,7798611535173325E-005	0,010007500134021974	2,8435792E-005	0,074078532998557555	-0,0027639696658230909	0,074078532998557555
1	1	0	0	0	0	2	39623,50	0,0100000007	2,8410852	2,779900667298999E-005	0,01000764238363571	2,84325652E-005	0,074439918835431821	-0,0027774534572852947	0,074439918835431821
1	1	0	0	0	0	2	39753,50	0,0100000007	2,84058881	2,7799469403146454E-005	0,010007808966491728	2,84280704E-005	0,074801309854996915	-0,0027909374421206624	0,074801309854996915
1	1	0	0	0	0	2	39883,50	0,0100000007	2,84020686	2,7799086180308627E-005	0,010007671006270365	2,84238558E-005	0,075162696652293069	-0,0028044212694174982	0,075162696652293069
1	1	0	0	0	0	2	40013,50	0,0100000007	2,83980584	2,7799320047773008E-005	0,010007755198557386	2,84200814E-005	0,075524085748740019	-0,0028179051824987418	0,075524085748740019
1	1	0	0	0	0	2	40143,50	0,0100000007	2,8393476	2,7799131494791558E-005	0,01000768731948419	2,84153029E-005	0,07588547435554487	-0,0028313890773107802	0,07588547435554487
1	1	0	0	0	0	2	40273,50	0,0100000007	2,83902311	2,7799069190190899E-005	0,010007664889827995	2,84119924E-005	0,076246864006540608	-0,0028448730110829853	0,076246864006540608
1	1	0	0	0	0	2	40403,50	0,0100000007	2,83864117	2,7799184827082272E-005	0,010007706519108811	2,84082871E-005	0,076608255389120986	-0,0028583570094629405	0,076608255389120986
1	1	0	0	0	0	2	40533,50	0,0100000007	2,83831644	2,779907335465153E-005	0,010007666389033819	2,84049238E-005	0,076969647655219994	-0,0028718410408081638	0,076969647655219994
1	1	0	0	0	0	2	40663,50	0,0100000007	2,83797288	2,7799560047323923E-005	0,010007841598395554	2,84019825E-005	0,077331041382543142	-0,0028853251266736243	0,077331041382543142
1	1	0	0	0	0	2	40793,50	0,0100000007	2,83747625	2,7799506790418592E-005	0,010007822425909672	2,83969584E-005	0,077692434160991334	-0,0028988091771352851	0,077692434160991334
1	1	0	0	0	0	2	40923,50	0,0100000007	2,83722806	2,779891240482943E-005	0,010007608447097971	2,8393868E-005	0,078053821024220762	-0,0029122930068921805	0,078053821024220762
1	1	0	0	0	0	2	41053,50	0,0100000007	2,83692265	2,7799115032733728E-005	0,010007681393143382	2,83910176E-005	0,078415205854541606	-0,0029257767607985235	0,078415205854541606
1	1	0	0	0	0	2	41183,50	0,0100000007	2,83652163	2,7799716334841731E-005	0,010007897861901861	2,83876179E-005	0,078776598092096845	-0,0029392607910787405	0,078776598092096845
1	1	0	0	0	0	2	41313,50	0,0100000007	2,83600616	2,779906625709393E-005	0,010007663833913088	2,83817972E-005	0,07913798773098569	-0,0029527447243992205	0,07913798773098569
1	1	0	0	0	0	2	41443,50	0,0100000007	2,83571959	2,7799429851791098E-005	0,010007794728003824	2,83792997E-005	0,079499378014449946	-0,0029662286817696762	0,079499378014449946
1	1	0	0	0	0	2	41573,50	0,0100000007	2,83537602	2,7799107423724816E-005	0,010007678653900179	2,83755326E-005	0,079860766818381222	-0,0029797125839367661	0,079860766818381222
1	1	0	0	0	0	2	41703,50	0,0100000007	2,83514667	2,7799349056815523E-005	0,010007765641812672	2,83734826E-005	0,080222156177452467	-0,0029931965068168755	0,080222156177452467
1	1	0	0	0	0	2	41833,50	0,0100000007	2,83474588	2,7799226103091818E-005	0,010007721378472221	2,83693462E-005	0,080583547421298714	-0,0030066805000204736	0,080583547421298714
1	1	0	0	0	0	2	41963,50	0,0100000007	2,83453584	2,7799228651500826E-005	0,010007722295899461	2,83672471E-005	0,080944938269068992	-0,0030201644784459456	0,080944938269068992
1	1	0	0	0	0	2	42093,50	0,0100000007	2,83402014	2,7799836573604909E-005	0,010007941147856523	2,83627069E-005	0,08130632991331639	-0,0030336484865890496	0,08130632991331639
1	1	0	0	0	0	2	42223,50	0,0100000007	2,83371472	2,7799446855154301E-005	0,010007800849214568	2,83592526E-005	0,081667719724126374	-0,0030471324263241382	0,081667719724126374
1	1	0	0	0	0	2	42353,50	0,0100000007	2,83316088	2,7799751955808864E-005	0,010007910685450006	2,83540212E-005	0,082029113069625894	-0,0030606164979432454	0,082029113069625894
1	1	0	0	0	0	2	42483,50	0,0100000007	2,83283639	2,7798637906710307E-005	0,01000750962777527	2,83496374E-005	0,082390505115606246	-0,0030741005210755469	0,082390505115606246
1	1	0	0	0	0	2	42613,50	0,0100000007	2,83245444	2,7799036075154115E-005	0,010007652968414774	2,83462214E-005	0,082751890531896051	-0,0030875842968451789	0,082751890531896051
1	1	0	0	0	0	2	42743,50	0,0100000007	2,83212972	2,7797517629547251E-005	0,010007106327997323	2,83414229E-005	0,083113269368117389	-0,0031010678271036096	0,083113269368117389
1	1	0	0	0	0	2	42873,50	0,0100000007	2,83176708	2,7798402836649782E-005	0,01000742500255364	2,83386962E-005	0,083474645059176589	-0,0031145512400118131	0,083474645059176589
1	1	0	0	0	0	2	43003,50	0,0100000007	2,83138514	2,7798062351377059E-005	0,010007302427855688	2,83345271E-005	0,083836021717213466	-0,0031280346889992531	0,083836021717213466
1	1	0	0	0	0	2	43133,50	0,0100000007	2,83109856	2,7798343584562342E-005	0,0100074036718022	2,83319459E-005	0,084197396870959539	-0,0031415180818595808	0,084197396870959539
1	1	0	0	0	0	2	43263,50	0,0100000007	2,83060217	2,7798709510618614E-005	0,010007535405182214	2,83273512E-005	0,084558776583741824	-0,0031550016448236787	0,084558776583741824
1	1	0	0	0	0	2	43393,50	0,0100000007	2,83039212	2,7797813931169606E-005	0,010007212996581171	2,83243371E-005	0,08492015761383424	-0,0031684852569383898	0,08492015761383424
1	1	0	0	0	0	2	43523,50	0,0100000007	2,83010578	2,7797617287840694E-005	0,010007142204982896	2,83212703E-005	0,085281534989399834	-0,0031819687326977914	0,085281534989399834
1	1	0	0	0	0	2	43653,50	0,0100000007	2,8298192	2,7797348585031514E-005	0,01000704547197177	2,83181289E-005	0,085642902531006643	-0,0031954518415389683	0,085642902531006643
1	1	0	0	0	0	2	43783,50	0,0100000007	2,82939911	2,7797718480384602E-005	0,010007178634298634	2,83143017E-005	0,08600426724462889	-0,0032089348448642394	0,08600426724462889
1	1	0	0	0	0	2	43913,50	0,0100000007	2,8290174	2,7796680332782368E-005	0,010006804901162525	2,8309425E-005	0,086365632398899277	-0,0032224178646306842	0,086365632398899277
1	1	0	0	0	0	2	44043,50	0,0100000007	2,82878828	2,779689132608473E-005	0,010006880858751235	2,83073477E-005	0,086726993262094694	-0,0032359007242913536	0,086726993262094694
1	1	0	0	0	0	2	44173,50	0,0100000007	2,82834911	2,7796899872469821E-005	0,010006883935449861	2,83029622E-005	0,087088350765631066	-0,0032493834585986266	0,087088350765631066
1	1	0	0	0	0	2	44303,50	0,0100000007	2,82813907	2,7796648909699997E-005	0,010006793588852893	2,83006048E-005	0,087449710566050842	-0,0032628662786057069	0,087449710566050842
1	1	0	0	0	0	2	44433,50	0,0100000007	2,82762337	2,7796770454125686E-005	0,010006837344846059	2,8295568E-005	0,087811069914917965	-0,0032763490817647514	0,087811069914917965
1	1	0	0	0	0	2	44563,50	0,0100000007	2,82737517	2,7796793139694877E-005	0,010006845511650954	2,82931069E-005	0,088172423318544384	-0,0032898316630988717	0,088172423318544384
1	1	0	0	0	0	2	44693,50	0,0100000007	2,82689786	2,7795987276774314E-005	0,010006555401000091	2,82875098E-005	0,088533775782697472	-0,0033033142093799782	0,088533775782697472
1	1	0	0	0	0	2	44823,50	0,0100000007	2,82663035	2,7796109798519558E-005	0,010006599508828298	2,82849578E-005	0,08889512606211168	-0,0033167966741455398	0,08889512606211168
1	1	0	0	0	0	2	44953,50	0,0100000007	2,82621026	2,7795667603042806E-005	0,010006440318456963	2,82803048E-005	0,089256472360731917	-0,003330278990382327	0,089256472360731917
1	1	0	0	0	0	2	45083,50	0,0100000007	2,82579017	2,7795458760629926E-005	0,010006365135188464	2,82758883E-005	0,089617814475821645	-0,0033437611505259654	0,089617814475821645
1	1	0	0	0	0	2	45213,50	0,0100000007	2,82538939	2,7795562778806518E-005	0,01000640258173197	2,8271983E-005	0,08997915506622185	-0,0033572432537813882	0,08997915506622185
1	1	0	0	0	0	2	45343,50	0,0100000007	2,82519841	2,7794815078119024E-005	0,010006133409484973	2,82693127E-005	0,090340493287784294	-0,003370725268652288	0,090340493287784294
1	1	0	0	0	0	2	45473,50	0,0100000007	2,82489276	2,7795618996541536E-005	0,010006422820116538	2,82670717E-005	0,090701836270583782	-0,0033842074611713446	0,090701836270583782
1	1	0	0	0	0	2	45603,50	0,0100000007	2,82445359	2,779593821061361E-005	0,01000653773718227	2,82630008E-005	0,091063177682566989	-0,0033976895950811334	0,091063177682566989
1	1	0	0	0	0	2	45733,50	0,0100000007	2,8241291	2,779509727868976E-005	0,01000623500169025	2,8258899E-005	0,091424519890995763	-0,0034111717587073773	0,091424519890995763
1	1	0	0	0	0	2	45863,50	0,0100000007	2,82372808	2,7795158874191757E-005	0,010006257176070926	2,82549499E-005	0,091785858899588467	-0,0034246538029434355	0,091785858899588467
1	1	0	0	0	0	2	45993,50	0,0100000007	2,82338428	2,7795016950772454E-005	0,010006206083640074	2,82513647E-005	0,092147194990266099	-0,0034381357383081581	0,092147194990266099
1	1	0	0	0	0	2	46123,50	0,0100000007	2,82300234	2,7795208745273869E-005	0,010006275129660453	2,82477376E-005	0,092508535203619302	-0,0034516178274954509	0,092508535203619302
1	1	0	0	0	0	2	46253,50	0,0100000007	2,82265878	2,7794732617524765E-005	0,010006103723671094	2,82438159E-005	0,092869872508671616	-0,0034650998081701254	0,092869872508671616
1	1	0	0	0	0	2	46383,50	0,0100000007	2,82235312	2,7795833319994726E-005	0,010006499976559542	2,82418769E-005	0,093231214049105638	-0,0034785819468725875	0,093231214049105638
1	1	0	0	0	0	2	46513,50	0,0100000007	2,82210493	2,7795711677469728E-005	0,010006456185250624	2,82392703E-005	0,093592554546895014	-0,0034920640466725754	0,093592554546895014
1	1	0	0	0	0	2	46643,50	0,0100000007	2,82187581	2,7794708512723443E-005	0,010006095045942637	2,82359579E-005	0,093953887672632371	-0,0035055458714113907	0,093953887672632371
1	1	0	0	0	0	2	46773,50	0,0100000007	2,82160854	2,7794866218438579E-005	0,010006151819999979	2,8233444E-005	0,094315221263670502	-0,0035190277135112032	0,094315221263670502
1	1	0	0	0	0	2	46903,50	0,0100000007	2,82136035	2,7794744324559965E-005	0,01000610793820376	2,82308356E-005	0,094676554874788736	-0,0035325095563602317	0,094676554874788736
1	1	0	0	0	0	2	47033,50	0,0100000007	2,82101655	2,779510450259679E-005	0,010006237602296774	2,82277615E-005	0,09503789058189312	-0,003545991477413321	0,09503789058189312
1	1	0	0	0	0	2	47163,50	0,0100000007	2,82090187	2,7795299970286176E-005	0,010006307970664822	2,8226812E-005	0,095399226045132774	-0,0035594733893674899	0,095399226045132774
1	1	0	0	0	0	2	47293,50	0,0100000007	2,82055831	2,7795424829495862E-005	0,010006352919980227	2,82235014E-005	0,09576056401754839	-0,0035729553949423872	0,09576056401754839
1	1	0	0	0	0	2	47423,50	0,0100000007	2,8204627	2,7795116862230416E-005	0,010006242051764872	2,82222318E-005	0,096121899539644941	-0,0035864373090925862	0,096121899539644941
1	1	0	0	0	0	2	47553,50	0,0100000007	2,82038641	2,7795234410661373E-005	0,010006284369199939	2,82215879E-005	0,096483233640140493	-0,0035999191702009408	0,096483233640140493
1	1	0	0	0	0	2	47683,50	0,0100000007	2,82013822	2,7794481582577443E-005	0,010006013351090227	2,8218341E-005	0,096844564372658675	-0,0036134009056455302	0,096844564372658675
1	1	0	0	0	0	2	47813,50	0,0100000007	2,81996632	2,7794827946203037E-005	0,01000613804199521	2,82169731E-005	0,097205898715886554	-0,0036268827758105542	0,097205898715886554
1	1	0	0	0	0	2	47943,50	0,0100000007	2,81977534	2,779546288587153E-005	0,010006366620275442	2,82157052E-005	0,097567235406139264	-0,0036403647335462298	0,097567235406139264
1	1	0	0	0	0	2	48073,50	0,0100000007	2,81964183	2,7795355557257101E-005	0,010006327981974318	2,8214261E-005	0,097928575239667635	-0,0036538468085617466	0,097928575239667635
1	1	0	0	0	0	2	48203,50	0,0100000007	2,81962252	2,7795291174824038E-005	0,010006304804298459	2,82140027E-005	0,098289914074817638	-0,0036673288463264243	0,098289914074817638
1	1	0	0	0	0	2	48333,50	0,0100000007	2,81954622	2,7795917153048016E-005	0,010006530156458672	2,82138735E-005	0,09865125610896416	-0,0036808110034499629	0,09865125610896416
1	1	0	0	0	0	2	48463,50	0,0100000007	2,8193934	2,7795129446157565E-005	0,010006246581978637	2,82115452E-005	0,099012598093590656	-0,0036942931587258426	0,099012598093590656
1	1	0	0	0	0	2	48593,50	0,0100000007	2,81929803	2,7795533124564419E-005	0,010006391906204835	2,82110013E-005	0,099373937973757517	-0,003707775235481504	0,099373937973757517
1	1	0	0	0	0	2	48723,50	0,0100000007	2,81908798	2,7795648870989683E-005	0,01000643357491785	2,82090168E-005	0,099735279803873792	-0,0037212573849924006	0,099735279803873792
1	1	0	0	0	0	2	48843,50	0,0100000007	2,81906891	2,7795591121177293E-005	0,010006412784985429	2,82087676E-005	0,10006882844625952	-0,0037337025333007309	0,10006882844625952