File: Experimentelles/Rohdaten/Batteriemessungen/AlteZelle/150511_LLTO_LTO_Tests/ZView-Export/LLTO_LP30_LTO_05_GCPL_C01_loop8.txt
EC-Lab ASCII FILE
Nb header lines : 3
mode	ox/red	error	control changes	Ns changes	counter inc.	Ns	time/s	control/V/mA	Ewe/V	dq/mA.h	<I>/mA	P/W	(Q-Qo)/mA.h	x	Capacity/mA.h
1	0	0	1	1	0	1	321971,19	-0,0100000007	2,61693025	0	0	0	0	0	0
1	0	0	1	0	0	1	322111,19	-0,0100000007	2,27486396	-2,7755787158126218E-005	-0,0099918909835188634	2,27301935E-005	-0,00038844315309692301	1,4493336309420109E-005	0,00038844315309692301
1	0	0	1	0	0	1	322251,20	-0,0100000007	2,11631894	-2,7755748809780928E-005	-0,0099918771788456512	2,11459992E-005	-0,00077702697132511411	2,8991921024014112E-005	0,00077702697132511411
1	0	0	1	0	0	1	322391,20	-0,0100000007	1,9973768	-2,7756100757927117E-005	-0,0099920038777387034	1,99577971E-005	-0,001165617960280575	4,3490773288083699E-005	0,001165617960280575
1	0	0	1	0	0	1	322531,20	-0,0100000007	1,8981024	-2,7755302169929363E-005	-0,0099917163915950323	1,89653001E-005	-0,0015541917652550278	5,798898439471776E-005	0,0015541917652550278
1	0	0	1	0	0	1	322671,20	-0,0100000007	1,81018937	-2,7755016955909219E-005	-0,0099916137165247782	1,80867137E-005	-0,0019427641459481395	7,2487142359500019E-005	0,0019427641459481395
1	0	0	1	0	0	1	322811,21	-0,0100000007	1,73048723	-2,7755467214052464E-005	-0,0099917758063353229	1,72906402E-005	-0,002331341515927257	8,6985486481251315E-005	0,002331341515927257
1	0	0	1	0	0	1	322951,21	-0,0100000007	1,65752566	-2,7756005403533994E-005	-0,0099919695508181414	1,65619458E-005	-0,0027199251620807706	0,00010148406477550774	0,0027199251620807706
1	0	0	1	0	0	1	323091,21	-0,0100000007	1,58998692	-2,7755888515824659E-005	-0,0099919274715877261	1,58870334E-005	-0,0031085099069960845	0,00011598268406604426	0,0031085099069960845
1	0	0	1	0	0	1	323231,21	-0,0100000007	1,52785218	-2,7755730394739654E-005	-0,0099918705490931661	1,52661014E-005	-0,0034970910945247456	0,00013048117062570178	0,0034970910945247456
1	0	0	1	0	0	1	323371,22	-0,0100000007	1,47075832	-2,7755964367443488E-005	-0,009991954777761047	1,46957509E-005	-0,0038856749880879309	0,0001449797581511457	0,0038856749880879309
1	0	0	1	0	0	1	323511,22	-0,0100000007	1,41799915	-2,7757082461172506E-005	-0,0099923572837532646	1,41691544E-005	-0,0042742647735558157	0,00015947856551147571	0,0042742647735558157
1	0	0	1	0	0	1	323651,22	-0,0100000007	1,36921167	-2,7755969034093949E-005	-0,0099919564578391859	1,36811032E-005	-0,0046628569757241882	0,00017397746304215021	0,0046628569757241882
1	0	0	1	0	0	1	323791,23	-0,0100000007	1,32347929	-2,7755622150635139E-005	-0,0099918315819658496	1,3223982E-005	-0,0050514356467867597	0,0001884758557090745	0,0050514356467867597
1	0	0	1	0	0	1	323931,23	-0,0100000007	1,28057313	-2,7755018755172691E-005	-0,0099916143642471565	1,27949925E-005	-0,0054400094669771078	0,00020297406738343408	0,0054400094669771078
1	0	0	1	0	0	1	324071,23	-0,0100000007	1,23990095	-2,7755944535187962E-005	-0,009991947638635488	1,2389025E-005	-0,005828590937242368	0,00021747256449237424	0,005828590937242368
1	0	0	1	0	0	1	324211,23	-0,0100000007	1,20087099	-2,7756074318351846E-005	-0,0099919943596748762	1,19990964E-005	-0,0062171772611370317	0,00023197124269675325	0,0062171772611370317
1	0	0	1	0	0	1	324351,24	-0,0100000007	1,1638459	-2,775557468443488E-005	-0,0099918144949280461	1,1628932E-005	-0,006605764178131127	0,0002464699430304695	0,006605764178131127
1	0	0	1	0	0	1	324491,24	-0,0100000007	1,12831032	-2,7755272576481933E-005	-0,0099917057381590874	1,12737443E-005	-0,006994343270920105	0,00026096835143257302	0,006994343270920105
1	0	0	1	0	0	1	324631,24	-0,0100000007	1,09432137	-2,7755815047149859E-005	-0,0099919010238393331	1,09343509E-005	-0,0073829225754464589	0,00027546676773488275	0,0073829225754464589
1	0	0	1	0	0	1	324771,24	-0,0100000007	1,06193638	-2,7755917505309398E-005	-0,009991937907601289	1,06108027E-005	-0,007771502367730039	0,0002899652022360704	0,007771502367730039
1	0	0	1	0	0	1	324911,25	-0,0100000007	1,03090715	-2,775585943962344E-005	-0,009991917004589472	1,03007387E-005	-0,0081600816986636288	0,00030446361952366957	0,0081600816986636288
1	0	0	1	0	0	1	325051,25	-0,0100000007	1,00089002	-2,7755149093560045E-005	-0,009991661284814199	1,00005536E-005	-0,0085486560578537075	0,00031896185130883379	0,0085486560578537075
1	0	0	1	0	0	1	325191,25	-0,0100000007	0,97201848	-2,7757701162921472E-005	-0,0099925800124432499	9,71297231E-006	-0,0089372585340397222	0,00033346113217692006	0,0089372585340397222
1	0	0	1	0	0	1	325331,26	-0,0100000007	0,945056438	-2,7756951971548714E-005	-0,0099923103082768819	9,44329713E-006	-0,009325861557844087	0,0003479604334773833	0,009325861557844087
1	0	0	1	0	0	1	325471,26	-0,0100000007	0,91908735	-2,7758203900367434E-005	-0,0099927609939736896	9,18422029E-006	-0,0097144753258676787	0,00036246013565911162	0,0097144753258676787
1	1	0	0	0	0	2	325591,79	0,0100000007	0,951675951	2,7796077548733187E-005	0,01000639524439253	9,52284609E-006	-0,0099934942970854221	0,0003728707086202423	2,7796627114216486E-005
1	1	0	0	0	0	2	325731,80	0,0100000007	1,13962722	2,7796298681654864E-005	0,010006474851643421	1,14036511E-005	-0,009604339765614199	0,00035835082982721862	0,0004169511585854407
1	1	0	0	0	0	2	325871,80	0,0100000007	1,2636677	2,7796726958050083E-005	0,010006629028177046	1,26450541E-005	-0,0092151913126874138	0,00034383117783286067	0,00080609961151223002
1	1	0	0	0	0	2	326011,80	0,0100000007	1,36662745	2,7796226155788947E-005	0,010006448742834416	1,36750878E-005	-0,0088260418701408755	0,00032931148891445914	0,0011952490540587653
1	1	0	0	0	0	2	326151,80	0,0100000007	1,45625889	2,77966178814984E-005	0,010006589761374518	1,45721851E-005	-0,0084368880900167782	0,00031479163815520698	0,001584402834182864
1	1	0	0	0	0	2	326291,81	0,0100000007	1,53620934	2,779707458258296E-005	0,010006754170133309	1,53724686E-005	-0,0080477298266865869	0,00030027162012150771	0,0019735610975130566
1	1	0	0	0	0	2	326431,81	0,0100000007	1,60861719	2,7796979158858042E-005	0,010006719818486765	1,60969812E-005	-0,0076585723542771238	0,00028575163159812416	0,002362718569922521
1	1	0	0	0	0	2	326571,81	0,0100000007	1,67516291	2,7796912672567286E-005	0,010006695883766461	1,67628459E-005	-0,0072694174541348224	0,00027123173904948694	0,002751873470064823
1	1	0	0	0	0	2	326711,81	0,0100000007	1,7363621	2,779639063703103E-005	0,010006507954708464	1,73749213E-005	-0,0068802692666755315	0,00025671209696007808	0,0031410216575241152
1	1	0	0	0	0	2	326851,82	0,0100000007	1,7928257	2,7796004487770714E-005	0,010006368943418422	1,79396757E-005	-0,0064911203288814106	0,0002421924268746679	0,0035301705953182362
1	1	0	0	0	0	2	326991,82	0,0100000007	1,84442019	2,7797371278361728E-005	0,010006860978557074	1,84568562E-005	-0,0061019653597477171	0,00022767253175186902	0,0039193255644519309
1	1	0	0	0	0	2	327131,82	0,0100000007	1,89154637	2,7797556325689786E-005	0,010006927594778467	1,89285674E-005	-0,0057128065250344109	0,0002131524923990975	0,0043084843991652371
1	1	0	0	0	0	2	327271,83	0,0100000007	1,93435717	2,7797141732492794E-005	0,010006778344101358	1,9356683E-005	-0,0053236487937636307	0,00019863249421725021	0,0046976421304360173
1	1	0	0	0	0	2	327411,83	0,0100000007	1,97325349	2,7796803114935757E-005	0,010006656444127997	1,97456702E-005	-0,0049344885052831584	0,0001841124006224711	0,0050868024189164896
1	1	0	0	0	0	2	327551,83	0,0100000007	2,00859833	2,7796750418945318E-005	0,010006637473936707	2,00993145E-005	-0,0045453307641629677	0,00016959240207312902	0,0054759601600366803
1	1	0	0	0	0	2	327691,83	0,0100000007	2,04075408	2,7797088115165632E-005	0,010006759042235234	2,04213338E-005	-0,0041561744593588256	0,00015507245711466992	0,0058651164648408218
1	1	0	0	0	0	2	327831,84	0,0100000007	2,07002664	2,7797068678204797E-005	0,010006752044598096	2,07142439E-005	-0,0037670177172996134	0,00014055249584163626	0,0062542732069000333
1	1	0	0	0	0	2	327971,84	0,0100000007	2,09691215	2,779697120406975E-005	0,010006716954585136	2,09832069E-005	-0,0033778592416735603	0,00012603246988689294	0,0066434316825260877
1	1	0	0	0	0	2	328111,84	0,0100000007	2,12141085	2,7796981278393005E-005	0,010006720581504659	2,12283649E-005	-0,0029887027162469126	0,0001115125166967115	0,007032588207952736
1	1	0	0	0	0	2	328251,84	0,0100000007	2,14401937	2,7796356562369811E-005	0,01000649568795013	2,14541196E-005	-0,0025995467575096666	9,6992584650473549E-005	0,0074217441666899827
1	1	0	0	0	0	2	328391,85	0,0100000007	2,16473722	2,7796258601618723E-005	0,010006460422875254	2,16613571E-005	-0,0022103929265373731	8,247273199400681E-005	0,0078108979976622758
1	1	0	0	0	0	2	328531,85	0,0100000007	2,18419504	2,7796329216048538E-005	0,010006485843347536	2,18561163E-005	-0,0018212412102755818	6,7952958240232166E-005	0,0082000497139240678
1	1	0	0	0	0	2	328671,85	0,0100000007	2,20186424	2,779810452657855E-005	0,010007124943298493	2,203433E-005	-0,0014320819894231586	5,3432904480090989E-005	0,0085892089347764954
1	1	0	0	0	0	2	328811,86	0,0100000007	2,21859145	2,7798275978666627E-005	0,010007186664861758	2,22018589E-005	-0,0010429114032251075	3,891242666362359E-005	0,0089783795209745446
1	1	0	0	0	0	2	328951,86	0,0100000007	2,23413467	2,7797784018382016E-005	0,010007009562569387	2,23570078E-005	-0,00065374412080127539	2,4392072115414266E-005	0,009367546803398377
1	1	0	0	0	0	2	329091,86	0,0100000007	2,24860859	2,779747267714184E-005	0,010006897481881027	2,25015956E-005	-0,00026458129125341363	9,8718837099943539E-006	0,00975670963294624
1	1	0	0	0	0	2	329231,86	0,0100000007	2,26187944	2,7797369587079933E-005	0,010006860370173323	2,26343109E-005	0,00012458475391893334	-4,6484246746985562E-006	0,010145875678118586
1	1	0	0	0	0	2	329371,87	0,0100000007	2,27444386	2,7797366934052358E-005	0,010006859415101786	2,27600394E-005	0,00051374871260357811	-1,9168655209729984E-005	0,010535039636803229
1	1	0	0	0	0	2	329511,87	0,0100000007	2,28586268	2,779693488098888E-005	0,010006703878527802	2,28739518E-005	0,00090290721297073267	-3,3688682087597062E-005	0,010924198137170382
1	1	0	0	0	0	2	329651,87	0,0100000007	2,29640317	2,7798516969610422E-005	0,010007273419698067	2,29807338E-005	0,0012920754100968085	-4,8209070764576928E-005	0,011313366334296458
1	1	0	0	0	0	2	329791,87	0,0100000007	2,30606508	2,7797911659814416E-005	0,010007055512250802	2,30769219E-005	0,0016812488673304058	-6,2729655703240717E-005	0,011702539791530056
1	1	0	0	0	0	2	329931,88	0,0100000007	2,31509709	2,7798037614000755E-005	0,010007100854884814	2,31674094E-005	0,0020704165159915632	-7,7250023916257062E-005	0,012091707440191211
1	1	0	0	0	0	2	330071,88	0,0100000007	2,32340336	2,7798482152892067E-005	0,010007260885687803	2,32509028E-005	0,0024595918907168282	-9,177068039911305E-005	0,012480882814916472
1	1	0	0	0	0	2	330211,88	0,0100000007	2,33117485	2,7797936222464262E-005	0,01000706435451799	2,33282171E-005	0,0028487632063579187	-0,00010629118543208101	0,012870054130557563
1	1	0	0	0	0	2	330351,88	0,0100000007	2,33844995	2,7797821746156038E-005	0,010007023144306518	2,34009221E-005	0,0032379347388007635	-0,00012081169855421392	0,013259225663000413
1	1	0	0	0	0	2	330491,89	0,0100000007	2,34534335	2,7797922975124998E-005	0,010007059586033662	2,3469991E-005	0,0036271045647021446	-0,00013533214800299034	0,013648395488901798
1	1	0	0	0	0	2	330631,89	0,0100000007	2,3518548	2,7797451578856758E-005	0,010006889886644643	2,35347525E-005	0,0040162731747567821	-0,00014985255208688998	0,014037564098956437
1	1	0	0	0	0	2	330771,89	0,0100000007	2,3580606	2,7797986201114125E-005	0,01000708234695149	2,35973057E-005	0,0044054405845242816	-0,00016437291138646278	0,014426731508723936
1	1	0	0	0	0	2	330911,90	0,0100000007	2,3640182	2,7797579651181069E-005	0,010006935991793645	2,36565793E-005	0,0047946092081890598	-0,0001788933159781751	0,014815900132388717
1	1	0	0	0	0	2	331051,90	0,0100000007	2,36965108	2,7797688157763328E-005	0,010006975053411131	2,37130389E-005	0,0051837759701078304	-0,0001934136511056408	0,015205066894307485
1	1	0	0	0	0	2	331191,90	0,0100000007	2,37547517	2,7797657797113059E-005	0,010006964123321507	2,37712957E-005	0,0055729430611220576	-0,00020793399851210038	0,015594233985321709
1	1	0	0	0	0	2	331331,90	0,0100000007	2,38059258	2,779746313506944E-005	0,01000689404656812	2,38223383E-005	0,0059621140816925274	-0,00022245449253558675	0,015983405005892176
1	1	0	0	0	0	2	331471,91	0,0100000007	2,38590097	2,7798021976680803E-005	0,010007095225558024	2,38759385E-005	0,0063512848490565683	-0,0002369749771116008	0,016372575773256214
1	1	0	0	0	0	2	331611,91	0,0100000007	2,39094186	2,7798026314056995E-005	0,010007096787099883	2,39263863E-005	0,006740454048645536	-0,00025149540319181898	0,016761744972845174
1	1	0	0	0	0	2	331751,91	0,0100000007	2,39598298	2,7797697913212083E-005	0,010006978564839083	2,39765504E-005	0,0071296255921123955	-0,0002660159167252727	0,017150916516312038
1	1	0	0	0	0	2	331891,91	0,0100000007	2,40058494	2,7797662781810182E-005	0,010006965918243894	2,40225709E-005	0,007518791956651913	-0,00028053623702598413	0,017540082880851558
1	1	0	0	0	0	2	332031,92	0,0100000007	2,40541601	2,779843430976487E-005	0,010007243662959632	2,40715835E-005	0,007907963236912887	-0,00029505674073887238	0,017929254161112534
1	1	0	0	0	0	2	332171,92	0,0100000007	2,40988421	2,7797874399046928E-005	0,010007042098982269	2,41158123E-005	0,0082971358967356288	-0,00030957729592506502	0,01831842682093527
1	1	0	0	0	0	2	332311,92	0,0100000007	2,41419959	2,7797442416919184E-005	0,010006886588410626	2,41586222E-005	0,0086863038934355494	-0,00032409767712387552	0,01870759481763519
1	1	0	0	0	0	2	332451,93	0,0100000007	2,41862965	2,7797776258602323E-005	0,010007006769102486	2,42032438E-005	0,0090754740182828851	-0,00033861813772672749	0,019096764942482528
1	1	0	0	0	0	2	332591,93	0,0100000007	2,4227159	2,7798221369222224E-005	0,010007167005840304	2,42445221E-005	0,0094646461720224038	-0,00035313867403027462	0,019485937096222035
1	1	0	0	0	0	2	332731,93	0,0100000007	2,42684031	2,7798004082248854E-005	0,010007088783570066	2,42856058E-005	0,0098538167306895757	-0,00036765915081952794	0,0198751076548892
1	1	0	0	0	0	2	332871,93	0,0100000007	2,4307549	2,779778258404177E-005	0,010007009045750862	2,43245868E-005	0,01024298176412073	-0,00038217942145479667	0,020264272688320358
1	1	0	0	0	0	2	333011,94	0,0100000007	2,43455482	2,7797511346586461E-005	0,010006911402263568	2,43623745E-005	0,010632145382678662	-0,00039669963929924307	0,020653436306878288
1	1	0	0	0	0	2	333151,94	0,0100000007	2,43818283	2,7797840451562986E-005	0,010007029877773877	2,43989689E-005	0,01102130933463776	-0,00041121986958333536	0,021042600258837382
1	1	0	0	0	0	2	333291,94	0,0100000007	2,44202089	2,7797854593230618E-005	0,010007034968792694	2,44373878E-005	0,011410476877390259	-0,00042574023384475725	0,021431767801589875
1	1	0	0	0	0	2	333431,94	0,0100000007	2,44538164	2,779783018833647E-005	0,010007026182966978	2,44709972E-005	0,011799647714029125	-0,0004402607210055081	0,021820938638228746
1	1	0	0	0	0	2	333571,95	0,0100000007	2,44897127	2,7797268787398934E-005	0,01000682408298687	2,45064239E-005	0,012188813138394522	-0,00045478100622705901	0,022210104062594138
1	1	0	0	0	0	2	333711,95	0,0100000007	2,45231295	2,7797083976988992E-005	0,010006757552520328	2,45397005E-005	0,012577971131262434	-0,00046930101416944704	0,022599262055462035
1	1	0	0	0	0	2	333851,95	0,0100000007	2,45567369	2,7797123378608374E-005	0,010006771736830189	2,45733663E-005	0,012967132461805379	-0,00048382114664497811	0,022988423386004976
1	1	0	0	0	0	2	333991,95	0,0100000007	2,4588244	2,7797375164719094E-005	0,010006862378084758	2,46051168E-005	0,013356294104567074	-0,0004983412907698105	0,023377585028766669
1	1	0	0	0	0	2	334131,96	0,0100000007	2,46193695	2,7796970958821475E-005	0,010006716866763424	2,46359068E-005	0,013745447843800682	-0,00051286114000338355	0,023766738768000278
1	1	0	0	0	0	2	334271,96	0,0100000007	2,4649539	2,779689391153968E-005	0,010006689130276042	2,46660275E-005	0,014134600836288517	-0,00052738096137486778	0,024155891760488106
1	1	0	0	0	0	2	334411,96	0,0100000007	2,46791363	2,7797014780756499E-005	0,010006732641890307	2,46957516E-005	0,014523756615449232	-0,00054190088672086381	0,024545047539648816
1	1	0	0	0	0	2	334551,97	0,0100000007	2,47075868	2,7797152762404749E-005	0,010006782314560221	2,47243443E-005	0,014912918733359181	-0,00055642104857411648	0,024934209657558771
1	1	0	0	0	0	2	334691,97	0,0100000007	2,4736228	2,7797056599106224E-005	0,010006747696322832	2,47529188E-005	0,015302076594763613	-0,00057094105161142528	0,025323367518963194
1	1	0	0	0	0	2	334831,97	0,0100000007	2,47642994	2,779663360620745E-005	0,0100065954219278	2,47806329E-005	0,015691233521633024	-0,00058546101977997594	0,025712524445832605
1	1	0	0	0	0	2	334971,97	0,0100000007	2,47908401	2,7796645487658682E-005	0,010006599698934904	2,4807201E-005	0,016080386638265952	-0,00059998084578348058	0,026101677562465533
1	1	0	0	0	0	2	335111,98	0,0100000007	2,48171926	2,7796933355896422E-005	0,010006703329505088	2,48338292E-005	0,016469544339575408	-0,00061450084284743053	0,026490835263774989
1	1	0	0	0	0	2	335251,98	0,0100000007	2,48429704	2,7796574594349498E-005	0,010006574178300965	2,48593024E-005	0,016858700892417968	-0,00062902079706053645	0,026879991816617546
1	1	0	0	0	0	2	335391,98	0,0100000007	2,48672199	2,7796685458005718E-005	0,010006614088448738	2,48836677E-005	0,017247854485646931	-0,00064354064084648	0,027269145409846512
1	1	0	0	0	0	2	335531,98	0,0100000007	2,48937631	2,779676386543239E-005	0,01000664231457885	2,49102977E-005	0,017637003949222218	-0,00065806033054949235	0,027658294873421795
1	1	0	0	0	0	2	335671,99	0,0100000007	2,49166751	2,7796545021132464E-005	0,010006563532147822	2,49330296E-005	0,018026156774649562	-0,00067258014568772506	0,028047447698849142
1	1	0	0	0	0	2	335811,99	0,0100000007	2,4939208	2,7796357845525363E-005	0,010006496150226699	2,49554087E-005	0,018415308970142736	-0,00068709993732226688	0,028436599894342317
1	1	0	0	0	0	2	335951,99	0,0100000007	2,49632668	2,7796350563772851E-005	0,010006493528380315	2,49794775E-005	0,018804456996411507	-0,00070161957339744077	0,028825747920611085
1	1	0	0	0	0	2	336092,00	0,0100000007	2,49867535	2,7796021587732765E-005	0,01000637509928623	2,50026824E-005	0,019193600308766336	-0,00071613903359014758	0,02921489123296592
1	1	0	0	0	0	2	336232,00	0,0100000007	2,5006423	2,7796201558059286E-005	0,010006439887589264	2,50225276E-005	0,019582747221744416	-0,00073065862812694886	0,029604038145943994
1	1	0	0	0	0	2	336372,00	0,0100000007	2,50281906	2,7797132042754029E-005	0,010006774855513091	2,50451467E-005	0,019971896937643702	-0,00074517832724450893	0,029993187861843283
1	1	0	0	0	0	2	336512,00	0,0100000007	2,50497675	2,7796248564858816E-005	0,010006456809711261	2,50659414E-005	0,020361048658751216	-0,0007596981011790839	0,030382339582950797
1	1	0	0	0	0	2	336652,01	0,0100000007	2,50719166	2,7796944661842038E-005	0,010006707399567141	2,50887333E-005	0,02075020330680721	-0,00077421798432204211	0,03077149423100679
1	1	0	0	0	0	2	336792,01	0,0100000007	2,50904393	2,7795872691760048E-005	0,010006321498234093	2,51063011E-005	0,021139355152278733	-0,00078873776289680563	0,03116064607647831
1	1	0	0	0	0	2	336932,01	0,0100000007	2,51125908	2,7796373211364781E-005	0,010006501681822379	2,51289184E-005	0,021528505392207878	-0,00080325748156662426	0,03154979631640745
1	1	0	0	0	0	2	337072,01	0,0100000007	2,51314926	2,7796721546910701E-005	0,010006627080204376	2,5148147E-005	0,021917654994932787	-0,00081777717646149619	0,031938945919132358
1	1	0	0	0	0	2	337212,02	0,0100000007	2,51513529	2,7796886359600144E-005	0,010006686411630154	2,51681704E-005	0,022306804558829466	-0,00083229686990763456	0,03232809548302903
1	1	0	0	0	0	2	337352,02	0,0100000007	2,51712108	2,779592249676999E-005	0,010006339427692443	2,51871679E-005	0,022695954377217126	-0,00084681657284917376	0,032717245301416685
1	1	0	0	0	0	2	337492,02	0,0100000007	2,51889706	2,7795667850515907E-005	0,010006247756806088	2,52047084E-005	0,023085102772645715	-0,00086133622269819661	0,033106393696845286
1	1	0	0	0	0	2	337632,02	0,0100000007	2,52080631	2,7795726133406992E-005	0,010006268737776938	2,5223866E-005	0,023474242878165734	-0,00087585556323958502	0,033495533802365299
1	1	0	0	0	0	2	337772,03	0,0100000007	2,52263951	2,7795523689231939E-005	0,010006195859510162	2,5242025E-005	0,023863379673714403	-0,00089037478028149197	0,03388467059791399
1	1	0	0	0	0	2	337912,03	0,0100000007	2,52439618	2,7796010993679779E-005	0,010006371285617077	2,52600457E-005	0,024252518723269421	-0,00090489408142340621	0,034273809647469011
1	1	0	0	0	0	2	338052,03	0,0100000007	2,52617216	2,7796467966400086E-005	0,010006535792628816	2,5278232E-005	0,024641664549984003	-0,000919413635430256	0,034662955474183584
1	1	0	0	0	0	2	338192,04	0,0100000007	2,52806258	2,7796024423454784E-005	0,010006376120126501	2,52967457E-005	0,025030808127546237	-0,00093393310551820749	0,03505209905174583
1	1	0	0	0	0	2	338332,04	0,0100000007	2,5295136	2,7795117932113094E-005	0,010006049789526974	2,5310439E-005	0,025419946395491114	-0,00094845237749719667	0,035441237319690714
1	1	0	0	0	0	2	338472,04	0,0100000007	2,53123236	2,7795772293065158E-005	0,010006285355399861	2,53282324E-005	0,025809082779416208	-0,00096297157918087462	0,035830373703615808
1	1	0	0	0	0	2	338612,04	0,0100000007	2,5330081	2,7795576464953936E-005	0,010006214858637229	2,53458238E-005	0,026198224838277651	-0,00097749099260405786	0,036219515762477254
1	1	0	0	0	0	2	338752,05	0,0100000007	2,5346694	2,7795632399411664E-005	0,010006234994654294	2,53624985E-005	0,026587365747618656	-0,00099201036313708787	0,036608656671818272
1	1	0	0	0	0	2	338892,05	0,0100000007	2,53613973	2,7795272615531251E-005	0,010006105474951235	2,53768812E-005	0,02697650527600345	-0,001006529682144785	0,036997796200203072
1	1	0	0	0	0	2	339032,05	0,0100000007	2,53791547	2,7796188548052061E-005	0,010006435204309819	2,53954859E-005	0,027365653108263971	-0,0010210493109812501	0,037386944032463584
1	1	0	0	0	0	2	339172,05	0,0100000007	2,53927112	2,7795839375091923E-005	0,010006309504464509	2,54087336E-005	0,027754791729516877	-0,001035568596142637	0,037776082653716493
1	1	0	0	0	0	2	339312,06	0,0100000007	2,5407989	2,7796312250300413E-005	0,010006479735795811	2,54244533E-005	0,028143939407782384	-0,001050088219233341	0,038165230331981997
1	1	0	0	0	0	2	339452,06	0,0100000007	2,54232645	2,7796431422647504E-005	0,010006522637247683	2,54398474E-005	0,028533087486382586	-0,0010646078572610709	0,038554378410582208
1	1	0	0	0	0	2	339592,06	0,0100000007	2,54375839	2,7796741872301533E-005	0,010006634396912962	2,54544593E-005	0,028922231972411296	-0,001079127361245128	0,038943522896610899
1	1	0	0	0	0	2	339732,07	0,0100000007	2,54522872	2,779668776416737E-005	0,010006614918417968	2,5469124E-005	0,029311383603700461	-0,0010936471318284598	0,039332674527900058
1	1	0	0	0	0	2	339872,07	0,0100000007	2,54664183	2,7796194487458304E-005	0,010006437341988944	2,54828119E-005	0,029700532189183891	-0,0011081667887686845	0,039721823113383482
1	1	0	0	0	0	2	340012,07	0,0100000007	2,54805493	2,7796897302692134E-005	0,010006690351067419	2,54975967E-005	0,030089683000997715	-0,0011226865287762896	0,040110973925197312
1	1	0	0	0	0	2	340152,07	0,0100000007	2,54939151	2,7796812941268499E-005	0,010006659981539672	2,55108935E-005	0,030478832703509811	-0,0011372062273943554	0,040500123627709395
1	1	0	0	0	0	2	340292,08	0,0100000007	2,55082369	2,7796685211929597E-005	0,01000661399986304	2,55251089E-005	0,030867986806137459	-0,0011517260901866488	0,040889277730337056
1	1	0	0	0	0	2	340432,08	0,0100000007	2,55214119	2,7797377318092106E-005	0,010006863153284115	2,55389277E-005	0,031257145516797875	-0,00116624612491084	0,041278436440997472
1	1	0	0	0	0	2	340572,08	0,0100000007	2,55351591	2,7796946215546794E-005	0,010006707959356048	2,55522882E-005	0,031646295468338426	-0,0011807658328204925	0,041667586392538022
1	1	0	0	0	0	2	340712,08	0,0100000007	2,55489087	2,7797074872689942E-005	0,010006754275035779	2,55661653E-005	0,032035450363422451	-0,0011952857251803989	0,042056741287622048
1	1	0	0	0	0	2	340852,09	0,0100000007	2,55605555	2,7797033486525629E-005	0,010006739375837533	2,55777813E-005	0,032424609738004467	-0,0012098057846763978	0,042445900662204064
1	1	0	0	0	0	2	340992,09	0,0100000007	2,55741143	2,7796798414705946E-005	0,010006654751611882	2,55911327E-005	0,032813767834185997	-0,0012243257964735557	0,042835058758385594
1	1	0	0	0	0	2	341132,09	0,0100000007	2,55863333	2,7796881786081939E-005	0,01000668476484583	2,56034364E-005	0,033202922912169939	-0,0012388456956577037	0,043224213836369536
1	1	0	0	0	0	2	341272,10	0,0100000007	2,55997014	2,7797149907228435E-005	0,010006781286600048	2,56170606E-005	0,033592079413526202	-0,0012533656479497866	0,043613370337725798
1	1	0	0	0	0	2	341412,10	0,0100000007	2,56102037	2,7796830931523197E-005	0,010006666457440698	2,5627276E-005	0,033981234735573402	-0,0012678855562402629	0,044002525659772992
1	1	0	0	0	0	2	341552,10	0,0100000007	2,56218505	2,7796566138509661E-005	0,010006571133791277	2,56386866E-005	0,034370389683890842	-0,0012824054505863792	0,044391680608090432
1	1	0	0	0	0	2	341692,10	0,0100000007	2,56323528	2,7797075008042157E-005	0,010006754323761637	2,5649666E-005	0,034759548089527194	-0,0012969254739297126	0,044780839013726784
1	1	0	0	0	0	2	341832,11	0,0100000007	2,56445742	2,7796984951218797E-005	0,010006721903929469	2,56618114E-005	0,035148704222405766	-0,0013114454124733978	0,045169995146605357
1	1	0	0	0	0	2	341972,11	0,0100000007	2,56560302	2,7797120847997981E-005	0,01000677082582799	2,5673402E-005	0,035537861594270003	-0,0013259653972453038	0,0455591525184696
1	1	0	0	0	0	2	342112,11	0,0100000007	2,56665325	2,7797351277588554E-005	0,010006853778883341	2,56841231E-005	0,035927020419526662	-0,0013404854362452349	0,045948311343726253
1	1	0	0	0	0	2	342252,11	0,0100000007	2,56779909	2,7797015904190224E-005	0,010006733046784629	2,56952808E-005	0,036316179873982349	-0,0013550054987214282	0,046337470798181946
1	1	0	0	0	0	2	342392,12	0,0100000007	2,56875372	2,7796578047383162E-005	0,010006575421369149	2,57044285E-005	0,036705332901594963	-0,0013695253214034653	0,04672662382579456
1	1	0	0	0	0	2	342532,12	0,0100000007	2,56970859	2,7797371667809786E-005	0,010006861118755675	2,57147167E-005	0,037094492824385011	-0,0013840454013538427	0,047115783748584608
1	1	0	0	0	0	2	342672,12	0,0100000007	2,57064414	2,7797076309824157E-005	0,01000675479216115	2,57238062E-005	0,037483649901947904	-0,0013985653751449698	0,047504940826147501
1	1	0	0	0	0	2	342812,12	0,0100000007	2,57165623	2,7796871963991888E-005	0,010006681228961494	2,57337433E-005	0,037872804616096646	-0,0014130852607539374	0,047894095540296243
1	1	0	0	0	0	2	342952,13	0,0100000007	2,572649	2,7797220689761968E-005	0,010006806767937974	2,57440006E-005	0,038261963262032794	-0,0014276052930631792	0,04828325418623239
1	1	0	0	0	0	2	343092,13	0,0100000007	2,57364202	2,779698219274481E-005	0,010006720910431989	2,57537176E-005	0,038651119528494131	-0,0014421252365910166	0,048672410452693722
1	1	0	0	0	0	2	343232,13	0,0100000007	2,57446313	2,7796664884986566E-005	0,010006606681838486	2,57616393E-005	0,039040277631921869	-0,0014566452486585405	0,049061568556121459
1	1	0	0	0	0	2	343372,14	0,0100000007	2,57547522	2,7796361453882938E-005	0,010006497449210413	2,57714855E-005	0,039429431156184698	-0,001471165089871265	0,049450722080384294
1	1	0	0	0	0	2	343512,14	0,0100000007	2,57654452	2,7796725574208218E-005	0,010006628530003568	2,57825232E-005	0,039818583205936397	-0,0014856848760679962	0,049839874130135994
1	1	0	0	0	0	2	343652,14	0,0100000007	2,57740378	2,7796413107309491E-005	0,010006516044085931	2,57908323E-005	0,040207731809858099	-0,0015002045336961776	0,050229022734057696
1	1	0	0	0	0	2	343792,14	0,0100000007	2,57828212	2,7796237713243398E-005	0,010006452903437904	2,57994579E-005	0,040596883694688653	-0,0015147243137394797	0,05061817461888825
1	1	0	0	0	0	2	343932,15	0,0100000007	2,5791223	2,7797152508826301E-005	0,010006782223506723	2,58087148E-005	0,040986038921860019	-0,0015292442184900109	0,051007329846059616
1	1	0	0	0	0	2	344072,15	0,0100000007	2,58011532	2,7796664041725712E-005	0,010006606378270424	2,5818199E-005	0,041375190484410848	-0,0015437639865086227	0,051396481408610445
1	1	0	0	0	0	2	344212,15	0,0100000007	2,58099365	2,7796931167236634E-005	0,010006702541602736	2,58272357E-005	0,041764340701946451	-0,0015582837043429082	0,051785631626146042
1	1	0	0	0	0	2	344352,15	0,0100000007	2,58185291	2,7796726875628032E-005	0,010006628998156208	2,58356449E-005	0,042153496552860717	-0,0015728036323661258	0,052174787477060307
1	1	0	0	0	0	2	344492,16	0,0100000007	2,58250213	2,7796203539706768E-005	0,010006440600852131	2,58416549E-005	0,04254264475134496	-0,0015873232748668906	0,052563935675544557
1	1	0	0	0	0	2	344632,16	0,0100000007	2,58360958	2,7795807593760803E-005	0,010006298063172629	2,58523669E-005	0,042931786246622035	-0,001601842667261983	0,052953077170821632
1	1	0	0	0	0	2	344772,16	0,0100000007	2,58448792	2,7796389186599603E-005	0,010006507432330227	2,58616983E-005	0,043320935414575187	-0,001616362345934936	0,053342226338774778
1	1	0	0	0	0	2	344912,17	0,0100000007	2,58523273	2,7796345683280378E-005	0,010006491771902808	2,58691107E-005	0,043710089250520941	-0,0016308821987769696	0,053731380174720531
1	1	0	0	0	0	2	345052,17	0,0100000007	2,58611107	2,7796224845366349E-005	0,010006448271091363	2,58777873E-005	0,04409924129489895	-0,0016454019847732013	0,054120532219098541
1	1	0	0	0	0	2	345192,17	0,0100000007	2,58693218	2,7796433643800102E-005	0,0100065234370802	2,58861983E-005	0,044488392261639162	-0,0016599217305613181	0,054509683185838758
1	1	0	0	0	0	2	345332,17	0,0100000007	2,58769584	2,779579278723233E-005	0,010006292733157986	2,58932414E-005	0,044877540362467392	-0,0016744413694184058	0,054898831286666982
1	1	0	0	0	0	2	345472,18	0,0100000007	2,58853602	2,7796585869199286E-005	0,010006578237168734	2,59023891E-005	0,045266685234505395	-0,0016889608878049888	0,055287976158704992
1	1	0	0	0	0	2	345612,18	0,0100000007	2,58935714	2,7795976435869104E-005	0,010006358845394237	2,59100361E-005	0,045655834482322682	-0,0017034805694577798	0,055677125406522272
1	1	0	0	0	0	2	345752,18	0,0100000007	2,5900445	2,7796733987931578E-005	0,010006631558419694	2,59176213E-005	0,046044985278375181	-0,0017180003088773088	0,056066276202574778
1	1	0	0	0	0	2	345892,18	0,0100000007	2,59077024	2,7796455270196829E-005	0,010006531222200136	2,59246226E-005	0,046434139954457568	-0,0017325201930659693	0,056455430878657165
1	1	0	0	0	0	2	346032,19	0,0100000007	2,59168673	2,7797398626545654E-005	0,010006870823830211	2,59346743E-005	0,046823296757195853	-0,0017470401566030208	0,05684458768139545
1	1	0	0	0	0	2	346172,19	0,0100000007	2,59243131	2,7795518602606739E-005	0,010006194028243862	2,59403714E-005	0,047212445212408742	-0,0017615598086826765	0,057233736136608339
1	1	0	0	0	0	2	346312,19	0,0100000007	2,5931952	2,7795992507392333E-005	0,01000636463056525	2,59484568E-005	0,047601592472133325	-0,0017760794161570557	0,057622883396332915
1	1	0	0	0	0	2	346452,19	0,0100000007	2,59390163	2,7796344722000259E-005	0,010006491425382675	2,59558547E-005	0,047990741706231808	-0,0017905990972979802	0,058012032630431398
1	1	0	0	0	0	2	346592,20	0,0100000007	2,59464645	2,7795580947409485E-005	0,010006216472290157	2,5962594E-005	0,048379886774707277	-0,0018051186230139091	0,058401177698906867
1	1	0	0	0	0	2	346732,20	0,0100000007	2,59544849	2,7796413724931574E-005	0,0100065162664256	2,59713979E-005	0,048769027151668333	-0,0018196379736831277	0,05879031807586793
1	1	0	0	0	0	2	346872,20	0,0100000007	2,59621215	2,7796423394802128E-005	0,010006519747511971	2,59790486E-005	0,049158173868796064	-0,001834157560912489	0,059179464792995661
1	1	0	0	0	0	2	347012,21	0,0100000007	2,59686136	2,779616599938729E-005	0,0100064270869468	2,59853041E-005	0,049547322140258419	-0,0018486772061361651	0,05956861306445801
1	1	0	0	0	0	2	347152,21	0,0100000007	2,5977397	2,7796762681928358E-005	0,0100066418885256	2,59946501E-005	0,049936466192621587	-0,0018631966939395779	0,059957757116821184
1	1	0	0	0	0	2	347292,21	0,0100000007	2,59840822	2,7796517019160093E-005	0,01000655345116591	2,60011111E-005	0,05032561687265063	-0,0018777164290301152	0,060346907796850227
1	1	0	0	0	0	2	347432,21	0,0100000007	2,59917188	2,779613256966695E-005	0,01000641505201325	2,60083925E-005	0,050714763976081434	-0,0018922360306729638	0,060736054900281024
1	1	0	0	0	0	2	347572,22	0,0100000007	2,59984016	2,7795765433874397E-005	0,010006282885905758	2,60147353E-005	0,051103907632617587	-0,0019067555037075386	0,061125198556817178
1	1	0	0	0	0	2	347712,22	0,0100000007	2,60066128	2,7796149708589328E-005	0,010006421222022994	2,60233119E-005	0,051493053833242861	-0,0019212750716654989	0,061514344757442458
1	1	0	0	0	0	2	347852,22	0,0100000007	2,60138702	2,7796060221476688E-005	0,010006389007399222	2,60304914E-005	0,051882201170088826	-0,0019357946820173808	0,061903492094288422
1	1	0	0	0	0	2	347992,22	0,0100000007	2,60197878	2,7795855023432522E-005	0,010006315137292707	2,60362194E-005	0,052271343263470938	-0,0019503140967285766	0,062292634187670528
1	1	0	0	0	0	2	348132,23	0,0100000007	2,6027236	2,779645089318769E-005	0,010006529646740163	2,60442303E-005	0,052660488565607373	-0,0019648336311627101	0,062681779489806963
1	1	0	0	0	0	2	348272,23	0,0100000007	2,60335374	2,7795690158485539E-005	0,010006255787520525	2,60498236E-005	0,053049634729545421	-0,0019793531977518211	0,063070925653744986
1	1	0	0	0	0	2	348412,23	0,0100000007	2,60407925	2,779605297563184E-005	0,010006386399178275	2,60574234E-005	0,053438784684229146	-0,0019938729057787494	0,063460075608428685
1	1	0	0	0	0	2	348552,24	0,0100000007	2,60472846	2,779585089456911E-005	0,010006313651396446	2,60637298E-005	0,053827929725421306	-0,0020083924304767014	0,063849220649620838
1	1	0	0	0	0	2	348692,24	0,0100000007	2,60547328	2,779654165936841E-005	0,010006562321936067	2,60718316E-005	0,054217077231242643	-0,0020229120471332819	0,064238368155442202
1	1	0	0	0	0	2	348832,24	0,0100000007	2,60614157	2,7796898256004269E-005	0,010006690694253181	2,60788529E-005	0,054606230730362451	-0,0020374318874078861	0,064627521654561997
1	1	0	0	0	0	2	348972,24	0,0100000007	2,60677171	2,7796386930005005E-005	0,010006506619971811	2,60846791E-005	0,054995388976677069	-0,0020519519048067117	0,065016679900876621
1	1	0	0	0	0	2	349112,25	0,0100000007	2,60738277	2,7796325779468234E-005	0,010006484606202448	2,60907364E-005	0,055384541107761939	-0,0020664716940380928	0,065405832031961485
1	1	0	0	0	0	2	349252,25	0,0100000007	2,60807014	2,7796140623951539E-005	0,010006417951616362	2,60974393E-005	0,055773691804409338	-0,0020809914297486835	0,065794982728608883
1	1	0	0	0	0	2	349392,25	0,0100000007	2,60852838	2,7796426125957318E-005	0,01000652073035944	2,61022924E-005	0,056162843694018554	-0,0020955112099702838	0,066184134618218099
1	1	0	0	0	0	2	349532,25	0,0100000007	2,60917759	2,7795816502689075E-005	0,01000630127009208	2,61082168E-005	0,056551991900170374	-0,002110030852757136	0,06657328282436992
1	1	0	0	0	0	2	349672,26	0,0100000007	2,60975051	2,7796987111680208E-005	0,010006722681214635	2,6115049E-005	0,056941138259055507	-0,0021245504266199846	0,066962429183255053
1	1	0	0	0	0	2	349812,26	0,0100000007	2,61022782	2,7797288151043984E-005	0,010006831053764867	2,61201094E-005	0,057330293302772512	-0,0021390703245255872	0,067351584226972058
1	1	0	0	0	0	2	349952,26	0,0100000007	2,61102986	2,7796562578063456E-005	0,010006569852521283	2,61274527E-005	0,057719451005725491	-0,0021535903216508592	0,06774074192992503
1	1	0	0	0	0	2	350092,26	0,0100000007	2,61166	2,7796892140991984E-005	0,010006688492891142	2,61340683E-005	0,058108606528963994	-0,0021681102374480534	0,068129897453163546
1	1	0	0	0	0	2	350232,27	0,0100000007	2,61209917	2,7796101644790419E-005	0,01000640391973801	2,6137719E-005	0,058497761345972301	-0,0021826301268948496	0,068519052270171853
1	1	0	0	0	0	2	350372,27	0,0100000007	2,61263394	2,7796340774744746E-005	0,010006490004864006	2,61432961E-005	0,058886908147013427	-0,0021971497172551328	0,068908199071212979
1	1	0	0	0	0	2	350512,27	0,0100000007	2,61320662	2,7796327657997606E-005	0,010006485282925955	2,61490131E-005	0,059276060202079155	-0,0022116695036501376	0,069297351126278694
1	1	0	0	0	0	2	350652,28	0,0100000007	2,61377954	2,7796279312525357E-005	0,010006467878425107	2,61547011E-005	0,059665209392118477	-0,0022261891831471555	0,069686500316318054
1	1	0	0	0	0	2	350792,28	0,0100000007	2,61444783	2,7796021945515853E-005	0,010006375228318637	2,61611458E-005	0,060054361656180902	-0,0022407089773401082	0,070075652580380467
1	1	0	0	0	0	2	350932,28	0,0100000007	2,61513519	2,7796438171683504E-005	0,010006525066737371	2,61684163E-005	0,060443511408903642	-0,002255228677831601	0,070464802333103181
1	1	0	0	0	0	2	351072,28	0,0100000007	2,61566997	2,7795543552117629E-005	0,010006203010011326	2,61729256E-005	0,060832654539625306	-0,0022697481312473302	0,07085394546382487
1	1	0	0	0	0	2	351212,29	0,0100000007	2,61612821	2,7796287549814826E-005	0,010006470843792216	2,61782097E-005	0,061221800493604237	-0,0022842676900025837	0,071243091417803827
1	1	0	0	0	0	2	351352,29	0,0100000007	2,61666298	2,7796422029483235E-005	0,01000651925554068	2,61836885E-005	0,061610947602038528	-0,0022987872918321187	0,071632238526238106
1	1	0	0	0	0	2	351492,29	0,0100000007	2,61733127	2,7796520029608573E-005	0,010006554535372454	2,61904679E-005	0,062000092436597197	-0,0023133068088202979	0,072021383360796787
1	1	0	0	0	0	2	351632,29	0,0100000007	2,6178658	2,779680933472183E-005	0,01000665868320787	2,61960904E-005	0,062389240535885747	-0,0023278264476199376	0,072410531460085363
1	1	0	0	0	0	2	351772,30	0,0100000007	2,61840057	2,7796396854850979E-005	0,010006510193313523	2,62010526E-005	0,062778392688240218	-0,0023423462376449162	0,072799683612439821
1	1	0	0	0	0	2	351912,30	0,0100000007	2,61893511	2,7796825072831578E-005	0,010006664348818288	2,62068043E-005	0,063167540083501888	-0,0023568658501763674	0,073188831007701504
1	1	0	0	0	0	2	352052,30	0,0100000007	2,61962247	2,7796638389221494E-005	0,010006597144012682	2,62135072E-005	0,06355668973794423	-0,0023713855470008858	0,073577980662143846
1	1	0	0	0	0	2	352192,31	0,0100000007	2,62006164	2,7796177417402051E-005	0,010006431196887018	2,62174672E-005	0,063945833554336909	-0,0023859050259999219	0,073967124478536512
1	1	0	0	0	0	2	352332,31	0,0100000007	2,62063456	2,7796002684005846E-005	0,010006368294075574	2,62230351E-005	0,064334978981476326	-0,0024004245650980854	0,074356269905675942
1	1	0	0	0	0	2	352472,31	0,0100000007	2,62120748	2,7796243076781843E-005	0,010006454833925102	2,62289941E-005	0,064724125187795789	-0,0024149441332685034	0,074745416111995392
1	1	0	0	0	0	2	352612,31	0,0100000007	2,62191391	2,7797037114751421E-005	0,01000674068209016	2,62368121E-005	0,065113276972051174	-0,0024294639095592106	0,075134567896250778
1	1	0	0	0	0	2	352752,32	0,0100000007	2,62221956	2,7796440502939126E-005	0,010006525906089725	2,62393078E-005	0,065502425406801152	-0,0024439835608753674	0,075523716331000755
1	1	0	0	0	0	2	352892,32	0,0100000007	2,62281132	2,7796924092237734E-005	0,010006699994652174	2,62456851E-005	0,06589157182482217	-0,002458503136944655	0,075912862749021773
1	1	0	0	0	0	2	353032,32	0,0100000007	2,62325072	2,7796375194460982E-005	0,010006502395723266	2,62495651E-005	0,066280724258461312	-0,0024730229374647434	0,076302015182660915
1	1	0	0	0	0	2	353172,32	0,0100000007	2,62374711	2,7796690937545568E-005	0,010006616061045101	2,62548292E-005	0,066669879404846477	-0,002487542839201033	0,07669117032904608
1	1	0	0	0	0	2	353312,33	0,0100000007	2,62426257	2,7796701898591386E-005	0,010006620006945618	2,62599988E-005	0,067059032767200538	-0,0025020626743727235	0,077080323691400154
1	1	0	0	0	0	2	353452,33	0,0100000007	2,62474012	2,7796237467270762E-005	0,010006452814889461	2,62643389E-005	0,067448181756374758	-0,0025165823463751946	0,077469472680574374
1	1	0	0	0	0	2	353592,33	0,0100000007	2,62523651	2,7796305036741411E-005	0,010006477139430528	2,62693684E-005	0,067837331108266432	-0,0025311020319111411	0,077858622032466048
1	1	0	0	0	0	2	353732,33	0,0100000007	2,62558007	2,7796575406721482E-005	0,01000657447074925	2,62730628E-005	0,068226477699123392	-0,0025456216144291699	0,078247768623322995
1	1	0	0	0	0	2	353872,34	0,0100000007	2,62596202	2,7797039308326528E-005	0,010006741471645501	2,62773228E-005	0,068615630730670899	-0,002560141437258023	0,078636921654870502
1	1	0	0	0	0	2	354012,34	0,0100000007	2,62640119	2,7796308083201037E-005	0,010006478235901898	2,62810263E-005	0,069004780486358848	-0,0025746611378601514	0,079026071410558451
1	1	0	0	0	0	2	354152,34	0,0100000007	2,62684035	2,7796340302771165E-005	0,010006489834607322	2,62854519E-005	0,069393926893653965	-0,0025891807135292416	0,079415217817853568
1	1	0	0	0	0	2	354292,35	0,0100000007	2,62714601	2,7795701817454147E-005	0,010006259984435435	2,62879057E-005	0,069783071423263526	-0,002603700219139359	0,07980436234746313
1	1	0	0	0	0	2	354432,35	0,0100000007	2,62760425	2,7795926305775843E-005	0,010006340798442198	2,62927042E-005	0,070172215743130509	-0,0026182197169236989	0,080193506667330125
1	1	0	0	0	0	2	354572,35	0,0100000007	2,62798619	2,7795488597049069E-005	0,010006183226334606	2,62961112E-005	0,070561354359163443	-0,0026327390018903216	0,080582645283363046
1	1	0	0	0	0	2	354712,35	0,0100000007	2,62850165	2,7796142276531709E-005	0,010006418546883229	2,63018883E-005	0,070950495608932224	-0,0026472583851251696	0,08097178653313184
1	1	0	0	0	0	2	354852,36	0,0100000007	2,62886453	2,7795861453697501E-005	0,010006317452609475	2,63052534E-005	0,071339638465312525	-0,0026617778283048538	0,081360929389512128
1	1	0	0	0	0	2	354992,36	0,0100000007	2,62934184	2,7796508290804922E-005	0,010006550309484509	2,63106413E-005	0,071728788226687194	-0,0026762975291191616	0,08175007915088681
1	1	0	0	0	0	2	355132,36	0,0100000007	2,62981915	2,7795785932284262E-005	0,010006290265424195	2,6314734E-005	0,072117932729608077	-0,0026908170337334886	0,08213922365380768
1	1	0	0	0	0	2	355272,36	0,0100000007	2,63012481	2,7795345074445421E-005	0,010006131559658078	2,63173752E-005	0,072507074739341338	-0,002705336445323633	0,082528365663540954
1	1	0	0	0	0	2	355412,37	0,0100000007	2,63067842	2,7795771868537283E-005	0,010006285202106822	2,63233178E-005	0,072896214646611648	-0,0027198557784680586	0,082917505570811264
1	1	0	0	0	0	2	355552,37	0,0100000007	2,63107944	2,7796422097676742E-005	0,010006519280089867	2,63279471E-005	0,073285356427006874	-0,0027343751815012922	0,083306647351206477
1	1	0	0	0	0	2	355692,37	0,0100000007	2,63142323	2,7795360485505728E-005	0,010006137107299995	2,63303809E-005	0,073674500040405184	-0,0027488946529263357	0,083695790964604787
1	1	0	0	0	0	2	355832,38	0,0100000007	2,63201523	2,7796068212897002E-005	0,010006391884138653	2,63369766E-005	0,07406364099757111	-0,0027634140252437779	0,084084931921770714
1	1	0	0	0	0	2	355972,38	0,0100000007	2,63247347	2,7795660120590282E-005	0,01000624497385347	2,63411748E-005	0,074452777613981862	-0,0027779332356018086	0,084474068538181466
1	1	0	0	0	0	2	356112,38	0,0100000007	2,63289356	2,7795778830328752E-005	0,010006287708303494	2,63454913E-005	0,074841915280637619	-0,0027924524851458922	0,084863206204837222
1	1	0	0	0	0	2	356252,38	0,0100000007	2,63329458	2,7796294331705818E-005	0,010006473285691918	2,63499915E-005	0,075231060243749965	-0,0028069720069305814	0,085252351167949581
1	1	0	0	0	0	2	356392,39	0,0100000007	2,63381004	2,7796042305727798E-005	0,010006382558086782	2,635491E-005	0,075620205719343872	-0,0028214915478366464	0,085641496643543475
1	1	0	0	0	0	2	356532,39	0,0100000007	2,63421106	2,7795668245241459E-005	0,01000624789890455	2,63585698E-005	0,076009349218403597	-0,0028360110149955635	0,0860306401426032
1	1	0	0	0	0	2	356672,39	0,0100000007	2,63480306	2,7795410986368858E-005	0,010006155287493637	2,63642487E-005	0,076398486845161523	-0,0028505302630510058	0,086419777769361139
1	1	0	0	0	0	2	356812,39	0,0100000007	2,635185	2,7796114110336118E-005	0,010006408407248054	2,6368738E-005	0,076787629051161446	-0,0028650496819641238	0,08680891997536105
1	1	0	0	0	0	2	356952,40	0,0100000007	2,63575768	2,7796611534897238E-005	0,010006587476642091	2,63749407E-005	0,077176775138127066	-0,0028795692456812893	0,087198066062326682
1	1	0	0	0	0	2	357092,40	0,0100000007	2,63623524	2,7796675042249264E-005	0,010006610338382653	2,63797792E-005	0,077565924493412109	-0,0028940889313438477	0,087587215417611725
1	1	0	0	0	0	2	357232,40	0,0100000007	2,63652158	2,7796936782749578E-005	0,010006704563381453	2,63828933E-005	0,077955078858409062	-0,0029086088039254925	0,087976369782608666
1	1	0	0	0	0	2	357372,41	0,0100000007	2,63705611	2,779694105576103E-005	0,010006706101519467	2,63882448E-005	0,078344236768247526	-0,0029231288087699398	0,088365527692447142
1	1	0	0	0	0	2	357512,41	0,0100000007	2,63745713	2,7796548928392842E-005	0,010006564938385008	2,63918864E-005	0,07873338699995639	-0,0029376485271330483	0,088754677924155994
1	1	0	0	0	0	2	357652,41	0,0100000007	2,63797283	2,7795596571121782E-005	0,010006222096252342	2,63961429E-005	0,079122537912588979	-0,0029521682709023373	0,089143828836788595
1	1	0	0	0	0	2	357792,41	0,0100000007	2,63837385	2,7796399541664867E-005	0,010006511160081942	2,64009177E-005	0,07951168548137559	-0,0029666878899082368	0,089532976405575194
1	1	0	0	0	0	2	357932,42	0,0100000007	2,63881302	2,7796610398166298E-005	0,010006587067426832	2,64055125E-005	0,079900835173006131	-0,002981207588120297	0,089922126097205734
1	1	0	0	0	0	2	358072,42	0,0100000007	2,63925219	2,7796487760367907E-005	0,010006542918669494	2,64097907E-005	0,080289988975329638	-0,0029957274397078394	0,090311279899529254
1	1	0	0	0	0	2	358212,42	0,0100000007	2,63974857	2,7796761124808755E-005	0,010006641327973336	2,64150167E-005	0,080679139346949107	-0,0030102471632912006	0,09070043027114871
1	1	0	0	0	0	2	358352,42	0,0100000007	2,64013052	2,7796741017606109E-005	0,01000663408951976	2,64188202E-005	0,081068297012061568	-0,003024767159004592	0,091089587936261184
1	1	0	0	0	0	2	358492,43	0,0100000007	2,64064598	2,7796400652629219E-005	0,010006511560487363	2,64236551E-005	0,081457455310093478	-0,0030392871783330592	0,091478746234293082
1	1	0	0	0	0	2	358632,43	0,0100000007	2,641047	2,7797328166353206E-005	0,010006845458998814	2,642855E-005	0,081846615125464154	-0,0030538072542754758	0,091867906049663757
1	1	0	0	0	0	2	358772,43	0,0100000007	2,64140987	2,7797284058191712E-005	0,010006829579900446	2,64321388E-005	0,082235776948996928	-0,0030683274051451206	0,092257067873196544
1	1	0	0	0	0	2	358912,43	0,0100000007	2,64184904	2,7796753571782675E-005	0,010006638608703322	2,64360278E-005	0,082624935386164339	-0,0030828474296649197	0,092646226310363942
1	1	0	0	0	0	2	359052,44	0,0100000007	2,64228821	2,7796122208185907E-005	0,010006411322068384	2,64398222E-005	0,083014084665523123	-0,003097367112494567	0,093035375589722726
1	1	0	0	0	0	2	359192,44	0,0100000007	2,64263201	2,7796245774202461E-005	0,010006455805094315	2,64433802E-005	0,083403238170938688	-0,0031118869530040742	0,093424529095138291
1	1	0	0	0	0	2	359332,44	0,0100000007	2,6429565	2,7797266633146339E-005	0,010006823307004899	2,64475984E-005	0,083792397594278438	-0,0031264070143192902	0,093813688518478042
1	1	0	0	0	0	2	359472,45	0,0100000007	2,64331937	2,7796962696644995E-005	0,010006713892437162	2,64509399E-005	0,084181555264952499	-0,003140927010240192	0,094202846189152102
1	1	0	0	0	0	2	359612,45	0,0100000007	2,64383483	2,7796238282488454E-005	0,010006453108362179	2,64554092E-005	0,084570706116073498	-0,0031554467517144006	0,094591997040273101
1	1	0	0	0	0	2	359752,45	0,0100000007	2,64425492	2,7796440150330048E-005	0,010006525779385878	2,64598057E-005	0,084959857214115904	-0,0031699665024015789	0,094981148138315507
1	1	0	0	0	0	2	359892,45	0,0100000007	2,64471316	2,779661339086791E-005	0,01000658814477867	2,6464555E-005	0,085349008302805926	-0,0031844862527398067	0,09537029922700553
1	1	0	0	0	0	2	360032,46	0,0100000007	2,64513326	2,779702404022424E-005	0,010006735975700477	2,64691498E-005	0,085738162796610918	-0,0031990061301274528	0,095759453720810534
1	1	0	0	0	0	2	360172,46	0,0100000007	2,64555335	2,7796660866847056E-005	0,010006605235802077	2,64730079E-005	0,08612731608750935	-0,0032135259626330381	0,096148607011708966
1	1	0	0	0	0	2	360312,46	0,0100000007	2,64570618	2,7796755192646134E-005	0,010006639191969952	2,64746268E-005	0,086516468340329152	-0,0032280457564065133	0,096537759264528755
1	1	0	0	0	0	2	360452,46	0,0100000007	2,64622188	2,7796767284317565E-005	0,010006643544887851	2,64797982E-005	0,086905619366222528	-0,0032425655044017139	0,096926910290422131
1	1	0	0	0	0	2	360592,47	0,0100000007	2,64647007	2,7796626509736394E-005	0,01000659286713092	2,64821483E-005	0,087294771934366157	-0,0032570853099403456	0,097316062858565773
1	1	0	0	0	0	2	360732,47	0,0100000007	2,64690924	2,7796124023023165E-005	0,010006411975455461	2,64860646E-005	0,08768392511942848	-0,0032716051384970426	0,097705216043628083
1	1	0	0	0	0	2	360872,47	0,0100000007	2,64723372	2,779650139948353E-005	0,010006547828423598	2,64896717E-005	0,088073080708224397	-0,003286125056740272	0,098094371632424
1	1	0	0	0	0	2	361012,48	0,0100000007	2,6476922	2,7796369439094429E-005	0,010006500323365245	2,64941336E-005	0,08846223252392329	-0,0033006448342041792	0,098483523448122906
1	1	0	0	0	0	2	361152,48	0,0100000007	2,64805484	2,7796645989434589E-005	0,010006599880036714	2,64980245E-005	0,088851385972588211	-0,0033151646725962438	0,098872676896787814
1	1	0	0	0	0	2	361292,48	0,0100000007	2,64845586	2,7797176614507203E-005	0,010006790901384757	2,65025446E-005	0,089240544848726912	-0,0033296847134946528	0,099261835772926515
1	1	0	0	0	0	2	361432,48	0,0100000007	2,64879966	2,7796472065978582E-005	0,010006537268798123	2,65053131E-005	0,089629700078465472	-0,0033442046183409696	0,099650991002665088
1	1	0	0	0	0	2	361572,49	0,0100000007	2,6491816	2,7796949998372131E-005	0,010006709321146947	2,65095896E-005	0,090018852110673677	-0,003358724403883129	0,10004014303487328
1	1	0	0	0	0	2	361581,77	0,0100000007	2,64927697	2,5795329857876317E-005	0,010006600791669618	2,65102572E-005	0,090044647440531546	-0,0033596868623223162	0,10006593836473115