File: Experimentelles/Ausgewaehlte_Daten/LTO/GCPL/LTO_Korrosion_bessereGCPL_01_GCPL_C02.mpt
EC-Lab ASCII FILE
Nb header lines : 68

Galvanostatic Cycling with Potential Limitation

Run on channel : 2 (SN 6986)
Grouped channel(s) : 2
User :
CE vs. WE compliance from -10 V to 10 V
Electrode connection : standard
Ewe ctrl range : min = 0,00 V, max = 5,00 V
Acquisition started on : 09.07.2015 11:32:40
Saved on :
	File : LTO_Korrosion_bessereGCPL_01_GCPL_C02.mpr
	Directory : C:\Gielisch\AlteZelle\150904_LTO_Korrosion\
	Host : 192.168.0.2
Device : VMP3 (SN 0324)
Address : 192.168.0.1
EC-Lab for windows v10.33 (software)
Internet server v10.33 (firmware)
Command interpretor v10.32 (firmware)
Electrode material :
Initial state :
Electrolyte :
Comments :
Electrode surface area : 0,001 cm²
Characteristic mass : 0,001 g
Equivalent Weight : 0,000 g/eq.
Density : 0,000 g/cm3
Ns                  0                   1                   2
Set I/C             I                   I                   I
Is                  0,000               40,000              -40,000
unit Is             mA                  µA                  µA
vs.                 <None>              <None>              <None>
N                   1                   1                   1
I sign              > 0                 > 0                 > 0
t1 (h:m:s)          0:00:0,0000         6:00:0,0000         6:00:0,0000
I Range             100 µA              100 µA              100 µA
Bandwidth           5                   5                   5
dE1 (mV)            0,00                10,00               10,00
dt1 (s)             0,0000              10,0000             10,0000
EM (V)              0,000               2,100               1,200
tM (h:m:s)          0:00:0,0000         0:00:0,0000         0:00:0,0000
Im                  0,000               0,000               0,000
unit Im             mA                  mA                  mA
E range min (V)     0,000               0,000               0,000
E range max (V)     5,000               5,000               5,000
dq                  0,000               1,000               1,000
unit dq             mA.h                mA.h                mA.h
dtq (s)             0,0000              120,0000            120,0000
dQM                 0,000               0,000               0,000
unit dQM            mA.h                mA.h                mA.h
dxM                 0,000               0,000               0,000
tR (h:m:s)          0:00:0,0000         0:00:0,0000         0:00:0,0000
dER/dt (mV/h)       0,0                 0,1                 0,1
dER (mV)            0,00                5,00                5,00
dtR (s)             1,0000              120,0000            120,0000
EL (V)              pass                4,200               3,500
goto Ns'            0                   0                   0
nc cycles           0                   0                   0

Number of loops : 4
Loop 0 from point number 0 to 1918
Loop 1 from point number 1919 to 3965
Loop 2 from point number 3966 to 6009
Loop 3 from point number 6010 to 8052

mode	ox/red	error	control changes	Ns changes	counter inc.	Ns	time/s	control/V/mA	Ewe/V	dq/mA.h	<I>/mA	P/W	(Q-Qo)/mA.h	Capacity/mA.h
1	1	0	1	1	0	1	0,0004	0,0400000028	1,564973	0	0	0	0	0
1	1	0	1	0	0	1	250,0004	0,0400000028	1,57241166	0,00011112772430334654	0,040005981759840858	6,29058704E-005	0,0027776439766020294	0,0027776439766020294
1	1	0	1	0	0	1	500,0004	0,0400000028	1,57283127	0,00011112773756517304	0,040005986534098522	6,29226633E-005	0,0055558279573202867	0,0055558279573202867
1	1	0	1	0	0	1	750,0004	0,0400000028	1,57304108	0,00011112794807677467	0,040006062318277024	6,29311762E-005	0,0083340196260523763	0,0083340196260523763
1	1	0	1	0	0	1	1000,0004	0,0400000028	1,57330811	0,0001111277112594495	0,040005977064037818	6,29417264E-005	0,011112220948535898	0,011112220948535898
1	1	0	1	0	0	1	1250,0004	0,0400000028	1,57355607	0,00011112713346216413	0,040005769057009824	6,29513233E-005	0,01389040695721341	0,01389040695721341
1	1	0	1	0	0	1	1500,0004	0,0400000028	1,57384217	0,00011112786435501443	0,040006032178442579	6,29631832E-005	0,01666859456033897	0,01666859456033897
1	1	0	1	0	0	1	1750,0004	0,0400000028	1,57420456	0,0001111285080384049	0,040006263904468998	6,29780407E-005	0,019446792705967981	0,019446792705967981
1	1	0	1	0	0	1	2000,0003	0,0400000028	1,57441437	0,00011112708537901442	0,040005751747075482	6,29856295E-005	0,022224992223155546	0,022224992223155546
1	1	0	1	0	0	1	2250,0003	0,0400000028	1,57483399	0,00011112679349879424	0,040005646670193568	6,3002255E-005	0,02500317449197729	0,02500317449197729
1	1	0	1	0	0	1	2500,0003	0,0400000028	1,57508194	0,00011112799092195928	0,040006077742543872	6,30128488E-005	0,02778135653507872	0,02778135653507872
1	1	0	1	0	0	1	2750,0003	0,0400000028	1,57550156	0,00011112760643578237	0,040005939327516691	6,30294235E-005	0,030559556369067859	0,030559556369067859
1	1	0	1	0	0	1	3000,0003	0,0400000028	1,57565415	0,00011112829923505584	0,040006188735261434	6,30359209E-005	0,033337765669117126	0,033337765669117126
1	1	0	1	0	0	1	3250,0003	0,0400000028	1,57609284	0,00011112735631772214	0,040005849285012723	6,30529321E-005	0,036115971815710426	0,036115971815710426
1	1	0	1	0	0	1	3500,0003	0,0400000028	1,57643616	0,00011112816046054165	0,040006138776435066	6,30671275E-005	0,038894168302911597	0,038894168302911597
1	1	0	1	0	0	1	3750,0003	0,0400000028	1,57702744	0,0001111281030010432	0,040006118091015104	6,30907452E-005	0,04167237014093472	0,04167237014093472
1	1	0	1	0	0	1	4000,0003	0,0400000028	1,57729447	0,00011112790404135984	0,040006046465527277	6,31013172E-005	0,044450576403489075	0,044450576403489075
1	1	0	1	0	0	1	4250,0003	0,0400000028	1,57782853	0,00011112825429936251	0,040006172032132966	6,31228759E-005	0,047228791612571053	0,047228791612571053
1	1	0	1	0	0	1	4500,0003	0,0400000028	1,57836258	0,00011112809580357539	0,040006114973648915	6,3144158E-005	0,050007003684372698	0,050007003684372698
1	1	0	1	0	0	1	4750,0003	0,0400000028	1,57880127	0,00011112731055646307	0,040005832284685056	6,31612565E-005	0,052785192629224461	0,052785192629224461
1	1	0	1	0	0	1	5000,0003	0,0400000028	1,57933533	0,0001111271528829303	0,040005775522212576	6,31825314E-005	0,055563378009702118	0,055563378009702118
1	1	0	1	0	0	1	5250,0003	0,0400000028	1,57985032	0,00011112780441136824	0,040006010072453075	6,3203508E-005	0,058341563207258918	0,058341563207258918
1	1	0	1	0	0	1	5500,0003	0,0400000028	1,58034623	0,00011112762939226296	0,040005947065574406	6,32232477E-005	0,061119757770229274	0,061119757770229274
1	1	0	1	0	0	1	5750,0003	0,0400000028	1,58089936	0,00011112671770445174	0,0400056188579584	6,32448573E-005	0,063897948018973427	0,063897948018973427
1	1	0	1	0	0	1	6000,0003	0,0400000028	1,58154786	0,00011112729801589416	0,040005827770080192	6,32711308E-005	0,066676142455907456	0,066676142455907456
1	1	0	1	0	0	1	6250,0003	0,0400000028	1,58219635	0,00011112749889658557	0,040005900087129984	6,3297186E-005	0,069454335457447859	0,069454335457447859
1	1	0	1	0	0	1	6500,0003	0,0400000028	1,58301651	0,0001111278393684576	0,040006022657005389	6,3330197E-005	0,072232530171939853	0,072232530171939853
1	1	0	1	0	0	1	6750,0003	0,0400000028	1,58379853	0,00011112833430907792	0,040006200835630861	6,33617601E-005	0,075010736119205312	0,075010736119205312
1	1	0	1	0	0	1	7000,0003	0,0400000028	1,58469498	0,0001111282329087456	0,04000616433151079	6,33975651E-005	0,077788951449008435	0,077788951449008435
1	1	0	1	0	0	1	7250,0003	0,0400000028	1,58557224	0,00011112695169697205	0,04000570309526672	6,34319294E-005	0,080567155683076147	0,080567155683076147
1	1	0	1	0	0	1	7500,0003	0,0400000028	1,58692646	0,00011112846796918246	0,040006248953269082	6,34869721E-005	0,083345340451230566	0,083345340451230566
1	1	0	1	0	0	1	7750,0003	0,0400000028	1,58881474	0,00011112878721848957	0,040006363883021037	6,35627002E-005	0,086123558001075942	0,086123558001075942
1	1	0	1	0	0	1	8000,0002	0,0400000028	1,59196186	0,00011112806807272138	0,040006104990541344	6,3688196E-005	0,088901761312629747	0,088901761312629747
1	1	0	1	0	0	1	8250,0002	0,0400000028	1,61187446	0,00011112805267340606	0,04000609944678777	6,44848114E-005	0,09167996611084864	0,09167996611084864
1	1	0	1	0	0	1	8481,5242	0,0400000028	1,78818882	7,2137574332041869E-005	0,04000604965641664	7,15383721E-005	0,094252843247802189	0,094252843247802189
1	1	0	1	0	0	1	8614,2038	0,0400000028	2,03883195	5,2016786271292301E-005	0,040006074355564525	8,15656604E-005	0,095727277912896422	0,095727277912896422
1	0	0	0	0	0	2	8678,3686	-0,0400000028	1,92465878	-3,6924858219093747E-005	-0,039988415617899475	7,69640537E-005	0,095623862383151936	0,00040814041201935878
1	0	0	0	0	0	2	8815,8546	-0,0400000028	1,67449236	-0,0001110789111353871	-0,039988408492886746	6,69602814E-005	0,094096684376173235	0,0019353184189980643
1	0	0	0	0	0	2	9065,8546	-0,0400000028	1,57111466	-0,00011107754638770389	-0,039987917183714848	6,28256021E-005	0,091319730703363098	0,0047122720918082112
1	0	0	0	0	0	2	9315,8546	-0,0400000028	1,55373883	-0,0001110775216391517	-0,039987908274235955	6,21307627E-005	0,088542784311937075	0,0074892184832342387
1	0	0	0	0	0	2	9565,8546	-0,0400000028	1,55320477	-0,00011107933146692813	-0,039988559812243354	6,21104191E-005	0,085765829324426458	0,010266173470744866
1	0	0	0	0	0	2	9815,8546	-0,0400000028	1,55301404	-0,00011107903752662242	-0,039988453993732019	6,21026338E-005	0,082988857384333734	0,013043145410837603
1	0	0	0	0	0	2	10065,8546	-0,0400000028	1,55278516	-0,0001110780882537365	-0,039988112255488947	6,20929495E-005	0,080211900841798733	0,015820101953372563
1	0	0	0	0	0	2	10315,8546	-0,0400000028	1,55247998	-0,00011107854191089669	-0,039988275572068595	6,20809951E-005	0,07743494768428585	0,01859705511088544
1	0	0	0	0	0	2	10565,8546	-0,0400000028	1,55242276	-0,00011107735990215507	-0,039987850048916461	6,20780484E-005	0,074658006589741235	0,021373996205430051
1	0	0	0	0	0	2	10815,8546	-0,0400000028	1,55234647	-0,00011107801701914933	-0,039988086611037261	6,20753635E-005	0,071881063428817434	0,024150939366353872
1	0	0	0	0	0	2	11065,8546	-0,0400000028	1,55211759	-0,00011107761961138912	-0,039987943544241843	6,20659921E-005	0,069104119903448282	0,026927882891723043
1	0	0	0	0	0	2	11315,8546	-0,0400000028	1,551965	-0,00011107827844698397	-0,039988180725058867	6,20602586E-005	0,066327176161844211	0,029704826633327104
1	0	0	0	0	0	2	11565,8546	-0,0400000028	1,55192685	-0,00011107863447111512	-0,039988308893747642	6,20589271E-005	0,06355021099587543	0,032481791799295891
1	0	0	0	0	0	2	11815,8546	-0,0400000028	1,55165982	-0,00011107809315228629	-0,039988114018966893	6,20479477E-005	0,060773245933608589	0,035258756861562733
1	0	0	0	0	0	2	12065,8546	-0,0400000028	1,55150723	-0,00011107759713050392	-0,039987935451123078	6,2041574E-005	0,057996298330916006	0,038035704464255309
1	0	0	0	0	0	2	12315,8546	-0,0400000028	1,55148816	-0,00011107988179040451	-0,039988757928697248	6,20420833E-005	0,055219340319172096	0,040812662475999226
1	0	0	0	0	0	2	12565,8546	-0,0400000028	1,55125928	-0,00011107896725191838	-0,039988428694838266	6,20324208E-005	0,052442368068236781	0,043589634726934541
1	0	0	0	0	0	2	12815,8546	-0,0400000028	1,5510304	-0,00011107754574219386	-0,039987916951331232	6,20224746E-005	0,049665412766305658	0,046366590028865664
1	0	0	0	0	0	2	13065,8546	-0,0400000028	1,55099225	-0,0001110781881902367	-0,039988148232629459	6,20213104E-005	0,046888464383473146	0,049143538411698176
1	0	0	0	0	0	2	13315,8546	-0,0400000028	1,55080152	-0,0001110779961682856	-0,039988079104726234	6,20135761E-005	0,044111506803242022	0,051920495991929299
1	0	0	0	0	0	2	13565,8546	-0,0400000028	1,55059171	-0,00011107811977424554	-0,039988123602872346	6,20052524E-005	0,041334550172008102	0,054697452623163226
1	0	0	0	0	0	2	13815,8546	-0,0400000028	1,55047727	-0,0001110781360587312	-0,039988129465287251	6,20006831E-005	0,038557592362140973	0,057474410433030349
1	0	0	0	0	0	2	14065,8546	-0,0400000028	1,55032468	-0,00011107845587676598	-0,039988244599781171	6,19947605E-005	0,035780642902481414	0,060251359892689907
1	0	0	0	0	0	2	14315,8546	-0,0400000028	1,55003858	-0,00011107838337806365	-0,039988218500248006	6,1983279E-005	0,033003688655379891	0,063028314139791411
1	0	0	0	0	0	2	14565,8546	-0,0400000028	1,5497334	-0,00011107789887446498	-0,039988044078950374	6,1970808E-005	0,030226731704745376	0,065805271090425933
1	0	0	0	0	0	2	14815,8546	-0,0400000028	1,5494473	-0,00011107801157794894	-0,039988084652205094	6,19594284E-005	0,027449788502569136	0,068582214292602176
1	0	0	0	0	0	2	15065,8546	-0,0400000028	1,54923749	-0,0001110790827208095	-0,039988470263639571	6,19516359E-005	0,024672831803643376	0,07135917099152791
1	0	0	0	0	0	2	15315,8546	-0,0400000028	1,54885602	-0,00011107855401436488	-0,039988279929317197	6,19360871E-005	0,021895863368181434	0,074136139426989875
1	0	0	0	0	0	2	15565,8546	-0,0400000028	1,54862714	-0,00011107911014908717	-0,039988480137819654	6,19272469E-005	0,019118895122803885	0,076913107672367437
1	0	0	0	0	0	2	15815,8546	-0,0400000028	1,54809308	-0,00011107803999798165	-0,039988094883416992	6,19052953E-005	0,01634193917195967	0,079690063623211622
1	0	0	0	0	0	2	16065,8546	-0,0400000028	1,54753995	-0,00011107836368762786	-0,03998821141169104	6,18833583E-005	0,01356498886956577	0,082467013925605517
1	0	0	0	0	0	2	16315,8545	-0,0400000028	1,54694867	-0,00011107784391029014	-0,039988024291847194	6,18594204E-005	0,010788041179441458	0,085243961615729805
1	0	0	0	0	0	2	16565,8545	-0,0400000028	1,54616666	-0,00011107710623389317	-0,039987758728341075	6,18277409E-005	0,0080111006337448998	0,088020902161426342
1	0	0	0	0	0	2	16815,8545	-0,0400000028	1,54523206	-0,0001110776812316229	-0,039987965727526285	6,17906844E-005	0,0052341592224684506	0,090797843572702771
1	0	0	0	0	0	2	17065,8545	-0,0400000028	1,54389703	-0,0001110783681685312	-0,039988213024816262	6,17376863E-005	0,002457211009524065	0,093574791785647168
1	0	0	0	0	0	2	17315,8545	-0,0400000028	1,54191339	-0,00011107765063498584	-0,039987954712736806	6,16579637E-005	-0,00031973833621570067	0,096351741131386931
1	0	0	0	0	0	2	17565,8545	-0,0400000028	1,53872812	-0,00011107806564246614	-0,039988104115431526	6,15308236E-005	-0,0030966773963269197	0,099128680191498138
1	0	0	0	0	0	2	17815,8545	-0,0400000028	1,53077447	-0,00011107815752675136	-0,039988137193774598	6,12128206E-005	-0,0058736267704817498	0,10190562956565296
1	0	0	0	0	0	2	18065,8545	-0,0400000028	1,49432528	-0,00011107766988770002	-0,039987961643713997	5,97550206E-005	-0,0086505745168190362	0,10468257731199027
1	0	0	0	0	0	2	18313,2583	-0,0400000028	1,30746341	-0,00011107819170111582	-0,039988149496545965	5,22830414E-005	-0,011398676144549693	0,1074306789397209
1	0	0	0	0	0	2	18563,2583	-0,0400000028	1,23616719	-0,00011107904754951597	-0,039988457601973741	4,94324195E-005	-0,014175624112065746	0,11020762690723694
1	1	0	1	0	0	1	18785,6427	0,0400000028	1,24349129	0,00011112879945710301	0,040006368288921926	4,97475703E-005	-0,015518879147626925	0,0005630526052676329
1	1	0	1	0	0	1	19035,6427	0,0400000028	1,39880586	0,00011112821243558493	0,040006156961172858	5,59608452E-005	-0,012740685325734165	0,0033412464271603955
1	1	0	1	0	0	1	19285,6427	0,0400000028	1,55471158	0,0001111291050577743	0,040006478305164928	6,21985382E-005	-0,009962475041684233	0,0061194567112103296
1	1	0	1	0	0	1	19535,6427	0,0400000028	1,57239258	0,00011112818920177718	0,040006148597001965	6,29053684E-005	-0,0071842615252787661	0,0088976702276158016
1	1	0	1	0	0	1	19785,6427	0,0400000028	1,57279313	0,00011112738795081773	0,040005860146653075	6,29209389E-005	-0,0044060698410945824	0,011675861911799984
1	1	0	1	0	0	1	20035,6427	0,0400000028	1,57306015	0,00011112779427982038	0,040006006425095802	6,29318529E-005	-0,0016278818030912614	0,014454049949803306
1	1	0	1	0	0	1	20285,6427	0,0400000028	1,57325089	0,00011112739449842938	0,040005862503793286	6,29392598E-005	0,0011503106997981067	0,017232242452692672
1	1	0	1	0	0	1	20535,6427	0,0400000028	1,57326996	0,00011112701653689146	0,040005726437637997	6,29398055E-005	0,0039285057124784646	0,02001043746537303
1	1	0	1	0	0	1	20785,6427	0,0400000028	1,5737468	0,00011112716853763494	0,04000578115790631	6,29589704E-005	0,0067066917638997466	0,02278862351679432
1	1	0	1	0	0	1	21035,6427	0,0400000028	1,57401383	0,00011112676243939334	0,040005634962537562	6,29694259E-005	0,0094848785449636288	0,025566810297858202
1	1	0	1	0	0	1	21285,6427	0,0400000028	1,57429993	0,00011112701683429379	0,040005726544702842	6,29810093E-005	0,012263055994825582	0,028344987747720163
1	1	0	1	0	0	1	21535,6427	0,0400000028	1,57462418	0,00011112702867368029	0,040005730806882029	6,29939896E-005	0,015041230296729274	0,031123162049623866
1	1	0	1	0	0	1	21785,6427	0,0400000028	1,57487214	0,00011112724466890923	0,040005808565165389	6,30040304E-005	0,01781941157660937	0,033901343329503968
1	1	0	1	0	0	1	22035,6427	0,0400000028	1,57512009	0,00011112765671706035	0,040005956902501581	6,30141876E-005	0,02059758936708952	0,036679521119984115
1	1	0	1	0	0	1	22285,6427	0,0400000028	1,57540619	0,00011112734203702872	0,040005843617688832	6,30254508E-005	0,023375778564450365	0,039457710317344954
1	1	0	1	0	0	1	22535,6427	0,0400000028	1,57573044	0,0001111275742834227	0,040005927226391674	6,30385548E-005	0,026153965394180602	0,042235897147075206
1	1	0	1	0	0	1	22785,6427	0,0400000028	1,57609284	0,00011112765287463037	0,040005955519226778	6,30530994E-005	0,028932158422103693	0,045014090174998304
1	1	0	1	0	0	1	23035,6427	0,0400000028	1,57643616	0,00011112727747609218	0,040005820375751392	6,30666254E-005	0,031710349671820096	0,04779228142471472
1	1	0	1	0	0	1	23285,6427	0,0400000028	1,57660782	0,00011112740827351808	0,040005867462825286	6,30735667E-005	0,034488547014199526	0,050570478767094144
1	1	0	1	0	0	1	23535,6427	0,0400000028	1,57718003	0,00011112784257965784	0,040006023813037491	6,30967043E-005	0,037266738190168224	0,053348669943062842
1	1	0	1	0	0	1	23785,6427	0,0400000028	1,57759964	0,00011112798015214502	0,040006073339133478	6,31135699E-005	0,040044929481543712	0,056126861234438336
1	1	0	1	0	0	1	24035,6427	0,0400000028	1,57786667	0,00011112778238786592	0,040006002143992134	6,31241346E-005	0,042823123493610259	0,058905055246504883
1	1	0	1	0	0	1	24285,6427	0,0400000028	1,57815278	0,00011112682432619235	0,040005657241785472	6,31350413E-005	0,045601301081535821	0,061683232834430451
1	1	0	1	0	0	1	24535,6426	0,0400000028	1,57882035	0,00011112688469348682	0,04000567897401175	6,31617804E-005	0,048379471702485779	0,064461403455380365
1	1	0	1	0	0	1	24785,6426	0,0400000028	1,57918274	0,00011112696367005507	0,040005707405576666	6,31763251E-005	0,051157655500144723	0,067239587253039283
1	1	0	1	0	0	1	25035,6426	0,0400000028	1,57964051	0,00011112776948904826	0,040005997500417722	6,3195097E-005	0,053935829287855302	0,070017761040749837
1	1	0	1	0	0	1	25285,6426	0,0400000028	1,58013642	0,00011112666903270614	0,040005601336129773	6,32143056E-005	0,056714012309548909	0,072795944062443443
1	1	0	1	0	0	1	25535,6426	0,0400000028	1,58082306	0,00011112708277689912	0,04000575028404105	6,32420124E-005	0,059492202064173862	0,075574133817068378
1	1	0	1	0	0	1	25785,6426	0,0400000028	1,58137619	0,00011112801827883555	0,040006087064742227	6,3264677E-005	0,062270392724709747	0,07835232447760425
1	1	0	1	0	0	1	26035,6426	0,0400000028	1,58206284	0,00011112776378293832	0,040005995446218118	6,32919982E-005	0,065048585445754419	0,081130517198648934
1	1	0	1	0	0	1	26285,6426	0,0400000028	1,58284485	0,00011112750967757571	0,040005903968286477	6,33231393E-005	0,06782677499753175	0,083908706750426253
1	1	0	1	0	0	1	26535,6426	0,0400000028	1,5838939	0,00011112671233465275	0,040005616924830733	6,33646559E-005	0,07060494777636311	0,086686879529257613
1	1	0	1	0	0	1	26785,6426	0,0400000028	1,58498108	0,00011112716209598712	0,040005778838913069	6,34084063E-005	0,073383128364189837	0,089465060117084339
1	1	0	1	0	0	1	27035,6426	0,0400000028	1,5864687	0,0001111276138751871	0,040005941479427027	6,3468171E-005	0,076161307633042982	0,092243239385937485
1	1	0	1	0	0	1	27285,6426	0,0400000028	1,58822346	0,0001111272036638111	0,040005793803329882	6,35381366E-005	0,078939490256225523	0,095021422009120051
1	1	0	1	0	0	1	27535,6426	0,0400000028	1,59024525	0,00011112792466187642	0,040006053362636538	6,36194382E-005	0,081717686878738342	0,097799618631632858
1	1	0	1	0	0	1	27785,6426	0,0400000028	1,59274387	0,00011112768493779003	0,040005967061964397	6,3719257E-005	0,084495877233839117	0,10057780898673363
1	1	0	1	0	0	1	28035,6426	0,0400000028	1,59688282	0,0001111285103938232	0,040006264226139936	6,38853162E-005	0,087274073369743974	0,1033560051226385
1	1	0	1	0	0	1	28285,6426	0,0400000028	1,61143577	0,00011112713656367528	0,040005769647280691	6,44667307E-005	0,090052265071343091	0,1061341968242376
1	1	0	1	0	0	1	28529,0136	0,0400000028	1,76495743	8,4730335203930726E-005	0,040005929547460845	7,06087594E-005	0,09275678672254199	0,10883871847543651
1	1	0	1	0	0	1	28665,0362	0,0400000028	2,01548624	4,8676046965436806E-005	0,040005883566671386	8,0631311E-005	0,094268373028692595	0,1103503047815871
1	0	0	0	0	0	2	28728,8166	-0,0400000028	1,94441879	-3,1495038720882605E-005	-0,039988058393389325	7,77535315E-005	0,094342219969666752	0,0003173919262227913
1	0	0	0	0	0	2	28851,1946	-0,0400000028	1,69360387	-9,8927656421851776E-005	-0,039987825046668186	6,77235366E-005	0,092982872751003226	0,0016767391448863264
1	0	0	0	0	0	2	29100,8554	-0,0400000028	1,57645524	-0,00011107765223830938	-0,039987955289933286	6,30392242E-005	0,090209697108554022	0,0044499147873355283
1	0	0	0	0	0	2	29350,8554	-0,0400000028	1,55406308	-0,00011107810174735883	-0,03998811711319305	6,21440558E-005	0,087432736249120358	0,0072268756467691738
1	0	0	0	0	0	2	29600,8554	-0,0400000028	1,55333829	-0,00011107780153325034	-0,039988009036112685	6,21149084E-005	0,084655775716200115	0,010003836179689403
1	0	0	0	0	0	2	29850,8554	-0,0400000028	1,55303311	-0,00011107814849105974	-0,039988133940925574	6,21028958E-005	0,081878817578402099	0,012780794317487424
1	0	0	0	0	0	2	30100,8554	-0,0400000028	1,55278516	-0,00011107845642603933	-0,039988244797519578	6,20931532E-005	0,079101862596803494	0,01555774929908601
1	0	0	0	0	0	2	30350,8554	-0,0400000028	1,5526135	-0,00011107747152427005	-0,039987890232878342	6,2085739E-005	0,076324909646725133	0,018334702249164378
1	0	0	0	0	0	2	30600,8554	-0,0400000028	1,55251813	-0,00011107817576266826	-0,039988143758704762	6,20823193E-005	0,073547962444770957	0,021111649451118582
1	0	0	0	0	0	2	30850,8554	-0,0400000028	1,55230832	-0,00011107761154261728	-0,039987940639483962	6,207361E-005	0,070771017914822656	0,023888593981066928
1	0	0	0	0	0	2	31100,8554	-0,0400000028	1,55213666	-0,00011107764981024795	-0,039987954415831162	6,20667706E-005	0,067994075893728806	0,026665536002160781
1	0	0	0	0	0	2	31350,8554	-0,0400000028	1,55204129	-0,00011107743425605198	-0,039987876816319667	6,20628343E-005	0,065217141577134656	0,029442470318754944
1	0	0	0	0	0	2	31600,8554	-0,0400000028	1,55185056	-0,00011107706986595358	-0,039987745635882662	6,20550054E-005	0,062440206790106304	0,032219405105783315
1	0	0	0	0	0	2	31850,8554	-0,0400000028	1,55173612	-0,00011107726580421957	-0,03998781617365927	6,2050538E-005	0,059663273396063526	0,034996338499826093
1	0	0	0	0	0	2	32100,8554	-0,0400000028	1,55158353	-0,00011107804381847382	-0,039988096258794189	6,204487E-005	0,056886336043184122	0,037773275852705498
1	0	0	0	0	0	2	32350,8554	-0,0400000028	1,55145001	-0,00011107765768882301	-0,039987957252118221	6,20393184E-005	0,054109394110795014	0,040550217785094598
1	0	0	0	0	0	2	32600,8554	-0,0400000028	1,55125928	-0,00011107715467798213	-0,039987776168213306	6,20314095E-005	0,051332454392684307	0,043327157503205312
1	0	0	0	0	0	2	32850,8553	-0,0400000028	1,55108762	-0,00011107712494664722	-0,039987764906309978	6,20245264E-005	0,048555532870115616	0,046104079025774003
1	0	0	0	0	0	2	33100,8554	-0,0400000028	1,55093503	-0,0001110775590400315	-0,039987921179928032	6,20186693E-005	0,045778603958862637	0,048881007937026982
1	0	0	0	0	0	2	33350,8554	-0,0400000028	1,55078244	-0,00011107778561570578	-0,039988002747170624	6,20126957E-005	0,043001663169838803	0,05165794872605081
1	0	0	0	0	0	2	33600,8554	-0,0400000028	1,55064893	-0,00011107717204445765	-0,039987781861521709	6,20070132E-005	0,04022473296785593	0,05443487892803369
1	0	0	0	0	0	2	33850,8554	-0,0400000028	1,55040097	-0,00011107684818158547	-0,039987665270887942	6,19969142E-005	0,037447804599836986	0,057211807296052627
1	0	0	0	0	0	2	34100,8554	-0,0400000028	1,55005765	-0,00011107720127618976	-0,039987792384945242	6,19833809E-005	0,0346708791244	0,059988732771489613
1	0	0	0	0	0	2	34350,8554	-0,0400000028	1,54992414	-0,00011107728299519254	-0,039987821803786189	6,19780913E-005	0,031893941119260358	0,062765670776629261
1	0	0	0	0	0	2	34600,8554	-0,0400000028	1,54979062	-0,0001110778089861075	-0,039988011160515232	6,19730417E-005	0,029117009677334272	0,065542602218555354
1	0	0	0	0	0	2	34850,8554	-0,0400000028	1,54952359	-0,00011107690533416139	-0,039987685845815232	6,19618659E-005	0,026340071309169229	0,068319540586720384
1	0	0	0	0	0	2	35100,8554	-0,0400000028	1,54912305	-0,0001110777041270501	-0,03998797341125463	6,1946288E-005	0,023563127801417158	0,071096484094472435
1	0	0	0	0	0	2	35350,8554	-0,0400000028	1,54881787	-0,00011107735478526187	-0,039987847648211104	6,19338898E-005	0,020786189015618304	0,073873422880271245
1	0	0	0	0	0	2	35600,8554	-0,0400000028	1,54855084	-0,00011107758349366486	-0,039987929983236026	6,19233397E-005	0,018009259218151875	0,076650352677737702
1	0	0	0	0	0	2	35850,8554	-0,0400000028	1,54790235	-0,00011107720643385418	-0,039987794241704435	6,18971972E-005	0,015232331440241062	0,079427280455648499
1	0	0	0	0	0	2	36100,8554	-0,0400000028	1,54755902	-0,00011107757769649227	-0,039987927896253894	6,18836784E-005	0,012455398314038797	0,082204213581850778
1	0	0	0	0	0	2	36350,8554	-0,0400000028	1,54679608	-0,00011107843156221014	-0,039988235287911757	6,18536433E-005	0,009678463030635159	0,084981148865254387
1	0	0	0	0	0	2	36600,8554	-0,0400000028	1,54618573	-0,00011107778326359888	-0,039988001900412141	6,18288759E-005	0,0069015211663458163	0,087758090729543731
1	0	0	0	0	0	2	36850,8554	-0,0400000028	1,54502225	-0,00011107734418329264	-0,039987843831502189	6,17821061E-005	0,0041245784760749677	0,090535033419814592
1	0	0	0	0	0	2	37100,8554	-0,0400000028	1,54355371	-0,00011107748696725402	-0,039987895233728186	6,17234618E-005	0,0013476373039615322	0,093311974591928038
1	0	0	0	0	0	2	37350,8554	-0,0400000028	1,5414747	-0,00011107673272490501	-0,039987623706483053	6,1639912E-005	-0,0014292971223949885	0,096088909018284544
1	0	0	0	0	0	2	37600,8554	-0,0400000028	1,53771722	-0,00011107686304507984	-0,039987670621745901	6,1489729E-005	-0,0042062270505433619	0,098865838946432883
1	0	0	0	0	0	2	37850,8554	-0,0400000028	1,52968729	-0,00011107751643305853	-0,039987905841417786	6,11689902E-005	-0,0069831604065836237	0,10164277230247317
1	0	0	0	0	0	2	38100,8554	-0,0400000028	1,49552691	-0,00011107772635109723	-0,039987981411911578	5,98031038E-005	-0,0097601086991413939	0,10441972059503093
1	0	0	0	0	0	2	38347,6914	-0,0400000028	1,30866504	-0,0001110773315893279	-0,039987839297674893	5,2330688E-005	-0,012501908760251387	0,1071615206561409
1	0	0	0	0	0	2	38597,6914	-0,0400000028	1,23197103	-0,00011107773461772336	-0,039987984387896986	4,92640393E-005	-0,015278841910202589	0,1099384538060921
1	1	0	1	0	0	1	38821,4776	0,0400000028	1,25817776	0,00011112803540565074	0,040006092671517114	5,03347765E-005	-0,015993550988196742	0,00088517194331859456
1	1	0	1	0	0	1	39071,4776	0,0400000028	1,42413521	0,00011112830273682872	0,040006188910741011	5,69742224E-005	-0,013215355615043635	0,0036633673164717011
1	1	0	1	0	0	1	39321,4776	0,0400000028	1,56258893	0,00011112842581897146	0,040006233220312307	6,25132961E-005	-0,01043715538684365	0,0064415675446716826
1	1	0	1	0	0	1	39571,4776	0,0400000028	1,57307923	0,00011112743790758154	0,040005877572212589	6,29324131E-005	-0,0076589613730665664	0,0092197615584487642
1	1	0	1	0	0	1	39821,4776	0,0400000028	1,57332718	0,00011112717333270443	0,040005782325257018	6,29421847E-005	-0,0048807747995338451	0,011997948131981488
1	1	0	1	0	0	1	40071,4776	0,0400000028	1,57351792	0,00011112748766442141	0,040005895484674918	6,29499918E-005	-0,0021025967450618259	0,014776126186453507
1	1	0	1	0	0	1	40321,4776	0,0400000028	1,57368958	0,00011112725799489354	0,040005812803645037	6,29567294E-005	0,00067558943553265446	0,017554312367047984
1	1	0	1	0	0	1	40571,4776	0,0400000028	1,57397568	0,00011112746442854405	0,040005887119759091	6,29682909E-005	0,0034537844325750726	0,0203325073640904
1	1	0	1	0	0	1	40821,4776	0,0400000028	1,57433808	0,00011112764850507181	0,040005953387308954	6,29828937E-005	0,0062319747349888602	0,02311069766650417
1	1	0	1	0	0	1	41071,4776	0,0400000028	1,57464325	0,00011112705195984906	0,040005738631029165	6,29947681E-005	0,0090101546288343462	0,025888877560349661
1	1	0	1	0	0	1	41321,4776	0,0400000028	1,57481492	0,00011112798306532205	0,040006073828998816	6,30021605E-005	0,01178835173801909	0,028667074669534413
1	1	0	1	0	0	1	41571,4776	0,0400000028	1,57523453	0,0001111282070072161	0,040006154448080518	6,30190771E-005	0,014566550538250726	0,031445273469766061
1	1	0	1	0	0	1	41821,4776	0,0400000028	1,57542527	0,00011112748127720421	0,04000589318527673	6,30262948E-005	0,017344737524073341	0,034223460455588659
1	1	0	1	0	0	1	42071,4776	0,0400000028	1,57574952	0,00011112748546919061	0,040005894694391827	6,30392678E-005	0,020122932791676966	0,037001655723192269
1	1	0	1	0	0	1	42321,4776	0,0400000028	1,57599747	0,00011112799256667496	0,040006077249485856	6,3049476E-005	0,022901124941351485	0,03977984787286681
1	1	0	1	0	0	1	42571,4776	0,0400000028	1,57634079	0,00011112739759269688	0,04000586305885415	6,3062871E-005	0,025679315578835888	0,042558038510351213
1	1	0	1	0	0	1	42821,4776	0,0400000028	1,57664597	0,00011112743656461438	0,040005877088744422	6,30751019E-005	0,028457505921016528	0,045336228852531834
1	1	0	1	0	0	1	43071,4776	0,0400000028	1,57710373	0,00011112806882046992	0,040006104700851987	6,30937793E-005	0,03123569553948937	0,048114418471004666
1	1	0	1	0	0	1	43321,4776	0,0400000028	1,5774852	0,00011112740158600112	0,040005864496443674	6,31086587E-005	0,034013885852207738	0,050892608783723027
1	1	0	1	0	0	1	43571,4776	0,0400000028	1,5778476	0,00011112701685954299	0,040005725994919008	6,31229414E-005	0,03679206660482432	0,053670789536339616
1	1	0	1	0	0	1	43821,4776	0,0400000028	1,57824814	0,00011112663773840501	0,040005589511309587	6,31387447E-005	0,039570243261100307	0,056448966192615603
1	1	0	1	0	0	1	44071,4776	0,0400000028	1,57855332	0,00011112713336365091	0,040005767936397779	6,31512376E-005	0,042348420952579622	0,059227143884094912
1	1	0	1	0	0	1	44321,4776	0,0400000028	1,57904923	0,0001111281181068884	0,040006122443962618	6,31716393E-005	0,045126605470108896	0,062005328401624192
1	1	0	1	0	0	1	44571,4776	0,0400000028	1,57958329	0,0001111279334548033	0,040006055969212102	6,31928997E-005	0,047904792562924954	0,06478351549444023
1	1	0	1	0	0	1	44821,4776	0,0400000028	1,58011734	0,00011112787342961464	0,040006034360144224	6,32142255E-005	0,05068298638618553	0,0675617093177008
1	1	0	1	0	0	1	45071,4776	0,0400000028	1,5806514	0,00011112814301728374	0,040006131411704922	6,32357478E-005	0,053461182992167782	0,070339905923683085
1	1	0	1	0	0	1	45321,4776	0,0400000028	1,58126175	0,00011112749106126526	0,040005896707538707	6,32597948E-005	0,056239380803566227	0,073118103735081536
1	1	0	1	0	0	1	45571,4776	0,0400000028	1,58206284	0,00011112860366350246	0,040006297244343354	6,32924784E-005	0,059017576273863309	0,075896299205378637
1	1	0	1	0	0	1	45821,4776	0,0400000028	1,58295929	0,0001111273960603608	0,040005862507213165	6,33276504E-005	0,06179576096477856	0,078674483896293875
1	1	0	1	0	0	1	46071,4776	0,0400000028	1,58376038	0,0001111276523741997	0,040005954780194989	6,33598465E-005	0,064573947807324851	0,081452670738840166
1	1	0	1	0	0	1	46321,4776	0,0400000028	1,58471406	0,00011112743271721733	0,040005875703681491	6,33978707E-005	0,067352138663675853	0,084230861595191168
1	1	0	1	0	0	1	46571,4776	0,0400000028	1,58597279	0,0001111265199465884	0,040005547106255686	6,3447711E-005	0,070130324548451866	0,087009047479967168
1	1	0	1	0	0	1	46821,4776	0,0400000028	1,58717442	0,00011112814081584414	0,040006130619186662	6,34967073E-005	0,07290849801881367	0,089787220950328986
1	1	0	1	0	0	1	47071,4776	0,0400000028	1,58856678	0,00011112754073842531	0,040005914591316288	6,35520701E-005	0,075686689734666355	0,09256541266618167
1	1	0	1	0	0	1	47321,4776	0,0400000028	1,59013081	0,00011112723294542066	0,040005803785834829	6,36144614E-005	0,078464874681116262	0,095343597612631578
1	1	0	1	0	0	1	47571,4776	0,0400000028	1,59220982	0,00011112773546390235	0,040005984692487898	6,36979239E-005	0,081243065360149043	0,098121788291664346
1	1	0	1	0	0	1	47821,4776	0,0400000028	1,59491825	0,000111127823167584	0,040006016265813229	6,38063284E-005	0,084021257371605171	0,10089998030312048
1	1	0	1	0	0	1	48071,4776	0,0400000028	1,59980106	0,00011112720416155126	0,040005793423641856	6,40013095E-005	0,086799449922178906	0,10367817285369421
1	1	0	1	0	0	1	48321,4776	0,0400000028	1,62471092	0,00011112741601011819	0,040005869689125811	6,49979702E-005	0,089577639302453594	0,1064563622339689
1	1	0	1	0	0	1	48556,3546	0,0400000028	1,80127311	7,418365941072503E-005	0,040005568545439725	7,20609532E-005	0,092187761917943488	0,1090664848494588
1	1	0	1	0	0	1	48677,7400	0,0400000028	2,05185914	4,2450506374032966E-005	0,040005712738171898	8,20860878E-005	0,093536680214555482	0,11041540314607078
1	0	0	0	0	0	2	48734,9786	-0,0400000028	1,90386879	-3,552042768357529E-005	-0,039987972801563757	7,61318515E-005	0,093294970776257574	0,00043879384336931008
1	0	0	0	0	0	2	48884,5916	-0,0400000028	1,65831816	-0,00011107770621114307	-0,039987974161528096	6,63127867E-005	0,091633105918711629	0,0021006587009152605
1	0	0	0	0	0	2	49134,5916	-0,0400000028	1,57023728	-0,00011107764920468133	-0,039987953639201907	6,27905756E-005	0,08885616553351031	0,004877599086116585
1	0	0	0	0	0	2	49384,5916	-0,0400000028	1,5538342	-0,00011107828429196445	-0,039988182270623405	6,21350046E-005	0,086079208728014349	0,0076545558916125466
1	0	0	0	0	0	2	49634,5916	-0,0400000028	1,55324292	-0,00011107743741509814	-0,039987877394952109	6,21108848E-005	0,083302252773162957	0,01043151184646392
1	0	0	0	0	0	2	49884,5916	-0,0400000028	1,55288053	-0,00011107801503957144	-0,039988085339762106	6,20967185E-005	0,080525301274182822	0,013208463345444032
1	0	0	0	0	0	2	50134,5916	-0,0400000028	1,55268979	-0,00011107854070493744	-0,03998827457929351	6,20893843E-005	0,077748346191460186	0,015985418428166653
1	0	0	0	0	0	2	50384,5916	-0,0400000028	1,55242276	-0,00011107711005314357	-0,039987759544648678	6,20779101E-005	0,074971405256560205	0,01876235936306664
1	0	0	0	0	0	2	50634,5916	-0,0400000028	1,55223203	-0,00011107780260323651	-0,039988008862681677	6,20706705E-005	0,072194475233986688	0,02153928938564015
1	0	0	0	0	0	2	50884,5916	-0,0400000028	1,55207944	-0,0001110779490603341	-0,03998806158723671	6,2064646E-005	0,069417532639711795	0,024316231979915027
1	0	0	0	0	0	2	51134,5916	-0,0400000028	1,55200315	-0,00011107803185615274	-0,039988091393731366	6,20616411E-005	0,066640583994422016	0,027093180625204806
1	0	0	0	0	0	2	51384,5916	-0,0400000028	1,55186963	-0,00011107785884435806	-0,039988029109485395	6,20562059E-005	0,063863632033721357	0,029870132585905478
1	0	0	0	0	0	2	51634,5916	-0,0400000028	1,55173612	-0,0001110785254055841	-0,03998826907152633	6,20512437E-005	0,061086678313828928	0,032647086305797901
1	0	0	0	0	0	2	51884,5916	-0,0400000028	1,55158353	-0,00011107738054854176	-0,039987856922991846	6,20444989E-005	0,058309737281431693	0,035424027338195142
1	0	0	0	0	0	2	52134,5916	-0,0400000028	1,55150723	-0,00011107783416782816	-0,039988020225934643	6,2041705E-005	0,055532796078978458	0,038200968540648378
1	0	0	0	0	0	2	52384,5916	-0,0400000028	1,55137372	-0,00011107774097182685	-0,039987986675374234	6,20363135E-005	0,052755847987856448	0,040977916631770381
1	0	0	0	0	0	2	52634,5916	-0,0400000028	1,55122113	-0,00011107736159053942	-0,039987850098111021	6,20299979E-005	0,049978907085984256	0,043754857533642573
1	0	0	0	0	0	2	52884,5916	-0,0400000028	1,55104947	-0,00011107815875175099	-0,039988137076146643	6,20235805E-005	0,047201968320504608	0,046531796299122227
1	0	0	0	0	0	2	53134,5916	-0,0400000028	1,55082059	-0,00011107811674392885	-0,039988121953330707	6,20144056E-005	0,044425029265340768	0,049308735354286067
1	0	0	0	0	0	2	53384,5916	-0,0400000028	1,55080152	-0,00011107747301873234	-0,039987890212260397	6,20132778E-005	0,041648094626654093	0,052085669992972742
1	0	0	0	0	0	2	53634,5916	-0,0400000028	1,55049634	-0,00011107786574338872	-0,039988031593136429	6,20012943E-005	0,038871152888727027	0,054862611730899802
1	0	0	0	0	0	2	53884,5916	-0,0400000028	1,5503056	-0,0001110775219504204	-0,03998790782766807	6,19934799E-005	0,036094210154131642	0,057639554465495194
1	0	0	0	0	0	2	54134,5916	-0,0400000028	1,55019116	-0,00011107870838936003	-0,039988334945685536	6,19895654E-005	0,033317260200032109	0,060416504419594726
1	0	0	0	0	0	2	54384,5916	-0,0400000028	1,55000043	-0,0001110789514620685	-0,039988422451860422	6,19820712E-005	0,030540296788155386	0,063193467831471437
1	0	0	0	0	0	2	54634,5916	-0,0400000028	1,54979062	-0,00011107815763664742	-0,039988136674709357	6,19732382E-005	0,02776333436682073	0,065970430252806118
1	0	0	0	0	0	2	54884,5916	-0,0400000028	1,54948545	-0,0001110785574598445	-0,039988280611060038	6,1961262E-005	0,024986384297844624	0,068747380321782234
1	0	0	0	0	0	2	55134,5916	-0,0400000028	1,54891324	-0,0001110783823447095	-0,039988217569611558	6,19382772E-005	0,022209426370848163	0,071524338248778688
1	0	0	0	0	0	2	55384,5916	-0,0400000028	1,54881787	-0,00011107827001375456	-0,039988177130467859	6,19344064E-005	0,019432481823256224	0,074301282796370598
1	0	0	0	0	0	2	55634,5916	-0,0400000028	1,54837918	-0,00011107781292891336	-0,039988012579925331	6,19166094E-005	0,01665553319874032	0,077078231420886502
1	0	0	0	0	0	2	55884,5916	-0,0400000028	1,54794049	-0,00011107769836713042	-0,039987971337683552	6,18990016E-005	0,013878584724863147	0,079855179894763686
1	0	0	0	0	0	2	56134,5916	-0,0400000028	1,54740644	-0,00011107773743900989	-0,039987985403560134	6,18776685E-005	0,01110163254016947	0,082632132079457382
1	0	0	0	0	0	2	56384,5916	-0,0400000028	1,54681516	-0,00011107780171848006	-0,039988008544169344	6,1854058E-005	0,0083246858823119232	0,085409078737314957
1	0	0	0	0	0	2	56634,5916	-0,0400000028	1,54588056	-0,00011107771195036669	-0,039987976227648602	6,18166378E-005	0,0055477448316684038	0,088186019787958464
1	0	0	0	0	0	2	56884,5916	-0,0400000028	1,54465985	-0,00011107744065547984	-0,03998787856148951	6,17676706E-005	0,0027708106579908736	0,090962953961635994
1	0	0	0	0	0	2	57134,5916	-0,0400000028	1,54300058	-0,00011107717649576566	-0,039987783463992589	6,17011756E-005	-6,1083747096934797E-006	0,093739872994336538
1	0	0	0	0	0	2	57384,5916	-0,0400000028	1,54019678	-0,00011107691336381766	-0,039987688736491488	6,15889076E-005	-0,0027830367151641766	0,096516801334791027
1	0	0	0	0	0	2	57634,5916	-0,0400000028	1,53565729	-0,00011107700367851389	-0,039987721249782067	6,14074379E-005	-0,0055599625099758906	0,099293727129602726
1	0	0	0	0	0	2	57884,5916	-0,0400000028	1,52573907	-0,00011107733687717053	-0,03998784120129824	6,1011011E-005	-0,0083368874634688691	0,10207065208309566
1	0	0	0	0	0	2	58134,5916	-0,0400000028	1,47567153	-0,00011107733182133072	-0,039987839381195904	5,90089148E-005	-0,011113811619723437	0,10484757623935024
1	0	0	0	0	0	2	58381,3522	-0,0400000028	1,28720748	-0,00011107710510450931	-0,039987757763140358	5,14725398E-005	-0,013854747376340349	0,10758851199596714
1	0	0	0	0	0	2	58631,3522	-0,0400000028	1,21921086	-0,00011107747904335459	-0,039987892381124397	4,87536745E-005	-0,016631670908098429	0,1103654355277252
1	1	0	1	0	0	1	58856,8700	0,0400000028	1,28758895	0,00011112838043438064	0,040006216881859648	5,15115644E-005	-0,016037739985812742	0,0015492603786092285
1	1	0	1	0	0	1	59106,8700	0,0400000028	1,47305846	0,00011112811716977094	0,040006122106600333	5,89313568E-005	-0,013259535236206608	0,0043274651282153626
1	1	0	1	0	0	1	59356,8700	0,0400000028	1,57059968	0,00011112890622040464	0,04000640616482793	6,28340495E-005	-0,010481328271667448	0,007105672092754519
1	1	0	1	0	0	1	59606,8700	0,0400000028	1,57357514	0,0001111284175976697	0,040006230260643686	6,29528076E-005	-0,0077031233223569843	0,009883877042064983
1	1	0	1	0	0	1	59856,8700	0,0400000028	1,57382309	0,00011112765287359555	0,040005954959977504	6,29622955E-005	-0,004924918023151529	0,012662082341270443
1	1	0	1	0	0	1	60106,8700	0,0400000028	1,57409012	0,0001111272567241556	0,040005812346179386	6,2972751E-005	-0,0021467240806814637	0,015440276283740506
1	1	0	1	0	0	1	60356,8700	0,0400000028	1,57418549	0,00011112828747327957	0,040006183415863315	6,2977153E-005	0,0006314622565047671	0,018218462620926736
1	1	0	1	0	0	1	60606,8700	0,0400000028	1,57456696	0,00011112919901249309	0,040006511569979578	6,29929345E-005	0,0034096692821595885	0,020996669646581558
1	1	0	1	0	0	1	60856,8700	0,0400000028	1,57473862	0,00011112756015422445	0,040005921581003962	6,29988717E-005	0,0061878639288003738	0,023774864293222349
1	1	0	1	0	0	1	61106,8700	0,0400000028	1,57506287	0,00011112833802277845	0,04000620161368288	6,30122813E-005	0,0089660532484277325	0,026553053612849706
1	1	0	1	0	0	1	61356,8700	0,0400000028	1,57538712	0,00011112857705209819	0,04000628766423783	6,30253926E-005	0,01174426999578721	0,029331270360209178
1	1	0	1	0	0	1	61606,8700	0,0400000028	1,57584488	0,00011112803064348797	0,040006090957138522	6,30433933E-005	0,014522480575432301	0,032109480939854285
1	1	0	1	0	0	1	61856,8700	0,0400000028	1,57609284	0,0001111277786830647	0,040006000251386317	6,30531722E-005	0,017300684902441712	0,034887685266863712
1	1	0	1	0	0	1	62106,8700	0,0400000028	1,57628357	0,00011112739028222858	0,040005860427085574	6,30605791E-005	0,020078875101016752	0,037665875465438746
1	1	0	1	0	0	1	62356,8700	0,0400000028	1,57679856	0,00011112721543841891	0,040005797483314202	6,30810828E-005	0,022857059461403565	0,040444059825825555
1	1	0	1	0	0	1	62606,8700	0,0400000028	1,57710373	0,0001111274752633439	0,040005891020287034	6,30934373E-005	0,025635244911057597	0,043222245275479578
1	1	0	1	0	0	1	62856,8700	0,0400000028	1,57735169	0,00011112768413167861	0,040005966212887379	6,31034782E-005	0,028413431157494512	0,046000431521916474
1	1	0	1	0	0	1	63106,8700	0,0400000028	1,57773316	0,00011112794201965962	0,040006059052560371	6,31188886E-005	0,031191616056277242	0,0487786164206992
1	1	0	1	0	0	1	63356,8700	0,0400000028	1,57824814	0,00011112721841140754	0,040005798553590106	6,31390794E-005	0,033969797260288294	0,051556797624710253
1	1	0	1	0	0	1	63606,8700	0,0400000028	1,57862961	0,00011112687218209936	0,040005673911039398	6,31541407E-005	0,03674798679248528	0,054334987156907238
1	1	0	1	0	0	1	63856,8700	0,0400000028	1,57908738	0,0001111277710451848	0,040005997501749555	6,31729636E-005	0,03952616768289785	0,057113168047319808
1	1	0	1	0	0	1	64106,8700	0,0400000028	1,57946885	0,00011112698424980045	0,040005714255411712	6,31877774E-005	0,042304353124204326	0,059891353488626278
1	1	0	1	0	0	1	64356,8700	0,0400000028	1,58002198	0,00011112790428950555	0,040006045469704934	6,32104275E-005	0,045082536767406106	0,062669537131828058
1	1	0	1	0	0	1	64606,8700	0,0400000028	1,58057511	0,00011112827773992387	0,040006179911855277	6,32327719E-005	0,047860717858167277	0,065447718222589274
1	1	0	1	0	0	1	64856,8700	0,0400000028	1,58118546	0,00011112812653556466	0,040006125478286061	6,32571027E-005	0,050638919200843712	0,068225919565265741
1	1	0	1	0	0	1	65106,8700	0,0400000028	1,58179581	0,00011112718569984038	0,040005786777425952	6,32809824E-005	0,053417110111608582	0,071004110476030656
1	1	0	1	0	0	1	65356,8700	0,0400000028	1,58246338	0,0001111276499086784	0,040005953892607334	6,33079544E-005	0,056195302029498029	0,07378230239392009
1	1	0	1	0	0	1	65606,8714	0,0400000028	1,5832454	0,0001111306794271287	0,040006254007348154	6,3339714E-005	0,058973518046577664	0,076560518410999718
1	1	0	1	0	0	1	65856,8763	0,0400000028	1,58412278	0,00011113018676348859	0,040006076502445504	6,33745367E-005	0,061751772995754125	0,079338773360176192
1	1	0	1	0	0	1	66106,8813	0,0400000028	1,58494294	0,00011113076024605995	0,040006282952090662	6,34076787E-005	0,064530028919467379	0,082117029283889446
1	1	0	1	0	0	1	66356,8862	0,0400000028	1,58601093	0,00011112985995618834	0,04000595900363936	6,34498865E-005	0,067308275845056064	0,084895276209478131
1	1	0	1	0	0	1	66606,8912	0,0400000028	1,58705997	0,00011112965300223893	0,040005884493889024	6,34917378E-005	0,070086517462403482	0,087673517826825549
1	1	0	1	0	0	1	66856,8961	0,0400000028	1,58828068	0,00011113051571055419	0,040006194921514272	6,35410688E-005	0,072864763201841075	0,090451763566263142
1	1	0	1	0	0	1	67106,9010	0,0400000028	1,58971119	0,00011112968363799155	0,040005895416706995	6,35978213E-005	0,075643007939345114	0,093230008303767181
1	1	0	1	0	0	1	67356,9060	0,0400000028	1,59146595	0,00011113063818112842	0,04000623915861575	6,36685654E-005	0,078421247588257818	0,096008247952679885
1	1	0	1	0	0	1	67606,9109	0,0400000028	1,59367847	0,00011113006617915299	0,040006033175375546	6,37567573E-005	0,081199500936950835	0,098786501301372902
1	1	0	1	0	0	1	67856,9159	0,0400000028	1,59674931	0,00011112992778792976	0,040005983273087034	6,38795245E-005	0,083977753135451814	0,10156475349987389
1	1	0	1	0	0	1	68106,9208	0,0400000028	1,60321522	0,00011113025311173664	0,040006100480487334	6,41383886E-005	0,086756005527005018	0,10434300589142709
1	1	0	1	0	0	1	68356,9257	0,0400000028	1,65301573	0,00011113033751377629	0,040006130920973664	6,6130764E-005	0,089534272507072768	0,10712127287149483
1	1	0	1	0	0	1	68566,8797	0,0400000028	1,8667711	5,988084956382711E-005	0,040006515814905696	7,46830046E-005	0,091867447555080704	0,10945444791950277
1	0	0	0	1	0	2	68662,4267	-0,0400000028	2,09410501	-2,1984510951571994E-009	-0,013190708503752456	2,76227292E-005	0,092929232580184947	2,1984510951571994E-009
1	0	0	0	0	0	2	68722,0335	-0,0400000028	1,8434062	-4,2940323180829485E-005	-0,039987893911172205	7,37139344E-005	0,092267135435134579	0,00066209934350144538
1	0	0	0	0	0	2	68911,5386	-0,0400000028	1,62448204	-0,0001110798375548588	-0,039987951145592032	6,49597059E-005	0,090162157492235507	0,0027670772864005222
1	0	0	0	0	0	2	69161,5436	-0,0400000028	1,56230283	-0,00011107975261244509	-0,039987920695874176	6,2473242E-005	0,087385159054474701	0,005544075724161335
1	0	0	0	0	0	2	69411,5485	-0,0400000028	1,5534718	-0,00011107970329643123	-0,039987902962477011	6,21200816E-005	0,08460816223246377	0,0083210725461722688
1	0	0	0	0	0	2	69661,5534	-0,0400000028	1,55293775	-0,00011107891678685944	-0,039987619675663866	6,20982828E-005	0,081831172765024422	0,011098062013611613
1	0	0	0	0	0	2	69911,5584	-0,0400000028	1,55259442	-0,00011107938669787514	-0,039987788840751443	6,2084815E-005	0,079054194376723046	0,013875040401913021
1	0	0	0	0	0	2	70161,5633	-0,0400000028	1,55246091	-0,00011107932675816118	-0,039987767411378502	6,20794453E-005	0,076277213777705856	0,016652021000930221
1	0	0	0	0	0	2	70411,5683	-0,0400000028	1,55227017	-0,00011107986275168757	-0,039987960356390195	6,20721185E-005	0,073500229685594074	0,019429005093042026
1	0	0	0	0	0	2	70661,5732	-0,0400000028	1,55211759	-0,00011107960846130218	-0,039987868674007251	6,20658757E-005	0,070723232119503565	0,022206002659132509
1	0	0	0	0	0	2	70911,5781	-0,0400000028	1,55190778	-0,00011107995809117954	-0,039987994575109018	6,2057683E-005	0,067946229382373222	0,024983005396262864
1	0	0	0	0	0	2	71161,5831	-0,0400000028	1,55177426	-0,00011108061832375824	-0,03998823236627072	6,20527062E-005	0,065169225413037082	0,027760009365599002
1	0	0	0	0	0	2	71411,5880	-0,0400000028	1,55177426	-0,00011107941040955485	-0,039987797454527597	6,20520368E-005	0,062392236399475507	0,030536998379160557
1	0	0	0	0	0	2	71661,5930	-0,0400000028	1,5516026	-0,00011107915824258493	-0,039987706598006995	6,20450301E-005	0,059615252572796429	0,033313982205839642
1	0	0	0	0	0	2	71911,5979	-0,0400000028	1,55125928	-0,00011107891431988941	-0,039987618883001344	6,20311621E-005	0,056838265422652576	0,036090969355983494
1	0	0	0	0	0	2	72161,6028	-0,0400000028	1,55125928	-0,00011107932831202115	-0,039987767970757037	6,20313949E-005	0,054061287531362643	0,038867947247273434
1	0	0	0	0	0	2	72411,6078	-0,0400000028	1,55108762	-0,00011107924879528581	-0,039987739216817421	6,202449E-005	0,051284309801358323	0,041644924977277754
1	0	0	0	0	0	2	72661,6127	-0,0400000028	1,5510304	-0,00011107995820045472	-0,039987994577613645	6,20225983E-005	0,048507324919530714	0,044421909859105357
1	0	0	0	0	0	2	72911,6177	-0,0400000028	1,55085874	-0,00011107939064668285	-0,039987790410791789	6,20154169E-005	0,045730340307792416	0,047198894470843654
1	0	0	0	0	0	2	73161,6226	-0,0400000028	1,55082059	-0,00011107950742998058	-0,039987832452413683	6,20139544E-005	0,04295334772904711	0,04997588704958896
1	0	0	0	0	0	2	73411,6275	-0,0400000028	1,55049634	-0,00011107981776280534	-0,03998794402105913	6,20011633E-005	0,040176359557893094	0,052752875220742976
1	0	0	0	0	0	2	73661,6325	-0,0400000028	1,5503819	-0,00011108017819974986	-0,039988073779053107	6,19967832E-005	0,037399358287413274	0,055529876491222797
1	0	0	0	0	0	2	73911,6374	-0,0400000028	1,55021024	-0,00011107973652519286	-0,03998791492506032	6,19896746E-005	0,034622362528678221	0,05830687224995785
1	0	0	0	0	0	2	74161,6424	-0,0400000028	1,55005765	-0,00011108003327540226	-0,039988021715318086	6,19837374E-005	0,031845368108046138	0,061083866670589926
1	0	0	0	0	0	2	74411,6473	-0,0400000028	1,54982877	-0,00011107937544191048	-0,039987784788218746	6,19742204E-005	0,029068378792995392	0,063860855985640678
1	0	0	0	0	0	2	74661,6523	-0,0400000028	1,54952359	-0,00011107922086285219	-0,039987729206494451	6,19619314E-005	0,026291398897814064	0,06663783588082199
1	0	0	0	0	0	2	74911,6572	-0,0400000028	1,54921842	-0,00011107993496644	-0,039987986362032058	6,19501225E-005	0,02351441384521584	0,069414820933420224
1	0	0	0	0	0	2	75161,6621	-0,0400000028	1,54902768	-0,00011107982444059517	-0,039987946474825715	6,19424391E-005	0,020737424852198416	0,072191809926437645
1	0	0	0	0	0	2	75411,6671	-0,0400000028	1,54872251	-0,00011107891663826173	-0,039987619622635264	6,1929728E-005	0,017960441901609939	0,074968792877026125
1	0	0	0	0	0	2	75661,6720	-0,0400000028	1,54820752	-0,00011108005670002766	-0,039988030161109126	6,190977E-005	0,015183456489808048	0,077745778288828006
1	0	0	0	0	0	2	75911,6770	-0,0400000028	1,5478642	-0,0001110800568867061	-0,039988030252926022	6,18960403E-005	0,012406462413110064	0,080522772365526003
1	0	0	0	0	0	2	76161,6819	-0,0400000028	1,54727292	-0,00011107984553650021	-0,039987954019391667	6,1872277E-005	0,0096294655812918938	0,083299769197344179
1	0	0	0	0	0	2	76411,6868	-0,0400000028	1,54652905	-0,00011107942976430058	-0,039987804343892659	6,18423001E-005	0,0068524744480767795	0,086076760330559322
1	0	0	0	0	0	2	76661,6918	-0,0400000028	1,54555631	-0,00011108007016074326	-0,039988035031484979	6,18037593E-005	0,0040754827361150534	0,088853752042521037
1	0	0	0	0	0	2	76911,6967	-0,0400000028	1,54408777	-0,00011107862309614818	-0,039987514092473606	6,17442347E-005	0,0012984893305154923	0,091630745448120576
1	0	0	0	0	0	2	77161,7017	-0,0400000028	1,54193246	-0,00011107958987334536	-0,039987861982009542	6,16585821E-005	-0,0014784997325653216	0,094407734511201382
1	0	0	0	0	0	2	77411,7066	-0,0400000028	1,5385946	-0,00011107921997995842	-0,039987728857004346	6,1524901E-005	-0,0042554954934014419	0,097184730272037517
1	0	0	0	0	0	2	77661,7115	-0,0400000028	1,53287256	-0,00011107996622949013	-0,039987997616507699	6,12965014E-005	-0,0070324907452468058	0,099961725523882867
1	0	0	0	0	0	2	77911,7165	-0,0400000028	1,5190444	-0,00011108025232868062	-0,039988100543612525	6,07436996E-005	-0,0098094974457898701	0,10273873222442594
1	0	0	0	0	0	2	78161,7214	-0,0400000028	1,42835045	-0,00011108003579742378	-0,039988022511970374	5,71169112E-005	-0,012586499589680573	0,10551573436831666
1	0	0	0	0	0	2	78408,4268	-0,0400000028	1,26574993	-0,00011108045650314954	-0,039988174104554547	5,06150282E-005	-0,0153268576792824	0,10825609245791848
1	0	0	0	0	0	2	78658,4317	-0,0400000028	1,20307481	-0,00011108049886342552	-0,039988189361400787	4,81087845E-005	-0,018103867235910749	0,11103310201454683
1	0	0	0	0	0	2	78672,2395	-0,0400000028	1,19996583	-4,2294001991757088E-005	-0,039988035379582093	4,79842747E-005	-0,018257241162320368	0,11118647594095645