File: Experimentelles/Ausgewaehlte_Daten/LTO/GCPL/LTO_Korrosion_05_GCPL_C02.mpt
EC-Lab ASCII FILE
Nb header lines : 75

Galvanostatic Cycling with Potential Limitation

Run on channel : 2 (SN 6986)
Grouped channel(s) : 2
User :
CE vs. WE compliance from -10 V to 10 V
Electrode connection : standard
Ewe ctrl range : min = 0,00 V, max = 5,00 V
Acquisition started on : 09.04.2015 14:14:19
Saved on :
	File : LTO_Korrosion_05_GCPL_C02.mpr
	Directory : C:\Gielisch\AlteZelle\150904_LTO_Korrosion\
	Host : 192.168.0.2
Device : VMP3 (SN 0324)
Address : 192.168.0.1
EC-Lab for windows v10.33 (software)
Internet server v10.33 (firmware)
Command interpretor v10.32 (firmware)
Electrode material :
Initial state :
Electrolyte :
Comments :
Electrode surface area : 0,001 cm²
Characteristic mass : 0,001 g
Equivalent Weight : 0,000 g/eq.
Density : 0,000 g/cm3
Ns                  0                   1                   2
Set I/C             I                   I                   I
Is                  0,000               40,000              -40,000
unit Is             mA                  µA                  µA
vs.                 <None>              <None>              <None>
N                   1                   1                   1
I sign              > 0                 > 0                 > 0
t1 (h:m:s)          0:00:0,0000         6:00:0,0000         6:00:0,0000
I Range             100 µA              100 µA              100 µA
Bandwidth           5                   5                   5
dE1 (mV)            0,00                10,00               10,00
dt1 (s)             0,0000              10,0000             10,0000
EM (V)              0,000               4,000               1,500
tM (h:m:s)          0:00:0,0000         0:00:0,0000         0:00:0,0000
Im                  0,000               0,000               0,000
unit Im             mA                  mA                  mA
E range min (V)     0,000               0,000               0,000
E range max (V)     5,000               5,000               5,000
dq                  0,000               1,000               1,000
unit dq             mA.h                mA.h                mA.h
dtq (s)             0,0000              120,0000            120,0000
dQM                 0,000               0,000               0,000
unit dQM            mA.h                mA.h                mA.h
dxM                 0,000               0,000               0,000
tR (h:m:s)          0:00:0,0000         0:00:0,0000         0:00:0,0000
dER/dt (mV/h)       0,0                 0,1                 0,1
dER (mV)            0,00                5,00                5,00
dtR (s)             1,0000              120,0000            120,0000
EL (V)              pass                4,200               3,500
goto Ns'            0                   0                   0
nc cycles           0                   0                   0

Number of loops : 11
Loop 0 from point number 0 to 1298
Loop 1 from point number 1299 to 3626
Loop 2 from point number 3627 to 5954
Loop 3 from point number 5955 to 8281
Loop 4 from point number 8282 to 10607
Loop 5 from point number 10608 to 12933
Loop 6 from point number 12934 to 15257
Loop 7 from point number 15258 to 17581
Loop 8 from point number 17582 to 19904
Loop 9 from point number 19905 to 22226
Loop 10 from point number 22227 to 24547

mode	ox/red	error	control changes	Ns changes	counter inc.	Ns	time/s	control/V/mA	Ewe/V	dq/mA.h	<I>/mA	P/W	(Q-Qo)/mA.h	Capacity/mA.h
1	1	0	0	1	0	1	4305,2837	0,0400000028	3,14299011	0	0	0	0	0
1	1	0	0	0	0	1	4444,9865	0,0400000028	3,90519047	2,66465675164428E-005	0,040006524406107456	0,000156233102	0,0015519585539049302	0,0015519585539049302
1	0	0	1	0	0	2	4525,2459	-0,0400000028	3,34460473	-1,0043948158000906E-005	-0,039989176959531802	0,000133747992	0,001234646102486856	0,0006044819770765801
1	0	0	1	0	0	2	4598,5363	-0,0400000028	2,58218479	-1,2674373614291349E-005	-0,039989259915988442	0,000103259656	0,00042052627656138464	0,0014186018030020514
1	0	0	1	0	0	2	4797,6233	-0,0400000028	1,82010806	-6,7410763575385011E-005	-0,039989248230160666	7,2784751E-005	-0,0017909626389184608	0,0036300907184818989
1	0	0	1	0	0	2	5531,8473	-0,0400000028	1,55343366	-0,00011108200984034274	-0,039989524026684294	6,21210711E-005	-0,0099467958125123802	0,011785923892075819
1	0	0	1	0	0	2	6291,8473	-0,0400000028	1,55270886	-0,0001110818556872093	-0,039989468531555584	6,20920036E-005	-0,018389023080210445	0,020228151159773885
1	0	0	1	0	0	2	7051,8473	-0,0400000028	1,55244184	-0,00011108067473396659	-0,039989043388383059	6,20806604E-005	-0,026831202116446701	0,028670330196010144
1	0	0	1	0	0	2	7811,8473	-0,0400000028	1,551965	-0,00011108168699302608	-0,039989407801648883	6,20621577E-005	-0,035273386946183443	0,03711251502574688
1	0	0	1	0	0	2	8571,8472	-0,0400000028	1,55179334	-0,00011108101729593342	-0,039989166710692614	6,20549254E-005	-0,043715585053962445	0,045554713133525888
1	0	0	1	0	0	2	9331,8472	-0,0400000028	1,55124021	-0,00011108178708060747	-0,03998944383317863	6,20332357E-005	-0,05215776295791783	0,053996891037481274
1	0	0	1	0	0	2	10091,8472	-0,0400000028	1,55078244	-0,00011108159791098699	-0,039989375732114432	6,20148203E-005	-0,060599968851459853	0,062439096931023296
1	0	0	1	0	0	2	10851,8472	-0,0400000028	1,5503819	-0,00011108154163633782	-0,039989355473240486	6,19987695E-005	-0,06904215520594217	0,070881283285505613
1	0	0	1	0	0	2	11611,8472	-0,0400000028	1,54977155	-0,00011108176493706802	-0,039989435861504333	6,19744897E-005	-0,077484314626297946	0,079323442705861376
1	0	0	1	0	0	2	12371,8472	-0,0400000028	1,54877973	-0,00011108059787936509	-0,039989015720726176	6,19341736E-005	-0,085926495852302618	0,087765623931866061
1	0	0	1	0	0	2	13131,8472	-0,0400000028	1,54753995	-0,0001110817919044445	-0,039989445569759974	6,18852646E-005	-0,094368674685382182	0,096207802764945613
1	0	0	1	0	0	2	13891,8472	-0,0400000028	1,54509854	-0,00011108114470210341	-0,039989212576914362	6,1787272E-005	-0,10281085932202992	0,10464998740159336
1	0	0	1	0	0	2	14651,8472	-0,0400000028	1,52173376	-0,00011108069650539094	-0,039989051226095917	6,08526898E-005	-0,11125302543752418	0,11309215351708762
1	1	0	1	0	0	1	15393,2604	0,0400000028	1,56979859	0,00011112860062904656	0,04000629671082073	6,28018315E-005	-0,10424836126478267	0,0076212557276694656
1	1	0	1	0	0	1	16153,2604	0,0400000028	1,57054245	0,00011112890952701371	0,040006407914090253	6,28317648E-005	-0,095802587504711898	0,016067029487740288
1	1	0	1	0	0	1	16913,2603	0,0400000028	1,57071412	0,00011112881106117533	0,040006372466388013	6,28385751E-005	-0,087356808352736192	0,024512808639715974
1	1	0	1	0	0	1	17673,2603	0,0400000028	1,57101929	0,00011112782120539082	0,040006016118301267	6,28502239E-005	-0,078911081256406042	0,03295853573604615
1	1	0	1	0	0	1	18433,2603	0,0400000028	1,57132447	0,00011112808761145506	0,040006112024485555	6,28625858E-005	-0,070465326689556314	0,041404290302895834
1	1	0	1	0	0	1	19193,2603	0,0400000028	1,57168686	0,00011112749532734354	0,040005898802202829	6,28767448E-005	-0,06201959636923968	0,049850020623212442
1	1	0	1	0	0	1	19953,2603	0,0400000028	1,57210648	0,00011112897686391242	0,04000643215537408	6,28943744E-005	-0,053573848329753798	0,05829576866269833
1	1	0	1	0	0	1	20713,2603	0,0400000028	1,57254517	0,0001111284219680561	0,040006232392863392	6,29116112E-005	-0,045128122933422592	0,066741494059029504
1	1	0	1	0	0	1	21473,2603	0,0400000028	1,57321274	0,00011112838540081349	0,040006219228655891	6,29382921E-005	-0,036682377064536736	0,075187239927915456
1	1	0	1	0	0	1	22233,2603	0,0400000028	1,57428086	0,0001111279721431848	0,04000607045590777	6,2980791E-005	-0,028236630129369722	0,08363298686308247
1	1	0	1	0	0	1	22993,2603	0,0400000028	1,57718003	0,00011112774115697378	0,040005987300870784	6,3096646E-005	-0,019790871531802467	0,092078745460649741
1	1	0	1	0	0	1	23745,7617	0,0400000028	1,73203671	8,0012235409683635E-005	0,040006118189025754	6,92920657E-005	-0,011428458494827693	0,10044115849762454
1	1	0	1	0	0	1	24001,2341	0,0400000028	2,49432325	1,9022903683077955E-005	0,040006107073538355	9,97881652E-005	-0,0085894330147971712	0,10328018397765512
1	1	0	1	0	0	1	24192,3681	0,0400000028	3,25651455	2,957568017827968E-005	0,040006180931183686	0,000130280707	-0,0064653908098198451	0,10540422618263248
1	0	0	0	1	0	2	24375,6233	-0,0400000028	3,99648595	-2,199122682213783E-009	-0,013194736426609779	5,27325792E-005	-0,0044289119933172243	2,199122682213783E-009
1	0	0	0	0	0	2	24439,4949	-0,0400000028	3,23436069	-1,0119438213192754E-005	-0,03998899891140873	0,000129338849	-0,0051384000339138893	0,00070949023971934298
1	0	0	0	0	0	2	24513,5337	-0,0400000028	2,47213149	-1,2294206708462699E-005	-0,039988385150262502	9,88565444E-005	-0,005960825898508361	0,0015319161043138134
1	0	0	0	0	0	2	24783,6460	-0,0400000028	1,71035028	-0,0001087499132969727	-0,039988937162538118	6,8395093E-005	-0,0089612430062156646	0,0045323332120211187
1	0	0	0	0	0	2	25543,6460	-0,0400000028	1,55431104	-0,00011108007700430851	-0,039988828205703539	6,21550789E-005	-0,017403343773623014	0,012974433979428477
1	0	0	0	0	0	2	26303,6460	-0,0400000028	1,55349088	-0,000111081268278468	-0,03998925706440615	6,21229483E-005	-0,025845464029386976	0,021416554235192438
1	0	0	0	0	0	2	27063,6460	-0,0400000028	1,55299497	-0,00011108076283873782	-0,039989075106101088	6,21028303E-005	-0,034287610459103494	0,029858700664908954
1	0	0	0	0	0	2	27823,6460	-0,0400000028	1,55272794	-0,00011108063708390627	-0,039989029834361178	6,20920837E-005	-0,042729740344552845	0,038300830550358304
1	0	0	0	0	0	2	28583,6460	-0,0400000028	1,55215573	-0,00011108062700451248	-0,039989026205779373	6,20691935E-005	-0,051171863993949267	0,04674295419975472
1	0	0	0	0	0	2	29343,6460	-0,0400000028	1,55171704	-0,00011108091819534699	-0,039989131034481069	6,20518185E-005	-0,059614007892921869	0,055185098098727322
1	0	0	0	0	0	2	30103,6460	-0,0400000028	1,55125928	-0,00011108117243958018	-0,039989222562406112	6,20336505E-005	-0,068056166591867904	0,063627256797673382
1	0	0	0	0	0	2	30863,6460	-0,0400000028	1,55062985	-0,00011108165802578958	-0,039989397373443622	6,20087521E-005	-0,076498347638085747	0,072069437843891226
1	0	0	0	0	0	2	31623,6460	-0,0400000028	1,54986691	-0,00011108124896987443	-0,039989250113312384	6,19780185E-005	-0,084940531639554266	0,080511621845359744
1	0	0	0	0	0	2	32383,6460	-0,0400000028	1,54866529	-0,00011108077409573726	-0,039989079158620934	6,19296989E-005	-0,093382676072154035	0,088953766277959501
1	0	0	0	0	0	2	33143,6460	-0,0400000028	1,54696774	-0,00011108139687693781	-0,039989302801211731	6,18621634E-005	-0,10182481545387107	0,097395905659676544
1	0	0	0	0	0	2	33903,6460	-0,0400000028	1,54300058	-0,00011108239202718768	-0,039989661055301018	6,17040714E-005	-0,11026699422569218	0,10583808443149763
1	1	0	1	0	0	1	34640,1452	0,0400000028	1,56344724	0,00011112664348528618	0,040005591580186803	6,25466346E-005	-0,11386793132816272	0,0022900192701197328
1	1	0	1	0	0	1	35400,1452	0,0400000028	1,56945527	0,00011112763192794389	0,040005947419542912	6,27875415E-005	-0,10542226800475203	0,010735682593530418
1	1	0	1	0	0	1	36160,1452	0,0400000028	1,5700084	0,00011112795907093418	0,0400060651910192	6,28098569E-005	-0,096976582779382976	0,019181367818899421
1	1	0	1	0	0	1	36920,1452	0,0400000028	1,57023728	0,00011112841344231531	0,040006228764716109	6,2819272E-005	-0,088530891788381978	0,027627058809900429
1	1	0	1	0	0	1	37680,1452	0,0400000028	1,57052338	0,00011112793602359792	0,040006056893978163	6,28304479E-005	-0,080085141926150848	0,036072808672131526
1	1	0	1	0	0	1	38440,1452	0,0400000028	1,57084763	0,0001111278453162975	0,040006024239350067	6,284337E-005	-0,071639435975032653	0,044518514623249734
1	1	0	1	0	0	1	39200,1452	0,0400000028	1,57105744	0,00011112797989240952	0,040006072686750304	6,28518392E-005	-0,063193763433173363	0,052964187165108966
1	1	0	1	0	0	1	39960,1452	0,0400000028	1,5715915	0,00011112708499510254	0,040005750523720403	6,28726993E-005	-0,054748098744026746	0,06140985185425559
1	1	0	1	0	0	1	40720,1452	0,0400000028	1,57206833	0,0001111265195608139	0,04000554696737687	6,28914568E-005	-0,046302428966928736	0,069855521631353587
1	1	0	1	0	0	1	41480,1452	0,0400000028	1,57256424	0,00011112785746488307	0,04000602861284087	6,29120477E-005	-0,037856757295892294	0,078301193302389952
1	1	0	1	0	0	1	42240,1452	0,0400000028	1,57382309	0,00011112810253993506	0,040006116839859418	6,29625501E-005	-0,029411052913759968	0,086746897684522253
1	1	0	1	0	0	1	43000,1452	0,0400000028	1,57845795	0,00011112803973133366	0,040006094228762957	6,31479343E-005	-0,020965346888176509	0,095192603710105715
1	1	0	1	0	0	1	43648,2262	0,0400000028	1,94838607	4,9831636995491053E-005	0,040005774240653882	7,79466936E-005	-0,013763367033017424	0,10239458356526477
1	1	0	1	0	0	1	43843,8780	0,0400000028	2,71027207	2,5372671069370374E-005	0,04000596341751575	0,000108427048	-0,01158914290877353	0,10456880768950869
1	1	0	1	0	0	1	44047,5678	0,0400000028	3,47210073	2,6243954300880429E-005	0,040006027823665101	0,000138904958	-0,009325587259042839	0,10683236333923933
1	0	0	0	0	0	2	44189,6092	-0,0400000028	3,7761209	-8,9975012408362509E-006	-0,039988894326961357	0,000151002896	-0,0080870852169949542	0,00016994436861595347
1	0	0	0	0	0	2	44259,2574	-0,0400000028	3,01360536	-1,0470473171522218E-005	-0,03998907632606201	0,000120511293	-0,0088607433804033933	0,00094360253202439219
1	0	0	0	0	0	2	44343,0298	-0,0400000028	2,25143337	-1,9214732042617264E-005	-0,039989036434384013	9,00326486E-005	-0,0097912927979852147	0,0018741519496062154
1	0	0	0	0	0	2	44805,9348	-0,0400000028	1,5939455	-0,00011108048373440074	-0,039988974069899002	6,37402482E-005	-0,014933257530699213	0,0070161166823202099
1	0	0	0	0	0	2	45565,9348	-0,0400000028	1,55406308	-0,00011107987998881274	-0,039988756721487725	6,21450527E-005	-0,023375357213282374	0,015458216364903366
1	0	0	0	0	0	2	46325,9348	-0,0400000028	1,5535481	-0,00011108019967956675	-0,039988871810158957	6,21246363E-005	-0,031817438059697158	0,023900297211318163
1	0	0	0	0	0	2	47085,9348	-0,0400000028	1,55305219	-0,00011107970592234698	-0,039988694057560166	6,21045256E-005	-0,040259498602906285	0,032342357754527264
1	0	0	0	0	0	2	47845,9348	-0,0400000028	1,55263257	-0,00011108017348829243	-0,039988862381300211	6,20880091E-005	-0,048701578242017594	0,040784437393638573
1	0	0	0	0	0	2	48605,9348	-0,0400000028	1,55215573	-0,00011107932704852686	-0,039988557662985178	6,20684659E-005	-0,057143709024283437	0,049226568175904416
1	0	0	0	0	0	2	49365,9348	-0,0400000028	1,55165982	-0,00011107889706744915	-0,039988402869797491	6,20483988E-005	-0,065585777513192179	0,057668636664813171
1	0	0	0	0	0	2	50125,9348	-0,0400000028	1,55099225	-0,00011108041442123554	-0,039988949117159571	6,20225474E-005	-0,074027853315495053	0,066110712467116006
1	0	0	0	0	0	2	50885,9348	-0,0400000028	1,55032468	-0,00011107940123064651	-0,039988584368548198	6,19952916E-005	-0,082469953314903846	0,0745528124665248
1	0	0	0	0	0	2	51645,9348	-0,0400000028	1,54948545	-0,00011107994423144394	-0,039988779848834906	6,19620332E-005	-0,090912010599636262	0,082994869751257203
1	0	0	0	0	0	2	52405,9348	-0,0400000028	1,54820752	-0,00011107897790231638	-0,039988431970349638	6,19103885E-005	-0,099354087955623322	0,091436947107244275
1	0	0	0	0	0	2	53165,9348	-0,0400000028	1,54593778	-0,00011108034032935069	-0,039988922444081082	6,18203849E-005	-0,10779613944309627	0,099878998594717222
1	0	0	0	0	0	2	53925,9348	-0,0400000028	1,53796518	-0,00011107998717493482	-0,039988795308491597	6,15013778E-005	-0,11623820196854434	0,10832106112016528
1	1	0	1	0	0	1	54669,8676	0,0400000028	1,56794846	0,00011112899241555069	0,040006437195080448	6,27280315E-005	-0,11369567378067986	0,0054036977558555603
1	1	0	1	0	0	1	55429,8676	0,0400000028	1,56955063	0,00011112818443216382	0,040006146321061728	6,27916743E-005	-0,10524993362244152	0,013849437914093904
1	1	0	1	0	0	1	56189,8676	0,0400000028	1,5699321	0,00011112853995027643	0,040006274307582016	6,28071357E-005	-0,096804214061759565	0,02229515747477585
1	1	0	1	0	0	1	56949,8676	0,0400000028	1,57018006	0,0001111279332122455	0,040006055881891296	6,28167109E-005	-0,088358491622470067	0,03074087991406535
1	1	0	1	0	0	1	57709,8676	0,0400000028	1,57050431	0,00011112845568358898	0,040006243971574598	6,28299749E-005	-0,07991272449886697	0,039186647037668525
1	1	0	1	0	0	1	58469,8676	0,0400000028	1,57067597	0,00011112821023973325	0,040006155611786701	6,28367052E-005	-0,071467003073961766	0,047632368462573664
1	1	0	1	0	0	1	59229,8676	0,0400000028	1,57113373	0,0001111289046044565	0,040006405583086605	6,28554117E-005	-0,063021260925202061	0,056078110611333331
1	1	0	1	0	0	1	59989,8676	0,0400000028	1,57153428	0,00011112783158198	0,040006019294995782	6,28708294E-005	-0,054575504702632966	0,064523866833902413
1	1	0	1	0	0	1	60749,8676	0,0400000028	1,57191575	0,00011112761446481778	0,04000594113281753	6,28859707E-005	-0,046129770849380954	0,072969600687154368
1	1	0	1	0	0	1	61509,8676	0,0400000028	1,57279313	0,00011112814349763923	0,040006131584632896	6,29213682E-005	-0,037684022093349978	0,081415349443185395
1	1	0	1	0	0	1	62269,8676	0,0400000028	1,57422364	0,00011112869271905058	0,040006329304340614	6,29789065E-005	-0,029238245208740966	0,089861126327794381
1	1	0	1	0	0	1	63029,8676	0,0400000028	1,59325886	0,00011112908231446314	0,04000646955868887	6,37406629E-005	-0,020792453945609338	0,098306917590925939
1	1	0	1	0	0	1	63521,1968	0,0400000028	2,2098248	3,327842596690688E-005	0,040006122105877075	8,8406523E-005	-0,015332371575031955	0,10376699996150333
1	1	0	1	0	0	1	63691,0032	0,0400000028	2,9719398	3,1711726519175699E-005	0,040006383253974714	0,000118896562	-0,01344532857363103	0,10565404296290427
1	1	0	1	0	0	1	63888,0510	0,0400000028	3,73411179	2,5637397520865002E-005	0,040006341960704922	0,000149388157	-0,011255558960888443	0,10784381257564691
1	0	0	0	0	0	2	63989,9078	-0,0400000028	3,51523519	-1,0346042506603731E-005	-0,039988998232026413	0,00014057073	-0,010972164994275933	0,00042416882700348896
1	0	0	0	0	0	2	64060,9130	-0,0400000028	2,75264359	-1,062810343793697E-005	-0,039988683429139539	0,000110074594	-0,011760888514916426	0,0012128923476439803
1	0	0	0	0	0	2	64197,8654	-0,0400000028	1,99016619	-4,6735604697838426E-005	-0,039988633503371834	7,95840242E-005	-0,013282148136813731	0,0027341519695412803
1	0	0	0	0	0	2	64849,6796	-0,0400000028	1,5554173	-0,0001110796153475013	-0,039988661450615782	6,21990548E-005	-0,02052243060006752	0,0099744344327950656
1	0	0	0	0	0	2	65609,6810	-0,0400000028	1,55381513	-0,00011108143319396509	-0,039988525713282656	6,2134779E-005	-0,028964448682488173	0,018416452515215699
1	0	0	0	0	0	2	66369,6960	-0,0400000028	1,55333829	-0,0001110809419910527	-0,039988348822280461	6,21154322E-005	-0,037406600618401235	0,026858604451128778
1	0	0	0	0	0	2	67129,7110	-0,0400000028	1,5528996	-0,0001110810282640159	-0,039988379792474451	6,20979408E-005	-0,045848786857424621	0,035300790690152122
1	0	0	0	0	0	2	67889,7261	-0,0400000028	1,55238461	-0,00011108168155679272	-0,039988615123064787	6,20777137E-005	-0,054290979593422758	0,043742983426150259
1	0	0	0	0	0	2	68649,7411	-0,0400000028	1,55192685	-0,00011108130228954058	-0,039988478439655341	6,20591964E-005	-0,062733203367346944	0,052185207200074438
1	0	0	0	0	0	2	69409,7561	-0,0400000028	1,55133557	-0,00011108164270056618	-0,039988601065271744	6,20357387E-005	-0,071175429759200512	0,060627433591928
1	0	0	0	0	0	2	70169,7711	-0,0400000028	1,55076337	-0,00011108224819786845	-0,039988819109355437	6,20131977E-005	-0,079617666849241165	0,069069670681968614
1	0	0	0	0	0	2	70929,7861	-0,0400000028	1,54986691	-0,0001110823270096961	-0,039988847332085594	6,19773928E-005	-0,088059917408580454	0,077511921241307904
1	0	0	0	0	0	2	71689,8012	-0,0400000028	1,54881787	-0,00011108283620513976	-0,039989030787790003	6,19357234E-005	-0,096502162913749466	0,085954166746476915
1	0	0	0	0	0	2	72449,8162	-0,0400000028	1,54731107	-0,00011108184834631781	-0,039988675059503142	6,18749182E-005	-0,1049443797130279	0,094396383545755354
1	0	0	0	0	0	2	73209,8312	-0,0400000028	1,54427838	-0,00011108232430513533	-0,039988846367773408	6,17539117E-005	-0,11338663514635822	0,10283863897908566
1	1	0	1	0	0	1	73953,9328	0,0400000028	1,51976919	0,00011113055522388054	0,040006209218683597	6,08002047E-005	-0,12129237599293432	0,00017935451098184099
1	1	0	1	0	0	1	74713,9478	0,0400000028	1,56886399	0,0001111306452879475	0,040006241717485792	6,27643531E-005	-0,11284645641840562	0,0086252740855105613
1	1	0	1	0	0	1	75473,9629	0,0400000028	1,56968415	0,00011113037962156037	0,040006145929979091	6,27970148E-005	-0,10440054446242955	0,017071186041486595
1	1	0	1	0	0	1	76233,9779	0,0400000028	1,57010376	0,00011113002136018541	0,040006017107464346	6,28135967E-005	-0,095954668715797299	0,025517061788118794
1	1	0	1	0	0	1	76993,9929	0,0400000028	1,57038987	0,00011113023369490274	0,040006093447718752	6,28251655E-005	-0,087508775485196378	0,033962955018719712
1	1	0	1	0	0	1	77754,0079	0,0400000028	1,57071412	0,00011113013845288918	0,040006059112894579	6,28380803E-005	-0,079062859791153331	0,042408870712762739
1	1	0	1	0	0	1	78514,0229	0,0400000028	1,57098114	0,00011112990349427694	0,040005974676575802	6,28486305E-005	-0,070616955383581709	0,050854775120334317
1	1	0	1	0	0	1	79274,0380	0,0400000028	1,57121003	0,00011113037625244922	0,040006144717123046	6,28580528E-005	-0,062171035963835494	0,059300694540080512
1	1	0	1	0	0	1	80034,0530	0,0400000028	1,57168686	0,0001111312149396787	0,040006446755921325	6,28776033E-005	-0,053725126330553101	0,06774660417336288
1	1	0	1	0	0	1	80794,0680	0,0400000028	1,57225907	0,00011113055628807179	0,040006209650220218	6,29001224E-005	-0,04527919071519815	0,076192539788717862
1	1	0	1	0	0	1	81554,0830	0,0400000028	1,57325089	0,00011113136777509418	0,040006501658685914	6,29402639E-005	-0,036833242212825798	0,084638488291090214
1	1	0	1	0	0	1	82314,0980	0,0400000028	1,575616	0,0001111310384232137	0,040006383243384838	6,30346985E-005	-0,028387305899269702	0,09308442460464631
1	1	0	1	0	0	1	83067,3449	0,0400000028	1,72764993	8,2060348957777037E-005	0,040006679969542387	6,91175374E-005	-0,020016539729236346	0,10145519077467966
1	1	0	1	0	0	1	83358,7650	0,0400000028	2,48959303	1,9667696262399357E-005	0,040006624172161446	9,96002127E-005	-0,016778018055921869	0,10469371244799416
1	1	0	1	0	0	1	83549,0406	0,0400000028	3,25153637	3,1960821695418822E-005	0,040006601216313837	0,000130082917	-0,014663502256447498	0,1068082282474685
1	0	0	0	1	0	2	83727,5845	-0,0400000028	3,99672627	-2,1994759639104205E-009	-0,013196855156645539	5,27442171E-005	-0,012679362927746706	2,1994759639104205E-009
1	0	0	0	0	0	2	83791,7083	-0,0400000028	3,23413181	-1,021043378321661E-005	-0,039988653665522675	0,000129328575	-0,013391651919814294	0,00071229119154355597
1	0	0	0	0	0	2	83865,5211	-0,0400000028	2,47194076	-1,3691758256612554E-005	-0,039988918776110362	9,88502361E-005	-0,014211566019092637	0,0015322052908218976
1	0	0	0	0	0	2	84153,4920	-0,0400000028	1,70966363	-0,0001084919470174031	-0,039988850387704102	6,83674807E-005	-0,017410362158919632	0,004731001430648896
1	0	0	0	0	0	2	84913,5070	-0,0400000028	1,55427289	-0,00011108252125481765	-0,039988917407449082	6,21536892E-005	-0,025852617957115638	0,013173257228844906
1	0	0	0	0	0	2	85673,5220	-0,0400000028	1,55350995	-0,00011108241332405142	-0,03998887840417383	6,21231229E-005	-0,034294878215018086	0,02161551748674735
1	0	0	0	0	0	2	86433,5371	-0,0400000028	1,55312848	-0,0001110827088728547	-0,039988984949073229	6,21080326E-005	-0,042737166192316198	0,03005780546404544
1	0	0	0	0	0	2	87193,5521	-0,0400000028	1,55255628	-0,00011108256467887096	-0,039988932935987674	6,20850697E-005	-0,051179447176116864	0,038500086447846118
1	0	0	0	0	0	2	87953,5671	-0,0400000028	1,55192685	-0,00011108242609124216	-0,039988883010047635	6,20598221E-005	-0,059621708543443264	0,046942347815172506
1	0	0	0	0	0	2	88713,5821	-0,0400000028	1,55135465	-0,00011108305034765766	-0,03998910787757303	6,20372884E-005	-0,068063993163084224	0,055384632434813478
1	0	0	0	0	0	2	89473,5971	-0,0400000028	1,5509541	-0,00011108269271978902	-0,039988978985116883	6,20210703E-005	-0,076506277345443187	0,06382691661717239
1	0	0	0	0	0	2	90233,6122	-0,0400000028	1,55026746	-0,00011108171105239954	-0,03998862571660087	6,19930652E-005	-0,084948543923767923	0,072269183195497139
1	0	0	0	0	0	2	90993,6272	-0,0400000028	1,54923749	-0,00011108177576565907	-0,039988649003603514	6,19519124E-005	-0,093390785301105446	0,080711424572834662
1	0	0	0	0	0	2	91753,6422	-0,0400000028	1,5481503	-0,00011108191756014195	-0,039988699932693958	6,19085185E-005	-0,10183302247289101	0,089153661744620224
1	0	0	0	0	0	2	92513,6572	-0,0400000028	1,54618573	-0,00011108207136123544	-0,039988755449192806	6,18300401E-005	-0,11027528123614096	0,097595920507870182
1	0	0	0	0	0	2	93273,6723	-0,0400000028	1,54103601	-0,00011108261501292387	-0,039988951010791014	6,16244142E-005	-0,11871751373798362	0,10603815300971282
1	1	0	1	0	0	1	94018,6675	0,0400000028	1,56630814	0,00011113066131704384	0,040006247338814496	6,26621113E-005	-0,11996948845370646	0,0035119268263939091
1	1	0	1	0	0	1	94778,6825	0,0400000028	1,56953156	0,00011113116483680075	0,040006428732747795	6,27913541E-005	-0,11152354531345677	0,011957869966643613
1	1	0	1	0	0	1	95538,6975	0,0400000028	1,57010376	0,0001111305203847587	0,040006196712242656	6,28138805E-005	-0,10307761155290024	0,020403803727200109
1	1	0	1	0	0	1	96298,7125	0,0400000028	1,57037079	0,0001111302878552427	0,040006112894757683	6,28244306E-005	-0,09463168438405632	0,028849730896043962
1	1	0	1	0	0	1	97058,7276	0,0400000028	1,57061875	0,0001111311883698735	0,04000643722288279	6,28348571E-005	-0,086185729409662042	0,037295685870438278
1	1	0	1	0	0	1	97818,7426	0,0400000028	1,57084763	0,00011113050393491155	0,040006190681959194	6,28436319E-005	-0,077739797731321203	0,045741617548779168
1	1	0	1	0	0	1	98578,7576	0,0400000028	1,57117188	0,0001111297352442311	0,040005914018396032	6,28561684E-005	-0,069293896907943552	0,054187518372156826
1	1	0	1	0	0	1	99338,7726	0,0400000028	1,57176316	0,00011113076281092234	0,040006284024454944	6,28804046E-005	-0,060847989599407821	0,062633425680692454
1	1	0	1	0	0	1	100098,7876	0,0400000028	1,57206833	0,00011113132809102536	0,040006487372237773	6,28929338E-005	-0,052402023151874003	0,071079392128226304
1	1	0	1	0	0	1	100858,8027	0,0400000028	1,57286942	0,00011113085042085085	0,040006315563871674	6,29247079E-005	-0,043956105229962298	0,079525310050138022
1	1	0	1	0	0	1	101618,8177	0,0400000028	1,5740329	0,00011113073566307624	0,040006274168058682	6,2971194E-005	-0,035510215939835859	0,087971199340264512
1	1	0	1	0	0	1	102378,8327	0,0400000028	1,57904923	0,00011112990167737008	0,040005973873937056	6,31713992E-005	-0,027064323896170387	0,096417091383929997
1	1	0	1	0	0	1	102998,0406	0,0400000028	2,02055979	5,5166353164654637E-005	0,040006228192306291	8,08349723E-005	-0,02018319221796455	0,10329822306213578
1	1	0	1	0	0	1	103204,7711	0,0400000028	2,78276992	2,6408269356315334E-005	0,040005803741698957	0,000111326946	-0,017885829310203878	0,1055955859698965
1	1	0	1	0	0	1	103407,8243	0,0400000028	3,54503751	2,603512598429289E-005	0,040006178892182195	0,000141823402	-0,015629340326570051	0,10785207495353034
1	0	0	0	0	0	2	103532,5954	-0,0400000028	3,70574021	-9,5017301322271437E-006	-0,039988586032735635	0,000148187304	-0,014710382920218499	0,00023374928458862832
1	0	0	0	0	0	2	103602,1922	-0,0400000028	2,94335818	-1,0168226632186109E-005	-0,039988665707155091	0,000117700969	-0,015483462226362554	0,001006828590732689
1	0	0	0	0	0	2	103703,5478	-0,0400000028	2,18109083	-2,951811896264553E-005	-0,03998842988169623	8,72183955E-005	-0,016609321467800336	0,0021326878321704765
1	0	0	0	0	0	2	104235,6463	-0,0400000028	1,57830536	-0,0001110815351276348	-0,03998856235700599	6,31141593E-005	-0,022519847371300752	0,0080432137356708877
1	0	0	0	0	0	2	104995,6613	-0,0400000028	1,55373883	-0,00011108191302108267	-0,039988698440648678	6,21319923E-005	-0,030962051614787712	0,016485417979157834
1	0	0	0	0	0	2	105755,6763	-0,0400000028	1,55309033	-0,00011108251193041602	-0,039988913902228986	6,21063955E-005	-0,039404312755278093	0,024927679119648205
1	0	0	0	0	0	2	106515,6913	-0,0400000028	1,55251813	-0,0001110826573593335	-0,039988966404572064	6,20835926E-005	-0,047846589727755546	0,033369956092125619
1	0	0	0	0	0	2	107275,7063	-0,0400000028	1,5522511	-0,00011108335398220354	-0,039989217062812576	6,20733044E-005	-0,056288861642792723	0,041812228007162797
1	0	0	0	0	0	2	108035,7214	-0,0400000028	1,55150723	-0,0001110822872109711	-0,039988833030897024	6,20429637E-005	-0,064731107998083968	0,050254474362454035
1	0	0	0	0	0	2	108795,7364	-0,0400000028	1,55112576	-0,00011108309316448867	-0,039989123291327597	6,20281571E-005	-0,073173403914205645	0,058696770278575693
1	0	0	0	0	0	2	109555,7514	-0,0400000028	1,55042005	-0,00011108112625074058	-0,039988415066939923	6,19988423E-005	-0,081615644386574528	0,067139010750944602
1	0	0	0	0	0	2	110315,7664	-0,0400000028	1,5497334	-0,00011108224646643632	-0,03998881847813831	6,19720086E-005	-0,090057897278987584	0,075581263643357658
1	0	0	0	0	0	2	111075,7814	-0,0400000028	1,54872251	-0,00011108124132682051	-0,039988456592257837	6,19310231E-005	-0,098500147623583398	0,084023513987953472
1	0	0	0	0	0	2	111835,7965	-0,0400000028	1,54727292	-0,00011108179741456277	-0,039988656681140339	6,18733684E-005	-0,10694239743816019	0,092465763802530266
1	0	0	0	0	0	2	112595,8115	-0,0400000028	1,54460263	-0,00011108114882910416	-0,039988423343955706	6,17662226E-005	-0,11538459373038704	0,10090796009475712
1	0	0	0	0	0	2	113355,8265	-0,0400000028	1,5294584	-0,00011108238058206109	-0,039988866617290278	6,11613068E-005	-0,12382682794755622	0,1093501943119263
1	1	0	1	0	0	1	114093,2365	0,0400000028	1,56874955	0,00011112916153834925	0,040005707448716102	6,27589325E-005	-0,11832901372298038	0,0068453618839139366
1	1	0	1	0	0	1	114853,2515	0,0400000028	1,57002747	0,00011112879708968102	0,040005576263294451	6,28098569E-005	-0,10988319441314619	0,015291181193748122
1	1	0	1	0	0	1	115613,2666	0,0400000028	1,57031357	0,00011112927472053304	0,040005748322501107	6,28215712E-005	-0,10143739844430504	0,023736977162589261
1	1	0	1	0	0	1	116373,2816	0,0400000028	1,57090485	0,00011112862587492499	0,040005514593668909	6,28448543E-005	-0,092991621426889421	0,032182754180004858
1	1	0	1	0	0	1	117133,2966	0,0400000028	1,57100022	0,00011112826633163626	0,040005385309671974	6,28484704E-005	-0,084545826512302579	0,04062854909459177
1	1	0	1	0	0	1	117893,3116	0,0400000028	1,57138169	0,0001111287045435359	0,040005543003226675	6,28639755E-005	-0,076100061080848947	0,049074314526045357
1	1	0	1	0	0	1	118653,3266	0,0400000028	1,57168686	0,00011112960213133029	0,040005866039028397	6,28766938E-005	-0,067654255281995917	0,057520120324898381
1	1	0	1	0	0	1	119413,3417	0,0400000028	1,57206833	0,00011112823029441965	0,04000537233699609	6,28911803E-005	-0,05920842561431392	0,065965949992580429
1	1	0	1	0	0	1	120173,3567	0,0400000028	1,57271683	0,00011112903625497387	0,040005662328032224	6,29175775E-005	-0,050762636571403546	0,074411739035490739
1	1	0	1	0	0	1	120933,3717	0,0400000028	1,5734607	0,0001111291204566757	0,040005692718286432	6,29473871E-005	-0,042316832672664416	0,082857542934229837
1	1	0	1	0	0	1	121693,3867	0,0400000028	1,5753299	0,00011112932249965768	0,040005765522180358	6,30222785E-005	-0,033871041723178202	0,091303333883716032
1	1	0	1	0	0	1	122453,4017	0,0400000028	1,61345756	0,00011112894174477291	0,040005628305032346	6,45473847E-005	-0,025425239801023478	0,099749135805870835
1	1	0	1	0	0	1	122897,0074	0,0400000028	2,31661677	2,9953150618821382E-005	0,040005701519874022	9,26778812E-005	-0,020495577464279322	0,10467879814261499
1	1	0	1	0	0	1	123069,2126	0,0400000028	3,07920837	3,1731100576412346E-005	0,040005599606061741	0,000123185571	-0,018581910802210909	0,10659246480468344
1	1	0	1	0	0	1	123258,8108	0,0400000028	3,84115148	2,4692457764306003E-005	0,040005791700317075	0,000153668312	-0,016474963648774278	0,1086994119581201
1	0	0	0	0	0	2	123342,6041	-0,0400000028	3,40453339	-1,0048236400302912E-005	-0,039988569036688813	0,000136142422	-0,016606988939624422	0,00053148362236469965
1	0	0	0	0	0	2	123411,3263	-0,0400000028	2,64251399	-1,0776975019731454E-005	-0,039988784940857363	0,000105670922	-0,017370354772291181	0,0012948494550314627
1	0	0	0	0	0	2	123613,5553	-0,0400000028	1,88015103	-6,3616925794424282E-005	-0,039988299094734522	7,51840416E-005	-0,019616706457705898	0,0035412011404461747
1	0	0	0	0	0	2	124320,5531	-0,0400000028	1,5544827	-0,00011107986176655523	-0,039987960010594291	6,21605941E-005	-0,027469986743504944	0,011394481426245219
1	0	0	0	0	0	2	125080,5681	-0,0400000028	1,55328107	-0,00011108116319361661	-0,039988428452233146	6,21132713E-005	-0,035912142471084704	0,019836637153824995
1	0	0	0	0	0	2	125840,5831	-0,0400000028	1,55267072	-0,00011108167057380907	-0,03998861101983705	6,20891442E-005	-0,044354344246933581	0,028278838929673885
1	0	0	0	0	0	2	126600,5982	-0,0400000028	1,55219388	-0,00011108162063008381	-0,039988593189417491	6,20700521E-005	-0,052796574521072154	0,036721069203812448
1	0	0	0	0	0	2	127360,6132	-0,0400000028	1,55162168	-0,00011108111689426005	-0,039988411699139027	6,20468854E-005	-0,061238767861349235	0,045163262544089536
1	0	0	0	0	0	2	128120,6282	-0,0400000028	1,55116391	-0,00011108124513634378	-0,039988457949169875	6,20286519E-005	-0,069680965815841267	0,053605460498581536
1	0	0	0	0	0	2	128880,6432	-0,0400000028	1,55053449	-0,00011108202467362086	-0,039988738642216454	6,20039209E-005	-0,078123166233762022	0,062047660916502272
1	0	0	0	0	0	2	129640,6582	-0,0400000028	1,55000043	-0,00011108163030280006	-0,039988596522560346	6,19823404E-005	-0,086565387561903578	0,070489882244643827
1	0	0	0	0	0	2	130400,6733	-0,0400000028	1,54900861	-0,00011108192142409582	-0,039988701472656442	6,19428392E-005	-0,095007581057616333	0,078932075740356582
1	0	0	0	0	0	2	131160,6865	-0,0400000028	1,54795957	-0,00011107880082622998	-0,039988362040775994	6,19003695E-005	-0,10344975312296978	0,087374247805710029
1	0	0	0	0	0	2	131920,6866	-0,0400000028	1,54614758	-0,00011107986932144397	-0,039988746698992851	6,18285048E-005	-0,1118918027408079	0,09581629742354816
1	0	0	0	0	0	2	132680,6868	-0,0400000028	1,54208505	-0,00011107908864960901	-0,03998846565717623	6,1665618E-005	-0,12033386933612677	0,10425836401886701
1	1	0	1	0	0	1	133425,0763	0,0400000028	1,56180692	0,00011112741266977456	0,040005862301713907	6,24814347E-005	-0,12469744591362168	0,0019524002726037203
1	1	0	1	0	0	1	134185,0764	0,0400000028	1,56966507	0,00011112699945374494	0,040005713543966528	6,27955742E-005	-0,11625178859898918	0,010398057587236227
1	1	0	1	0	0	1	134945,0765	0,0400000028	1,57037079	0,00011112681315177016	0,040005646475266099	6,28236958E-005	-0,10780613490859083	0,018843711277634589
1	1	0	1	0	0	1	135705,0766	0,0400000028	1,5706569	0,00011112813839626808	0,040006123563210707	6,28358903E-005	-0,099360414990902323	0,027289431195323098
1	1	0	1	0	0	1	136465,0768	0,0400000028	1,57096207	0,00011112804864429765	0,0400060912525064	6,28480484E-005	-0,090914684475078515	0,035735161711146906
1	1	0	1	0	0	1	137225,0769	0,0400000028	1,57121003	0,00011112736878109475	0,040005846501791654	6,28575872E-005	-0,082468989107405312	0,044180857078820077
1	1	0	1	0	0	1	137985,0770	0,0400000028	1,57157242	0,00011112680944552024	0,040005645141016339	6,2871768E-005	-0,074023310768839539	0,052626535417385862
1	1	0	1	0	0	1	138745,0771	0,0400000028	1,57203019	0,00011112741188146174	0,040005862017921344	6,28904236E-005	-0,065577618545889229	0,061072227640336218
1	1	0	1	0	0	1	139505,0772	0,0400000028	1,57248795	0,00011112730448879302	0,040005823356566656	6,29086717E-005	-0,0571319416261928	0,069517904560032704
1	1	0	1	0	0	1	140265,0773	0,0400000028	1,57315552	0,00011112669505841202	0,040005603961663821	6,29350398E-005	-0,048686236828868595	0,077963609357356979
1	1	0	1	0	0	1	141025,0775	0,0400000028	1,57428086	0,0001111273493501875	0,040005839506666144	6,29804272E-005	-0,0402405913021912	0,086409254884034253
1	1	0	1	0	0	1	141785,0776	0,0400000028	1,57731354	0,00011112692798342971	0,040005687814657062	6,31015137E-005	-0,031794933017500371	0,094854913168725094
1	1	0	1	0	0	1	142477,6413	0,0400000028	1,8743813	6,0170947457767194E-005	0,040005794879367258	7,49861138E-005	-0,024098642375061699	0,10255120381116374
1	1	0	1	0	0	1	142747,1805	0,0400000028	2,63661075	2,0965342454405296E-005	0,04000594776782489	0,000105480111	-0,021103322035529526	0,1055465241506959
1	1	0	1	0	0	1	142941,5908	0,0400000028	3,39840126	2,8097298296375408E-005	0,040005639145518554	0,000135955212	-0,018942889305120723	0,10770695688110475
1	0	0	0	0	0	2	143087,6358	-0,0400000028	3,85561872	-8,0999365457230144E-006	-0,039988709472911776	0,000154181223	-0,017518231339160544	9,9127230427331392E-005
1	0	0	0	0	0	2	143154,3576	-0,0400000028	3,09365654	-9,9838895280328064E-006	-0,03998887031753511	0,000123711827	-0,01825937722063311	0,00084027311189990093
1	0	0	0	0	0	2	143236,5836	-0,0400000028	2,33119822	-2,1555949868841302E-005	-0,039988357921960544	9,32207913E-005	-0,019172741853894035	0,0017536377451608163
1	0	0	0	0	0	2	143663,5301	-0,0400000028	1,61980903	-0,00011107948707830574	-0,039988609091484614	6,47739071E-005	-0,023915242554269517	0,0064961384455362957
1	0	0	0	0	0	2	144423,5302	-0,0400000028	1,55366254	-0,00011107821820779806	-0,039988152298173325	6,21280924E-005	-0,032357233294654221	0,014938129185920995
1	0	0	0	0	0	2	145183,5303	-0,0400000028	1,55293775	-0,00011107794707765182	-0,039988054691335942	6,20989595E-005	-0,040799234790934662	0,02338013068220145
1	0	0	0	0	0	2	145943,5304	-0,0400000028	1,55227017	-0,00011107792643064427	-0,039988047258414387	6,20722567E-005	-0,049241203615794355	0,031822099507061158
1	0	0	0	0	0	2	146703,5306	-0,0400000028	1,55183148	-0,00011107887582480907	-0,039988389040260237	6,20552382E-005	-0,057683173433708621	0,040264069324975411
1	0	0	0	0	0	2	147463,5307	-0,0400000028	1,55141187	-0,0001110785229280591	-0,039988261997450131	6,20382634E-005	-0,066125162445854374	0,048706058337121165
1	0	0	0	0	0	2	148223,5308	-0,0400000028	1,55085874	-0,00011107879582357904	-0,039988360239821933	6,20162973E-005	-0,074567140192244864	0,057148036083511584
1	0	0	0	0	0	2	148983,5309	-0,0400000028	1,55013394	-0,00011107810044019586	-0,039988109901843155	6,19869243E-005	-0,083009111496834547	0,065590007388101299
1	0	0	0	0	0	2	149743,5310	-0,0400000028	1,54956174	-0,00011107858898014658	-0,039988285776197901	6,19643179E-005	-0,091451078983441395	0,074031974874708134
1	0	0	0	0	0	2	150503,5312	-0,0400000028	1,5485127	-0,00011107887926201027	-0,039988390277652474	6,1922532E-005	-0,09989310149074647	0,082473997382013235
1	0	0	0	0	0	2	151263,5313	-0,0400000028	1,54717755	-0,00011107890951095355	-0,039988401167270355	6,18691556E-005	-0,10833508911028304	0,090915985001549798
1	0	0	0	0	0	2	152023,5314	-0,0400000028	1,54477429	-0,00011107847955491806	-0,039988246383121805	6,17728147E-005	-0,1167770920674232	0,099357987958689971
1	0	0	0	0	0	2	152783,5315	-0,0400000028	1,53613412	-0,00011107875796593725	-0,039988346611073024	6,14274613E-005	-0,12521908344013515	0,10779997933140194
1	1	0	1	0	0	1	153529,1522	0,0400000028	1,56861603	0,00011112815768395861	0,040006130506778202	6,27542613E-005	-0,12248694084064189	0,0055078644442969114
1	1	0	1	0	0	1	154289,1523	0,0400000028	1,57019913	0,00011112761632580725	0,040005935617874202	6,28172857E-005	-0,1140412619726885	0,01395354331225023
1	1	0	1	0	0	1	155049,1525	0,0400000028	1,57067597	0,00011112721287728184	0,040005790376427782	6,28361304E-005	-0,10559559121990339	0,022399214065035283
1	1	0	1	0	0	1	155809,1526	0,0400000028	1,57100022	0,00011112734062679939	0,040005836366246912	6,28491762E-005	-0,097149911214956096	0,030844894069982592
1	1	0	1	0	0	1	156569,1527	0,0400000028	1,57134354	0,00011112743748724461	0,040005871236001728	6,28629641E-005	-0,088704262744233958	0,03929054254070473
1	1	0	1	0	0	1	157329,1528	0,0400000028	1,5715915	0,0001111281579784635	0,040006130612799949	6,2873296E-005	-0,080258567455162675	0,047736237829776
1	1	0	1	0	0	1	158089,1529	0,0400000028	1,57189667	0,00011112733001324037	0,040005832545366266	6,28850321E-005	-0,071812815541836403	0,056181989743102298
1	1	0	1	0	0	1	158849,1531	0,0400000028	1,57233536	0,00011112744712767501	0,040005874706556128	6,29026545E-005	-0,063367141213179098	0,064627664071759616
1	1	0	1	0	0	1	159609,1532	0,0400000028	1,57290757	0,0001111275247209188	0,04000590264011952	6,29255883E-005	-0,054921461216189395	0,073073344068749299
1	1	0	1	0	0	1	160369,1533	0,0400000028	1,57372773	0,00011112751289125946	0,040005898381442835	6,29583883E-005	-0,046475780387206835	0,081519024897731814
1	1	0	1	0	0	1	161129,1534	0,0400000028	1,57517731	0,00011112754876270062	0,040005911295159629	6,30164068E-005	-0,038030068781491546	0,08996473650344713
1	1	0	1	0	0	1	161889,1535	0,0400000028	1,58713627	0,00011112865996298691	0,040006311327200102	6,34954704E-005	-0,029584327608667667	0,098410477676270989
1	1	0	1	0	0	1	162433,6736	0,0400000028	2,19521475	4,4209096906499725E-005	0,040006214862195699	8,78222345E-005	-0,023533171656406938	0,10446163362853176
1	1	0	1	0	0	1	162616,2812	0,0400000028	2,95729136	2,9277872269352275E-005	0,040006195876532704	0,000118309981	-0,021503876132516957	0,10649092915242171
1	1	0	1	0	0	1	162811,7553	0,0400000028	3,71965408	2,5057335372393331E-005	0,040006383390887405	0,000148809908	-0,019331595804032909	0,10866320948090576
1	0	0	0	0	0	2	162910,2947	-0,0400000028	3,52521062	-1,0225912466231318E-005	-0,039988354466347392	0,000140967371	-0,019053959642743008	0,0004086154940486368
1	0	0	0	0	0	2	162977,8935	-0,0400000028	2,76303864	-9,9638315550982963E-006	-0,039988615455215955	0,000110490088	-0,019804838243209597	0,0011594940945152197
1	0	0	0	0	0	2	163139,4715	-0,0400000028	2,00080919	-5,1671428840193478E-005	-0,039988201286323974	8,00087582E-005	-0,021599623230360403	0,0029542790816660147
1	0	0	0	0	0	2	163796,5102	-0,0400000028	1,55524564	-0,00011107921275413699	-0,039988510334799309	6,21919535E-005	-0,028897948701017389	0,010252604552322997
1	0	0	0	0	0	2	164556,5103	-0,0400000028	1,55310941	-0,00011107956124697296	-0,039988635792200627	6,21067229E-005	-0,037339955157617658	0,018694611008923302
1	0	0	0	0	0	2	165316,5105	-0,0400000028	1,55249906	-0,00011107891124942237	-0,039988401793119027	6,20819555E-005	-0,045781960962376787	0,027136616813682432
1	0	0	0	0	0	2	166076,5106	-0,0400000028	1,55185056	-0,00011107877579310702	-0,039988353028853133	6,20559513E-005	-0,054223966936668896	0,035578622787974566
1	0	0	0	0	0	2	166836,5107	-0,0400000028	1,55152631	-0,00011107917442276246	-0,039988496535506643	6,20432038E-005	-0,062665970842563341	0,044020626693868998
1	0	0	0	0	0	2	167596,5108	-0,0400000028	1,55101132	-0,00011107907082264622	-0,039988459239470637	6,20225546E-005	-0,07110797435326592	0,052462630204571616
1	0	0	0	0	0	2	168356,5109	-0,0400000028	1,55051541	-0,00011107950632667376	-0,039988616020896013	6,20029678E-005	-0,079549998596721318	0,060904654448026995
1	0	0	0	0	0	2	169116,5111	-0,0400000028	1,54965711	-0,00011107937113009392	-0,039988567350134886	6,1968567E-005	-0,087991999117562598	0,069346654968868275
1	0	0	0	0	0	2	169876,5112	-0,0400000028	1,54900861	-0,00011107890419682694	-0,039988399254185075	6,19423736E-005	-0,096434017159831462	0,077788673011137139
1	0	0	0	0	0	2	170636,5113	-0,0400000028	1,54790235	-0,00011107887822637955	-0,039988389904825478	6,18981212E-005	-0,10487603893188418	0,086230694783189837
1	0	0	0	0	0	2	171396,5114	-0,0400000028	1,54597592	-0,00011107911558469965	-0,039988475353807341	6,18212216E-005	-0,1133180334670584	0,09467268931836407
1	0	0	0	0	0	2	172156,5115	-0,0400000028	1,54267633	-0,00011107899150769744	-0,039988430686093536	6,16892066E-005	-0,12176004482383765	0,10311470067514333
1	1	0	1	0	0	1	172894,6893	0,0400000028	1,5437063	0,00011112842967485387	0,040006228423485184	6,17578698E-005	-0,12850341036291357	0,00072773976273824474
1	1	0	1	0	0	1	173654,6894	0,0400000028	1,56966507	0,00011112877399577862	0,040006352378998694	6,2796571E-005	-0,1200576881634216	0,0091734619622301939
1	1	0	1	0	0	1	174414,6895	0,0400000028	1,57048523	0,00011112754906279346	0,04000591140319303	6,28286944E-005	-0,11161195095038224	0,017619199175269562
1	1	0	1	0	0	1	175174,6896	0,0400000028	1,57092392	0,0001111289107973377	0,04000640162755225	6,28470152E-005	-0,10316620853915226	0,02606494158649953
1	1	0	1	0	0	1	175934,6897	0,0400000028	1,57132447	0,00011112794395494792	0,040006053564346394	6,28624912E-005	-0,094720412260362176	0,034510737865289587
1	1	0	1	0	0	1	176694,6898	0,0400000028	1,57138169	0,0001111282772777809	0,040006173560547494	6,2864965E-005	-0,086274676853286438	0,042956473272365325
1	1	0	1	0	0	1	177454,6900	0,0400000028	1,57189667	0,00011112746075002683	0,040005879610602022	6,28851121E-005	-0,07782893545618231	0,051402214669469421
1	1	0	1	0	0	1	178214,6901	0,0400000028	1,57222092	0,00011112796020735469	0,040006059415211917	6,28983616E-005	-0,069383197382136474	0,059847952743515264
1	1	0	1	0	0	1	178974,6902	0,0400000028	1,57275498	0,0001111285600585656	0,040006275361614061	6,29200658E-005	-0,060937458688045018	0,068293691437606746
1	1	0	1	0	0	1	179734,6903	0,0400000028	1,57323182	0,00011112763155272438	0,040005941099563514	6,29386195E-005	-0,052491734570560461	0,076739415555091341
1	1	0	1	0	0	1	180494,6904	0,0400000028	1,57441437	0,00011112825289058189	0,040006164781157216	6,29862843E-005	-0,044045997544761421	0,085185152580890291
1	1	0	1	0	0	1	181254,6906	0,0400000028	1,57683671	0,00011112764104062485	0,040005944515207149	6,30828436E-005	-0,035600298827321261	0,093630851298330432
1	1	0	1	0	0	1	181995,1785	0,0400000028	1,76476669	6,9334621706356595E-005	0,040005865993608698	7,06010178E-005	-0,027371430750841571	0,10185971937481021
1	1	0	1	0	0	1	182328,5711	0,0400000028	2,52684355	2,1723230297366781E-005	0,04000594272210985	0,000101088757	-0,023666502999147898	0,1055646471265039
1	1	0	1	0	0	1	182513,4292	0,0400000028	3,28861499	3,0431699033619629E-005	0,040006609457604026	0,000131566339	-0,021612208848322934	0,1076189412773288
1	0	0	0	0	0	2	182680,2688	-0,0400000028	3,95638323	-6,5625479074401984E-006	-0,039988437362158432	0,000158209587	-0,01980544723932392	2,3646443783202106E-005
1	0	0	0	0	0	2	182744,5102	-0,0400000028	3,19394422	-9,8527449483258854E-006	-0,039988586492452954	0,000127721316	-0,020519036786854554	0,0007372359913138464
1	0	0	0	0	0	2	182819,1264	-0,0400000028	2,43173409	-1,7097380927039517E-005	-0,039988670567928742	9,72418129E-005	-0,021347870365114349	0,0015660695695736333
1	0	0	0	0	0	2	183179,4219	-0,0400000028	1,67430162	-0,0001110797773156729	-0,03998871357878256	6,69531655E-005	-0,025350010682692013	0,0055682098871512954
1	0	0	0	0	0	2	183939,4220	-0,0400000028	1,55345273	-0,0001110787006498625	-0,039988325977289338	6,21199724E-005	-0,033792024039089984	0,014010223243549258
1	0	0	0	0	0	2	184699,4221	-0,0400000028	1,55263257	-0,0001110794440255397	-0,039988593592491258	6,20875944E-005	-0,042234024027799878	0,022452223232259149
1	0	0	0	0	0	2	185459,4222	-0,0400000028	1,55213666	-0,00011107909727986488	-0,039988468764067859	6,2067571E-005	-0,050676048565774022	0,030894247770233274
1	0	0	0	0	0	2	186219,4223	-0,0400000028	1,55152631	-0,00011107917118403645	-0,039988495369565466	6,20432038E-005	-0,059118080905020966	0,039336280109480224
1	0	0	0	0	0	2	186979,4225	-0,0400000028	1,55099225	-0,00011107945075486269	-0,039988596015047162	6,20220017E-005	-0,067560143494071936	0,047778342698531206
1	0	0	0	0	0	2	187739,4226	-0,0400000028	1,55064893	-0,00011107979575710163	-0,039988720215833754	6,20084684E-005	-0,076002190131444544	0,056220389335903821
1	0	0	0	0	0	2	188499,4227	-0,0400000028	1,55005765	-0,00011107867773912019	-0,039988317729423398	6,19841958E-005	-0,084444205572939405	0,064662404777398694
1	0	0	0	0	0	2	189259,4228	-0,0400000028	1,54925656	-0,00011107986825539006	-0,039988746315213498	6,19528291E-005	-0,092886251188103373	0,073104450392562662
1	0	0	0	0	0	2	190019,4229	-0,0400000028	1,54826474	-0,00011107999269271062	-0,039988791112641894	6,19132334E-005	-0,10132833711991838	0,081546536324377677
1	0	0	0	0	0	2	190779,4231	-0,0400000028	1,54708219	-0,00011107926490178538	-0,039988529107949805	6,18655395E-005	-0,1097704121130635	0,08998861131752279
1	0	0	0	0	0	2	191539,4232	-0,0400000028	1,54483151	-0,00011107940216445262	-0,039988578522502266	6,17756159E-005	-0,11821242797350986	0,098430627177969165
1	0	0	0	0	0	2	192299,4233	-0,0400000028	1,53813684	-0,00011107840466002624	-0,03998821942096496	6,15073513E-005	-0,12665441470919325	0,10687261391365251
1	1	0	1	0	0	1	193039,3110	0,0400000028	1,56821549	0,0001111280725043681	0,040006099842130419	6,27381887E-005	-0,12586621601345394	0,004503830009502153
1	1	0	1	0	0	1	193799,3111	0,0400000028	1,57033265	0,00011112843557881811	0,040006230548911974	6,28230919E-005	-0,11742055796707507	0,012949488055881019
1	1	0	1	0	0	1	194559,3112	0,0400000028	1,57096207	0,00011112729111955397	0,040005818543641344	6,28476264E-005	-0,10897487507982867	0,021395170943127446
1	1	0	1	0	0	1	195319,3114	0,0400000028	1,5712291	0,00011112714255290728	0,040005765059656902	6,28582202E-005	-0,10052916754164157	0,029840878481314528
1	1	0	1	0	0	1	196079,3115	0,0400000028	1,57143891	0,00011112754136551587	0,04000590863217353	6,28668422E-005	-0,092083468174813146	0,038286577848142944
1	1	0	1	0	0	1	196839,3116	0,0400000028	1,57183945	0,00011112797969828048	0,040006066431944115	6,28831112E-005	-0,083637779012056077	0,046732267010899987
1	1	0	1	0	0	1	197599,3117	0,0400000028	1,57225907	0,00011112743342460858	0,040005869773452986	6,28995913E-005	-0,07519206761245097	0,055177978410505101
1	1	0	1	0	0	1	198359,3118	0,0400000028	1,57260239	0,000111126770608748	0,040005631159780512	6,29129499E-005	-0,066746393996469043	0,06362365202648704
1	1	0	1	0	0	1	199119,3120	0,0400000028	1,57326996	0,00011112808268600042	0,040006103507517472	6,29404021E-005	-0,058300721758191181	0,072069324264764877
1	1	0	1	0	0	1	199879,3121	0,0400000028	1,57382309	0,00011112708832240768	0,040005745536680102	6,29619681E-005	-0,049855019224468832	0,080515026798487194
1	1	0	1	0	0	1	200639,3122	0,0400000028	1,57542527	0,00011112848403946394	0,040006247995673203	6,30268551E-005	-0,041409302021949466	0,088960744001006605
1	1	0	1	0	0	1	201399,3123	0,0400000028	1,58202469	0,00011112744263331922	0,040005873088588301	6,32902811E-005	-0,032963563906672518	0,097406482116283443
1	1	0	1	0	0	1	202004,2830	0,0400000028	2,10606575	5,9526300598763763E-005	0,040005721648730106	8,42546797E-005	-0,026240698794690483	0,10412934722826546
1	1	0	1	0	0	1	202212,0206	0,0400000028	2,86823773	2,6419472667285136E-005	0,040005925267752992	0,000114746501	-0,023932170997361773	0,10643787502559418
1	1	0	1	0	0	1	202409,3913	0,0400000028	3,63027644	2,560826910701063E-005	0,040005968747441862	0,000145232727	-0,021738842421297184	0,10863120360165867
1	0	0	0	0	0	2	202518,6973	-0,0400000028	3,61489367	-9,9083199484480755E-006	-0,039988728913797882	0,000144555001	-0,021160024664592618	0,00031786406726721261
1	0	0	0	0	0	2	202585,7297	-0,0400000028	2,85274053	-9,6193674299865958E-006	-0,039988126120861594	0,000114075745	-0,021904612298917021	0,0010624517015916197
1	0	0	0	0	0	2	202726,6707	-0,0400000028	2,09037781	-4,382928312300807E-005	-0,039988188589895757	8,35904211E-005	-0,023470164658581424	0,0026280040612560192
1	0	0	0	0	0	2	203338,4774	-0,0400000028	1,56323743	-0,00011107886723304789	-0,039988385947226694	6,25113389E-005	-0,030266040359927987	0,0094238797626025536
1	0	0	0	0	0	2	204098,4775	-0,0400000028	1,55284238	-0,00011107868548234304	-0,039988320516983194	6,20955616E-005	-0,038708009279044602	0,017865848681719126
1	0	0	0	0	0	2	204858,4777	-0,0400000028	1,55221295	-0,00011107928398624062	-0,039988535978352614	6,20707215E-005	-0,047149982180052781	0,026307821582727318
1	0	0	0	0	0	2	205618,4778	-0,0400000028	1,5516026	-0,0001110783216394484	-0,039988189533561613	6,20457795E-005	-0,055591960303691168	0,034749799706365696
1	0	0	0	0	0	2	206378,4779	-0,0400000028	1,55127835	-0,0001110785801830805	-0,039988282609254611	6,20329592E-005	-0,064033944094886413	0,043191783497560954
1	0	0	0	0	0	2	207138,4780	-0,0400000028	1,55076337	-0,0001110785321423577	-0,039988265314597101	6,20123392E-005	-0,072475899490983155	0,051633738893657709
1	0	0	0	0	0	2	207898,4781	-0,0400000028	1,55019116	-0,00011107972763996157	-0,039988695693667162	6,19901257E-005	-0,080917898756736269	0,060075738159410918
1	0	0	0	0	0	2	208658,4782	-0,0400000028	1,54959989	-0,00011107936457565261	-0,039988564990536384	6,19662751E-005	-0,089359921104902438	0,068517760507577101
1	0	0	0	0	0	2	209418,4784	-0,0400000028	1,54874158	-0,00011107850942243304	-0,03998825713542551	6,19314742E-005	-0,097801897529651917	0,076959736932326579
1	0	0	0	0	0	2	210178,4785	-0,0400000028	1,54761624	-0,00011107868005914821	-0,039988318564633357	6,18865743E-005	-0,10624387858569725	0,085401717988371904
1	0	0	0	0	0	2	210938,4786	-0,0400000028	1,54612851	-0,00011107784139840968	-0,03998801664681472	6,18266131E-005	-0,11468583242315157	0,093843671825826227
1	0	0	0	0	0	2	211698,4787	-0,0400000028	1,54288614	-0,00011107776830117736	-0,0399879903318152	6,16969191E-005	-0,12312774405831446	0,10228558346098914
1	0	0	0	0	0	2	212445,1986	-0,0400000028	1,49995196	-7,4642818268595469E-005	-0,039988407943514042	5,99806917E-005	-0,13142220773993813	0,1105800471426127