File: Experimentelles/Rohdaten/Batterietests/AlteZelle/Studenten_Batterietests/S vs Li GCPL 200µm/ECLab-Export/S vs Li GCPL 200µm_02_GCPL_C05_loop1.mpt
EC-Lab ASCII FILE
Nb header lines : 3
mode	ox/red	error	control changes	Ns changes	counter inc.	Ns	time/s	control/V/mA	Ewe/V	dq/mA.h	<I>/mA	P/W	(Q-Qo)/mA.h	x	Capacity/mA.h
1	0	0	1	1	0	1	48670,84	-0,200000003	3,47697496	0	0	0	0	0	0
1	0	0	1	0	0	1	48810,84	-0,200000003	2,15224242	-0,00055479678731660045	-0,19972684306195594	0,000429860578	-0,0077643822951026842	0,00028969954275330432	0,0077643822951026842
1	0	0	1	0	0	1	48950,84	-0,200000003	2,14096737	-0,00055480464755660954	-0,19972967274835392	0,000427614723	-0,015531554989967882	0,00057950319907348045	0,015531554989967882
1	0	0	1	0	0	1	49090,84	-0,200000003	2,13352036	-0,00055480571943604288	-0,19973005862494918	0,000426128157	-0,02329878331004081	0,00086930893084494566	0,02329878331004081
1	0	0	1	0	0	1	49230,84	-0,200000003	2,1303587	-0,0005547996780334247	-0,19972788372001072	0,000425492035	-0,031066015104333536	0,001159114792244223	0,031066015104333536
1	0	0	1	0	0	1	49370,84	-0,200000003	2,12902546	-0,0005548062682118681	-0,19973025618424592	0,000425230799	-0,038833159740649146	0,0014489174016621885	0,038833159740649146
1	0	0	1	0	0	1	49510,84	-0,200000003	2,11971211	-0,00055477743445667962	-0,19971987603239741	0,000423348654	-0,046600036414936992	0,0017387100130566198	0,046600036414936992
1	0	0	1	0	0	1	49650,84	-0,200000003	2,11634111	-0,00055478557857208781	-0,19972280791393891	0,000422681595	-0,054366985657302848	0,0020285053320636106	0,054366985657302848
1	0	0	1	0	0	1	49790,84	-0,200000003	2,1097703	-0,00055478876955889997	-0,19972395666918912	0,00042137166	-0,062134019078450867	0,002318303791894143	0,062134019078450867
1	0	0	1	0	0	1	49930,84	-0,200000003	2,10643721	-0,0005547860902912087	-0,19972299213282205	0,000420703931	-0,069901035319378765	0,0026081016107075638	0,069901035319378765
1	0	0	1	0	0	1	50070,84	-0,200000003	2,10239959	-0,00055479087718990112	-0,19972471541634813	0,00041990116	-0,07766806143140544	0,0028978997978249517	0,07766806143140544
1	0	0	1	0	0	1	50210,84	-0,200000003	2,09975219	-0,00055479406784557632	-0,19972586405238906	0,000419374817	-0,085435149206875085	0,0031877002856883046	0,085435149206875085
1	0	0	1	0	0	1	50350,84	-0,200000003	2,0960381	-0,00055478252904944954	-0,19972171008579114	0,000418624317	-0,093202121830903821	0,0034774964770965741	0,093202121830903821
1	0	0	1	0	0	1	50490,84	-0,200000003	2,0926671	-0,00055479346421278189	-0,19972564674458349	0,000417959294	-0,10096915530036883	0,003767294938729879	0,10096915530036883
1	0	0	1	0	0	1	50630,84	-0,200000003	2,08794379	-0,00055478869371861222	-0,1997239293666856	0,000417012343	-0,10873627231430259	0,004057096517519639	0,10873627231430259
1	0	0	1	0	0	1	50770,84	-0,200000003	2,0825727	-0,00055479595835175782	-0,19972654463461315	0,000415945047	-0,11650341206440822	0,0043468989446265414	0,11650341206440822
1	0	0	1	0	0	1	50910,84	-0,200000003	2,07668757	-0,00055479159863127597	-0,19972497513524259	0,000414766371	-0,12427052931707848	0,004636700532323881	0,12427052931707848
1	0	0	1	0	0	1	51050,84	-0,200000003	2,07013583	-0,00055480454726517197	-0,19972963664343648	0,000413467467	-0,13203771990217184	0,0049265048561525229	0,13203771990217184
1	0	0	1	0	0	1	51190,84	-0,200000003	2,06567907	-0,0005548072417477767	-0,19973060665717235	0,000412579335	-0,13980492870835712	0,0052163098598346042	0,13980492870835712
1	0	0	1	0	0	1	51330,84	-0,200000003	2,05867028	-0,00055479406598210342	-0,19972586338153882	0,000411169691	-0,14757214415686083	0,0055061151113505152	0,14757214415686083
1	0	0	1	0	0	1	51470,84	-0,200000003	2,05291843	-0,00055480512044827136	-0,19972984298935187	0,000410029083	-0,15533934348622221	0,0057959197614395558	0,15533934348622221
1	0	0	1	0	0	1	51610,84	-0,200000003	2,04642391	-0,00055478124645435149	-0,1997212483515567	0,000408714346	-0,16310646815317299	0,0060857216257736691	0,16310646815317299
1	0	0	1	0	0	1	51750,84	-0,200000003	2,03939581	-0,0005547922229634391	-0,1997251998948209	0,00040731873	-0,17087347724521088	0,006375519177852393	0,17087347724521088
1	0	0	1	0	0	1	51890,84	-0,200000003	2,03312993	-0,00055478964805934163	-0,19972427292934752	0,000406065403	-0,17864053746343494	0,0066653186375178611	0,17864053746343494
1	0	0	1	0	0	1	52030,84	-0,200000003	2,02726364	-0,00055478817882719962	-0,19972374400577741	0,000404892693	-0,18640754688643258	0,0069551162019451379	0,18640754688643258
1	0	0	1	0	0	1	52170,84	-0,200000003	2,02134037	-0,00055478202294972205	-0,19972152788988963	0,000403705199	-0,19417453039016915	0,0072449127992899341	0,19417453039016915
1	0	0	1	0	0	1	52310,84	-0,200000003	2,01728368	-0,0005547877257573936	-0,19972358090064755	0,00040289911	-0,2019415127414433	0,0075347093536348083	0,2019415127414433
1	0	0	1	0	0	1	52450,84	-0,200000003	2,00673223	-0,00055479136609368858	-0,19972489142171126	0,000400794379	-0,20970856447109094	0,0078245084965800781	0,20970856447109094
1	0	0	1	0	0	1	52590,84	-0,200000003	1,99943769	-0,00055478992044428986	-0,19972437098792874	0,000399336423	-0,21747562482070525	0,0081143079611478938	0,21747562482070525
1	0	0	1	0	0	1	52730,84	-0,200000003	1,99065757	-0,00055479281615797011	-0,19972541344485168	0,000397584896	-0,2252427769590825	0,0084041108504778662	0,2252427769590825
1	0	0	1	0	0	1	52870,84	-0,200000003	1,98039186	-0,00055479444593936198	-0,19972600016615165	0,000395535753	-0,23300986287312067	0,0086939112688887091	0,23300986287312067
1	0	0	1	0	0	1	53010,84	-0,200000003	1,97025955	-0,00055478316899389024	-0,19972194046578941	0,000393504073	-0,24077696975479216	0,0089837124696301402	0,24077696975479216
1	0	0	1	0	0	1	53150,84	-0,200000003	1,96007001	-0,00055478734657416742	-0,19972344439468637	0,000391471927	-0,24854397228641661	0,009273509776931017	0,24854397228641661
1	0	0	1	0	0	1	53290,84	-0,200000003	1,9480902	-0,00055478989689466029	-0,19972436251006208	0,000389081077	-0,25631104099021552	0,0095633095532046912	0,25631104099021552
1	0	0	1	0	0	1	53430,84	-0,200000003	1,93822443	-0,00055478804799086515	-0,19972369690469709	0,00038710935	-0,26407809814497018	0,0098531088985679987	0,26407809814497018
1	0	0	1	0	0	1	53570,84	-0,200000003	1,92702544	-0,0005547923193871975	-0,19972523460737386	0,000384875602	-0,27184514748508003	0,010142907952356402	0,27184514748508003
1	0	0	1	0	0	1	53710,84	-0,200000003	1,91529322	-0,00055479371406551866	-0,19972573669156854	0,000382533355	-0,27961223230452435	0,010432708329926474	0,27961223230452435
1	0	0	1	0	0	1	53850,84	-0,200000003	1,9029516	-0,00055479049836264717	-0,19972457903853696	0,000380066194	-0,28737936814403798	0,010722510611123931	0,28737936814403798
1	0	0	1	0	0	1	53990,84	-0,200000003	1,89556181	-0,00055479885862933254	-0,19972758873453811	0,000378595985	-0,29514646874723603	0,011012311577607077	0,29514646874723603
1	0	0	1	0	0	1	54130,84	-0,200000003	1,90586555	-0,0005547955193933513	-0,19972638660958707	0,000380651647	-0,30291371629230528	0,011302118026689003	0,30291371629230528
1	0	0	1	0	0	1	54270,84	-0,200000003	1,89321911	-0,00055478900122642522	-0,19972404006949805	0,00037812136	-0,31068092484694323	0,011591923020985515	0,31068092484694323
1	0	0	1	0	0	1	54410,84	-0,200000003	1,89062893	-0,0005547905863250295	-0,19972461070499456	0,000377605116	-0,31844800462585299	0,011881723210486467	0,31844800462585299
1	0	0	1	0	0	1	54550,84	-0,200000003	1,88948619	-0,00055479516674909325	-0,1997262596576544	0,000377379998	-0,32621518721080109	0,012171527235818931	0,32621518721080109
1	0	0	1	0	0	1	54690,84	-0,200000003	1,8893528	-0,00055479698436044992	-0,1997269139977416	0,00037735459	-0,33398232887351296	0,012461329734287747	0,33398232887351296
1	0	0	1	0	0	1	54830,84	-0,200000003	1,88861001	-0,00055479557982749402	-0,1997264083658784	0,000377205288	-0,34174947266761088	0,012751132312281437	0,34174947266761088
1	0	0	1	0	0	1	54970,84	-0,200000003	1,88788629	-0,00055480462037854726	-0,19972966296425155	0,000377066899	-0,34951663119848851	0,013040935440124194	0,34951663119848851
1	0	0	1	0	0	1	55110,84	-0,200000003	1,88782918	-0,00055480923111322854	-0,1997313228287337	0,000377058634	-0,35728385178633984	0,013330740883396075	0,35728385178633984
1	0	0	1	0	0	1	55250,84	-0,200000003	1,88763869	-0,00055481019407179616	-0,19973166949381741	0,000377021235	-0,36505120043539546	0,013620551104803669	0,36505120043539546
1	0	0	1	0	0	1	55390,84	-0,200000003	1,89110506	-0,00055480307294097216	-0,1997291058867255	0,000377708726	-0,37281844993462035	0,01391035762679777	0,37281844993462035
1	0	0	1	0	0	1	55530,84	-0,200000003	1,88958132	-0,00055479989025162323	-0,19972796011856202	0,000377402233	-0,38058569712724742	0,014200164062729605	0,38058569712724742
1	0	0	1	0	0	1	55670,84	-0,200000003	1,88851476	-0,00055480316710886029	-0,19972913978716518	0,000377191434	-0,38835294950811117	0,014489970692241523	0,38835294950811117
1	0	0	1	0	0	1	55810,84	-0,200000003	1,88824821	-0,00055480047191596698	-0,19972816951772541	0,00037713637	-0,39612019831912262	0,014779777188557456	0,39612019831912262
1	0	0	1	0	0	1	55950,84	-0,200000003	1,88819098	-0,00055481148950010541	-0,19973213584800784	0,000377132412	-0,40388748430723578	0,015069585072001037	0,40388748430723578
1	0	0	1	0	0	1	56090,84	-0,200000003	1,88706732	-0,00055479558727227981	-0,19972641104600131	0,000376897195	-0,41165471955824339	0,015359391062374995	0,41165471955824339
1	0	0	1	0	0	1	56230,84	-0,200000003	1,88596272	-0,00055479258571399578	-0,19972533048502106	0,000376674521	-0,41942193903990035	0,015649196464373277	0,41942193903990035
1	0	0	1	0	0	1	56370,84	-0,200000003	1,88489616	-0,00055479308580193254	-0,19972551051667798	0,00037646186	-0,42718912044722035	0,015939000445766854	0,42718912044722035
1	0	0	1	0	0	1	56510,84	-0,200000003	1,88386762	-0,0005548014623299241	-0,19972852606674928	0,000376262091	-0,43495631136343334	0,016228804781950019	0,43495631136343334
1	0	0	1	0	0	1	56650,84	-0,200000003	1,88531506	-0,00055479461930857766	-0,19972606257906918	0,000376546552	-0,44272345792010957	0,016518607463019222	0,44272345792010957
1	0	0	1	0	0	1	56790,84	-0,200000003	1,88462949	-0,00055479656768176288	-0,19972676399341456	0,000376410957	-0,45049058615774202	0,016808409460580269	0,45049058615774202
1	0	0	1	0	0	1	56930,84	-0,200000003	1,88541031	-0,00055479861208134221	-0,19972749997726176	0,000376568292	-0,45825772235756576	0,017098211755221379	0,45825772235756576
1	0	0	1	0	0	1	57070,84	-0,200000003	1,88192499	-0,00055480283894638227	-0,19972902164867331	0,000375875039	-0,46602491560073146	0,017388016178226275	0,46602491560073146
1	0	0	1	0	0	1	57210,84	-0,200000003	1,88047743	-0,00055480104966792794	-0,19972837750843094	0,000375584699	-0,47379209721348966	0,01767782016728503	0,47379209721348966
1	0	0	1	0	0	1	57350,84	-0,200000003	1,87967753	-0,0005547948269637095	-0,19972613733491648	0,000375420728	-0,4815592808418807	0,017967624231549757	0,4815592808418807
1	0	0	1	0	0	1	57490,84	-0,200000003	1,87870622	-0,00055479316624502342	-0,19972553947619066	0,000375225616	-0,48932639356362432	0,018257425650192131	0,48932639356362432
1	0	0	1	0	0	1	57630,84	-0,200000003	1,87727773	-0,00055479196535547571	-0,19972510715595427	0,000374939496	-0,49709354591728608	0,018547228547554656	0,49709354591728608
1	0	0	1	0	0	1	57770,84	-0,200000003	1,87543035	-0,00055479906866699456	-0,19972766434809629	0,00037457532	-0,50486068140617293	0,018837030815669754	0,50486068140617293
1	0	0	1	0	0	1	57910,84	-0,200000003	1,87438285	-0,00055479723215682643	-0,19972700320443699	0,00037436487	-0,51262786203281261	0,019126834767935104	0,51262786203281261
1	0	0	1	0	0	1	58050,84	-0,200000003	1,8729353	-0,00055479706969029376	-0,19972694471648534	0,000374075637	-0,52039497617826214	0,019416636239697859	0,52039497617826214
1	0	0	1	0	0	1	58190,84	-0,200000003	1,87228775	-0,0005547874716793497	-0,1997234894325519	0,000373939838	-0,52816207255839834	0,019706437048612893	0,52816207255839834
1	0	0	1	0	0	1	58330,84	-0,200000003	1,87129736	-0,0005547988059239255	-0,19972756976059158	0,000373749674	-0,5359291524305785	0,019996237241593888	0,5359291524305785
1	0	0	1	0	0	1	58470,84	-0,200000003	1,87017369	-0,00055478903480950323	-0,19972405215940611	0,000373518676	-0,54369629811810074	0,020286039890233786	0,54369629811810074
1	0	0	1	0	0	1	58610,84	-0,200000003	1,86891663	-0,00055479764252404371	-0,19972715093663494	0,000373273389	-0,55146350472702778	0,020575844811933206	0,55146350472702778
1	0	0	1	0	0	1	58750,84	-0,200000003	1,86790729	-0,00055480948394702541	-0,19973141384890038	0,000373079762	-0,5592307045936489	0,020865649482068128	0,5592307045936489
1	0	0	1	0	0	1	58890,84	-0,200000003	1,86651683	-0,00055479816787027648	-0,19972734006127837	0,000372794428	-0,56699789860626912	0,02115545393378241	0,56699789860626912
1	0	0	1	0	0	1	59030,84	-0,200000003	1,86838341	-0,00055480384609848262	-0,19972938422342877	0,00037317106	-0,57476506932015917	0,021445257516189734	0,57476506932015917
1	0	0	1	0	0	1	59170,84	-0,200000003	1,86506939	-0,00055480335182613798	-0,19972920628538506	0,000372508832	-0,58253226922906893	0,021735062187902502	0,58253226922906893
1	0	0	1	0	0	1	59310,84	-0,200000003	1,86326003	-0,00055479781132770912	-0,19972721170595437	0,000372143724	-0,59029945101467712	0,022024866183410528	0,59029945101467712
1	0	0	1	0	0	1	59450,84	-0,200000003	1,8616221	-0,00055479659459077645	-0,19972677368065942	0,000371815782	-0,59806666282835302	0,022314671299306122	0,59806666282835302
1	0	0	1	0	0	1	59590,84	-0,200000003	1,86004126	-0,000554793502121336	-0,19972566039166291	0,000371497968	-0,60583384424629248	0,02260447528109593	0,60583384424629248
1	0	0	1	0	0	1	59730,84	-0,200000003	1,8583653	-0,00055480312832444902	-0,19972912582477718	0,000371169677	-0,61360105811081216	0,022894280473511267	0,61360105811081216
1	0	0	1	0	0	1	59870,84	-0,200000003	1,85718441	-0,00055479981946862406	-0,1997279346366824	0,000370931608	-0,6213682603283927	0,023184085231363648	0,6213682603283927
1	0	0	1	0	0	1	60010,85	-0,200000003	1,85524178	-0,00055480524540940915	-0,19972988797536141	0,000370547234	-0,62913549830459174	0,02347389132341816	0,62913549830459174
1	0	0	1	0	0	1	60150,85	-0,200000003	1,85345149	-0,00055480427266077862	-0,19972953778585507	0,000370189024	-0,63690270706941798	0,023763696325557078	0,63690270706941798
1	0	0	1	0	0	1	60290,85	-0,200000003	1,85598457	-0,00055480594060652787	-0,19973013824632368	0,000370696042	-0,64467002294925363	0,024053505324301021	0,64467002294925363
1	0	0	1	0	0	1	60430,85	-0,200000003	1,85190868	-0,00055480181678136192	-0,19972865366926669	0,000369879242	-0,65243725271097485	0,02434331110986232	0,65243725271097485
1	0	0	1	0	0	1	60570,85	-0,200000003	1,84992802	-0,00055480510870284499	-0,1997298387609984	0,000369485817	-0,66020448437094118	0,024633116966249699	0,66020448437094118
1	0	0	1	0	0	1	60710,85	-0,200000003	1,84752822	-0,00055479427998761331	-0,19972594042352224	0,000368999317	-0,66797168217119411	0,024922921559285642	0,66797168217119411
1	0	0	1	0	0	1	60850,85	-0,200000003	1,84571886	-0,00055480806463460134	-0,1997309028964287	0,000368647103	-0,67573888151642918	0,025212726209966954	0,67573888151642918
1	0	0	1	0	0	1	60990,85	-0,200000003	1,84356666	-0,00055480862918330554	-0,19973110613396182	0,000368217618	-0,68350616257374886	0,025502533909436	0,68350616257374886
1	0	0	1	0	0	1	61130,85	-0,200000003	1,84137642	-0,00055480653721176915	-0,19973035302421011	0,000367778761	-0,69127339269946086	0,025792339708578288	0,69127339269946086
1	0	0	1	0	0	1	61270,85	-0,200000003	1,83918607	-0,00055479828443709344	-0,19972738202533238	0,00036733583	-0,69904062140286272	0,026082145454652272	0,69904062140286272
1	0	0	1	0	0	1	61410,85	-0,200000003	1,83712912	-0,0005548019420297609	-0,19972869875869024	0,000366927416	-0,70680785188822822	0,026371951267213715	0,70680785188822822
1	0	0	1	0	0	1	61550,85	-0,200000003	1,83484364	-0,00055480362318704525	-0,19972930397531146	0,000366472028	-0,71457513274242138	0,026661758959103837	0,71457513274242138
1	0	0	1	0	0	1	61690,85	-0,200000003	1,83248198	-0,00055479880765742726	-0,19972757038465222	0,00036599717	-0,72234233585128922	0,026951563750211347	0,72234233585128922
1	0	0	1	0	0	1	61830,85	-0,200000003	1,82983458	-0,0005547966359820631	-0,19972678858152259	0,000365466985	-0,73010951669596224	0,027241367710611808	0,73010951669596224
1	0	0	1	0	0	1	61970,85	-0,200000003	1,82817769	-0,00055478740737007718	-0,19972346628121382	0,000365129992	-0,73787667074782246	0,027531170671336403	0,73787667074782246
1	0	0	1	0	0	1	62110,85	-0,200000003	1,8247875	-0,0005548014725769559	-0,19972852975568077	0,000364462117	-0,74564391206465997	0,02782097688803463	0,74564391206465997
1	0	0	1	0	0	1	62250,85	-0,200000003	1,8221972	-0,0005548143357212345	-0,19973316048761242	0,000363953208	-0,7534112440509929	0,028110786487733638	0,7534112440509929
1	0	0	1	0	0	1	62390,85	-0,200000003	1,8219496	-0,00055480294460140998	-0,19972905968448323	0,000363896281	-0,76117852477363853	0,028400594174715546	0,76117852477363853
1	0	0	1	0	0	1	62530,85	-0,200000003	1,81798816	-0,00055480417426509997	-0,19972950236341082	0,000363105879	-0,76894585196751949	0,028690403595601725	0,76894585196751949
1	0	0	1	0	0	1	62670,85	-0,200000003	1,81482649	-0,00055479456433157133	-0,19972604278734694	0,000362468127	-0,77671318680487731	0,028980213301676301	0,77671318680487731
1	0	0	1	0	0	1	62810,85	-0,200000003	1,81132209	-0,00055478686137000717	-0,19972326972118899	0,000361763174	-0,78448029808911181	0,029270014666683277	0,78448029808911181
1	0	0	1	0	0	1	62950,85	-0,200000003	1,80825567	-0,00055478561830272275	-0,19972282221696742	0,000361149927	-0,79224734043432282	0,029559813459482598	0,79224734043432282
1	0	0	1	0	0	1	63090,85	-0,200000003	1,81214106	-0,00055479152889963654	-0,19972495003185245	0,000361929793	-0,80001440253064205	0,02984961298922233	0,80001440253064205
1	0	0	1	0	0	1	63230,85	-0,200000003	1,80465603	-0,00055479782500035232	-0,19972721662810592	0,00036043892	-0,80778146588786778	0,030139412566008166	0,80778146588786778
1	0	0	1	0	0	1	63370,85	-0,200000003	1,79989457	-0,0005547943966007895	-0,1997259824042656	0,000359485712	-0,81554854739795878	0,030429212820101818	0,81554854739795878
1	0	0	1	0	0	1	63510,85	-0,200000003	1,79564714	-0,00055478044743090867	-0,19972096070311786	0,000358628371	-0,82331549676918067	0,030719008143916602	0,82331549676918067
1	0	0	1	0	0	1	63650,85	-0,200000003	1,79279029	-0,00055477376298689184	-0,19971855430327626	0,000358053483	-0,8310824126499063	0,031008802218155942	0,8310824126499063
1	0	0	1	0	0	1	63790,85	-0,200000003	1,78829551	-0,0005547836008336809	-0,19972209592811373	0,00035716212	-0,8388492973939817	0,031298595130644992	0,8388492973939817
1	0	0	1	0	0	1	63930,85	-0,200000003	1,78492439	-0,000554785564881232	-0,19972280298523078	0,000356490113	-0,84661633920792474	0,031588393903621997	0,84661633920792474
1	0	0	1	0	0	1	64070,85	-0,200000003	1,78189611	-0,00055478166066937971	-0,19972139746896662	0,000355882774	-0,8543832928398697	0,03187818938641008	0,8543832928398697
1	0	0	1	0	0	1	64210,85	-0,200000003	1,77692509	-0,00055478667437367968	-0,1997232024025112	0,000354893156	-0,86215026626642522	0,032167985607761702	0,86215026626642522
1	0	0	1	0	0	1	64350,85	-0,200000003	1,78008676	-0,00055478774483998618	-0,19972358777038086	0,000355525321	-0,86991724249543552	0,032457781933676685	0,86991724249543552
1	0	0	1	0	0	1	64490,85	-0,200000003	1,7729255	-0,00055478583602855597	-0,19972290059826726	0,00035409382	-0,87768423389165146	0,032747578825500493	0,87768423389165146
1	0	0	1	0	0	1	64630,85	-0,200000003	1,76325023	-0,00055478175926870778	-0,19972143296472464	0,000352158851	-0,88545116729845734	0,033037373553661453	0,88545116729845734
1	0	0	1	0	0	1	64770,85	-0,200000003	1,75646996	-0,00055477993640469178	-0,1997207767336801	0,000350803544	-0,89321809684135347	0,033327168137654746	0,89321809684135347
1	0	0	1	0	0	1	64910,85	-0,200000003	1,75130844	-0,00055478861668043674	-0,19972390163294246	0,000349778158	-0,90098505842564506	0,033616963917155571	0,90098505842564506
1	0	0	1	0	0	1	65050,85	-0,200000003	1,74536622	-0,00055478334159652384	-0,19972200260273738	0,000348588044	-0,90875200451475725	0,033906759118510432	0,90875200451475725
1	0	0	1	0	0	1	65190,85	-0,200000003	1,73976672	-0,00055477324498113658	-0,19971836782120474	0,000347463356	-0,91651887482259584	0,034196551492364083	0,91651887482259584
1	0	0	1	0	0	1	65330,85	-0,200000003	1,73249125	-0,00055477981222917645	-0,19972073203049469	0,000346014422	-0,92428574875803635	0,034486344001568442	0,92428574875803635
1	0	0	1	0	0	1	65470,85	-0,200000003	1,72534907	-0,00055478394500166176	-0,19972221982858662	0,000344590546	-0,93205267691942054	0,034776138534015654	0,93205267691942054
1	0	0	1	0	0	1	65610,85	-0,200000003	1,71774971	-0,00055479525436047046	-0,19972234474252752	0,000343073014	-0,93981968824960461	0,035065936169602624	0,93981968824960461
1	0	0	1	0	0	1	65750,85	-0,200000003	1,70881724	-0,00055479033903694816	-0,1997205745170248	0,000341285951	-0,94758677224233254	0,035355736516326797	0,94758677224233254
1	0	0	1	0	0	1	65890,85	-0,200000003	1,70007527	-0,00055480315738585261	-0,19972518925259462	0,000339547842	-0,95535390944235802	0,035645538848286778	0,95535390944235802
1	0	0	1	0	0	1	66030,85	-0,200000003	1,6880002	-0,00055480691384192966	-0,19972654207290701	0,000337138452	-0,96312113866648602	0,035935344613789754	0,96312113866648602
1	0	0	1	0	0	1	66170,86	-0,200000003	1,67468715	-0,00055479116516974234	-0,19972087191662746	0,00033446998	-0,97088824132428928	0,036225145656932986	0,97088824132428928
1	0	0	1	0	0	1	66310,86	-0,200000003	1,66480231	-0,00055478714511626291	-0,19971942514447798	0,000332493364	-0,97865534762800435	0,036514946836110086	0,97865534762800435
1	0	0	1	0	0	1	66450,86	-0,200000003	1,64788961	-0,00055478548742996326	-0,1997188287170271	0,000329114584	-0,98642233429486003	0,03680474355147511	0,98642233429486003
1	0	0	1	0	0	1	66590,87	-0,200000003	1,6268059	-0,0005547940467546384	-0,1997219092666865	0,000324908789	-0,99418935790048333	0,037094541645075219	0,99418935790048333
1	0	0	1	0	0	1	66730,87	-0,200000003	1,60073221	-0,00055479399627695475	-0,19972189171818566	0,00031970127	-1,001956462874649	0,037384342774645043	1,001956462874649
1	0	0	1	0	0	1	66870,87	-0,200000003	1,56416416	-0,00055478639452573331	-0,19971915520925146	0,000312393531	-1,0097234946620035	0,037674141173516544	1,0097234946620035
1	0	0	1	0	0	1	67004,25	-0,200000003	1,49996078	-0,00018703682946330973	-0,19971903186857955	0,000299570704	-1,0171227518014645	0,037950217405796864	1,0171227518014645
1	1	0	0	0	0	2	67134,25	0,200000003	2,17130709	0,00055612974714818925	0,20020275253829098	0,000434701651	-1,0098930311503581	0,03768046680784128	0,0072297206511067008
1	1	0	0	0	0	2	67274,25	0,200000003	2,12654948	0,00055613003071645894	0,20020285398692157	0,00042574128	-1,002107096203192	0,037389963106661645	0,015015655598272877
1	1	0	0	0	0	2	67414,25	0,200000003	2,10712266	0,00055613854425483277	0,20020591954830022	0,000421858422	-0,99432119986382118	0,037099460845990758	0,022801551937643859
1	1	0	0	0	0	2	67554,26	0,200000003	2,0970664	0,00055613506582710483	0,20020466701044314	0,000419842487	-0,98653529957820979	0,036808958438080326	0,030587452223255411
1	1	0	0	0	0	2	67694,26	0,200000003	2,09295249	0,00055612515909555885	0,20020110023806086	0,000419011398	-0,97874951409538752	0,036518460313616314	0,038373237706077594
1	1	0	0	0	0	2	67834,26	0,200000003	2,08933401	0,00055612770030481958	0,20020201580343958	0,000418288895	-0,9709637131969824	0,036227961613976179	0,046159038604483014
1	1	0	0	0	0	2	67974,27	0,200000003	2,0887053	0,00055612452860259354	0,20020087348881706	0,000418160635	-0,96317795546729075	0,035937464525018778	0,053944796334174771
1	1	0	0	0	0	2	68114,27	0,200000003	2,08796263	0,00055612927099400096	0,20020258049457299	0,000418015494	-0,95539219285975514	0,035646967254062477	0,061730558941710323
1	1	0	0	0	0	2	68254,27	0,200000003	2,08855295	0,00055612508150604038	0,20020107305450928	0,000418130541	-0,94760642962678451	0,035356469959770336	0,06951632217468073
1	1	0	0	0	0	2	68394,27	0,200000003	2,08748651	0,00055612773160305286	0,20020202633206819	0,000417919015	-0,93982071345032179	0,035065974421219782	0,077302038351143398
1	1	0	0	0	0	2	68534,28	0,200000003	2,08803868	0,00055611671277797882	0,20019805975667302	0,000418021285	-0,93203502635418483	0,034775479967695277	0,085087725447280525
1	1	0	0	0	0	2	68674,28	0,200000003	2,08954334	0,00055611933236569158	0,20019900340488326	0,000418324489	-0,92424935147329523	0,03448498596993808	0,092873400328170086
1	1	0	0	0	0	2	68814,28	0,200000003	2,10468483	0,00055611967208650374	0,20019912495413443	0,000421356061	-0,91646366706121434	0,034194491616559309	0,1006590847402513
1	1	0	0	0	0	2	68954,28	0,200000003	2,10401821	0,00055612178308847872	0,20019988523280762	0,000421224191	-0,90867798612107469	0,033903997392723347	0,10844476568039093
1	1	0	0	0	0	2	69094,29	0,200000003	2,09563804	0,0005561181629531913	0,20019858242237181	0,000419543765	-0,90089233569978317	0,033613504307586637	0,11623041610168251
1	1	0	0	0	0	2	69234,29	0,200000003	2,09649515	0,00055612028878678874	0,2001993469615577	0,000419716962	-0,89310663504216986	0,033323009348065216	0,1240161167592961
1	1	0	0	0	0	2	69374,29	0,200000003	2,09788537	0,00055612226298120282	0,20020005820052698	0,000419996766	-0,88532092239262656	0,033032513941108774	0,13180182940883933
1	1	0	0	0	0	2	69514,30	0,200000003	2,09965682	0,00055612478201505216	0,2002009652375535	0,000420353317	-0,87753515846773082	0,032742016620999981	0,13958759333373518
1	1	0	0	0	0	2	69654,30	0,200000003	2,10681796	0,00055613518304791712	0,20020470878958573	0,000421794888	-0,8697493615807776	0,032451518071032512	0,14737339022068842
1	1	0	0	0	0	2	69794,30	0,200000003	2,10392308	0,00055613183699548243	0,20020350497332717	0,000421212782	-0,8619635391707305	0,032161018568764083	0,15515921263073542
1	1	0	0	0	0	2	69934,30	0,200000003	2,10948443	0,00055612526512642701	0,20020113897708586	0,000422321173	-0,85417770673051584	0,031870518692256627	0,16294504507095034
1	1	0	0	0	0	2	70074,31	0,200000003	2,10963678	0,00055612082187251917	0,20019953886862752	0,000422348297	-0,84639196088389824	0,031580022046672698	0,1707307909175679
1	1	0	0	0	0	2	70214,31	0,200000003	2,10849404	0,00055612373422417382	0,20020058804262192	0,000422121753	-0,83860616929455936	0,031289523694366342	0,17851658250690659
1	1	0	0	0	0	2	70354,31	0,200000003	2,11051273	0,00055613353086262944	0,2002041143875399	0,00042253334	-0,83082037170531021	0,030999025118195264	0,18630238009615565
1	1	0	0	0	0	2	70494,31	0,200000003	2,11114144	0,00055612018731733158	0,2001993104356057	0,000422649056	-0,82303459864135181	0,030708527457095757	0,19408815316011418
1	1	0	0	0	0	2	70634,32	0,200000003	2,11556005	0,00055611611639542707	0,20019784568312765	0,000423530553	-0,81524888486708058	0,030418032008174195	0,2018738669343855
1	1	0	0	0	0	2	70774,32	0,200000003	2,11523628	0,00055612254544595872	0,20020015950157341	0,000423470628	-0,80746317810264998	0,030127536820799213	0,20965957369881613
1	1	0	0	0	0	2	70914,32	0,200000003	2,11668372	0,00055612752324922214	0,20020195131888845	0,000423764199	-0,79967741376080819	0,0298370394851336	0,21744533804065814
1	1	0	0	0	0	2	71054,33	0,200000003	2,11630273	0,00055611108644968941	0,2001960349337841	0,000423675403	-0,79189175204075763	0,029546545978424998	0,2252309997607088
1	1	0	0	0	0	2	71194,33	0,200000003	2,11875963	0,00055612490890754598	0,20020101017273907	0,000424177822	-0,78410607828858214	0,029256052022781645	0,23301667351288422
1	1	0	0	0	0	2	71334,33	0,200000003	2,12005472	0,00055612189923806317	0,2001999268920128	0,000424434809	-0,77632042717925171	0,02896555891197328	0,24080232462221456
1	1	0	0	0	0	2	71474,33	0,200000003	2,12281656	0,00055612240453892288	0,20020010936306042	0,000424988102	-0,76853475169347174	0,028675064891646806	0,24858800010799446
1	1	0	0	0	0	2	71614,34	0,200000003	2,12232137	0,0005561265931543376	0,20020161649018266	0,000424892176	-0,76074901102620314	0,028384568439311357	0,25637374077526298
1	1	0	0	0	0	2	71754,34	0,200000003	2,12512112	0,00055612641233454138	0,20020155178904989	0,000425452541	-0,75296324701771763	0,028094071116083718	0,26415950478374845
1	1	0	0	0	0	2	71894,34	0,200000003	2,12978721	0,0005561261421864231	0,20020145488957075	0,000426386483	-0,74517746939760128	0,027803573284987834	0,27194528240386445
1	1	0	0	0	0	2	72034,35	0,200000003	2,12533045	0,00055612813241697024	0,20020217061261267	0,00042549576	-0,73739162773042701	0,027513073064210106	0,27973112407103888
1	1	0	0	0	0	2	72174,35	0,200000003	2,12704468	0,00055612774679478669	0,20020203238101539	0,000425838662	-0,72960588854783642	0,027222576667269987	0,28751686325362957
1	1	0	0	0	0	2	72314,35	0,200000003	2,12592101	0,00055612756956617037	0,20020196871048861	0,000425613573	-0,72182018582854387	0,026932081630824544	0,29530256597292237
1	1	0	0	0	0	2	72454,35	0,200000003	2,12839699	0,00055612338710245152	0,20020046233548122	0,000426106068	-0,71403443143280371	0,02664158466626136	0,30308832036866214
1	1	0	0	0	0	2	72594,36	0,200000003	2,12969208	0,00055612607024278912	0,20020142899270493	0,000426367391	-0,70624867523277082	0,026351087634377587	0,3108740765686951
1	1	0	0	0	0	2	72734,36	0,200000003	2,13220596	0,00055612078626536666	0,20019952657235661	0,000426866638	-0,69846290522657203	0,026060590087367206	0,31865984657489382
1	1	0	0	0	0	2	72874,36	0,200000003	2,13409162	0,00055613383899794688	0,20020422494349046	0,000427254156	-0,6906771040565161	0,025770091377591408	0,32644564774495002
1	1	0	0	0	0	2	73014,36	0,200000003	2,13622475	0,00055613282881180442	0,20020386202946982	0,000427680439	-0,68289126276817293	0,025479591170948381	0,33423148903329312
1	1	0	0	0	0	2	73154,37	0,200000003	2,14031959	0,00055613133491079014	0,2002033238048576	0,000428499101	-0,67510545105063462	0,025189092067631837	0,34201730075083149
1	1	0	0	0	0	2	73294,37	0,200000003	2,14222407	0,00055613162086572915	0,20020342643167494	0,000428880594	-0,66731961540269312	0,024898592071439779	0,34980313639877299
1	1	0	0	0	0	2	73434,37	0,200000003	2,14490962	0,00055612427288873325	0,20020078195803126	0,000429412583	-0,65953384104689498	0,024608094362139994	0,35758891075457107
1	1	0	0	0	0	2	73574,38	0,200000003	2,14294791	0,00055612771463311379	0,20020202032526643	0,000429022504	-0,65174805059805133	0,024317596052387046	0,36537470120341459
1	1	0	0	0	0	2	73714,38	0,200000003	2,14250994	0,00055612489883518886	0,20020100657647731	0,000428932632	-0,6439623369995017	0,024027100610021894	0,3731604148019639
1	1	0	0	0	0	2	73854,38	0,200000003	2,14071965	0,00055612822802116467	0,20020220577523904	0,000428576808	-0,63617654873323277	0,023736602381703744	0,38094620306823283
1	1	0	0	0	0	2	73994,38	0,200000003	2,14266229	0,00055612853742970362	0,20020231641431491	0,000428965956	-0,6283907674270793	0,023446104413076861	0,38873198437438618
1	1	0	0	0	0	2	74134,39	0,200000003	2,1443572	0,00055612255277567437	0,20020016222615942	0,00042930065	-0,62060504589897139	0,023155608674849222	0,39651770590249408
1	1	0	0	0	0	2	74274,39	0,200000003	2,14449072	0,00055612902006092998	0,20020249090391994	0,000429332373	-0,61281929931636813	0,022865112001804685	0,40430345248509734
1	1	0	0	0	0	2	74414,39	0,200000003	2,1443572	0,00055613118130713702	0,20020326819137875	0,000429307314	-0,6050335220389737	0,022574614183496218	0,41208922976249171
1	1	0	0	0	0	2	74554,40	0,200000003	2,14510012	0,00055613219042287936	0,20020363190635501	0,000429456821	-0,59724769993430259	0,022284114692621782	0,41987505186716262
1	1	0	0	0	0	2	74694,40	0,200000003	2,14574766	0,00055613106926447821	0,2002032286026192	0,000429585605	-0,58946182694395366	0,021993613303134294	0,42766092485751181
1	1	0	0	0	0	2	74834,40	0,200000003	2,14772844	0,00055613046200076736	0,20020300924853443	0,000429981708	-0,58167599229338496	0,021703113344155555	0,43544675950808051
1	1	0	0	0	0	2	74974,40	0,200000003	2,14774752	0,0005561350349792176	0,20020465613149555	0,000429989042	-0,57389014429824192	0,0214126128872728	0,44323260750322336
1	1	0	0	0	0	2	75114,41	0,200000003	2,14927101	0,00055612141373339622	0,200199752605832	0,000430283515	-0,56610432931852538	0,021122113662240003	0,45101842248293965
1	1	0	0	0	0	2	75254,41	0,200000003	2,15178514	0,00055613780342290803	0,20020565210826816	0,000430799555	-0,55831851085060045	0,020831614307057462	0,45880424095086464
1	1	0	0	0	0	2	75394,41	0,200000003	2,15500379	0,00055612370148632256	0,20020057625722838	0,000431433	-0,55053278329260525	0,020541118343846624	0,4665899685088599
1	1	0	0	0	0	2	75534,41	0,200000003	2,15578485	0,00055612461067736154	0,2002009032778232	0,000431590073	-0,54274698623026861	0,02025061978733536	0,47437576557119648
1	1	0	0	0	0	2	75674,42	0,200000003	2,15622282	0,00055612510868989754	0,2002010820947121	0,000431678141	-0,53496123190880282	0,019960122825543456	0,4821615198926624
1	1	0	0	0	0	2	75814,42	0,200000003	2,15561342	0,0005561393726368745	0,20020621775761142	0,000431567198	-0,5271753852276384	0,019669622417687014	0,48994736657382669
1	1	0	0	0	0	2	75954,42	0,200000003	2,1549468	0,00055612771897431878	0,20020202203722858	0,000431424705	-0,51938959700678752	0,019379124191063472	0,4977331547946777
1	1	0	0	0	0	2	76094,43	0,200000003	2,15553713	0,00055612875998516877	0,20020239653502941	0,000431543711	-0,51160384005788109	0,019088627131238218	0,50551891174358419
1	1	0	0	0	0	2	76234,43	0,200000003	2,16494584	0,00055613163371549702	0,20020343180097046	0,000433429581	-0,50381802545096045	0,018798127920114938	0,51330472635050483
1	1	0	0	0	0	2	76374,43	0,200000003	2,16683125	0,00055612967689086989	0,20020272666816195	0,000433805515	-0,49603221848580634	0,018507628994116243	0,52109053331565888
1	1	0	0	0	0	2	76514,43	0,200000003	2,15970826	0,00055613308960364928	0,2002039552507784	0,000432382134	-0,48824632769745075	0,01821712694056119	0,52887642410401478
1	1	0	0	0	0	2	76654,44	0,200000003	2,15902257	0,00055612675512830419	0,20020167554428746	0,000432239933	-0,48046052787327917	0,017926628281002157	0,5366622239281865
1	1	0	0	0	0	2	76794,44	0,200000003	2,16147947	0,00055613132947600544	0,20020332153111712	0,000432735367	-0,47267469167905952	0,017636128264427722	0,54444806012240621
1	1	0	0	0	0	2	76934,44	0,200000003	2,16277456	0,00055612812184956333	0,20020216709974813	0,00043299215	-0,46488885619583546	0,017345628274381491	0,55223389560563027
1	1	0	0	0	0	2	77074,44	0,200000003	2,16475534	0,00055612416168799002	0,20020074192422416	0,000433385634	-0,45710307366192582	0,017055130259945373	0,5600196781395401
1	1	0	0	0	0	2	77214,45	0,200000003	2,16816449	0,00055612363969700205	0,20020055326772211	0,000434067741	-0,44931729275128998	0,016764632306075782	0,56780545905017632
1	1	0	0	0	0	2	77354,45	0,200000003	2,16869783	0,00055612697749253773	0,20020175534445446	0,000434177113	-0,44153154087771731	0,016474135435618061	0,57559121092374874
1	1	0	0	0	0	2	77494,45	0,200000003	2,16845036	0,00055612885964165139	0,20020243315441219	0,000434129033	-0,43374567996256493	0,016183634496672387	0,58337707183890125
1	1	0	0	0	0	2	77634,46	0,200000003	2,16742182	0,00055613237967756051	0,20020369959853501	0,000433925859	-0,42595986783986726	0,015893135378238803	0,5911628839615991
1	1	0	0	0	0	2	77774,46	0,200000003	2,16492677	0,00055614079349984723	0,20020672921389091	0,000433432899	-0,4181739612062153	0,015602632733474445	0,59894879059525082
1	1	0	0	0	0	2	77914,46	0,200000003	2,16386032	0,00055612676879515245	0,20020168033432419	0,000433208479	-0,41038810111694138	0,015312131825343414	0,6067346506845248
1	1	0	0	0	0	2	78054,46	0,200000003	2,16357446	0,00055612776930630208	0,20020203989768646	0,000433152018	-0,40260231680779091	0,015021633744670672	0,61452043499367514
1	1	0	0	0	0	2	78194,47	0,200000003	2,16477442	0,00055613600365651981	0,20020500494865078	0,000433398673	-0,39481646456492211	0,014731133129299558	0,62230628723654387
1	1	0	0	0	0	2	78334,47	0,200000003	2,16595531	0,0005561256228528089	0,20020126760804499	0,000433626992	-0,38703061952514714	0,014440632782685565	0,63009213227631885
1	1	0	0	0	0	2	78474,47	0,200000003	2,17119288	0,00055612611398349203	0,20020144399325306	0,000434675952	-0,37924483765052851	0,014150134792848482	0,63787791415093747
1	1	0	0	0	0	2	78614,48	0,200000003	2,16885018	0,00055612686472800045	0,2002017149993984	0,000434207526	-0,37145904086838093	0,013859636246791446	0,64566371093308518
1	1	0	0	0	0	2	78754,48	0,200000003	2,17138338	0,00055613185384041741	0,20020351050366976	0,00043471859	-0,36367321870879008	0,013569136753867886	0,6534495330926761
1	1	0	0	0	0	2	78894,48	0,200000003	2,16865969	0,00055612670612086861	0,20020165715849533	0,000434169255	-0,35588741257363232	0,013278637858837469	0,66123533922783373
1	1	0	0	0	0	2	79034,48	0,200000003	2,32742572	0,00055612789611766726	0,20020208629234115	0,000465955498	-0,34810170594506054	0,012988142676531558	0,66902104585640538
1	1	0	0	0	0	2	79174,49	0,200000003	2,29982829	0,00055612558218671226	0,20020125255951866	0,000460428506	-0,3403159026403568	0,012697643887109187	0,67680684916110925
1	1	0	0	0	0	2	79314,49	0,200000003	2,32384515	0,00055612391904824314	0,20020065397201699	0,000465235324	-0,3325301576574073	0,012407147273749878	0,68459259414405888
1	1	0	0	0	0	2	79454,49	0,200000003	2,30112338	0,00055613019062247546	0,2002029122977489	0,000460691605	-0,32474440908975002	0,012116650526640302	0,69237834271171622
1	1	0	0	0	0	2	79594,49	0,200000003	2,2824204	0,00055613044239415066	0,20020300219029194	0,000456947426	-0,31695860836967757	0,011826151833653998	0,7001641434317888
1	1	0	0	0	0	2	79734,50	0,200000003	2,27002168	0,00055613044817166195	0,2002030046150872	0,00045446516	-0,30917281210142214	0,011535653306770973	0,70794993970004403
1	1	0	0	0	0	2	79874,50	0,200000003	2,26339364	0,00055612553519590035	0,20020123637759203	0,000453134213	-0,3013869410741785	0,011245151990529581	0,71573581072728768
1	1	0	0	0	0	2	80014,50	0,200000003	2,26036549	0,00055612528782917402	0,20020114658357693	0,000452527776	-0,29360112108209914	0,010954652578478787	0,7235216307193673
1	1	0	0	0	0	2	80154,51	0,200000003	2,25394702	0,00055612485071768365	0,20020098976724986	0,000451242435	-0,28581533262825277	0,010664154343161867	0,73130741917321357
1	1	0	0	0	0	2	80294,51	0,200000003	2,24754763	0,00055612627788881459	0,20020150374146627	0,000449962419	-0,27802951955454237	0,010373655189244722	0,73909323224692416
1	1	0	0	0	0	2	80434,51	0,200000003	2,23964357	0,00055613292681260237	0,20020389656325702	0,00044838537	-0,27024373760932467	0,01008315719677349	0,74687901419214195
1	1	0	0	0	0	2	80574,51	0,200000003	2,23600578	0,00055612479432506694	0,20020096966907126	0,000447650527	-0,26245797324718074	0,0097926598603503821	0,75466477855428621
1	1	0	0	0	0	2	80714,52	0,200000003	2,22836852	0,00055613755697011949	0,20020556395336669	0,000446131773	-0,25467212816022544	0,0095021595119760269	0,76245062364124147
1	1	0	0	0	0	2	80854,52	0,200000003	2,22652102	0,00055614206990351283	0,20020718801092832	0,000445765501	-0,24688625468077795	0,0092116581042396122	0,77023649712068902
1	1	0	0	0	0	2	80994,52	0,200000003	2,22457838	0,00055614567631896998	0,20020848703832122	0,000445379468	-0,23910021816373904	0,008921150613351456	0,77802253363772787
1	1	0	0	0	0	2	81134,53	0,200000003	2,22534013	0,00055613984842184525	0,20020638864526474	0,000445527316	-0,23131422810181597	0,0086306448557661325	0,78580852369965094
1	1	0	0	0	0	2	81274,53	0,200000003	2,2235117	0,00055614395207497805	0,20020786557926346	0,000445164536	-0,22352826929279203	0,0083401402642684954	0,79359448250867482
1	1	0	0	0	0	2	81414,53	0,200000003	2,22402596	0,00055613868286129504	0,20020596944330992	0,000445263286	-0,21574233208697734	0,0080496364788156403	0,80138041971448947
1	1	0	0	0	0	2	81554,53	0,200000003	2,22406411	0,00055612980149272422	0,2002027716288209	0,00044526381	-0,2079564304098217	0,007759134018984823	0,80916632139164531
1	1	0	0	0	0	2	81694,54	0,200000003	2,22423553	0,00055613408511711494	0,20020431354463978	0,000445301557	-0,20017054992676058	0,0074686323499341683	0,81695220187470643
1	1	0	0	0	0	2	81834,54	0,200000003	2,22408319	0,00055612596874187392	0,20020139245571946	0,000445264537	-0,1923847430021633	0,0071781334254486989	0,82473800879930381
1	1	0	0	0	0	2	81974,54	0,200000003	2,21789312	0,00055613111594816051	0,20020324466494291	0,0004440294	-0,18459889692407958	0,0068876330400940096	0,8325238548773879
1	1	0	0	0	0	2	82114,54	0,200000003	2,21726465	0,00055612437748991776	0,20020081906369235	0,0004438982	-0,17681313964705363	0,0065971359680261811	0,84030961215441382
1	1	0	0	0	0	2	82254,55	0,200000003	2,2179122	0,00055612375702874528	0,20020059625006618	0,000444027333	-0,16902735150393546	0,0063066377443029491	0,84809540029753203
1	1	0	0	0	0	2	82394,55	0,200000003	2,21928358	0,00055612728239761466	0,20020186461402352	0,000444304722	-0,16124157330888621	0,0060161398917555456	0,85588117849258112
1	1	0	0	0	0	2	82534,55	0,200000003	2,21916938	0,0005561299417747392	0,20020282236007968	0,000444283971	-0,15345575985452058	0,005725640723635641	0,86366699194694669
1	1	0	0	0	0	2	82674,56	0,200000003	2,21838832	0,00055612884070972595	0,20020242633876243	0,000444126723	-0,14566997880104704	0,0054351427644365824	0,87145277300042035
1	1	0	0	0	0	2	82814,56	0,200000003	2,21865511	0,00055613780330452646	0,20020565206565165	0,000444187288	-0,13788412346504573	0,0051446420336565402	0,87923862833642176
1	1	0	0	0	0	2	82954,56	0,200000003	2,22107387	0,00055612969874093926	0,20020273508405792	0,000444665056	-0,13009825612706469	0,0048541408550664966	0,88702449567440282
1	1	0	0	0	0	2	83094,56	0,200000003	2,22225475	0,00055613686799754694	0,20020531607730381	0,000444907229	-0,1223124125101321	0,0045636405615406643	0,89481033929133542
1	1	0	0	0	0	2	83234,57	0,200000003	2,22234988	0,00055613417167216531	0,20020434470384205	0,00044492411	-0,11452656442178072	0,0042731401011801856	0,90259618737968678
1	1	0	0	0	0	2	83374,57	0,200000003	2,22431159	0,00055613178677525786	0,20020348690139549	0,000445314945	-0,10674064398850285	0,0039826369415332301	0,91038210781296474
1	1	0	0	0	0	2	83514,57	0,200000003	2,22636867	0,00055613336191491955	0,20020405370041261	0,000445728045	-0,098954742786107277	0,0036921344994163494	0,91816800901536038
1	1	0	0	0	0	2	83654,57	0,200000003	2,22766376	0,00055614014426784384	0,20020649479578912	0,000445992744	-0,091168811598683712	0,0034016309385177594	0,92595394020278387
1	1	0	0	0	0	2	83794,58	0,200000003	2,22951126	0,00055613242158293728	0,20020371542764403	0,000446356426	-0,083382894336192461	0,0031111278971771162	0,93373985746527526
1	1	0	0	0	0	2	83934,58	0,200000003	2,23179674	0,00055613018992294874	0,20020291161009786	0,000446812192	-0,075597033419992666	0,0028206269581923651	0,94152571838147507
1	1	0	0	0	0	2	84074,58	0,200000003	2,23103476	0,00055613091634793421	0,20020317281028166	0,00044666024	-0,067811233817678669	0,0025301283069111309	0,94931151798378906
1	1	0	0	0	0	2	84214,59	0,200000003	2,23568201	0,00055612685133434003	0,2002017101780673	0,000447587372	-0,060025482852772992	0,0022396314703569949	0,95709726894869478
1	1	0	0	0	0	2	84354,59	0,200000003	2,23726273	0,00055613242478089197	0,20020371593796122	0,0004479083	-0,052239738275248422	0,0019491348721246358	0,96488301352621926
1	1	0	0	0	0	2	84494,59	0,200000003	2,23535824	0,00055612282797859782	0,2002002611014841	0,000447519298	-0,044453967100424346	0,001658637281511272	0,97266878470104346
1	1	0	0	0	0	2	84634,59	0,200000003	2,2367487	0,0005561194083881047	0,2001990307706632	0,000447794911	-0,03666826177084144	0,0013681421476723858	0,98045449003062618
1	1	0	0	0	0	2	84774,60	0,200000003	2,23848176	0,00055612933542993331	0,20020260369105018	0,000448149891	-0,028882476592631264	0,0010776440345738586	0,98824027520883622
1	1	0	0	0	0	2	84914,60	0,200000003	2,24038625	0,00055612610518270067	0,20020144106508314	0,000448528561	-0,021096659365411718	0,00078714472568370138	0,99602609243605594
1	1	0	0	0	0	2	85054,60	0,200000003	2,243186	0,00055613163451684845	0,20020343209061658	0,000449093524	-0,013310812192509859	0,00049664429947987469	1,0038119396089582
1	1	0	0	0	0	2	85194,61	0,200000003	2,24590969	0,00055612608268443078	0,2002014327258137	0,000449634332	-0,0055249634892529491	0,00020614381617644349	1,0115977883122152
1	1	0	0	0	0	2	85334,61	0,200000003	2,24924254	0,00055612927108009658	0,20020258098003744	0,000450304156	0,0022608360931795926	-8,435483436298688E-005	1,0193835878946474
1	1	0	0	0	0	2	85474,61	0,200000003	2,25282335	0,00055613246928983258	0,20020373260178698	0,000451023632	0,010046644832584304	-0,00037485382656136058	1,0271693966340523
1	1	0	0	0	0	2	85614,61	0,200000003	2,25827026	0,00055613016065292883	0,20020290076545677	0,000452112261	0,017832470279502912	-0,00066535344213954125	1,0349552220809706
1	1	0	0	0	0	2	85754,62	0,200000003	2,26190805	0,00055612572668906707	0,20020130522025427	0,000452836946	0,025618292835545741	-0,00095585294985525978	1,0427410446370141
1	1	0	0	0	0	2	85894,62	0,200000003	2,26518393	0,0005561245101119081	0,20020086727278502	0,000453491783	0,033404185141534976	-0,0012463550600352584	1,0505269369430037
1	1	0	0	0	0	2	86034,62	0,200000003	2,26912642	0,00055614047533108134	0,20020661397619898	0,000454294117	0,041190047698120826	-0,0015368560602250182	1,0583127994995898
1	1	0	0	0	0	2	86174,62	0,200000003	2,27541161	0,00055612827534725274	0,20020222281229405	0,000455542468	0,048975897551262278	-0,0018273565864321878	1,0660986493527312
1	1	0	0	0	0	2	86314,63	0,200000003	2,28293467	0,00055612466091662643	0,20020092135631802	0,000457045622	0,056761692889290285	-0,0021178550786071786	1,0738844446907597
1	1	0	0	0	0	2	86454,63	0,200000003	2,29169583	0,00055613419111735283	0,20020435170397123	0,000458807481	0,064547533733362688	-0,0024083552686738691	1,0816702855348318
1	1	0	0	0	0	2	86594,63	0,200000003	2,30274248	0,00055613931130948998	0,20020619568048064	0,000461023301	0,072333424360962944	-0,0026988573162309184	1,0894561761624322
1	1	0	0	0	0	2	86734,64	0,200000003	2,31927419	0,00055612715028226374	0,20020181730514307	0,000464322919	0,080119223565286797	-0,0029893559526626048	1,0972419753667562
1	1	0	0	0	0	2	86874,64	0,200000003	2,33555841	0,00055611601355589094	0,2001978079111849	0,000467573671	0,087904910946406157	-0,0032798504168201843	1,1050276627478758
1	1	0	0	0	0	2	87014,64	0,200000003	2,35441375	0,00055612657078024416	0,20020160918029731	0,000471357431	0,095690619634537792	-0,0035703456759710394	1,1128133714360078
1	1	0	0	0	0	2	87154,64	0,200000003	2,38707733	0,00055613688500059974	0,20020532152938512	0,000477905589	0,10347644721208819	-0,0038608453710459571	1,1205991990135578
1	1	0	0	0	0	2	87294,65	0,200000003	2,46009898	0,00055613314658900102	0,20020397577209152	0,00049252162	0,1112622624577687	-0,0041513446060022278	1,1283850142592382
1	1	0	0	0	0	2	87434,65	0,200000003	2,69436264	0,0005561373336546951	0,20020548373853226	0,000539426168	0,1190481490354229	-0,0044418465024503456	1,1361709008368925
1	1	0	0	0	0	2	87574,65	0,200000003	2,97290778	0,00055613107247071136	0,20020322901337056	0,000595185731	0,12683405442090304	-0,004732349100643735	1,1439568062223723
1	1	0	0	0	0	2	87714,66	0,200000003	3,48817372	0,00055613371541351078	0,20020418074996381	0,000698346936	0,13461990508999653	-0,0050228496572951718	1,1517426568914658
1	1	0	0	0	0	2	87718,83	0,200000003	3,49998212	0,00023208050451344912	0,20020368351988355	0,000700709294	0,13485198559450998	-0,0050315088929541254	1,1519747373959792