File: Experimentelles/Rohdaten/Batterietests/AlteZelle/Studenten_Batterietests/LiNiMnO_LATP_LTO-Spinell/ZView-Export/LiNiMnO-LATP-LTO_Spinell_04_GCPL_C01.txt
EC-Lab ASCII FILE
Nb header lines : 71

Galvanostatic Cycling with Potential Limitation

Run on channel : 1 (SN 6985)
Grouped channel(s) : 1
User :
CE vs. WE compliance from -10 V to 10 V
Electrode connection : standard
Ewe ctrl range : min = -5,00 V, max = 5,00 V
Acquisition started on : 02.09.2015 13:33:11
Saved on :
	File : LiNiMnO-LATP-LTO_Spinell_04_GCPL_C01.mpr
	Directory : C:\Hupfer\Studenten Batterietests\LiNiMnO_LATP_LTO-Spinell\
	Host : 192.168.0.2
Device : VMP3 (SN 0324)
Address : 192.168.0.1
EC-Lab for windows v10.33 (software)
Internet server v10.33 (firmware)
Command interpretor v10.32 (firmware)
Electrode material :
Initial state :
Electrolyte :
Comments :
Mass of active material : 0,001 mg
 at x = 0,000
Molecular weight of active material (at x = 0) : 0,001 g/mol
Atomic weight of intercalated ion : 0,001 g/mol
Acquisition started at : xo = 0,000
Number of e- transfered per intercalated ion : 1
for DX = 1, DQ = 26,801 mA.h
Battery capacity : 0,000 A.h
Electrode surface area : 0,001 cm²
Characteristic mass : 0,001 g
Ns                  0                   1
Set I/C             I                   I
Is                  0,000               500,000
unit Is             mA                  nA
vs.                 <None>              <None>
N                   1                   1
I sign              > 0                 > 0
t1 (h:m:s)          0:00:0,0000         10:00:0,0000
I Range             1 mA                1 mA
Bandwidth           5                   5
dE1 (mV)            0,00                0,00
dt1 (s)             0,0000              10,0000
EM (V)              0,000               3,000
tM (h:m:s)          0:00:0,0000         0:00:0,0000
Im                  0,000               0,000
unit Im             mA                  mA
E range min (V)     -5,000              -5,000
E range max (V)     5,000               5,000
dq                  0,000               1,000
unit dq             mA.h                mA.h
dtq (s)             0,0000              120,0000
dQM                 0,000               0,000
unit dQM            mA.h                mA.h
dxM                 0,000               0,000
tR (h:m:s)          0:00:0,0000         0:00:0,0000
dER/dt (mV/h)       0,0                 0,1
dER (mV)            0,00                5,00
dtR (s)             1,0000              120,0000
EL (V)              pass                4,200
goto Ns'            0                   0
nc cycles           0                   0

Number of loops : 1
Loop 0 from point number 0 to 3600

mode	ox/red	error	control changes	Ns changes	counter inc.	Ns	time/s	control/V/mA	Ewe/V	dq/mA.h	<I>/mA	P/W	(Q-Qo)/mA.h	x	Capacity/mA.h
1	1	0	1	1	0	1	1213,4370	0,000500000024	0,450066209	0	0	0	0	0	0
1	1	0	1	0	0	1	1353,4370	0,000500000024	1,13139164	1,8958335645859027E-006	0,00068250010049232768	7,72174928E-007	2,6543335360492669E-005	-9,9036753019393203E-007	2,6543335360492669E-005
1	1	0	1	0	0	1	1493,4370	0,000500000024	1,25123131	1,8943217596517773E-006	0,00068195585070229363	8,53284519E-007	5,3064728558091002E-005	-1,9799163687887248E-006	5,3064728558091002E-005
1	1	0	1	0	0	1	1633,4370	0,000500000024	1,33670008	1,8966652518558675E-006	0,00068279950791707878	9,12698169E-007	7,9636519756221491E-005	-2,9713456245442048E-006	7,9636519756221491E-005
1	1	0	1	0	0	1	1773,4370	0,000500000024	1,41430175	1,9002089339030339E-006	0,00068407523348628608	9,67488745E-007	0,0001062272496885481	-3,9634815099359411E-006	0,0001062272496885481
1	1	0	1	0	0	1	1913,4370	0,000500000024	1,46994436	1,8996206756597126E-006	0,00068386346051334067	1,00524119E-006	0,00013280820605793432	-4,9552527305536762E-006	0,00013280820605793432
1	1	0	1	0	0	1	2053,4369	0,000500000024	1,51239228	1,8968263610925837E-006	0,00068285750724376166	1,0327484E-006	0,00015936374083870998	-5,9460754375206618E-006	0,00015936374083870998
1	1	0	1	0	0	1	2193,4369	0,000500000024	1,54569387	1,8914306384265526E-006	0,00068091504703491994	1,05248625E-006	0,00018591381771567427	-6,9366945027582144E-006	0,00018591381771567427
1	1	0	1	0	0	1	2333,4369	0,000500000024	1,56425405	1,901143787208841E-006	0,00068441178068487859	1,07059395E-006	0,00021241992962755059	-7,9256731760368128E-006	0,00021241992962755059
1	1	0	1	0	0	1	2473,4369	0,000500000024	1,57296133	1,8894630651824019E-006	0,0006802067206491319	1,06993889E-006	0,0002389600336744576	-8,9159201415763162E-006	0,0002389600336744576
1	1	0	1	0	0	1	2613,4369	0,000500000024	1,58170676	1,891913610523463E-006	0,00068108891699419994	1,07728295E-006	0,0002654584279207031	-9,9046108583737165E-006	0,0002654584279207031
1	1	0	1	0	0	1	2753,4369	0,000500000024	1,5871489	1,8936165560056301E-006	0,0006817019773832672	1,08196252E-006	0,00029193073353573466	-1,0892328173263984E-005	0,00029193073353573466
1	1	0	1	0	0	1	2893,4369	0,000500000024	1,59992337	1,8860921511336022E-006	0,00067899319156090765	1,08633708E-006	0,0003183977003099847	-1,1879846288826547E-005	0,0003183977003099847
1	1	0	1	0	0	1	3033,4369	0,000500000024	1,60882163	1,8953431728522346E-006	0,00068232355946374746	1,09773691E-006	0,00034487021897001901	-1,2867571552712315E-005	0,00034487021897001901
1	1	0	1	0	0	1	3173,4369	0,000500000024	1,60599554	1,8929230115415216E-006	0,00068145230136988096	1,0944093E-006	0,00037133636677675379	-1,385505911149577E-005	0,00037133636677675379
1	1	0	1	0	0	1	3313,4369	0,000500000024	1,61821628	1,8908681715288874E-006	0,00068071255894664499	1,10154019E-006	0,00039784050016194266	-1,4843963963283501E-005	0,00039784050016194266
1	1	0	1	0	0	1	3453,4369	0,000500000024	1,61974382	1,8926930079340109E-006	0,00068136950006908518	1,10364408E-006	0,0004243454394414391	-1,5832898884071382E-005	0,0004243454394414391
1	1	0	1	0	0	1	3593,4369	0,000500000024	1,61724246	1,8925241264579299E-006	0,00068130870273616038	1,10184135E-006	0,0004508420282831568	-1,6821522238798458E-005	0,0004508420282831568
1	1	0	1	0	0	1	3733,4369	0,000500000024	1,62207341	1,8861765919039802E-006	0,00067902359023901158	1,10142616E-006	0,00047724739117864294	-1,7806741830817046E-005	0,00047724739117864294
1	1	0	1	0	0	1	3873,4369	0,000500000024	1,62465131	1,8894722507555142E-006	0,00068021002745553574	1,10510416E-006	0,00050367544741294912	-1,8792808141818525E-005	0,00050367544741294912
1	1	0	1	0	0	1	4013,4369	0,000500000024	1,62123322	1,8815800522926214E-006	0,00067736883593711962	1,0981729E-006	0,0005301055574275104	-1,9778951082122659E-005	0,0005301055574275104
1	1	0	1	0	0	1	4153,4369	0,000500000024	1,62493765	1,8884791011449933E-006	0,00067985248464330317	1,10471785E-006	0,00055652909308363923	-2,0764848724274362E-005	0,00055652909308363923
1	1	0	1	0	0	1	4293,4369	0,000500000024	1,62482309	1,8919927514151725E-006	0,00068111739875588211	1,10669532E-006	0,00058296922221429773	-2,1751365491270931E-005	0,00058296922221429773
1	1	0	1	0	0	1	4433,4369	0,000500000024	1,63097167	1,8911571774030259E-006	0,00068081659210786752	1,11039253E-006	0,0006094197477942752	-2,2738270163769766E-005	0,0006094197477942752
1	1	0	1	0	0	1	4573,4369	0,000500000024	1,62237895	1,887326256779488E-006	0,00067943746066669645	1,10230508E-006	0,00063584694054435494	-2,3724304257013792E-005	0,00063584694054435494
1	1	0	1	0	0	1	4713,4369	0,000500000024	1,62425029	1,8876205621539459E-006	0,00067954341060278413	1,10374856E-006	0,00066228980957858214	-2,4710923253496346E-005	0,00066228980957858214
1	1	0	1	0	0	1	4853,4369	0,000500000024	1,62826025	1,8850170342064099E-006	0,00067860614053032333	1,10494739E-006	0,00068866697424067021	-2,569509073151392E-005	0,00068866697424067021
1	1	0	1	0	0	1	4993,4369	0,000500000024	1,62778282	1,8871234579936653E-006	0,00067936445310291635	1,10585779E-006	0,00071506911955949619	-2,6680190271421242E-005	0,00071506911955949619
1	1	0	1	0	0	1	5133,4369	0,000500000024	1,62690449	1,8847089496104877E-006	0,00067849523007444851	1,1038469E-006	0,00074145308999750746	-2,7664611682088973E-005	0,00074145308999750746
1	1	0	1	0	0	1	5273,4369	0,000500000024	1,63878155	1,8764461302230806E-006	0,00067552061505896781	1,1070307E-006	0,00076780442995112909	-2,8647815605511978E-005	0,00076780442995112909
1	1	0	1	0	0	1	5413,4369	0,000500000024	1,63402689	1,8860059438092218E-006	0,00067896214799164608	1,10944245E-006	0,00079417482381422886	-2,9631730455915859E-005	0,00079417482381422886
1	1	0	1	0	0	1	5553,4369	0,000500000024	1,63958347	1,8849597984258758E-006	0,0006785855356490816	1,1125976E-006	0,00082056407303009203	-3,0616348824882643E-005	0,00082056407303009203
1	1	0	1	0	0	1	5693,4369	0,000500000024	1,64389896	1,8941394520483706E-006	0,00068189021099319002	1,12095859E-006	0,00084701391142463053	-3,1603227857568813E-005	0,00084701391142463053
1	1	0	1	0	0	1	5833,4369	0,000500000024	1,63797951	1,8868383382699296E-006	0,00067926181000112896	1,11261693E-006	0,0008734392531924585	-3,2589192888176352E-005	0,0008734392531924585
1	1	0	1	0	0	1	5973,4369	0,000500000024	1,64429998	1,890545601319496E-006	0,00068059642471513114	1,1191047E-006	0,00089982970082923379	-3,3573855971838662E-005	0,00089982970082923379
1	1	0	1	0	0	1	6113,4369	0,000500000024	1,63870513	1,8888143905820064E-006	0,00067997318884208934	1,11427551E-006	0,00092627139405527437	-3,4560431097336883E-005	0,00092627139405527437
1	1	0	1	0	0	1	6253,4369	0,000500000024	1,64143574	1,8900739342013062E-006	0,0006804266245505271	1,11687655E-006	0,00095273009483216371	-3,5547640797424173E-005	0,00095273009483216371
1	1	0	1	0	0	1	6393,4369	0,000500000024	1,63891518	1,8872139044494058E-006	0,00067939701382737715	1,11347413E-006	0,00097916615102696832	-3,6534005597707904E-005	0,00097916615102696832
1	1	0	1	0	0	1	6533,4369	0,000500000024	1,64095831	1,8861992030320429E-006	0,00067903172131270387	1,11426277E-006	0,0010056060006897083	-3,7520511937380685E-005	0,0010056060006897083
1	1	0	1	0	0	1	6673,4369	0,000500000024	1,63990808	1,8956410124018374E-006	0,00068243077272698291	1,11912368E-006	0,001032058226738881	-3,8507480056671494E-005	0,001032058226738881
1	1	0	1	0	0	1	6813,4369	0,000500000024	1,64611399	1,8893386995672096E-006	0,00068016194007904768	1,11962413E-006	0,0010584745436024122	-3,9493108355965613E-005	0,0010584745436024122
1	1	0	1	0	0	1	6953,4369	0,000500000024	1,64890182	1,8882505100013482E-006	0,00067977019183059443	1,12087434E-006	0,001084897988459561	-4,0479002610285286E-005	0,001084897988459561
1	1	0	1	0	0	1	7093,4369	0,000500000024	1,64491093	1,8808017143326451E-006	0,0006770886253573952	1,1137505E-006	0,0011113069974970358	-4,1464358244763757E-005	0,0011113069974970358
1	1	0	1	0	0	1	7233,4369	0,000500000024	1,64485371	1,8813585282736717E-006	0,00067728907837859162	1,11404142E-006	0,0011375908644168781	-4,2445044658578003E-005	0,0011375908644168781
1	1	0	1	0	0	1	7373,4369	0,000500000024	1,64995205	1,8878442063190355E-006	0,00067962392250319104	1,12134694E-006	0,0011639521464603606	-4,3428619534740998E-005	0,0011639521464603606
1	1	0	1	0	0	1	7513,4369	0,000500000024	1,6452738	1,8834547054397667E-006	0,0006780437021675223	1,11556756E-006	0,0011903124441896734	-4,4412157684818899E-005	0,0011903124441896734
1	1	0	1	0	0	1	7653,4369	0,000500000024	1,65384734	1,886304489243129E-006	0,00067906962434915366	1,12307748E-006	0,0012166889545247122	-4,5396300749014509E-005	0,0012166889545247122
1	1	0	1	0	0	1	7793,4369	0,000500000024	1,64682043	1,8827717599536605E-006	0,00067779784178954739	1,11621137E-006	0,0012431042566872619	-4,6381891188450726E-005	0,0012431042566872619
1	1	0	1	0	0	1	7933,4369	0,000500000024	1,6543057	1,8840171716389402E-006	0,00067824619000167629	1,12202656E-006	0,0012695047566491763	-4,7366929337879462E-005	0,0012695047566491763
1	1	0	1	0	0	1	8073,4368	0,000500000024	1,65350366	1,8922118025269203E-006	0,00068119625715706624	1,12636053E-006	0,0012958894587885	-4,8351378049306944E-005	0,0012958894587885
1	1	0	1	0	0	1	8213,4368	0,000500000024	1,65606236	1,8939963617271536E-006	0,00068183869847692838	1,12916746E-006	0,0013223813270782851	-4,9339825273894566E-005	0,0013223813270782851
1	1	0	1	0	0	1	8353,4368	0,000500000024	1,65283537	1,8827003920612496E-006	0,00067777214934796838	1,12024577E-006	0,0013488194635487987	-5,0326267692061971E-005	0,0013488194635487987
1	1	0	1	0	0	1	8493,4368	0,000500000024	1,66650724	1,8860373884575286E-006	0,0006789734680651735	1,13151418E-006	0,0013752292230140541	-5,1311651326009901E-005	0,0013752292230140541
1	1	0	1	0	0	1	8633,4368	0,000500000024	1,65598595	1,8837122667917152E-006	0,00067813642425534643	1,12298437E-006	0,0014015952775457621	-5,2295404270125261E-005	0,0014015952775457621
1	1	0	1	0	0	1	8773,4368	0,000500000024	1,65692163	1,8863097888242922E-006	0,00067907153219839552	1,1251683E-006	0,0014280059566708829	-5,3280822217819258E-005	0,0014280059566708829
1	1	0	1	0	0	1	8913,4368	0,000500000024	1,65707445	1,880704200897728E-006	0,0006770535205204	1,12192811E-006	0,0014544074084445139	-5,4265895880622867E-005	0,0014544074084445139
1	1	0	1	0	0	1	9053,4368	0,000500000024	1,65688348	1,8931554884733891E-006	0,00068153598410190822	1,12922567E-006	0,0014808419072533939	-5,5252202572743853E-005	0,0014808419072533939
1	1	0	1	0	0	1	9193,4368	0,000500000024	1,6682831	1,890026944605375E-006	0,00068040970829578688	1,13511601E-006	0,0015072666635908656	-5,623814576015767E-005	0,0015072666635908656
1	1	0	1	0	0	1	9333,4368	0,000500000024	1,66238284	1,8915479370496339E-006	0,00068095726558234957	1,13201168E-006	0,0015337166973642618	-5,7225032082691725E-005	0,0015337166973642618
1	1	0	1	0	0	1	9473,4368	0,000500000024	1,65789545	1,8871185110991872E-006	0,00067936267222088269	1,12631233E-006	0,0015601332714365293	-5,8210669978789594E-005	0,0015601332714365293
1	1	0	1	0	0	1	9613,4368	0,000500000024	1,67221665	1,8906113166368515E-006	0,00068062008222966554	1,13814428E-006	0,0015865568286480352	-5,9196568425201408E-005	0,0015865568286480352
1	1	0	1	0	0	1	9753,4368	0,000500000024	1,6633184	1,8936593062406045E-006	0,00068171735850030144	1,13391297E-006	0,0016130317353172467	-6,0184382788920282E-005	0,0016130317353172467
1	1	0	1	0	0	1	9893,4368	0,000500000024	1,66400588	1,889894100481696E-006	0,00068036188441068352	1,13212616E-006	0,0016394374518764624	-6,1169615576608115E-005	0,0016394374518764624
1	1	0	1	0	0	1	10033,4368	0,000500000024	1,67366791	1,8898559433647379E-006	0,00068034814784841229	1,13867691E-006	0,001665897054648417	-6,2156858931344038E-005	0,001665897054648417
1	1	0	1	0	0	1	10173,4368	0,000500000024	1,67158651	1,8841394167684483E-006	0,00067829019824883213	1,13382077E-006	0,0016923088035912586	-6,314231679537559E-005	0,0016923088035912586
1	1	0	1	0	0	1	10313,4368	0,000500000024	1,67059362	1,8881106008193456E-006	0,00067971982452446387	1,13553563E-006	0,0017186876521186294	-6,4126547100670848E-005	0,0017186876521186294
1	1	0	1	0	0	1	10453,4368	0,000500000024	1,67133832	1,8909299996481018E-006	0,00068073480811510464	1,1377382E-006	0,0017451222943703232	-6,5112859144836058E-005	0,0017451222943703232
1	1	0	1	0	0	1	10593,4368	0,000500000024	1,67086089	1,8940097883654138E-006	0,00068184353206676045	1,13926569E-006	0,0017715830623533942	-6,610014597516535E-005	0,0017715830623533942
1	1	0	1	0	0	1	10733,4368	0,000500000024	1,67404974	1,895084550956704E-006	0,0006822304466043095	1,14208774E-006	0,0017980975738134061	-6,7089438046878195E-005	0,0017980975738134061
1	1	0	1	0	0	1	10873,4368	0,000500000024	1,67109013	1,8905417146678598E-006	0,00068059502552052518	1,13733563E-006	0,0018245938531574432	-6,8078049853830694E-005	0,0018245938531574432
1	1	0	1	0	0	1	11013,4368	0,000500000024	1,67739141	1,8852579903129178E-006	0,00067869288472971648	1,13843362E-006	0,0018510333611726074	-6,9064543446173069E-005	0,0018510333611726074
1	1	0	1	0	0	1	11153,4368	0,000500000024	1,66895139	1,8878382003264656E-006	0,00067962176034583974	1,13425563E-006	0,0018774529334188067	-7,0050293208171456E-005	0,0018774529334188067
1	1	0	1	0	0	1	11293,4368	0,000500000024	1,677315	1,8841079724532192E-006	0,00067827887829521242	1,13768738E-006	0,0019038681423076838	-7,1035880167441536E-005	0,0019038681423076838
1	1	0	1	0	0	1	11433,4368	0,000500000024	1,67485178	1,8854689155511248E-006	0,00067876881781639027	1,13683711E-006	0,0019302353514523997	-7,2019676191720602E-005	0,0019302353514523997
1	1	0	1	0	0	1	11573,4368	0,000500000024	1,67103279	1,8766213716654522E-006	0,00067558370197898534	1,12892246E-006	0,0019565817313123546	-7,3002695047379994E-005	0,0019565817313123546
1	1	0	1	0	0	1	11713,4368	0,000500000024	1,67798328	1,8808388115721757E-006	0,0006771019803637879	1,13616579E-006	0,0019828766797436365	-7,3983794927285286E-005	0,0019828766797436365
1	1	0	1	0	0	1	11853,4368	0,000500000024	1,67496634	1,8843998051274362E-006	0,00067838393805920256	1,13627027E-006	0,0020092439574297491	-7,4967593508936051E-005	0,0020092439574297491
1	1	0	1	0	0	1	11993,4368	0,000500000024	1,67292321	1,881299879059144E-006	0,00067726796466110618	1,13301735E-006	0,0020355758986412618	-7,5950073639209075E-005	0,0020355758986412618
1	1	0	1	0	0	1	12133,4368	0,000500000024	1,67996919	1,887814175217904E-006	0,0006796131113066528	1,14172906E-006	0,0020619425474383296	-7,6933848756164019E-005	0,0020619425474383296
1	1	0	1	0	0	1	12273,4368	0,000500000024	1,67504275	1,8810292441566061E-006	0,00067717053609501299	1,13428962E-006	0,0020883098615134422	-7,7917648695537293E-005	0,0020883098615134422
1	1	0	1	0	0	1	12413,4368	0,000500000024	1,67777324	1,8773484797663213E-006	0,00067584546089846733	1,13391548E-006	0,0021147571885936573	-7,8904434027709555E-005	0,0021147571885936573
1	1	0	1	0	0	1	12553,4368	0,000500000024	1,68560219	1,8871683278444432E-006	0,000679380606249392	1,14516547E-006	0,0021412016630613734	-7,9891112925074099E-005	0,0021412016630613734
1	1	0	1	0	0	1	12693,4368	0,000500000024	1,68804634	1,8861783581313728E-006	0,00067902421714837171	1,14622435E-006	0,0021676376323426778	-8,0877474482498304E-005	0,0021676376323426778
1	1	0	1	0	0	1	12833,4368	0,000500000024	1,68571675	1,8873513415746858E-006	0,00067944649119307699	1,1453543E-006	0,0021941128594630304	-8,1865300802680102E-005	0,0021941128594630304
1	1	0	1	0	0	1	12973,4368	0,000500000024	1,68205059	1,8870619823186038E-006	0,00067934232185962624	1,14268812E-006	0,002220557939151656	-8,2852002281650509E-005	0,002220557939151656
1	1	0	1	0	0	1	13113,4368	0,000500000024	1,68298626	1,8806148141706621E-006	0,00067702134129826662	1,13941758E-006	0,0022469581133629696	-8,3837028276886362E-005	0,0022469581133629696
1	1	0	1	0	0	1	13253,4368	0,000500000024	1,68163049	1,8863613712666038E-006	0,00067909010187785267	1,1419786E-006	0,0022733496481286765	-8,4821731922790771E-005	0,0022733496481286765
1	1	0	1	0	0	1	13393,4368	0,000500000024	1,68332994	1,8781564951770835E-006	0,00067613634644986368	1,13816054E-006	0,0022997464613189632	-8,5806632513813158E-005	0,0022997464613189632
1	1	0	1	0	0	1	13533,4368	0,000500000024	1,6776396	1,8849276473855651E-006	0,0006785739612744297	1,13840258E-006	0,0023261260952530384	-8,6790892123688563E-005	0,0023261260952530384
1	1	0	1	0	0	1	13673,4368	0,000500000024	1,68527758	1,8850975886711645E-006	0,00067863514013798605	1,14368856E-006	0,002352529597628951	-8,7776042297220352E-005	0,002352529597628951
1	1	0	1	0	0	1	13813,4368	0,000500000024	1,68147767	1,8850636708731245E-006	0,00067862292973054387	1,14108934E-006	0,0023789467603130995	-8,8761702155218918E-005	0,0023789467603130995
1	1	0	1	0	0	1	13953,4368	0,000500000024	1,68829465	1,8874997311472221E-006	0,00067949991143983693	1,14719603E-006	0,0024053527372588026	-8,9746944658276698E-005	0,0024053527372588026
1	1	0	1	0	0	1	14093,4368	0,000500000024	1,68548763	1,8869489226651949E-006	0,0006793016203839063	1,14495447E-006	0,0024317412371050256	-9,0731535067254656E-005	0,0024317412371050256
1	1	0	1	0	0	1	14233,4368	0,000500000024	1,68819916	1,889343646051E-006	0,00068016372081323379	1,14825184E-006	0,0024581657708565926	-9,1717469949689126E-005	0,0024581657708565926
1	1	0	1	0	0	1	14373,4368	0,000500000024	1,68426561	1,8857575679430739E-006	0,00067887273267874995	1,14340196E-006	0,0024846182360946128	-9,2704446993437414E-005	0,0024846182360946128
1	1	0	1	0	0	1	14513,4368	0,000500000024	1,68298626	1,8814401415875181E-006	0,00067731845917193216	1,13991769E-006	0,0025109926396523178	-9,3688511450938125E-005	0,0025109926396523178
1	1	0	1	0	0	1	14653,4368	0,000500000024	1,6890775	1,8808882747835014E-006	0,00067711978712008077	1,14370778E-006	0,0025372877650912048	-9,4669617935235162E-005	0,0025372877650912048
1	1	0	1	0	0	1	14793,4368	0,000500000024	1,68273795	1,8831081096917235E-006	0,00067791892769671616	1,14075988E-006	0,0025636043366904099	-9,5651524604608346E-005	0,0025636043366904099
1	1	0	1	0	0	1	14933,4368	0,000500000024	1,69324017	1,8744068356463686E-006	0,0006747864690024631	1,14257557E-006	0,0025898913847956317	-9,6632329712726234E-005	0,0025898913847956317
1	1	0	1	0	0	1	15073,4368	0,000500000024	1,68949759	1,8759423129797344E-006	0,00067533924084916723	1,14098407E-006	0,0026161702707755674	-9,7612830280975616E-005	0,0026161702707755674
1	1	0	1	0	0	1	15213,4368	0,000500000024	1,69566524	1,8852261923926157E-006	0,00067868143747826906	1,1508165E-006	0,0026424522630405475	-9,8593446748896448E-005	0,0026424522630405475
1	1	0	1	0	0	1	15353,4368	0,000500000024	1,68867648	1,8756013707865754E-006	0,00067521650165814387	1,14022225E-006	0,0026688000278685059	-9,9576517279574144E-005	0,0026688000278685059
1	1	0	1	0	0	1	15493,4368	0,000500000024	1,69327831	1,8788662915855334E-006	0,00067639187315999936	1,14531974E-006	0,0026950884188994138	-0,00010055737249405498	0,0026950884188994138
1	1	0	1	0	0	1	15633,4368	0,000500000024	1,68491483	1,8762217800119994E-006	0,00067543984898200064	1,13805856E-006	0,002721348188078311	-0,00010153715978875478	0,002721348188078311
1	1	0	1	0	0	1	15773,4368	0,000500000024	1,69133067	1,8794690356525178E-006	0,00067660886102674086	1,14436932E-006	0,0027476803303214595	-0,00010251964741978845	0,0027476803303214595
1	1	0	1	0	0	1	15913,4368	0,000500000024	1,68821824	1,8827608085638429E-006	0,00067779389928916531	1,14426405E-006	0,0027740195906659366	-0,00010350240063675306	0,0027740195906659366
1	1	0	1	0	0	1	16053,4368	0,000500000024	1,69333565	1,8809190124447923E-006	0,00067713085267827955	1,14660986E-006	0,0028003519682135875	-0,00010448489704731406	0,0028003519682135875
1	1	0	1	0	0	1	16193,4368	0,000500000024	1,69119704	1,8834331529085626E-006	0,00067803594325619494	1,1466924E-006	0,0028266957261733942	-0,00010546781807635373	0,0028266957261733942
1	1	0	1	0	0	1	16333,4367	0,000500000024	1,68560219	1,8797506224105341E-006	0,00067671023226085402	1,14066427E-006	0,0028530245674585462	-0,00010645018254420635	0,0028530245674585462
1	1	0	1	0	0	1	16473,4367	0,000500000024	1,69087243	1,8884918206377834E-006	0,00067985706366076301	1,14955162E-006	0,0028794123529201082	-0,00010743474629853213	0,0028794123529201082
1	1	0	1	0	0	1	16613,4367	0,000500000024	1,69083416	1,88569997865448E-006	0,00067885200053460531	1,1478262E-006	0,0029058162004779053	-0,00010841990935126413	0,0029058162004779053
1	1	0	1	0	0	1	16753,4367	0,000500000024	1,69320202	1,8888606737827002E-006	0,00067998985079454067	1,15136015E-006	0,0029322522061477037	-0,00010940627226639197	0,0029322522061477037
1	1	0	1	0	0	1	16893,4367	0,000500000024	1,68602228	1,8846418210758E-006	0,00067847106380166848	1,1439173E-006	0,0029586668500960454	-0,0001103918381469711	0,0029586668500960454
1	1	0	1	0	0	1	17033,4367	0,000500000024	1,69791842	1,8862179283298448E-006	0,00067903846241999424	1,15295188E-006	0,0029850363776462112	-0,00011137572067407464	0,0029850363776462112
1	1	0	1	0	0	1	17173,4367	0,000500000024	1,69270551	1,8965059109096829E-006	0,00068274213619357696	1,15568139E-006	0,0030115438724070118	-0,00011236475094330587	0,0030115438724070118
1	1	0	1	0	0	1	17313,4367	0,000500000024	1,69316375	1,8907978631129178E-006	0,00068068723896186253	1,15251498E-006	0,0030380186003002054	-0,00011335255863665115	0,0030380186003002054
1	1	0	1	0	0	1	17453,4367	0,000500000024	1,69908321	1,8901332902217594E-006	0,00068044799271814886	1,15613773E-006	0,0030644956840547405	-0,00011434045423035056	0,0030644956840547405
1	1	0	1	0	0	1	17593,4367	0,000500000024	1,69228542	1,8887062788352422E-006	0,00067993426861278298	1,1506429E-006	0,0030909371607030323	-0,00011532702127504179	0,0030909371607030323
1	1	0	1	0	0	1	17733,4367	0,000500000024	1,69541705	1,896519689416487E-006	0,00068274709645608653	1,15754108E-006	0,0031174457680296486	-0,00011631609305559946	0,0031174457680296486
1	1	0	1	0	0	1	17873,4367	0,000500000024	1,69511151	1,8929254845069309E-006	0,00068145318267298061	1,1551391E-006	0,003143972190921447	-0,00011730582955884736	0,003143972190921447
1	1	0	1	0	0	1	18013,4367	0,000500000024	1,70017159	1,8878261875749254E-006	0,00067961743575523302	1,15546629E-006	0,0031703799344070528	-0,00011829113797388403	0,0031703799344070528
1	1	0	1	0	0	1	18153,4367	0,000500000024	1,69406128	1,8842909856919302E-006	0,00067834476306194624	1,14915758E-006	0,0031968219752894816	-0,00011927772607090954	0,0031968219752894816
1	1	0	1	0	0	1	18293,4367	0,000500000024	1,6972692	1,8875760451450736E-006	0,00067952738447939597	1,15334092E-006	0,0032232301547589856	-0,00012026305075309166	0,0032232301547589856
1	1	0	1	0	0	1	18433,4367	0,000500000024	1,69304919	1,8879466651835376E-006	0,00067966080769485837	1,15069918E-006	0,0032496545436548294	-0,00012124898023076434	0,0032496545436548294
1	1	0	1	0	0	1	18573,4367	0,000500000024	1,69763196	1,8946471559077811E-006	0,00068207298438479078	1,15790886E-006	0,0032761873158484352	-0,00012223895363499936	0,0032761873158484352
1	1	0	1	0	0	1	18713,4367	0,000500000024	1,69852948	1,8852431517669984E-006	0,00067868754285312077	1,15277078E-006	0,0033026392274535827	-0,00012322591002196082	0,0033026392274535827
1	1	0	1	0	0	1	18853,4367	0,000500000024	1,69986606	1,8927862814614653E-006	0,00068140306957600627	1,15829391E-006	0,0033290948442022291	-0,00012421300465280784	0,0033290948442022291
1	1	0	1	0	0	1	18993,4367	0,000500000024	1,69841492	1,8917539148953638E-006	0,00068103141760771021	1,15667387E-006	0,0033556135441293011	-0,00012520245300185814	0,0033556135441293011
1	1	0	1	0	0	1	19133,4367	0,000500000024	1,69912136	1,9003781686543437E-006	0,00068413614899853235	1,16243029E-006	0,0033821452892565478	-0,00012619238808486645	0,0033821452892565478
1	1	0	1	0	0	1	19273,4367	0,000500000024	1,70576644	1,898750477292601E-006	0,0006835501801012105	1,16597698E-006	0,003408741173954528	-0,00012718471630149538	0,003408741173954528
1	1	0	1	0	0	1	19413,4367	0,000500000024	1,70038164	1,8990359504209158E-006	0,00068365295042864819	1,16247088E-006	0,0034352488213425664	-0,00012817375226545406	0,0034352488213425664
1	1	0	1	0	0	1	19553,4367	0,000500000024	1,70807695	1,894337304641441E-006	0,00068196143792755789	1,16484262E-006	0,0034617912190647315	-0,00012916408481110134	0,0034617912190647315
1	1	0	1	0	0	1	19693,4367	0,000500000024	1,70129824	1,8940811569045763E-006	0,00068186922474117005	1,16006288E-006	0,0034883241050265581	-0,00013015406246018166	0,0034883241050265581
1	1	0	1	0	0	1	19833,4367	0,000500000024	1,70282578	1,8930551492570278E-006	0,0006814998619835808	1,16047556E-006	0,0035148369177809626	-0,00013114329115090437	0,0035148369177809626
1	1	0	1	0	0	1	19973,4367	0,000500000024	1,70055354	1,8934611003787722E-006	0,00068164600438917811	1,15917555E-006	0,0035412893261385638	-0,00013213026607236778	0,0035412893261385638
1	1	0	1	0	0	1	20113,4367	0,000500000024	1,70733225	1,8961575484847546E-006	0,00068261672571908442	1,16545357E-006	0,0035677873144329632	-0,00013311894164255597	0,0035677873144329632
1	1	0	1	0	0	1	20253,4367	0,000500000024	1,70664477	1,8973252323113328E-006	0,00068303709190174208	1,16570163E-006	0,003594300933436128	-0,00013410820041550394	0,003594300933436128
1	1	0	1	0	0	1	20393,4367	0,000500000024	1,70590007	1,9053258964559062E-006	0,0006859173310286601	1,17010643E-006	0,0036208899293313568	-0,00013510027160164011	0,0036208899293313568
1	1	0	1	0	0	1	20533,4367	0,000500000024	1,70507896	1,899722075080111E-006	0,00068389995530894899	1,1661034E-006	0,0036474761143077261	-0,00013609223790861432	0,0036474761143077261
1	1	0	1	0	0	1	20673,4367	0,000500000024	1,70905077	1,8934663996300918E-006	0,00068164791211967629	1,16497085E-006	0,0036740517396075642	-0,00013708381021985952	0,0036740517396075642
1	1	0	1	0	0	1	20813,4367	0,000500000024	1,70969999	1,8885875671468157E-006	0,000679891532404432	1,16241051E-006	0,0037005640457168749	-0,00013807302000697259	0,0037005640457168749
1	1	0	1	0	0	1	20953,4367	0,000500000024	1,70822966	1,8950213092741453E-006	0,00068220767959831258	1,16536739E-006	0,0037270638319983187	-0,00013906176266247485	0,0037270638319983187
1	1	0	1	0	0	1	21093,4367	0,000500000024	1,70454431	1,8949679593077034E-006	0,00068218847361016102	1,16282047E-006	0,0037535992253871571	-0,00014005183386702824	0,0037535992253871571
1	1	0	1	0	0	1	21233,4367	0,000500000024	1,71586764	1,8912239529599901E-006	0,0006808406313086656	1,16823242E-006	0,0037800682102589786	-0,00014103942728052454	0,0037800682102589786
1	1	0	1	0	0	1	21373,4367	0,000500000024	1,70847785	1,8972634029438874E-006	0,00068301483332919219	1,16691569E-006	0,0038065805909169088	-0,00014202863984914685	0,0038065805909169088
1	1	0	1	0	0	1	21513,4367	0,000500000024	1,70723677	1,8957526572695418E-006	0,00068247096487984294	1,16513957E-006	0,0038331197329042854	-0,00014301885091895178	0,0038331197329042854
1	1	0	1	0	0	1	21653,4367	0,000500000024	1,71057832	1,8867637900338093E-006	0,00067923497263580058	1,1618846E-006	0,0038595631128243654	-0,00014400548897727238	0,0038595631128243654
1	1	0	1	0	0	1	21793,4367	0,000500000024	1,70114541	1,8807017277188909E-006	0,00067705263017600794	1,15176499E-006	0,0038859961185531571	-0,00014499173996056778	0,0038859961185531571
1	1	0	1	0	0	1	21933,4367	0,000500000024	1,7051363	1,8872693737729504E-006	0,0006794169827840951	1,15849855E-006	0,0039124102763504224	-0,00014597728770219664	0,0039124102763504224
1	1	0	1	0	0	1	22073,4367	0,000500000024	1,71359539	1,8759257073947488E-006	0,0006753332628385001	1,15724799E-006	0,003938760394209639	-0,00014696044602763427	0,003938760394209639
1	1	0	1	0	0	1	22213,4367	0,000500000024	1,70192838	1,8838765549719229E-006	0,00067819556800093722	1,15424029E-006	0,0039651255926755578	-0,00014794416703078403	0,0039651255926755578
1	1	0	1	0	0	1	22353,4367	0,000500000024	1,70250118	1,8848287212765878E-006	0,00067853834787476672	1,15521232E-006	0,0039915499681478618	-0,00014893009600760637	0,0039915499681478618
1	1	0	1	0	0	1	22493,4367	0,000500000024	1,71388173	1,8984042358869274E-006	0,00068342553319365888	1,17131049E-006	0,0040180140286100928	-0,00014991750568475994	0,0040180140286100928
1	1	0	1	0	0	1	22633,4367	0,000500000024	1,70937538	1,8938995555314858E-006	0,00068180384824606592	1,16545868E-006	0,0040445445498769978	-0,00015090739510389338	0,0040445445498769978
1	1	0	1	0	0	1	22773,4367	0,000500000024	1,70996726	1,8858805190571325E-006	0,00067891699508034714	1,16092588E-006	0,0040710033227256013	-0,00015189460749307322	0,0040710033227256013
1	1	0	1	0	0	1	22913,4367	0,000500000024	1,70801961	1,8902636609822771E-006	0,00068049492619250342	1,16229864E-006	0,0040974906669036614	-0,00015288288591696963	0,0040974906669036614
1	1	0	1	0	0	1	23053,4367	0,000500000024	1,7182163	1,8971740161392112E-006	0,00068298265407911923	1,17351192E-006	0,0041240282077012698	-0,00015387303724423146	0,0041240282077012698
1	1	0	1	0	0	1	23193,4367	0,000500000024	1,70838249	1,8884879339311738E-006	0,00067985566444636672	1,1614535E-006	0,0041505229423803795	-0,00015486159141765872	0,0041505229423803795
1	1	0	1	0	0	1	23333,4367	0,000500000024	1,70517445	1,8871665614133235E-006	0,00067937997033418125	1,15846137E-006	0,0041769370199770323	-0,00015584713616689488	0,0041769370199770323
1	1	0	1	0	0	1	23473,4367	0,000500000024	1,71630681	1,8940073142617216E-006	0,00068184264138942054	1,17025115E-006	0,0042034535756781901	-0,00015683650451199341	0,0042034535756781901
1	1	0	1	0	0	1	23613,4367	0,000500000024	1,71556211	1,8861324284613754E-006	0,00067900768246697254	1,1648799E-006	0,0042299502980708851	-0,00015782513284968701	0,0042299502980708851
1	1	0	1	0	0	1	23753,4367	0,000500000024	1,71447372	1,8996870972332547E-006	0,00068388736328392832	1,17250693E-006	0,0042565297002350163	-0,00015881684608081699	0,0042565297002350163
1	1	0	1	0	0	1	23893,4367	0,000500000024	1,71791077	1,90200091285644E-006	0,00068472033691836006	1,17628849E-006	0,0042831273384009011	-0,00015980923972169104	0,0042831273384009011
1	1	0	1	0	0	1	24033,4367	0,000500000024	1,7187891	1,8910642575097478E-006	0,00068078314094588224	1,17012269E-006	0,0043096786977851309	-0,00016079990663899901	0,0043096786977851309
1	1	0	1	0	0	1	24173,4367	0,000500000024	1,71760523	1,9025757454477974E-006	0,00068492727665375411	1,17643469E-006	0,0043362542912865632	-0,00016179147776380291	0,0043362542912865632
1	1	0	1	0	0	1	24313,4367	0,000500000024	1,71854091	1,8977467288172598E-006	0,0006831888306457129	1,17408797E-006	0,004362818962617801	-0,00016278264136775187	0,004362818962617801
1	1	0	1	0	0	1	24453,4367	0,000500000024	1,70998645	1,8979240894291757E-006	0,00068325268046677555	1,16835281E-006	0,0043894265693736704	-0,00016377540695012112	0,0043894265693736704
1	1	0	1	0	0	1	24593,4366	0,000500000024	1,71624959	1,8959151785594362E-006	0,00068252947254491328	1,17139098E-006	0,0044160011343956147	-0,00016476693970097251	0,0044160011343956147
1	1	0	1	0	0	1	24733,4366	0,000500000024	1,71447372	1,8926633298300051E-006	0,00068135880698814477	1,16817182E-006	0,0044425066993843386	-0,00016575589796781296	0,0044425066993843386
1	1	0	1	0	0	1	24873,4366	0,000500000024	1,7198776	1,8990497296747181E-006	0,00068365791096007718	1,17580794E-006	0,0044690146636874797	-0,00016674494575630019	0,0044690146636874797
1	1	0	1	0	0	1	25013,4366	0,000500000024	1,71544755	1,8957869283266416E-006	0,00068248330246054835	1,17076434E-006	0,0044955223047149562	-0,00016773398148293779	0,0044955223047149562
1	1	0	1	0	0	1	25153,4366	0,000500000024	1,72260809	1,8922573790639741E-006	0,00068121266471060416	1,17346246E-006	0,004522059136065447	-0,00016872410633977382	0,004522059136065447
1	1	0	1	0	0	1	25293,4366	0,000500000024	1,71743345	1,8882823084713888E-006	0,0006797816392799479	1,1674797E-006	0,0045485308788632691	-0,00016971180265519725	0,0045485308788632691
1	1	0	1	0	0	1	25433,4366	0,000500000024	1,71483648	1,8881385121591546E-006	0,00067972987260691661	1,16562558E-006	0,0045749973972892102	-0,00017069930404228163	0,0045749973972892102
1	1	0	1	0	0	1	25573,4366	0,000500000024	1,7174716	1,8907936233412733E-006	0,0006806857126440521	1,16905835E-006	0,0046014390004206573	-0,00017168587580622941	0,0046014390004206573
1	1	0	1	0	0	1	25713,4366	0,000500000024	1,71892285	1,8843899117524013E-006	0,00067838037644414694	1,16608351E-006	0,0046278622308180845	-0,00017267176205876854	0,0046278622308180845
1	1	0	1	0	0	1	25853,4366	0,000500000024	1,71771979	1,893843733226984E-006	0,00068178375221620198	1,17111347E-006	0,0046543199278452205	-0,00017365893430760298	0,0046543199278452205
1	1	0	1	0	0	1	25993,4366	0,000500000024	1,71928561	1,8824647361826566E-006	0,00067768731323064781	1,16513809E-006	0,0046807666164964672	-0,00017464569581913203	0,0046807666164964672
1	1	0	1	0	0	1	26133,4366	0,000500000024	1,71745253	1,8952022028970531E-006	0,00068227280130334797	1,17177115E-006	0,0047071883170716979	-0,00017563152499194816	0,0047071883170716979
1	1	0	1	0	0	1	26273,4366	0,000500000024	1,71605861	1,8897238058141536E-006	0,00068030057832962611	1,1674357E-006	0,0047337102229182528	-0,00017662109295816477	0,0047337102229182528
1	1	0	1	0	0	1	26413,4366	0,000500000024	1,72041225	1,8988529367650499E-006	0,00068358706551173888	1,17605157E-006	0,0047602277336122771	-0,00017761049693533117	0,0047602277336122771
1	1	0	1	0	0	1	26553,4366	0,000500000024	1,72589242	1,8935653261659254E-006	0,00068168352567300749	1,17651246E-006	0,0047867536145288333	-0,00017860021321675408	0,0047867536145288333
1	1	0	1	0	0	1	26693,4366	0,000500000024	1,71739519	1,8936405806970371E-006	0,00068171061730453568	1,1707665E-006	0,004813256561857815	-0,00017958907381519005	0,004813256561857815
1	1	0	1	0	0	1	26833,4366	0,000500000024	1,7256633	1,8938324275950435E-006	0,00068177968218865421	1,17652223E-006	0,004839774096221632	-0,00018057847867550819	0,004839774096221632
1	1	0	1	0	0	1	26973,4366	0,000500000024	1,7275728	1,8938112285621984E-006	0,00068177205053673754	1,17781087E-006	0,0048663275966536051	-0,00018156922547818614	0,0048663275966536051
1	1	0	1	0	0	1	27113,4366	0,000500000024	1,71733797	1,8885147853676851E-006	0,00067986533096362765	1,16755859E-006	0,004892831095494921	-0,00018255810665428883	0,004892831095494921
1	1	0	1	0	0	1	27253,4366	0,000500000024	1,71852183	1,8943895940901712E-006	0,00068198026212932851	1,17199795E-006	0,0049192706808826733	-0,00018354460313350646	0,0049192706808826733
1	1	0	1	0	0	1	27393,4366	0,000500000024	1,7216152	1,8984999813805594E-006	0,00068346000157178381	1,17665513E-006	0,0049458334097277677	-0,00018453569426068573	0,0049458334097277677
1	1	0	1	0	0	1	27533,4366	0,000500000024	1,72747731	1,8986547308094384E-006	0,00068351571136685478	1,18075786E-006	0,0049723967073967379	-0,00018552680661144858	0,0049723967073967379
1	1	0	1	0	0	1	27673,4366	0,000500000024	1,7174716	1,8915677214810989E-006	0,0006809643879777632	1,16953697E-006	0,0049989205677441498	-0,00018651644750272	0,0049989205677441498
1	1	0	1	0	0	1	27813,4366	0,000500000024	1,7210232	1,8957901078328077E-006	0,00068248444708278195	1,17457159E-006	0,0050254475008131693	-0,00018750620304136595	0,0050254475008131693
1	1	0	1	0	0	1	27953,4366	0,000500000024	1,7174716	1,8892351811454214E-006	0,0006801246734467529	1,16809485E-006	0,005051944677205639	-0,00018849484831840157	0,005051944677205639
1	1	0	1	0	0	1	28093,4366	0,000500000024	1,72386837	1,8942355518002941E-006	0,00068192480690430144	1,17554862E-006	0,0050784005554035526	-0,00018948195270427226	0,0050784005554035526
1	1	0	1	0	0	1	28233,4366	0,000500000024	1,72713363	1,8918546073934218E-006	0,00068106766690744986	1,17629486E-006	0,0051048828684725843	-0,00019047004341072646	0,0051048828684725843
1	1	0	1	0	0	1	28373,4366	0,000500000024	1,72650349	1,8946256040621344E-006	0,00068206522572026406	1,17758805E-006	0,0051314029671480608	-0,00019145954394896035	0,0051314029671480608
1	1	0	1	0	0	1	28513,4366	0,000500000024	1,72354376	1,8957385248795616E-006	0,00068246587721938867	1,17625984E-006	0,0051578829151736179	-0,00019244754641246269	0,0051578829151736179
1	1	0	1	0	0	1	28653,4366	0,000500000024	1,71894193	1,8925566313232086E-006	0,0006813203955252329	1,17115019E-006	0,0051844365943813728	-0,00019343829988550541	0,0051844365943813728
1	1	0	1	0	0	1	28793,4366	0,000500000024	1,72564423	1,906371688153336E-006	0,00068629381604429299	1,18429898E-006	0,0052110418640066586	-0,00019443097826639027	0,0052110418640066586
1	1	0	1	0	0	1	28933,4366	0,000500000024	1,72535777	1,8969931224742646E-006	0,00068291753235895002	1,1782771E-006	0,0052376365516966464	-0,0001954232618210416	0,0052376365516966464
1	1	0	1	0	0	1	29073,4366	0,000500000024	1,72596884	1,8948174508243232E-006	0,000682134290555488	1,17734248E-006	0,0052641902407971712	-0,00019641401566319693	0,0052641902407971712
1	1	0	1	0	0	1	29213,4366	0,000500000024	1,72232175	1,8978089111397923E-006	0,00068321121628209562	1,17670959E-006	0,0052907146685596954	-0,00019740367772548912	0,0052907146685596954
1	1	0	1	0	0	1	29353,4366	0,000500000024	1,71840727	1,8880964684714045E-006	0,00067971473687914355	1,16802676E-006	0,0053172483332116192	-0,0001983936844285439	0,0053172483332116192
1	1	0	1	0	0	1	29493,4366	0,000500000024	1,71663141	1,8889422883189075E-006	0,00068001923202793114	1,16734236E-006	0,005343666683011545	-0,00019937938857942826	0,005343666683011545
1	1	0	1	0	0	1	29633,4366	0,000500000024	1,72419298	1,8926470785421165E-006	0,00068135295652443392	1,17478396E-006	0,0053701274361552915	-0,0002003666748560824	0,0053701274361552915
1	1	0	1	0	0	1	29773,4366	0,000500000024	1,72818387	1,9003424840403667E-006	0,00068412330253734528	1,18229082E-006	0,0053966649829555021	-0,00020135682640730941	0,0053966649829555021
1	1	0	1	0	0	1	29913,4366	0,000500000024	1,72959685	1,8954095954929168E-006	0,00068234746263876275	1,18018602E-006	0,0054232994754095757	-0,00020235059513122685	0,0054232994754095757
1	1	0	1	0	0	1	30053,4366	0,000500000024	1,73150635	1,8949202630222621E-006	0,00068217130294719424	1,18118396E-006	0,0054498568382085978	-0,00020334148604401238	0,0054498568382085978
1	1	0	1	0	0	1	30193,4366	0,000500000024	1,72081327	1,8908717046465933E-006	0,00068071382191430758	1,17138143E-006	0,0054763632981279142	-0,00020433047770191651	0,0054763632981279142
1	1	0	1	0	0	1	30333,4366	0,000500000024	1,72033584	1,8950156561849222E-006	0,00068220564448616781	1,17362288E-006	0,0055028503222099917	-0,00020531874418260144	0,0055028503222099917
1	1	0	1	0	0	1	30473,4366	0,000500000024	1,72184432	1,8874873648876221E-006	0,00067949545958632704	1,16998535E-006	0,0055293042105754336	-0,00020630577432514726	0,0055293042105754336
1	1	0	1	0	0	1	30613,4366	0,000500000024	1,7238493	1,8869234854775843E-006	0,00067929246299625562	1,17099785E-006	0,0055556750630307565	-0,00020728970628624355	0,0055556750630307565
1	1	0	1	0	0	1	30753,4366	0,000500000024	1,71854091	1,8936229155030256E-006	0,00068170425783461466	1,17153661E-006	0,005582154239077241	-0,00020827767994616877	0,005582154239077241
1	1	0	1	0	0	1	30893,4366	0,000500000024	1,71919012	1,892924425735449E-006	0,0006814528015152425	1,17154696E-006	0,0056086767734590592	-0,00020926727136388112	0,0056086767734590592
1	1	0	1	0	0	1	31033,4366	0,000500000024	1,73163998	1,9011656917993808E-006	0,0006844196573341783	1,18516846E-006	0,005635186134744752	-0,00021025637127566566	0,005635186134744752
1	1	0	1	0	0	1	31173,4366	0,000500000024	1,72984517	1,8939052086239424E-006	0,00068180588335937498	1,17941863E-006	0,0056617514218935187	-0,00021124755785659456	0,0056617514218935187
1	1	0	1	0	0	1	31313,4366	0,000500000024	1,72705722	1,9035289710898522E-006	0,00068527043788904858	1,18350124E-006	0,0056883229689583424	-0,00021223897800340813	0,0056883229689583424
1	1	0	1	0	0	1	31453,4366	0,000500000024	1,72383022	1,8974587828043795E-006	0,00068308517007982093	1,1775229E-006	0,0057149254008094637	-0,00021323155050312352	0,0057149254008094637
1	1	0	1	0	0	1	31593,4366	0,000500000024	1,73328221	1,906095048351239E-006	0,00068619422571433229	1,18936828E-006	0,0057415365784537741	-0,0002142244493201416	0,0057415365784537741
1	1	0	1	0	0	1	31733,4366	0,000500000024	1,72973049	1,8987670828711187E-006	0,00068355615810954957	1,1823679E-006	0,0057681316911754534	-0,00021521674873329677	0,0057681316911754534
1	1	0	1	0	0	1	31873,4366	0,000500000024	1,72827935	1,8940797439491792E-006	0,00068186871607722086	1,17845957E-006	0,0057946992119374234	-0,00021620801865333747	0,0057946992119374234
1	1	0	1	0	0	1	32013,4366	0,000500000024	1,73173547	1,8898972805117309E-006	0,00068036302922150989	1,17820878E-006	0,0058212170815912448	-0,00021719743602377648	0,0058212170815912448
1	1	0	1	0	0	1	32153,4366	0,000500000024	1,73032248	1,8963115903348403E-006	0,00068267218078578662	1,18124296E-006	0,005847723576841632	-0,00021818642899993034	0,005847723576841632
1	1	0	1	0	0	1	32293,4366	0,000500000024	1,73158276	1,8967599387591085E-006	0,00068283358622047744	1,1823829E-006	0,005874242214235136	-0,00021917587501576918	0,005874242214235136
1	1	0	1	0	0	1	32433,4366	0,000500000024	1,73259473	1,8966705517151341E-006	0,00068280140688425702	1,18301807E-006	0,0059008233514975219	-0,00022016765298574794	0,0059008233514975219
1	1	0	1	0	0	1	32573,4366	0,000500000024	1,73404598	1,8936321009661898E-006	0,00068170756460139379	1,18211221E-006	0,0059273178900916403	-0,00022115619984298048	0,0059273178900916403
1	1	0	1	0	0	1	32713,4366	0,000500000024	1,72272265	1,8936741454074054E-006	0,00068172270060041459	1,17441914E-006	0,0059538146400418496	-0,00022214482920888198	0,0059538146400418496
1	1	0	1	0	0	1	32853,4366	0,000500000024	1,72919583	1,8936154964127734E-006	0,00068170157743883034	1,17879551E-006	0,0059803451249190387	-0,00022313471727026618	0,0059803451249190387
1	1	0	1	0	0	1	32993,4366	0,000500000024	1,73206007	1,8911370384642698E-006	0,00068080933257903104	1,17920263E-006	0,0060068443324795546	-0,00022412343833291254	0,0060068443324795546
1	1	0	1	0	0	1	33133,4366	0,000500000024	1,72547233	1,8955223004935152E-006	0,00068238802690661875	1,17744162E-006	0,0060333596180357171	-0,00022511275928719354	0,0060333596180357171
1	1	0	1	0	0	1	33273,4366	0,000500000024	1,72839391	1,8912066406984298E-006	0,00068083438938328179	1,17675006E-006	0,0060598556578351142	-0,00022610136215641347	0,0060598556578351142
1	1	0	1	0	0	1	33413,4366	0,000500000024	1,73557353	1,8877922702102096E-006	0,0006796052160098121	1,17950481E-006	0,0060863263707377229	-0,00022708902004506182	0,0060863263707377229
1	1	0	1	0	0	1	33553,4366	0,000500000024	1,73775041	1,8999315870266096E-006	0,00068397537005557594	1,18857849E-006	0,00611286807032144	-0,0002280793265422249	0,00611286807032144
1	1	0	1	0	0	1	33693,4366	0,000500000024	1,72805023	1,8935709789932138E-006	0,00068168555116781862	1,17798686E-006	0,0061393976139852877	-0,00022906917948567386	0,0061393976139852877
1	1	0	1	0	0	1	33833,4366	0,000500000024	1,72984517	1,8870333640952595E-006	0,00067933200980893901	1,17513923E-006	0,0061658883008125734	-0,00023005758262830717	0,0061658883008125734
1	1	0	1	0	0	1	33973,4366	0,000500000024	1,73020792	1,890839906823304E-006	0,00068070236518848256	1,17775664E-006	0,0061923622874692237	-0,00023104536266512042	0,0061923622874692237
1	1	0	1	0	0	1	34113,4366	0,000500000024	1,73270929	1,8943655690559859E-006	0,00068197160358988378	1,18165849E-006	0,0062188309331632102	-0,00023203294342343568	0,0062188309331632102
1	1	0	1	0	0	1	34253,4366	0,000500000024	1,72438395	1,8940465318414176E-006	0,00068185675019285312	1,17578281E-006	0,0062453387363614643	-0,00023302198520088298	0,0062453387363614643
1	1	0	1	0	0	1	34393,4366	0,000500000024	1,73633742	1,8964642203936819E-006	0,0006827271180700471	1,1854446E-006	0,0062718625486594893	-0,00023401162429936723	0,0062718625486594893
1	1	0	1	0	0	1	34533,4366	0,000500000024	1,72776377	1,9071376607656326E-006	0,00068656955659679219	1,18622995E-006	0,0062984926996588186	-0,00023500523103777101	0,0062984926996588186
1	1	0	1	0	0	1	34673,4366	0,000500000024	1,73297668	1,8914624356224928E-006	0,00068092647555577293	1,1800297E-006	0,0063250584775523571	-0,0002359964359290472	0,0063250584775523571
1	1	0	1	0	0	1	34813,4366	0,000500000024	1,72795475	1,8887582148405882E-006	0,00067995295607610061	1,17492789E-006	0,0063516259382552218	-0,00023698770360820189	0,0063516259382552218
1	1	0	1	0	0	1	34953,4366	0,000500000024	1,7299788	1,8976336705414317E-006	0,00068314812012245299	1,18183175E-006	0,0063781707292879974	-0,00023797812545148589	0,0063781707292879974
1	1	0	1	0	0	1	35093,4366	0,000500000024	1,72814572	1,8914539557558278E-006	0,00068092342280377933	1,17673494E-006	0,0064047349052824934	-0,00023896927057375501	0,0064047349052824934
1	1	0	1	0	0	1	35233,4366	0,000500000024	1,73681474	1,8983113153598323E-006	0,00068339207225662272	1,18692537E-006	0,0064312824772051098	-0,00023995979617577789	0,0064312824772051098
1	1	0	1	0	0	1	35373,4366	0,000500000024	1,72528148	1,9034989399822534E-006	0,00068525961711721562	1,18226569E-006	0,0064578912286814349	-0,00024095260446920643	0,0064578912286814349
1	1	0	1	0	0	1	35513,4366	0,000500000024	1,72826028	1,890577045181999E-006	0,00068060773499778893	1,17626735E-006	0,0064844492037639104	-0,00024194351822711085	0,0064844492037639104
1	1	0	1	0	0	1	35653,4366	0,000500000024	1,72784019	1,8866588571884979E-006	0,00067919718732275597	1,17354421E-006	0,0065109045802635354	-0,00024293060389394384	0,0065109045802635354
1	1	0	1	0	0	1	35793,4366	0,000500000024	1,73074257	1,8930756410215206E-006	0,00068150722949834125	1,17951356E-006	0,0065374134614051533	-0,00024391968589090739	0,0065374134614051533
1	1	0	1	0	0	1	35933,4366	0,000500000024	1,72915769	1,8932487619652723E-006	0,00068156955303797581	1,1785412E-006	0,0065639157328567539	-0,00024490852127144957	0,0065639157328567539
1	1	0	1	0	0	1	36073,4366	0,000500000024	1,73517263	1,8907667722798781E-006	0,00068067603675289818	1,1810904E-006	0,0065904093676886746	-0,00024589703440809939	0,0065904093676886746
1	1	0	1	0	0	1	36213,4366	0,000500000024	1,73406506	1,8906777380875104E-006	0,0006806439844437056	1,18028095E-006	0,0066168758617376883	-0,00024688453488564781	0,0066168758617376883
1	1	0	1	0	0	1	36353,4366	0,000500000024	1,72973049	1,8919295089338752E-006	0,00068109462194755738	1,1781101E-006	0,0066433699463302016	-0,00024787306480347005	0,0066433699463302016
1	1	0	1	0	0	1	36493,4366	0,000500000024	1,73244202	1,896440901919656E-006	0,0006827187234194135	1,18277057E-006	0,0066698713433428224	-0,00024886186755751814	0,0066698713433428224
1	1	0	1	0	0	1	36633,4366	0,000500000024	1,73853326	1,8985883087831706E-006	0,00068349178988883878	1,18827325E-006	0,0066963763582300774	-0,00024985080529933322	0,0066963763582300774
1	1	0	1	0	0	1	36773,4366	0,000500000024	1,72646534	1,8920153628763123E-006	0,00068112552936677734	1,17593959E-006	0,0067228340973005581	-0,00025083797911686138	0,0067228340973005581
1	1	0	1	0	0	1	36913,4366	0,000500000024	1,73207927	1,8817079492275501E-006	0,00067741486046013453	1,17333627E-006	0,0067492201070318822	-0,00025182247661630445	0,0067492201070318822
1	1	0	1	0	0	1	37053,4366	0,000500000024	1,73652828	1,8930611556473501E-006	0,00068150201476364954	1,18344747E-006	0,006775666448027497	-0,00025280922515633443	0,006775666448027497
1	1	0	1	0	0	1	37193,4366	0,000500000024	1,72690451	1,8875954773555146E-006	0,00067953437058225382	1,173491E-006	0,0068021345047589197	-0,00025379678393966464	0,0068021345047589197
1	1	0	1	0	0	1	37213,4366	0,000500000024	1,73423696	1,8961511889000477E-006	0,00068261442673254874	1,18381513E-006	0,0068059190806391859	-0,0002539379915541737	0,0068059190806391859