File: Experimentelles/Rohdaten/Batterietests/AlteZelle/Studenten_Batterietests/Sonstige/ECLab-Export/LiCoO2 vs Li_05_GCPL_C01_loop9.mpt
EC-Lab ASCII FILE
Nb header lines : 3
mode	ox/red	error	control changes	Ns changes	counter inc.	Ns	time/s	control/V/mA	Ewe/V	dq/mA.h	<I>/mA	P/W	(Q-Qo)/mA.h	x	Capacity/mA.h
1	0	0	1	1	0	1	289704,66	-0,100000001	4,19612217	0	0	0	0	0	0
1	0	0	1	0	0	1	289784,66	-0,100000001	3,89774513	-0,00027771864794236093	-0,099976788215394138	0,00038968405	-0,0022203751777536285	8,28451832081648E-005	0,0022203751777536285
1	0	0	1	0	0	1	289864,67	-0,100000001	3,86457729	-0,00027771907525385421	-0,099976942044569766	0,000386368629	-0,0044421259361639571	0,00016574169118011894	0,0044421259361639571
1	0	0	1	0	0	1	289944,67	-0,100000001	3,84573054	-0,00027771879610667629	-0,09997684155352064	0,000384483981	-0,0066638761228125901	0,00024863817781887549	0,0066638761228125901
1	0	0	1	0	0	1	290024,67	-0,100000001	3,8312757	-0,00027771932507761651	-0,099977031979392499	0,000383039587	-0,0088856255840317184	0,00033153463739088186	0,0088856255840317184
1	0	0	1	0	0	1	290104,67	-0,100000001	3,8191123	-0,00027771914704516531	-0,099976967888944141	0,00038182328	-0,011107379871543242	0,0004144312770383465	0,011107379871543242
1	0	0	1	0	0	1	290184,67	-0,100000001	3,80824733	-0,00027771887224995427	-0,099976868964572928	0,00038073663	-0,013329134502707003	0,00049732792950793818	0,013329134502707003
1	0	0	1	0	0	1	290264,67	-0,100000001	3,79818416	-0,00027771927480565178	-0,099977013881833651	0,000379731122	-0,015550887728903603	0,00058022452955631603	0,015550887728903603
1	0	0	1	0	0	1	290344,68	-0,100000001	3,7890377	-0,00027771919383191402	-0,099976984731849344	0,000378816563	-0,017772645014408304	0,00066312128106293709	0,017772645014408304
1	0	0	1	0	0	1	290424,68	-0,100000001	3,7802732	-0,00027771982818303837	-0,099977213093857024	0,000377941178	-0,019994403193967779	0,00074601806592794381	0,019994403193967779
1	0	0	1	0	0	1	290504,68	-0,100000001	3,77185225	-0,00027771953780576586	-0,099977108560051712	0,000377098884	-0,022216157954897475	0,0008289147232392768	0,022216157954897475
1	0	0	1	0	0	1	290584,68	-0,100000001	3,76377511	-0,00027771967292163107	-0,099977157196171162	0,000376291544	-0,02443791321289969	0,00091181139909705408	0,02443791321289969
1	0	0	1	0	0	1	290664,68	-0,100000001	3,75606084	-0,00027771851643423238	-0,099976740868724006	0,000375518721	-0,026659665499290403	0,00099470796408001075	0,026659665499290403
1	0	0	1	0	0	1	290744,68	-0,100000001	3,74836564	-0,00027771841246427763	-0,099976703440260966	0,000374749245	-0,028881413022341568	0,0010776043513363645	0,028881413022341568
1	0	0	1	0	0	1	290824,68	-0,100000001	3,74110961	-0,00027771898104457392	-0,09997690812755415	0,000374024559	-0,031103159435053824	0,0011605006971644808	0,031103159435053824
1	0	0	1	0	0	1	290904,69	-0,100000001	3,7337389	-0,00027771897649971978	-0,099976906487946573	0,00037328765	-0,033324912003244538	0,0012433972726617741	0,033324912003244538
1	0	0	1	0	0	1	290984,69	-0,100000001	3,72659731	-0,00027771893794710435	-0,099976892611599974	0,000372573617	-0,035546662473299187	0,0013262937698747901	0,035546662473299187
1	0	0	1	0	0	1	291064,69	-0,100000001	3,71970415	-0,00027771876398515373	-0,099976829986503603	0,000371884234	-0,037768410817220557	0,001409190187758915	0,037768410817220557
1	0	0	1	0	0	1	291144,69	-0,100000001	3,71290636	-0,0002777189630245169	-0,099976901640458534	0,000371204864	-0,039990163656683174	0,001492086773377728	0,039990163656683174
1	0	0	1	0	0	1	291224,69	-0,100000001	3,70616579	-0,0002777193552710944	-0,099977042844179802	0,000370531488	-0,042211915165374835	0,0015749833093436874	0,042211915165374835
1	0	0	1	0	0	1	291304,69	-0,100000001	3,69938707	-0,00027772002532250349	-0,099977284058042509	0,000369854679	-0,044433670856008256	0,0016578800013435168	0,044433670856008256
1	0	0	1	0	0	1	291384,70	-0,100000001	3,69266582	-0,00027771974450225629	-0,09997718296470007	0,000369182322	-0,046655425077441408	0,0017407766385255085	0,046655425077441408
1	0	0	1	0	0	1	291464,70	-0,100000001	3,68617344	-0,00027771952276635501	-0,099977103145968051	0,000368532928	-0,048877180960378035	0,0018236733377004285	0,048877180960378035
1	0	0	1	0	0	1	291544,70	-0,100000001	3,67954755	-0,00027771927673949136	-0,099977014578002509	0,000367870176	-0,051098934333440883	0,001906569943228584	0,051098934333440883
1	0	0	1	0	0	1	291624,70	-0,100000001	3,67297888	-0,00027771943754744195	-0,099977072467750067	0,000367213681	-0,053320689610053408	0,0019894666197807366	0,053320689610053408
1	0	0	1	0	0	1	291704,70	-0,100000001	3,66644835	-0,00027771844919191466	-0,099976716666611149	0,000366559456	-0,055542443956189818	0,002072363261615575	0,055542443956189818
1	0	0	1	0	0	1	291784,70	-0,100000001	3,65993714	-0,00027771924537503056	-0,099977003287014029	0,000365909538	-0,057764193128494886	0,002155259710407809	0,057764193128494886
1	0	0	1	0	0	1	291864,70	-0,100000001	3,65325379	-0,00027771961939086515	-0,099977137930121933	0,000365241867	-0,059985949975340864	0,0022381564455474832	0,059985949975340864
1	0	0	1	0	0	1	291944,71	-0,100000001	3,64666605	-0,00027771961168737875	-0,09997713515692023	0,000364583218	-0,062207705531711091	0,0023210531325377725	0,062207705531711091
1	0	0	1	0	0	1	292024,71	-0,100000001	3,64004016	-0,00027771897417803606	-0,099976905657975859	0,000363919942	-0,064429458132704666	0,0024039497092589843	0,064429458132704666
1	0	0	1	0	0	1	292104,71	-0,100000001	3,63341427	-0,00027771894744990602	-0,099976896036034291	0,000363257481	-0,066651211783691994	0,0024868463251568755	0,066651211783691994
1	0	0	1	0	0	1	292184,71	-0,100000001	3,62688375	-0,00027771996549061606	-0,099977262523633229	0,000362605904	-0,068872964708006387	0,0025697429139416224	0,068872964708006387
1	0	0	1	0	0	1	292264,71	-0,100000001	3,62006688	-0,00027771883485093712	-0,099976855496530547	0,000361922896	-0,071094718943522803	0,0026526395516490797	0,071094718943522803
1	0	0	1	0	0	1	292344,71	-0,100000001	3,61334562	-0,00027771953490997354	-0,099977107512931085	0,000361251849	-0,07331647221676608	0,0027355361534528326	0,07331647221676608
1	0	0	1	0	0	1	292424,72	-0,100000001	3,60656691	-0,00027771935124405558	-0,099977041396801472	0,000360573875	-0,075538226014888691	0,0028184327748405386	0,075538226014888691
1	0	0	1	0	0	1	292504,72	-0,100000001	3,59982634	-0,00027771920543246797	-0,09997698890564064	0,000359899801	-0,0777599769135616	0,0029013292880458784	0,0777599769135616
1	0	0	1	0	0	1	292584,72	-0,100000001	3,59302855	-0,00027771897645915549	-0,099976906480326899	0,000359219877	-0,079981731060171469	0,0029842259224361126	0,079981731060171469
1	0	0	1	0	0	1	292664,72	-0,100000001	3,586097	-0,00027771966034173968	-0,099977152669243264	0,000358527759	-0,082203486173513626	0,0030671225928964288	0,082203486173513626
1	0	0	1	0	0	1	292744,72	-0,100000001	3,57920384	-0,00027771893691188758	-0,099976892240092979	0,000357837678	-0,084425241751619264	0,0031500192806976954	0,084425241751619264
1	0	0	1	0	0	1	292824,72	-0,100000001	3,57215786	-0,0002777191443882055	-0,099976966927801562	0,000357133511	-0,086646994425033293	0,0032329158601210118	0,086646994425033293
1	0	0	1	0	0	1	292904,72	-0,100000001	3,56511188	-0,00027771951191955139	-0,099977099236538483	0,000356429548	-0,088868751260174003	0,0033158125948239469	0,088868751260174003
1	0	0	1	0	0	1	292984,73	-0,100000001	3,55795121	-0,00027771984147239062	-0,099977217873276262	0,000355714059	-0,091090508494114918	0,0033987093444066534	0,091090508494114918
1	0	0	1	0	0	1	293064,73	-0,100000001	3,55073333	-0,00027771903782751824	-0,099976928571348237	0,000354991411	-0,09331226542457792	0,0034816060826661914	0,09331226542457792
1	0	0	1	0	0	1	293144,73	-0,100000001	3,54338169	-0,00027771874533759226	-0,099976823277002304	0,000354256044	-0,095534015525416986	0,0035645025661032774	0,095534015525416986
1	0	0	1	0	0	1	293224,73	-0,100000001	3,53612566	-0,00027771892814710733	-0,099976889087160576	0,000353530835	-0,097755769210241114	0,0036473991832636653	0,097755769210241114
1	0	0	1	0	0	1	293304,73	-0,100000001	3,52864051	-0,00027771869757895667	-0,09997680608422455	0,000352782197	-0,099977523034122458	0,0037302958056124646	0,099977523034122458
1	0	0	1	0	0	1	293384,73	-0,100000001	3,52113628	-0,0002777174763534632	-0,099976366451511987	0,000352030416	-0,10219927032295138	0,003813192184129671	0,10219927032295138
1	0	0	1	0	0	1	293464,74	-0,100000001	3,51326919	-0,00027771838506269786	-0,099976693580537626	0,000351245049	-0,10442101671938326	0,0038960885293503456	0,10442101671938326
1	0	0	1	0	0	1	293544,74	-0,100000001	3,5055356	-0,00027771902464868294	-0,09997692382705888	0,000350472663	-0,10664276657387302	0,0039789850035958074	0,10664276657387302
1	0	0	1	0	0	1	293624,74	-0,100000001	3,49764943	-0,00027771925807951226	-0,099977007860539366	0,000349684531	-0,10886451862172966	0,0040618815596787373	0,10886451862172966
1	0	0	1	0	0	1	293704,74	-0,100000001	3,48955321	-0,00027771896247400179	-0,099976901444604634	0,000348874717	-0,11108627241067026	0,0041447781807238509	0,11108627241067026
1	0	0	1	0	0	1	293784,74	-0,100000001	3,4813807	-0,00027771980799196496	-0,099977205825210547	0,000348058704	-0,11330803072927744	0,0042276749707769133	0,11330803072927744
1	0	0	1	0	0	1	293864,74	-0,100000001	3,47303605	-0,00027771983342617747	-0,099977214981350758	0,000347224472	-0,11552979211252408	0,0043105718751757965	0,11552979211252408
1	0	0	1	0	0	1	293944,74	-0,100000001	3,46474886	-0,00027771922244711053	-0,099976995028466304	0,000346395187	-0,11775154829794352	0,0043934685856367571	0,11775154829794352
1	0	0	1	0	0	1	294024,75	-0,100000001	3,45606065	-0,00027771949594012566	-0,099977093484055974	0,000345526903	-0,11997330343885406	0,0044763652571256864	0,11997330343885406
1	0	0	1	0	0	1	294104,75	-0,100000001	3,4473536	-0,00027771982292582589	-0,099977211198969254	0,000344656786	-0,12219506079751728	0,0045592620113619501	0,12219506079751728
1	0	0	1	0	0	1	294184,75	-0,100000001	3,43820691	-0,00027771933755899469	-0,099977036469110554	0,000343741733	-0,12441681754691422	0,0046421587428656698	0,12441681754691422
1	0	0	1	0	0	1	294264,75	-0,100000001	3,42923236	-0,00027771925917598938	-0,099977008251771955	0,000342844403	-0,12663857039635398	0,004725055328856743	0,12663857039635398
1	0	0	1	0	0	1	294344,75	-0,100000001	3,41991401	-0,0002777192913616697	-0,099977019839557632	0,000341912819	-0,12886032199017638	0,0048079518679990445	0,12886032199017638
1	0	0	1	0	0	1	294424,75	-0,100000001	3,41038585	-0,0002777189276044567	-0,099976888889482394	0,000340959756	-0,13108207638542701	0,0048908485116664006	0,13108207638542701
1	0	0	1	0	0	1	294504,76	-0,100000001	3,4008956	-0,00027771943366817299	-0,099977071066584666	0,000340011582	-0,13330383400627907	0,0049737452756852819	0,13330383400627907
1	0	0	1	0	0	1	294584,76	-0,100000001	3,39098525	-0,00027771889880465136	-0,099976878519424371	0,000339020131	-0,13552558564706085	0,0050566418165797018	0,13552558564706085
1	0	0	1	0	0	1	294664,76	-0,100000001	3,38078856	-0,00027771902630602323	-0,099976924423689894	0,000338000857	-0,13774733634980995	0,0051395383224748608	0,13774733634980995
1	0	0	1	0	0	1	294744,76	-0,100000001	3,37053466	-0,00027771856851875782	-0,099976759623447552	0,000336975121	-0,13996908411850098	0,0052224347188963674	0,13996908411850098
1	0	0	1	0	0	1	294824,76	-0,100000001	3,36005163	-0,00027771846347178019	-0,099976721807263757	0,000335926947	-0,14219083073360574	0,0053053310722760211	0,14219083073360574
1	0	0	1	0	0	1	294904,76	-0,100000001	3,3491292	-0,00027771814035541482	-0,099976605487611955	0,000334834564	-0,14441257667505715	0,0053882274005207616	0,14441257667505715
1	0	0	1	0	0	1	294984,76	-0,100000001	3,33832169	-0,00027771953429819808	-0,099977107297351629	0,000333755743	-0,14663432819948406	0,0054711239370738234	0,14663432819948406
1	0	0	1	0	0	1	295064,77	-0,100000001	3,32701731	-0,00027771894580870867	-0,099976895445214643	0,000332624855	-0,14885608132987158	0,0055540205335474362	0,14885608132987158
1	0	0	1	0	0	1	295144,77	-0,100000001	3,31556034	-0,00027771902432706618	-0,099976923711279091	0,000331479532	-0,15107783362295046	0,0056369170987799373	0,15107783362295046
1	0	0	1	0	0	1	295224,77	-0,100000001	3,30393171	-0,00027771912918281222	-0,099976961458620826	0,000330317067	-0,15329958653617299	0,005719813687150832	0,15329958653617299
1	0	0	1	0	0	1	295304,77	-0,100000001	3,29197812	-0,00027771880565418138	-0,099976844990556301	0,000329121598	-0,15552133719181082	0,0058027101912882061	0,15552133719181082
1	0	0	1	0	0	1	295384,77	-0,100000001	3,27964282	-0,00027771917827592957	-0,099976979131802765	0,000327888789	-0,15774308778639242	0,0058856066931474893	0,15774308778639242
1	0	0	1	0	0	1	295464,77	-0,100000001	3,26711655	-0,00027771929544665747	-0,099977021307797184	0,000326636567	-0,15996484052886874	0,0059685032751476134	0,15996484052886874
1	0	0	1	0	0	1	295544,78	-0,100000001	3,25436115	-0,00027771891868197254	-0,099976885675122214	0,000325360888	-0,16218659215569888	0,0060513998155214797	0,16218659215569888
1	0	0	1	0	0	1	295624,78	-0,100000001	3,24130034	-0,00027771860625180931	-0,099976773202429107	0,000324054738	-0,16440834267154726	0,0061342963144431206	0,16440834267154726
1	0	0	1	0	0	1	295704,78	-0,100000001	3,22780037	-0,00027771870244666934	-0,099976807834239642	0,000322705164	-0,16663009416229664	0,0062171928497396288	0,16663009416229664
1	0	0	1	0	0	1	295784,78	-0,100000001	3,21409011	-0,00027771845654729338	-0,099976719311004941	0,000321334199	-0,16885184284695418	0,0063000892803370778	0,16885184284695418
1	0	0	1	0	0	1	295864,78	-0,100000001	3,20013165	-0,00027771890627758368	-0,099976881212537856	0,000319939194	-0,17107359501672262	0,0063829858409687014	0,17107359501672262
1	0	0	1	0	0	1	295944,78	-0,100000001	3,18550515	-0,0002777180034249193	-0,099976556194746573	0,000318475824	-0,17329534699619907	0,0064658823945002739	0,17329534699619907
1	0	0	1	0	0	1	296024,78	-0,100000001	3,17070651	-0,00027771807627462678	-0,099976582416644723	0,000316996389	-0,17551708989882566	0,0065487786093623744	0,17551708989882566
1	0	0	1	0	0	1	296104,79	-0,100000001	3,15535426	-0,00027771858657358422	-0,09997676611840448	0,000315462123	-0,17773883717879664	0,0066316749875490803	0,17773883717879664
1	0	0	1	0	0	1	296184,79	-0,100000001	3,13986826	-0,00027771931996817392	-0,09997703013537312	0,000313914701	-0,17996058722403328	0,0067145714689115648	0,17996058722403328
1	0	0	1	0	0	1	296264,79	-0,100000001	3,12375212	-0,00027771879949172339	-0,099976842767458714	0,000312302873	-0,18218233799688486	0,0067974679774223424	0,18218233799688486
1	0	0	1	0	0	1	296344,79	-0,100000001	3,10731149	-0,00027771922342603402	-0,099976995385527424	0,000310659671	-0,18440408939488867	0,0068803645092583885	0,18440408939488867
1	0	0	1	0	0	1	296424,79	-0,100000001	3,09031701	-0,00027771883150065939	-0,099976854295109235	0,000308960181	-0,18662584153881389	0,0069632610689257664	0,18662584153881389
1	0	0	1	0	0	1	296504,79	-0,100000001	3,07297873	-0,00027771891089611584	-0,099976882876923213	0,000307226845	-0,18884759272266189	0,0070461575927713715	0,18884759272266189
1	0	0	1	0	0	1	296584,80	-0,100000001	3,05508685	-0,00027771894551565251	-0,099976895339716442	0,000305438094	-0,19106934328304941	0,0071290540933548288	0,19106934328304941
1	0	0	1	0	0	1	296664,80	-0,100000001	3,03681302	-0,00027771937748168909	-0,099977050844495386	0,000303611596	-0,19329109612797123	0,0072119506791773325	0,19329109612797123
1	0	0	1	0	0	1	296744,80	-0,100000001	3,01792812	-0,00027771897771913146	-0,099976906932745638	0,000301723107	-0,1955128491732392	0,0072948472724750195	0,1955128491732392
1	0	0	1	0	0	1	296824,80	-0,100000001	2,99852777	-0,00027771932210649053	-0,099977030909807731	0,000299783889	-0,19773460234640669	0,0073777438705448102	0,19773460234640669
1	0	0	1	0	0	1	296904,80	-0,100000001	2,97842073	-0,00027771914531952806	-0,099976967267726669	0,000297773484	-0,19995635885351194	0,0074606405930083008	0,19995635885351194
1	0	0	1	0	0	1	296984,80	-0,100000001	2,95781732	-0,000277718923629572	-0,099976887460879168	0,000295713369	-0,20217811070206758	0,0075435371416550426	0,20217811070206758
1	0	0	1	0	0	1	297064,80	-0,100000001	2,93683195	-0,0002777189237429864	-0,099976887501707558	0,000293615303	-0,20439986643763962	0,0076264338353315917	0,20439986643763962
1	0	0	1	0	0	1	297144,81	-0,100000001	2,91512108	-0,00027771923887812432	-0,099977000943517363	0,00029144506	-0,20662162120218656	0,007709330492777888	0,20662162120218656
1	0	0	1	0	0	1	297224,81	-0,100000001	2,89299011	-0,00027771855129881037	-0,099976753419730394	0,000289231772	-0,2088433745957799	0,007792227099072064	0,2088433745957799
1	0	0	1	0	0	1	297304,81	-0,100000001	2,87019086	-0,00027771860876182717	-0,099976774108345869	0,000286952418	-0,21106512416725722	0,007875123562757952	0,21106512416725722
1	0	0	1	0	0	1	297384,81	-0,100000001	2,84702873	-0,00027771889362773962	-0,099976876656935885	0,000284637033	-0,21328687320131843	0,0079580200063921229	0,21328687320131843
1	0	0	1	0	0	1	297464,81	-0,100000001	2,82348466	-0,00027771919146883818	-0,099976983877666829	0,000282283494	-0,21550862491652403	0,0080409165500633946	0,21550862491652403
1	0	0	1	0	0	1	297544,81	-0,100000001	2,79957795	-0,00027771897209766842	-0,099976904905566336	0,000279893138	-0,21773037527758576	0,0081238130432097382	0,21773037527758576
1	0	0	1	0	0	1	297624,82	-0,100000001	2,77542281	-0,00027771909927245642	-0,099976950688772339	0,000277478306	-0,21995212835457331	0,0082067096376909261	0,21995212835457331
1	0	0	1	0	0	1	297704,82	-0,100000001	2,75084758	-0,00027771905479042067	-0,099976934673220096	0,000275021303	-0,22217387984429373	0,0082896061729490419	0,22217387984429373
1	0	0	1	0	0	1	297784,82	-0,100000001	2,72625351	-0,00027771934173752864	-0,099977037972189926	0,000272562756	-0,22439563475438739	0,0083725028358258842	0,22439563475438739
1	0	0	1	0	0	1	297864,82	-0,100000001	2,70137286	-0,00027771963057625626	-0,099977141952129741	0,000270075543	-0,22661738907705117	0,0084553994767849267	0,22661738907705117
1	0	0	1	0	0	1	297944,82	-0,100000001	2,67628217	-0,00027771852438731328	-0,099976743736433434	0,000267565978	-0,22883914097233318	0,0085382960271750912	0,22883914097233318
1	0	0	1	0	0	1	298024,82	-0,100000001	2,65134406	-0,00027771909980848435	-0,099976950884066406	0,000265073293	-0,23106089346682275	0,0086211925999224947	0,23106089346682275
1	0	0	1	0	0	1	298104,82	-0,100000001	2,626158	-0,00027771990425926115	-0,099977240480769907	0,000262556016	-0,2332826477643048	0,0087040892399419738	0,2332826477643048
1	0	0	1	0	0	1	298184,83	-0,100000001	2,60100985	-0,00027771925806047187	-0,099977007853684966	0,000260041183	-0,23550440575428963	0,008786986017733696	0,23550440575428963
1	0	0	1	0	0	1	298264,83	-0,100000001	2,57590008	-0,00027771971687136426	-0,099977173022425907	0,00025753121	-0,23772615796919578	0,0088698825800494682	0,23772615796919578
1	0	0	1	0	0	1	298344,83	-0,100000001	2,55094314	-0,00027771935998275878	-0,099977044545001766	0,00025503576	-0,23994791352195002	0,0089527792669048397	0,23994791352195002
1	0	0	1	0	0	1	298424,83	-0,100000001	2,52573776	-0,00027771916501927706	-0,099976974359499763	0,000252515631	-0,24216966937066448	0,0090356759648028851	0,24216966937066448
1	0	0	1	0	0	1	298504,83	-0,100000001	2,50064707	-0,00027771884462899635	-0,099976859021219546	0,000250006851	-0,24439142095353536	0,0091185725035365696	0,24439142095353536
1	0	0	1	0	0	1	298584,83	-0,100000001	2,47559452	-0,00027771946582570672	-0,09997708264772937	0,000247502729	-0,24661317446896595	0,0092014691143766579	0,24661317446896595
1	0	0	1	0	0	1	298664,84	-0,100000001	2,45044661	-0,00027771842603840762	-0,099976708331509107	0,000244987576	-0,24883492166141088	0,0092843654892976486	0,24883492166141088
1	0	0	1	0	0	1	298744,84	-0,100000001	2,42497396	-0,00027771923784539107	-0,099977000571740557	0,000242441631	-0,25105666915529712	0,0093672618754658202	0,25105666915529712
1	0	0	1	0	0	1	298824,84	-0,100000001	2,39942503	-0,00027771860974282022	-0,099976774459168845	0,00023988678	-0,25327841725189638	0,0094501582841220224	0,25327841725189638
1	0	0	1	0	0	1	298904,84	-0,100000001	2,37381864	-0,00027771803164523507	-0,099976566350373069	0,00023732624	-0,25550016457137197	0,0095330546637826995	0,25550016457137197
1	0	0	1	0	0	1	298984,84	-0,100000001	2,34742951	-0,00027771868117484781	-0,099976800176531341	0,000234688487	-0,2577219121598359	0,0096159510534796928	0,2577219121598359
1	0	0	1	0	0	1	299064,84	-0,100000001	2,32025743	-0,00027771901626015702	-0,099976920803756109	0,000231972197	-0,2599436644362313	0,0096988476180897101	0,2599436644362313
1	0	0	1	0	0	1	299144,84	-0,100000001	2,29167247	-0,00027771924092496432	-0,099977001681529434	0,000229114536	-0,26216541970278506	0,0097817442942665562	0,26216541970278506
1	0	0	1	0	0	1	299224,85	-0,100000001	2,26146436	-0,00027771905653923747	-0,099976935305109747	0,000226094271	-0,26438717047324006	0,009864640802687913	0,26438717047324006
1	0	0	1	0	0	1	299304,85	-0,100000001	2,22841096	-0,0002777191634318895	-0,099976973783395802	0,000222789778	-0,26660892305522803	0,0099475373787000013	0,26660892305522803
1	0	0	1	0	0	1	299384,85	-0,100000001	2,19226432	-0,00027771937837575872	-0,099977051161698803	0,000219176116	-0,26883067812563043	0,010030434047558178	0,26883067812563043
1	0	0	1	0	0	1	299464,85	-0,100000001	2,15159225	-0,00027771938595631053	-0,099977053890644902	0,00021510986	-0,27105243163004582	0,010113330657987274	0,27105243163004582
1	0	0	1	0	0	1	299544,85	-0,100000001	2,10595536	-0,00027772007239568566	-0,099977301008717248	0,000210547732	-0,27327418863827267	0,010196227399148285	0,27327418863827267
1	0	0	1	0	0	1	299624,85	-0,100000001	2,05527759	-0,00027771914511753453	-0,099976967195010406	0,000205480421	-0,27549594512372371	0,010279124120803826	0,27549594512372371
1	0	0	1	0	0	1	299704,86	-0,100000001	2,00083804	-0,00027771858732195363	-0,099976766392467725	0,000200037321	-0,2777176995454375	0,010362020765458558	0,2777176995454375
1	0	0	1	0	0	1	299784,86	-0,100000001	1,94296122	-0,00027771760187794762	-0,099976411639456282	0,000194250286	-0,2799394464916648	0,010444917131192837	0,2799394464916648
1	0	0	1	0	0	1	299864,86	-0,100000001	1,88391972	-0,00027771806272698778	-0,099976577541916301	0,00018834784	-0,28216119246977843	0,010527813460805494	0,28216119246977843
1	0	0	1	0	0	1	299944,86	-0,100000001	1,82537472	-0,0002777180157423847	-0,099976560627784883	0,000182494681	-0,2843829377353919	0,010610709763833814	0,2843829377353919
1	0	0	1	0	0	1	300024,86	-0,100000001	1,76849008	-0,00027771897756391098	-0,099976906876867366	0,000176808171	-0,28660468583979616	0,010693606172781232	0,28660468583979616
1	0	0	1	0	0	1	300104,86	-0,100000001	1,71471882	-0,00027771907904868323	-0,099976943410681907	0,000171432344	-0,2888264350550873	0,010776502623177336	0,2888264350550873
1	0	0	1	0	0	1	300184,86	-0,100000001	1,66333437	-0,00027771811121991939	-0,099976594999035546	0,0001662945	-0,29104818549314957	0,01085939911919667	0,29104818549314957
1	0	0	1	0	0	1	300264,87	-0,100000001	1,61567354	-0,00027771802770305011	-0,09997656493354153	0,00016152949	-0,29326993085071424	0,010942295425655814	0,29326993085071424
1	0	0	1	0	0	1	300344,87	-0,100000001	1,5728054	-0,0002777184683908191	-0,099976723573428237	0,000157243936	-0,29549167993251296	0,011025191871071133	0,29549167993251296
1	0	0	1	0	0	1	300424,87	-0,100000001	1,53585684	-0,00027771891710162163	-0,099976885106206835	0,00015355018	-0,29771343055049062	0,011108088373803358	0,29771343055049062
1	0	0	1	0	0	1	300504,87	-0,100000001	1,50528586	-0,00027771803210592934	-0,099976566513892096	0,000150493317	-0,29993517925654752	0,011190984805199245	0,29993517925654752
1	1	0	0	0	0	2	300570,72	0,100000001	2,27607083	0,00027783114742777411	0,1000172872468447	0,000227646437	-0,29898612725794874	0,011155574399117542	0,0013891606196620398
1	1	0	0	0	0	2	300650,72	0,100000001	2,62239528	0,0002778311074980431	0,10001727287358266	0,000262284826	-0,29676347714674003	0,011072644335083486	0,0036118107308708128
1	1	0	0	0	0	2	300730,72	0,100000001	2,75663233	0,0002778312870855961	0,10001733752152822	0,000275711034	-0,29454082886002778	0,010989714339123846	0,0058344590175830656
1	1	0	0	0	0	2	300810,72	0,100000001	2,84305596	0,00027783120176651411	0,10001730680725011	0,000284354814	-0,29231817904959187	0,010906784286312032	0,0080571088280189363
1	1	0	0	0	0	2	300890,73	0,100000001	2,90580177	0,00027783151058480147	0,10001741797969294	0,000290630793	-0,29009552761380576	0,010823854172856213	0,010279760263805174
1	1	0	0	0	0	2	300970,73	0,100000001	2,95384455	0,00027783121904523837	0,10001731303212842	0,000295435602	-0,28787287611462624	0,010740924057035102	0,012502411762984678
1	1	0	0	0	0	2	301050,73	0,100000001	2,99270272	0,00027783137796901994	0,10001737024358818	0,000299322244	-0,28565022399782957	0,010657993918169864	0,014725063879781299
1	1	0	0	0	0	2	301130,73	0,100000001	3,02617621	0,00027783173414982022	0,10001749846620736	0,000302670582	-0,28342757260206826	0,010575063806207424	0,016947715275542602
1	1	0	0	0	0	2	301210,73	0,100000001	3,05726266	0,00027783152730845744	0,1000174240047505	0,00030577954	-0,28120491902344035	0,010492133612799299	0,019170368854170451
1	1	0	0	0	0	2	301290,73	0,100000001	3,08811998	0,00027783140490783581	0,10001737994137517	0,000308865681	-0,27898226490396909	0,010409203399211579	0,021393022973641744
1	1	0	0	0	0	2	301370,74	0,100000001	3,12010407	0,00027783194490356573	0,10001757433609488	0,00031206524	-0,27675961192110298	0,010326273228032126	0,023615675956507926
1	1	0	0	0	0	2	301450,74	0,100000001	3,15338635	0,00027783173091957968	0,10001749730334315	0,000315393816	-0,27453695678133261	0,010243342976375677	0,025838331096278288
1	1	0	0	0	0	2	301530,74	0,100000001	3,18838739	0,00027783035976853632	0,10001700369847187	0,00031889294	-0,27231430728990547	0,010160412935466504	0,028060980587705546
1	1	0	0	0	0	2	301610,74	0,100000001	3,22476315	0,00027783102395261325	0,10001724280013568	0,000322531909	-0,27009165751924736	0,01007748288413885	0,030283630358363597
1	1	0	0	0	0	2	301690,74	0,100000001	3,2619791	0,00027783087649982835	0,1000171897181552	0,000326253969	-0,26786900970564032	0,0099945529058314035	0,032506278171970605
1	1	0	0	0	0	2	301770,74	0,100000001	3,29827857	0,00027783177660695379	0,10001751374582381	0,000329885632	-0,26564636087148096	0,0099116228894457779	0,03472892700612999
1	1	0	0	0	0	2	301850,74	0,100000001	3,33306956	0,00027783111895124118	0,10001727699432592	0,000333364529	-0,26342370903835123	0,0098286927611645338	0,036951578839259834
1	1	0	0	0	0	2	301930,75	0,100000001	3,36560726	0,00027783113314294154	0,10001728210556834	0,00033661889	-0,26120105848631392	0,0097457626806825728	0,039174229391297094
1	1	0	0	0	0	2	302010,75	0,100000001	3,39537621	0,0002778314163266785	0,1000173840497507	0,000339596649	-0,25897840594845389	0,0096628325261068941	0,041396881929157069
1	1	0	0	0	0	2	302090,75	0,100000001	3,42224264	0,00027783182016056445	0,10001752942598608	0,000342284242	-0,25675575310886112	0,009579902360273161	0,043619534768749824
1	1	0	0	0	0	2	302170,75	0,100000001	3,44635963	0,00027783132335253888	0,10001735057854058	0,000344695756	-0,2545331026936335	0,0094969722848957542	0,045842185183977466
1	1	0	0	0	0	2	302250,75	0,100000001	3,46808958	0,00027783021874063542	0,10001695292707645	0,000346867746	-0,25231045612848758	0,0094140423531700685	0,048064831749123386
1	1	0	0	0	0	2	302330,75	0,100000001	3,48758554	0,00027783088917947475	0,10001719428041136	0,000348818518	-0,25008780979906432	0,0093311124302395149	0,050287478078546573
1	1	0	0	0	0	2	302410,76	0,100000001	3,50519109	0,00027783233926652205	0,10001771629936822	0,00035058122	-0,24786515692608925	0,0092481822631602445	0,052510130951521664
1	1	0	0	0	0	2	302490,76	0,100000001	3,52142167	0,00027783166631600925	0,10001747404184826	0,0003522037	-0,24564250235496829	0,0091652520327208678	0,054732785522642605
1	1	0	0	0	0	2	302570,76	0,100000001	3,53618193	0,00027783203769806358	0,10001760774147088	0,000353680458	-0,24341984774867523	0,0090823218009691725	0,056955440128935661
1	1	0	0	0	0	2	302650,76	0,100000001	3,54962492	0,00027783250634910333	0,10001777645259669	0,000355025579	-0,24119719084021898	0,008999391483320672	0,059178097037391898
1	1	0	0	0	0	2	302730,76	0,100000001	3,56207466	0,00027783227902443869	0,10001769461729314	0,000356270495	-0,23897453391115114	0,0089164611649031283	0,06140075396645975
1	1	0	0	0	0	2	302810,76	0,100000001	3,57349348	0,00027783184022290842	0,10001753665178384	0,000357412006	-0,23675187742338909	0,0088335308629512947	0,063623410454221862
1	1	0	0	0	0	2	302890,76	0,100000001	3,58433938	0,00027783172522857786	0,10001749525462195	0,000358496647	-0,23452922320527421	0,008750600645683049	0,065846064672336781
1	1	0	0	0	0	2	302970,77	0,100000001	3,59440231	0,0002778316241448952	0,10001745886519686	0,000359502999	-0,23230656707991245	0,0086676703572528576	0,068068720797698509
1	1	0	0	0	0	2	303050,77	0,100000001	3,60393071	0,00027783141844926611	0,10001738481619619	0,000360455713	-0,23008391344643466	0,0085847401617982093	0,070291374431176294
1	1	0	0	0	0	2	303130,77	0,100000001	3,61282897	0,00027783113279980093	0,10001728198436874	0,00036134533	-0,22786125899748918	0,0085018099359173632	0,072514028880121792
1	1	0	0	0	0	2	303210,77	0,100000001	3,62132621	0,00027783190986058778	0,10001756172086571	0,00036219621	-0,22563860477197629	0,0084188797183730867	0,074736683105634726
1	1	0	0	0	0	2	303290,77	0,100000001	3,6292696	0,00027783178091504506	0,10001751530136414	0,00036299054	-0,22341595085910378	0,008335949512493847	0,0769593370185072
1	1	0	0	0	0	2	303370,77	0,100000001	3,63679314	0,00027783113199182685	0,10001728168884635	0,000363742176	-0,22119329723046595	0,0082530193172197824	0,079181990647145011
1	1	0	0	0	0	2	303450,78	0,100000001	3,64408731	0,00027783142572268848	0,10001738742992048	0,0003644721	-0,21897064410234	0,0081700891406204877	0,08140464377527104
1	1	0	0	0	0	2	303530,78	0,100000001	3,6511333	0,00027783126832917331	0,10001733076934603	0,000365176616	-0,21674799084822762	0,0080871589593204723	0,083627297029383488
1	1	0	0	0	0	2	303610,78	0,100000001	3,65781665	0,00027783141016132307	0,10001738183026547	0,000365845248	-0,21452534103920525	0,0080042289065613978	0,085849946838405798
1	1	0	0	0	0	2	303690,78	0,100000001	3,66432786	0,00027783181667120922	0,10001752816984238	0,000366497028	-0,21230268818451222	0,0079212987401642547	0,088072599693098816
1	1	0	0	0	0	2	303770,78	0,100000001	3,67055297	0,00027783233037673766	0,10001771309968963	0,000367120316	-0,21008002945280912	0,0078383683544879629	0,090295258424801946
1	1	0	0	0	0	2	303850,78	0,100000001	3,67664409	0,00027783191870525482	0,10001756489906288	0,000367728993	-0,20785737121671779	0,0077554379873036147	0,092517916660893274
1	1	0	0	0	0	2	303930,78	0,100000001	3,68248725	0,00027783205327101878	0,10001761334529814	0,000368313573	-0,20563471635196701	0,0076725077459085146	0,094740571525644083
1	1	0	0	0	0	2	304010,79	0,100000001	3,68817735	0,0002778314447009729	0,10001739426197134	0,000368881883	-0,20341206211103302	0,0075895775277888576	0,096963225766578048
1	1	0	0	0	0	2	304090,79	0,100000001	3,69373417	0,00027783220706176432	0,10001766870657181	0,000369438669	-0,20118940479155926	0,0075066471948047411	0,099185883086051763
1	1	0	0	0	0	2	304170,79	0,100000001	3,69929075	0,00027783227021743859	0,10001769144683413	0,000369994523	-0,19896674745694432	0,007423716861255689	0,10140854042066672
1	1	0	0	0	0	2	304250,79	0,100000001	3,70442724	0,00027783170230314134	0,10001748700162371	0,000370507507	-0,19674408966885638	0,0073407865107869491	0,10363119820875462
1	1	0	0	0	0	2	304330,79	0,100000001	3,70954466	0,00027783207266363834	0,10001762032883542	0,000371019822	-0,19452143432734416	0,0072578562516032384	0,10585385355026685
1	1	0	0	0	0	2	304410,79	0,100000001	3,714643	0,00027783089642723398	0,1000171968918831	0,000371528178	-0,19229878329420054	0,0071749261531705536	0,10807650458341045
1	1	0	0	0	0	2	304490,80	0,100000001	3,71958852	0,00027783147631088893	0,10001740564597934	0,000372023584	-0,19007613212304816	0,0070919960495885747	0,11029915575456283
1	1	0	0	0	0	2	304570,80	0,100000001	3,72453427	0,0002778317406566607	0,10001750080862482	0,000372518611	-0,18785347906992883	0,0070090658757878797	0,11252180880768221
1	1	0	0	0	0	2	304650,80	0,100000001	3,72940326	0,00027783209255917206	0,10001762749108966	0,000373006071	-0,1856308243772761	0,0069261356408139891	0,11474446350033496
1	1	0	0	0	0	2	304730,80	0,100000001	3,73406243	0,00027783178853367766	0,10001751804401907	0,000373471645	-0,18340816959828938	0,0068432054026188608	0,1169671182793217
1	1	0	0	0	0	2	304810,80	0,100000001	3,73885536	0,00027783109770218534	0,10001726934947042	0,000373950112	-0,18118551742783741	0,006760275261751671	0,11918977044977366
1	1	0	0	0	0	2	304890,80	0,100000001	3,74347639	0,00027783133440174992	0,10001735455967294	0,000374412601	-0,17896286486835994	0,0066773451063694182	0,12141242300925107
1	1	0	0	0	0	2	304970,80	0,100000001	3,74803996	0,00027783162731015014	0,10001746000000938	0,000374869443	-0,17674020970522246	0,0065944148538411098	0,12363507817238853
1	1	0	0	0	0	2	305050,81	0,100000001	3,75277543	0,00027783134384577475	0,1000173579547991	0,000375342672	-0,17451755701375888	0,0065114846935342758	0,12585773086385213
1	1	0	0	0	0	2	305130,81	0,100000001	3,75726295	0,00027783157384561168	0,10001744075314613	0,000375791831	-0,17229490600563846	0,0064285545960352397	0,12808038187197254
1	1	0	0	0	0	2	305210,81	0,100000001	3,76169276	0,00027783156688180234	0,1000174382485517	0,000376234879	-0,17007225216071565	0,0063456243926912922	0,13030303571689536
1	1	0	0	0	0	2	305290,81	0,100000001	3,76625657	0,00027783093167593082	0,10001720957767662	0,00037669047	-0,16784960001993149	0,006262694252931049	0,13252568785767952
1	1	0	0	0	0	2	305370,81	0,100000001	3,7707057	0,0002778316612897648	0,10001747223359944	0,000377136457	-0,1656269478429408	0,0061797641118198912	0,13474834003467021
1	1	0	0	0	0	2	305450,81	0,100000001	3,7750783	0,00027783084993105795	0,10001718015008904	0,000377572695	-0,16340429561543808	0,0060968339688240614	0,13697099226217293
1	1	0	0	0	0	2	305530,82	0,100000001	3,77948928	0,00027783115818806819	0,10001729112164032	0,000378014287	-0,16118164281341814	0,0060139038043922227	0,13919364506419285
1	1	0	0	0	0	2	305610,82	0,100000001	3,78374743	0,00027783118438306781	0,10001730054932995	0,000378440192	-0,15895899277659347	0,0059309737431335373	0,14141629510101752
1	1	0	0	0	0	2	305690,82	0,100000001	3,78817749	0,00027783179637293021	0,1000175208614383	0,000378884113	-0,15673634343359053	0,005848043707762272	0,14363894444402048
1	1	0	0	0	0	2	305770,82	0,100000001	3,79232121	0,00027783091749788986	0,10001720447251582	0,000379297358	-0,15451369336527555	0,0057651136453286413	0,14586159451233542
1	1	0	0	0	0	2	305850,82	0,100000001	3,79671288	0,00027783136264234781	0,10001736472609245	0,000379737205	-0,15229104394333616	0,005682183607012151	0,14808424393427485
1	1	0	0	0	0	2	305930,82	0,100000001	3,80100918	0,00027783105827495456	0,10001725515594064	0,000380166515	-0,15006839337102544	0,0055992535257737613	0,15030689450658554
1	1	0	0	0	0	2	306010,82	0,100000001	3,80538201	0,00027783115945590864	0,10001729158038275	0,000380604004	-0,14784574289670851	0,0055163234481916512	0,1525295449809025
1	1	0	0	0	0	2	306090,83	0,100000001	3,80983114	0,00027783070470475491	0,10001712787311958	0,000381048361	-0,14562309332191341	0,0054333934041719085	0,1547521945556976
1	1	0	0	0	0	2	306170,83	0,100000001	3,814013	0,00027783119988772602	0,10001730613555677	0,000381467311	-0,14340044586921254	0,0053504634393303571	0,15697484200839846
1	1	0	0	0	0	2	306250,83	0,100000001	3,81848121	0,00027783119768690736	0,10001730534327728	0,0003819142	-0,14117779671458755	0,0052675334109877267	0,15919749116302346
1	1	0	0	0	0	2	306330,83	0,100000001	3,82254839	0,00027783134426010982	0,10001735810861418	0,000382321188	-0,13895514789073027	0,0051846033949864858	0,16142013998688074
1	1	0	0	0	0	2	306410,83	0,100000001	3,82703567	0,00027783121059669392	0,10001730999071094	0,000382769824	-0,1367324979405033	0,0051016733369588762	0,16364278993710771
1	1	0	0	0	0	2	306490,83	0,100000001	3,83125567	0,00027783045553291837	0,1000170381729856	0,00038319084	-0,13450984972036448	0,0050187433434831821	0,16586543815724653
1	1	0	0	0	0	2	306570,84	0,100000001	3,83574295	0,0002778312106889983	0,10001731002393989	0,000383640698	-0,13228720159452018	0,0049358133535257434	0,16808808628309082
1	1	0	0	0	0	2	306650,84	0,100000001	3,8400774	0,00027783017899054621	0,10001693861499118	0,000384072773	-0,13006455451457061	0,0048528834025920429	0,17031073336304038
1	1	0	0	0	0	2	306730,84	0,100000001	3,84452653	0,00027783086059366666	0,10001718398738992	0,000384518731	-0,12784190897139314	0,0047699535089973747	0,17253337890621786
1	1	0	0	0	0	2	306810,84	0,100000001	3,84891844	0,00027783178393211629	0,10001751638981754	0,000384959276	-0,12561925871353582	0,0046870234394916646	0,17475602916407517
1	1	0	0	0	0	2	306890,84	0,100000001	3,85342479	0,00027783079209509824	0,10001715933070877	0,00038540861	-0,12339660852046546	0,004604093372403241	0,17697867935714554
1	1	0	0	0	0	2	306970,84	0,100000001	3,85789299	0,00027783108290284874	0,10001726401831882	0,000385855907	-0,12117395913191581	0,0045211633353325683	0,17920132874569517
1	1	0	0	0	0	2	307050,84	0,100000001	3,8624568	0,0002778316271896992	0,10001745995839435	0,000386313128	-0,11895130854212893	0,0044382332534421184	0,18142397933548208
1	1	0	0	0	0	2	307130,85	0,100000001	3,86694407	0,00027783138562076624	0,10001737299350646	0,000386761589	-0,11672865639732642	0,004355303113531945	0,18364663148028461
1	1	0	0	0	0	2	307210,85	0,100000001	3,87148857	0,00027783090110205942	0,10001719857013053	0,000387215434	-0,11450600711174998	0,0042723730803033414	0,18586928076586102
1	1	0	0	0	0	2	307290,85	0,100000001	3,87618589	0,00027783081533966794	0,10001716769626405	0,000387685141	-0,11228335865948253	0,0041894430781666157	0,18809192921812851
1	1	0	0	0	0	2	307370,85	0,100000001	3,88086414	0,00027783129550889136	0,10001734055385614	0,000388153712	-0,1100607086303233	0,0041065130171939373	0,19031457924728774
1	1	0	0	0	0	2	307450,85	0,100000001	3,88556147	0,00027783167518220016	0,10001747723827286	0,000388624059	-0,10783805702252797	0,0040235828973202246	0,19253723085508301
1	1	0	0	0	0	2	307530,85	0,100000001	3,89029694	0,00027783133100469904	0,10001735333675819	0,0003890972	-0,10561540395004579	0,0039406527227970752	0,19475988392756518
1	1	0	0	0	0	2	307610,86	0,100000001	3,89508986	0,00027783112634759811	0,10001727966162046	0,000389576278	-0,10339275183570333	0,0038577225840234067	0,19698253604190768
1	1	0	0	0	0	2	307690,86	0,100000001	3,89988279	0,00027783155540873606	0,10001743412065603	0,000390056259	-0,10117009996405522	0,003774792454304992	0,19920518791355578
1	1	0	0	0	0	2	307770,86	0,100000001	3,90471363	0,00027783142101971642	0,1000173857415405	0,000390539237	-0,09894744794385911	0,0036918623190440512	0,2014278399337519
1	1	0	0	0	0	2	307850,86	0,100000001	3,90988851	0,00027783153357687923	0,1000174262613389	0,000391056994	-0,096724796678450253	0,0036089322119452371	0,20365049119916074
1	1	0	0	0	0	2	307930,86	0,100000001	3,91492939	0,00027783184686634275	0,10001753904337418	0,000391561596	-0,094502143873460032	0,0035260020474025728	0,20587314400415091
1	1	0	0	0	0	2	308010,86	0,100000001	3,91998959	0,00027783203960251472	0,10001760842706011	0,000392067974	-0,092279488947460083	0,0034430718037221837	0,20809579893015091
1	1	0	0	0	0	2	308090,86	0,100000001	3,92508793	0,00027783201899503664	0,10001760100851085	0,000392577873	-0,09005683308023328	0,0033601415249233549	0,2103184547973777
1	1	0	0	0	0	2	308170,87	0,100000001	3,93022442	0,00027783197255515395	0,10001758429047496	0,000393091555	-0,087834179261468634	0,0032772113225554035	0,2125411086161423
1	1	0	0	0	0	2	308250,87	0,100000001	3,93560934	0,00027783169343074163	0,10001748380296398	0,000393629743	-0,085611523931706816	0,0031942810638101165	0,2147637639459041
1	1	0	0	0	0	2	308330,87	0,100000001	3,94089866	0,00027783195819581549	0,1000175791165553	0,000394159142	-0,08338886967620073	0,0031113508451467546	0,21698641820141011
1	1	0	0	0	0	2	308410,87	0,100000001	3,94628334	0,00027783232992763322	0,10001771293743296	0,000394698232	-0,081166212406899213	0,0030284205140346336	0,21920907547071162
1	1	0	0	0	0	2	308490,87	0,100000001	3,95176363	0,0002778317771582968	0,10001751394663214	0,000395245588	-0,078943559257640038	0,002945490336646832	0,22143172861997078
1	1	0	0	0	0	2	308570,87	0,100000001	3,95720553	0,00027783173339027498	0,10001749818928334	0,000395789801	-0,07672090511108009	0,0028625601220483968	0,22365438276653069
1	1	0	0	0	0	2	308650,88	0,100000001	3,96299148	0,00027783144400392973	0,10001739401220496	0,000396368094	-0,074498249829167552	0,0027796298650884307	0,2258770380484432
1	1	0	0	0	0	2	308730,88	0,100000001	3,96870065	0,00027783149412605498	0,10001741205582264	0,000396939169	-0,072275597212456435	0,0026966997075707123	0,2280996906651543
1	1	0	0	0	0	2	308810,88	0,100000001	3,97454381	0,00027783136319865782	0,10001736492636018	0,000397523399	-0,070052944094675149	0,0026137695313573926	0,23032234378293565
1	1	0	0	0	0	2	308890,88	0,100000001	3,98038673	0,00027783182478158013	0,1000175310930127	0,000398108445	-0,067830291530760909	0,0025308393758095971	0,23254499634684989
1	1	0	0	0	0	2	308970,88	0,100000001	3,98630619	0,00027783212135980522	0,10001763785446062	0,00039870094	-0,065607636125511053	0,0024479091142477501	0,23476765175209974
1	1	0	0	0	0	2	309050,88	0,100000001	3,99256945	0,000277831764543636	0,10001750940777035	0,000399326847	-0,063384980903648128	0,0023649788595283152	0,23699030697396266
1	1	0	0	0	0	2	309130,88	0,100000001	3,99862242	0,00027783057482002515	0,10001708111551717	0,000399930548	-0,061162330848797619	0,0022820487975970608	0,23921295702881318
1	1	0	0	0	0	2	309210,89	0,100000001	4,00498104	0,00027783147981183395	0,10001740690629528	0,000400567806	-0,058939681699688102	0,0021991187694602211	0,24143560617792269
1	1	0	0	0	0	2	309290,89	0,100000001	4,01132059	0,00027783164051382077	0,10001746475789662	0,000401202124	-0,05671702726300007	0,0021161885440367174	0,24365826061461075
1	1	0	0	0	0	2	309370,89	0,100000001	4,01767921	0,00027783190609556102	0,10001756036548219	0,000401838479	-0,054494375681939526	0,0020332584251605146	0,24588091219567136
1	1	0	0	0	0	2	309450,89	0,100000001	4,02420998	0,00027783201927070813	0,10001760110775066	0,000402491831	-0,05227172103059239	0,0019503281917277914	0,24810356684701846
1	1	0	0	0	0	2	309530,89	0,100000001	4,03083563	0,00027783094399587974	0,10001721401626584	0,000403152953	-0,050049070970943699	0,0018673981296175104	0,25032621690666714
1	1	0	0	0	0	2	309610,89	0,100000001	4,03755713	0,00027783102648249933	0,10001724371087714	0,000403825339	-0,047826420065029101	0,001784468035931911	0,25254886781258179
1	1	0	0	0	0	2	309690,90	0,100000001	4,04435492	0,00027783137621026896	0,10001736961045002	0,000404505729	-0,045603772624658509	0,0017015380715504173	0,25477151525295251
1	1	0	0	0	0	2	309770,90	0,100000001	4,05124807	0,0002778306815843615	0,10001711954993822	0,000405194151	-0,043381123673870624	0,0016186080508132243	0,25699416420374032
1	1	0	0	0	0	2	309850,90	0,100000001	4,058218	0,00027783088438461222	0,10001719255196542	0,000405891566	-0,041158475102227059	0,0015356780442224154	0,25921681277538387
1	1	0	0	0	0	2	309930,90	0,100000001	4,06516838	0,00027783074358767936	0,10001714186604554	0,000406586536	-0,038935827893637427	0,0014527480884889811	0,26143945998397357
1	1	0	0	0	0	2	310010,90	0,100000001	4,07230997	0,00027783160240037578	0,10001745103266326	0,000407302054	-0,036713176551738438	0,0013698179785362179	0,26366211132587251
1	1	0	0	0	0	2	310090,90	0,100000001	4,07941294	0,00027783095022497901	0,10001721625636976	0,000408011518	-0,034490527377926528	0,0012868879494776986	0,26588476049968442
1	1	0	0	0	0	2	310170,90	0,100000001	4,08674574	0,00027783108156381382	0,10001726354093288	0,000408745138	-0,032267879400811155	0,0012039579650695357	0,26810740847679974
1	1	0	0	0	0	2	310250,91	0,100000001	4,0939827	0,00027783253451685114	0,10001778658929762	0,000409471075	-0,030045223687321677	0,0011210276920068533	0,27033006419028931
1	1	0	0	0	0	2	310330,91	0,100000001	4,10131502	0,00027783222124642797	0,10001767381411677	0,000410203997	-0,027822564883789984	0,0010380973036505416	0,27255272299382106
1	1	0	0	0	0	2	310410,91	0,100000001	4,10874271	0,00027783180971609216	0,1000175256672128	0,00041094629	-0,025599910128664128	0,00095516706634569446	0,27477537774894688
1	1	0	0	0	0	2	310490,91	0,100000001	4,11603737	0,00027783153228710093	0,10001742579237032	0,000411675457	-0,023377257283177542	0,00087223690029205632	0,2769980305944335
1	1	0	0	0	0	2	310570,91	0,100000001	4,12348413	0,00027783184547639558	0,10001753853834546	0,000412420719	-0,021154604301882189	0,00078930672917121037	0,27922068357572893
1	1	0	0	0	0	2	310650,91	0,100000001	4,13081646	0,00027783167781680826	0,10001747818205618	0,000413153844	-0,018931949936687856	0,00070637650641523264	0,28144333794092323
1	1	0	0	0	0	2	310730,92	0,100000001	4,13824463	0,00027783140103518963	0,10001737854724936	0,00041389637	-0,016709295145510294	0,00062344626776524813	0,2836659927321008
1	1	0	0	0	0	2	310810,92	0,100000001	4,14548159	0,00027783161491942074	0,10001745554409	0,000414620532	-0,014486644713372726	0,0005405161917569065	0,28588864316423834
1	1	0	0	0	0	2	310890,92	0,100000001	4,15279484	0,00027783135455639821	0,10001736181520666	0,000415351591	-0,012263992339916016	0,00045758604331533754	0,2881112955376951
1	1	0	0	0	0	2	310970,92	0,100000001	4,15997458	0,00027783202381845974	0,10001760274490971	0,000416070689	-0,010041339841130198	0,00037465589019757101	0,29033394803648096
1	1	0	0	0	0	2	311050,92	0,100000001	4,16711617	0,00027783201360909475	0,10001759906960906	0,000416784955	-0,0078186834570309222	0,00029172559211353555	0,29255660442058016
1	1	0	0	0	0	2	311130,92	0,100000001	4,17408562	0,00027783177126654323	0,10001751182797034	0,000417481671	-0,0055960277333295891	0,00020879531866983526	0,29477926014428154
1	1	0	0	0	0	2	311210,92	0,100000001	4,18097878	0,00027783092188338442	0,1000172060559208	0,000418169802	-0,0033733771867341344	0,00012586523839091598	0,29700191069087693
1	1	0	0	0	0	2	311290,93	0,100000001	4,18781471	0,00027783140462305811	0,10001737983885717	0,000418854266	-0,0011507292370931854	4,2935255007860966E-005	0,29922455864051795
1	1	0	0	0	0	2	311370,93	0,100000001	4,19426918	0,00027783068803780605	0,10001712187313354	0,000419498741	0,0010719200763115565	-3,9994779259054784E-005	0,30144720795392269
1	1	0	0	0	0	2	311450,93	0,100000001	4,2000556	0,00027783087247444525	0,10001718826904518	0,000420077762	0,0032945674646178995	-0,00012292474169796094	0,30366985534222899
1	1	0	0	0	0	2	311450,96	0,100000001	4,19992208	8,7792661372158272E-007	0,10001703009469451	0,000420063734	0,0032954453912316218	-0,00012295749832030379	0,30367073326884275