File: Experimentelles/Rohdaten/Batterietests/AlteZelle/Studenten_Batterietests/Sonstige/ECLab-Export/LiCoO2 vs Li_02_CV_C01_loop4.mpt
EC-Lab ASCII FILE
Nb header lines : 3
mode	ox/red	error	control changes	counter inc.	time/s	control/V	Ewe/V	<I>/mA	cycle number	(Q-Qo)/C	P/W
2	0	0	1	0	6560,51	3,10376644	3,10400128	-0,48510423302650451	5	0	0,0015057642
2	0	0	0	0	6561,69	3,09196496	3,09213161	-0,4265086953528231	5	-0,000514797284	0,00131882099
2	0	0	0	0	6562,89	3,07996368	3,08019257	-0,42791188911845523	5	-0,00102766987	0,00131805101
2	0	0	1	0	6564,09	3,06796241	3,06804276	-0,43104472399378758	5	-0,00154375541	0,00132246362
2	0	0	0	0	6565,29	3,05596161	3,05606341	-0,43385101063176902	5	-0,00206346274	0,00132587622
2	0	0	0	0	6566,49	3,04396033	3,04405403	-0,43689300166442989	5	-0,00258680363	0,00132992596
2	0	0	1	0	6567,69	3,03195906	3,03210473	-0,44009527207041856	5	-0,00311382278	0,00133441493
2	0	0	1	0	6568,89	3,01995802	3,02026606	-0,44328103618075418	5	-0,00364425476	0,00133882661
2	0	0	0	0	6570,09	3,00795698	3,00798583	-0,4457810443515591	5	-0,00417825393	0,00134090311
2	0	0	0	0	6571,29	2,99595594	2,99609637	-0,4489660081453639	5	-0,00471563172	0,0013451454
2	0	0	1	0	6572,49	2,98395491	2,98405719	-0,45166942694535008	5	-0,00525655039	0,00134780735
2	0	0	0	0	6573,69	2,97195339	2,97227716	-0,45468068815622867	5	-0,00580086652	0,00135143707
2	0	0	0	0	6574,89	2,95995259	2,96007848	-0,45716039293135322	5	-0,00634855684	0,00135323068
2	0	0	1	0	6576,09	2,94795132	2,94821954	-0,46027623210102317	5	-0,0068996828	0,00135699543
2	0	0	1	0	6577,29	2,93595028	2,93609977	-0,46290785198410381	5	-0,00745412149	0,00135914364
2	0	0	0	0	6578,49	2,92394924	2,92421079	-0,46574597743650336	5	-0,00801196042	0,00136193936
2	0	0	0	0	6579,69	2,91194797	2,91225147	-0,46845921998222758	5	-0,00857311487	0,00136427104
2	0	0	1	0	6580,89	2,89994693	2,90000153	-0,47119424600774982	5	-0,00913748611	0,00136646407
2	0	0	1	0	6582,09	2,88794589	2,88816261	-0,47387777641415776	5	-0,00970521197	0,00136863603
2	0	0	0	0	6583,29	2,87594461	2,87616324	-0,47677356687685005	5	-0,0102763372	0,00137127866
2	0	0	1	0	6584,49	2,86394358	2,86440444	-0,47928646157806054	5	-0,0108507685	0,00137287029
2	0	0	1	0	6585,69	2,85194254	2,85200405	-0,48212526024629555	5	-0,0114283701	0,00137502316
2	0	0	0	0	6586,89	2,83994126	2,84003472	-0,48500670709957651	5	-0,0120093552	0,00137743587
2	0	0	0	0	6588,09	2,82794023	2,82801557	-0,48788577799374886	5	-0,0125935217	0,00137974857
2	0	0	1	0	6589,29	2,81593895	2,81636667	-0,49031447774420122	5	-0,0131809777	0,00138090539
2	0	0	1	0	6590,49	2,80393815	2,80404663	-0,49308552748213331	5	-0,0137715507	0,00138263486
2	0	0	0	0	6591,69	2,79193687	2,79196715	-0,49562922818586227	5	-0,0143653108	0,0013837805
2	0	0	0	0	6592,89	2,77993608	2,78027821	-0,49824588648232646	5	-0,0149621386	0,00138526224
2	0	0	1	0	6594,09	2,7679348	2,76835942	-0,50076187479620147	5	-0,0155621069	0,0013862889
2	0	0	0	0	6595,29	2,75593352	2,75613952	-0,5033005947868041	5	-0,0161651708	0,00138716667
2	0	0	0	0	6596,49	2,74393225	2,74405003	-0,50572677344704787	5	-0,0167711768	0,00138773955
2	0	0	1	0	6597,69	2,73193121	2,73201036	-0,50845321174711168	5	-0,0173803288	0,0013890994
2	0	0	1	0	6598,89	2,71993017	2,72032189	-0,51066721851627149	5	-0,0179923251	0,00138917926
2	0	0	0	0	6600,09	2,7079289	2,70804167	-0,51324447042619072	5	-0,01860746	0,00138988742
2	0	0	0	0	6601,29	2,69592786	2,69592214	-0,51564024404311936	5	-0,0192253683	0,00139012595
2	0	0	1	0	6602,49	2,68392658	2,68426347	-0,51816041395068256	5	-0,0198464002	0,00139087904
2	0	0	1	0	6603,69	2,67192626	2,67203522	-0,52040691523367501	5	-0,0204701312	0,00139054563
2	0	0	0	0	6604,89	2,65992451	2,66023469	-0,52274168779452614	5	-0,0210969597	0,00139061559
2	0	0	1	0	6606,09	2,64792347	2,64815521	-0,5252702715806663	5	-0,0217265505	0,0013909972
2	0	0	1	0	6607,29	2,63592243	2,63604546	-0,5278568204181897	5	-0,0223586522	0,0013914546
2	0	0	0	0	6608,49	2,62392116	2,62416649	-0,52961302548647194	5	-0,0229936186	0,00138979277
2	0	0	0	0	6609,69	2,61191988	2,61208701	-0,53164499408255053	5	-0,0236309711	0,00138870301
2	0	0	1	0	6610,89	2,59991884	2,6000576	-0,53377969780316013	5	-0,0242708661	0,00138785795
2	0	0	1	0	6612,09	2,5879178	2,58796787	-0,5357070360332745	5	-0,0249129832	0,00138639263
2	0	0	0	0	6613,29	2,57591653	2,57630944	-0,53722732948760224	5	-0,0255573913	0,00138406386
2	0	0	1	0	6614,49	2,56391549	2,56397915	-0,53931797947734682	5	-0,0262040216	0,00138280005
2	0	0	1	0	6615,69	2,55191422	2,55198002	-0,54096941168730515	5	-0,0268527064	0,00138054311
2	0	0	0	0	6616,89	2,53991342	2,54017115	-0,54241335578262918	5	-0,027503401	0,00137782271
2	0	0	0	0	6618,09	2,52791214	2,52800107	-0,54369716982667526	5	-0,0281557236	0,00137446704
2	0	0	1	0	6619,29	2,5159111	2,51621246	-0,54502447027092237	5	-0,0288097356	0,0013713974
2	0	0	1	0	6620,49	2,50391006	2,50407267	-0,54611183345938752	5	-0,0294650886	0,00136750366
2	0	0	0	0	6621,69	2,49190879	2,49198294	-0,54688133035476128	5	-0,0301214866	0,00136281899
2	0	0	0	0	6622,89	2,4799068	2,48013306	-0,54735700325383264	5	-0,0307788681	0,00135751825
2	0	0	1	0	6624,09	2,46790648	2,46808434	-0,5479063363745815	5	-0,0314369947	0,0013522791
2	0	0	0	0	6625,29	2,45590544	2,45611525	-0,5484751236314569	5	-0,0320955999	0,00134711806
2	0	0	0	0	6626,49	2,4439044	2,44438648	-0,54867588697622163	5	-0,032754302	0,00134117587
2	0	0	1	0	6627,69	2,43190312	2,43200636	-0,54823373304679904	5	-0,0334130116	0,00133330794
2	0	0	1	0	6628,89	2,41990185	2,42013717	-0,54781155521050362	5	-0,0340711772	0,00132577913
2	0	0	0	0	6630,09	2,40790105	2,40812778	-0,54689729074016346	5	-0,0347286649	0,0013169985
2	0	0	0	0	6631,29	2,39589977	2,39610839	-0,54593559230367283	5	-0,0353849232	0,0013081209
2	0	0	1	0	6632,49	2,38389874	2,38406897	-0,54438871828218362	5	-0,0360398442	0,00129786029
2	0	0	1	0	6633,69	2,37189841	2,37203121	-0,54273794912640397	5	-0,0366928615	0,00128739141
2	0	0	0	0	6634,89	2,35989642	2,36013031	-0,54091991577297626	5	-0,0373437554	0,0012766415
2	0	0	1	0	6636,09	2,34789515	2,34804082	-0,53865444272135757	5	-0,0379921235	0,00126478262
2	0	0	1	0	6637,29	2,33589435	2,33601141	-0,5357217683146409	5	-0,038637314	0,00125145214
2	0	0	0	0	6638,50	2,32389307	2,32419252	-0,5329331629909584	5	-0,039279364	0,00123863923
2	0	0	0	0	6639,70	2,31189203	2,31231332	-0,52958578973387469	5	-0,0399176069	0,00122456823
2	0	0	1	0	6640,90	2,299891	2,30016351	-0,52625970495864928	5	-0,0405519754	0,00121048337
2	0	0	1	0	6642,10	2,2878902	2,28849435	-0,5221101114909712	5	-0,0411817394	0,001194846
2	0	0	0	0	6643,30	2,27588868	2,27629519	-0,51824402529746406	5	-0,0418069698	0,00117967639
2	0	0	1	0	6644,50	2,26388741	2,26409554	-0,51421224931255046	5	-0,0424272791	0,00116422563
2	0	0	1	0	6645,70	2,25188637	2,25214601	-0,50976314085225562	5	-0,0430421568	0,00114806101
2	0	0	0	0	6646,90	2,23988533	2,24005651	-0,50488926532367808	5	-0,0436516032	0,00113098044
2	0	0	0	0	6648,10	2,22788405	2,22816753	-0,50043547463913862	5	-0,0442553647	0,00111505412
2	0	0	1	0	6649,30	2,21588326	2,21605778	-0,49519257231925984	5	-0,0448534302	0,00109737529
2	0	0	1	0	6650,50	2,20388198	2,20414877	-0,49047144580011584	5	-0,045445364	0,00108107203
2	0	0	0	0	6651,70	2,1918807	2,19213939	-0,48504798067733824	5	-0,0460313484	0,00106329273
2	0	0	1	0	6652,90	2,17987847	2,18006825	-0,48025812166770445	5	-0,0466112569	0,00104699552
2	0	0	1	0	6654,10	2,16787863	2,16823053	-0,47510837034012	5	-0,0471850447	0,00103014451
2	0	0	0	0	6655,30	2,15587735	2,15624142	-0,47008758100370682	5	-0,047752887	0,00101362227
2	0	0	0	0	6656,50	2,14387631	2,14416194	-0,46498699253424915	5	-0,048314631	0,000997007359
2	0	0	1	0	6657,70	2,13187504	2,13216233	-0,46018435635293466	5	-0,0488704853	0,000981187797
2	0	0	1	0	6658,90	2,119874	2,12035346	-0,45536732006197235	5	-0,0494205542	0,000965539657
2	0	0	0	0	6660,10	2,10787296	2,10818386	-0,45079778973013165	5	-0,0499650091	0,000950364629
2	0	0	0	0	6661,30	2,09587193	2,09607387	-0,44599868496879936	5	-0,0505039617	0,000934846175
2	0	0	1	0	6662,50	2,08387089	2,08420515	-0,44172676047310234	5	-0,0510374457	0,00092064921
2	0	0	0	0	6663,70	2,07186913	2,07223606	-0,43778927209674202	5	-0,0515659712	0,000907202717
2	0	0	0	0	6664,90	2,05986857	2,06014609	-0,43404143241544448	5	-0,0520895161	0,000894188765
2	0	0	1	0	6666,10	2,0478673	2,04802656	-0,42990193516016006	5	-0,0526085198	0,000880450592
2	0	0	1	0	6667,30	2,03586626	2,03610754	-0,42643873533233914	5	-0,0531229191	0,000868275121
2	0	0	0	0	6668,50	2,02386522	2,02432871	-0,4229840859770775	5	-0,0536332279	0,000856258848
2	0	0	0	0	6669,70	2,01186395	2,01200867	-0,41980622150003731	5	-0,0541394129	0,000844653754
2	0	0	1	0	6670,90	1,99986303	1,99996901	-0,41664952862386963	5	-0,0546419211	0,000833286147
2	0	0	1	0	6672,10	1,98786104	1,98803878	-0,4138195662472288	5	-0,0551409014	0,000822689326
2	0	0	0	0	6673,30	1,97586071	1,9762311	-0,4110217564739296	5	-0,0556364432	0,000812273996
2	0	0	1	0	6674,50	1,96385956	1,96417141	-0,40875572214523872	5	-0,0561290272	0,0008028663
2	0	0	1	0	6675,70	1,9518584	1,95222235	-0,40634275895233075	5	-0,0566187128	0,000793271407
2	0	0	0	0	6676,90	1,93985736	1,94023287	-0,40449564935018637	5	-0,0571059808	0,000784815755
2	0	0	0	0	6678,10	1,92785633	1,92794287	-0,4024637498271977	5	-0,0575908162	0,000775927096
2	0	0	1	0	6679,30	1,91585505	1,91614401	-0,40096399265651936	5	-0,0580737218	0,000768304744
2	0	0	1	0	6680,50	1,90385401	1,90409434	-0,39938581983248512	5	-0,0585547537	0,000760468305
2	0	0	0	0	6681,70	1,89185286	1,8920449	-0,39825618887941114	5	-0,0590343811	0,000753518601
2	0	0	0	0	6682,90	1,87985241	1,88035822	-0,39747358460331392	5	-0,0595126338	0,000747392711
2	0	0	1	0	6684,10	1,86785066	1,86824679	-0,39679182972758829	5	-0,0599897616	0,000741305063
2	0	0	0	0	6685,30	1,85584962	1,85619736	-0,39582226006314246	5	-0,0604659617	0,000734724221
2	0	0	0	0	6686,50	1,84384835	1,84411752	-0,39553314323226662	5	-0,0609413981	0,000729409629
2	0	0	1	0	6687,70	1,83184719	1,83212829	-0,39497984247282323	5	-0,0614164099	0,000723653764
2	0	0	1	0	6688,90	1,81984615	1,82014906	-0,39522735044981158	5	-0,0618911199	0,000719372707
2	0	0	0	0	6690,10	1,807845	1,80809963	-0,39492055789257216	5	-0,0623659119	0,000714055728
2	0	0	0	0	6691,30	1,79584396	1,79628074	-0,39546345841760467	5	-0,0628408119	0,000710363383
2	0	0	1	0	6692,50	1,78384268	1,78423131	-0,39580173464492141	5	-0,063316308	0,000706201827
2	0	0	0	0	6693,70	1,77184165	1,77222168	-0,39663015352562246	5	-0,0637924597	0,000702916586
2	0	0	0	0	6694,90	1,75984049	1,76007199	-0,39736812173699398	5	-0,0642695874	0,000699396478
2	0	0	1	0	6696,10	1,74783933	1,74812281	-0,39860666543245491	5	-0,0647479594	0,000696813397
2	0	0	1	0	6697,30	1,73583829	1,7361536	-0,39977325173095046	5	-0,0652277172	0,000694067799
2	0	0	0	0	6698,50	1,72383726	1,72410393	-0,40139396830151686	5	-0,0657092035	0,000692044909
2	0	0	0	0	6699,70	1,71183598	1,71223497	-0,40294419011722125	5	-0,066192627	0,000689935114
2	0	0	1	0	6700,90	1,69983506	1,70006502	-0,40502604081606022	5	-0,0666785017	0,00068857061
2	0	0	1	0	6702,10	1,68783379	1,68813586	-0,40759235961983629	5	-0,067166917	0,000688071304
2	0	0	0	0	6703,30	1,67583263	1,67610657	-0,41035981755703686	5	-0,0676583499	0,000687806809
2	0	0	1	0	6704,50	1,66383159	1,66382658	-0,41263690963387354	5	-0,0681528375	0,000686556275
2	0	0	1	0	6705,70	1,65183055	1,65201759	-0,41489508406569555	5	-0,0686500147	0,00068541395
2	0	0	0	0	6706,90	1,63982928	1,64001822	-0,41669114166870714	5	-0,0691497102	0,000683381048
2	0	0	0	0	6708,10	1,62782812	1,62818933	-0,4187899047198407	5	-0,0696515664	0,000681869278
2	0	0	1	0	6709,30	1,61582708	1,61604965	-0,42091791797429325	5	-0,0701560527	0,000680224271
2	0	0	1	0	6710,50	1,60382593	1,60437095	-0,42357415643831155	5	-0,0706635043	0,000679570076
2	0	0	0	0	6711,70	1,59182489	1,5920409	-0,42619172825167872	5	-0,0711741596	0,000678514654
2	0	0	1	0	6712,90	1,57982361	1,57999134	-0,4292209576815367	5	-0,0716882423	0,000678165408
2	0	0	1	0	6714,10	1,56782269	1,56816244	-0,43201874444882195	5	-0,0722055957	0,000677475589
2	0	0	0	0	6715,30	1,55582154	1,55609286	-0,43531488906592128	5	-0,0727269053	0,000677390373
2	0	0	0	0	6716,50	1,5438205	1,54415369	-0,43869177376230618	5	-0,0732521191	0,000677407545
2	0	0	1	0	6717,70	1,53181934	1,53210413	-0,44255475668857613	5	-0,0737818033	0,000678039971
2	0	0	1	0	6718,90	1,51981819	1,52000463	-0,44640668326367994	5	-0,0743161067	0,000678540207
2	0	0	0	0	6720,10	1,50781703	1,50818563	-0,45079158929487309	5	-0,0748555884	0,000679877412
2	0	0	0	0	6721,30	1,49581599	1,49586546	-0,45580221417670509	5	-0,0754003301	0,000681818812
2	0	0	1	0	6722,50	1,48381472	1,48436749	-0,46091256896034061	5	-0,0759509578	0,00068416365
2	0	0	0	0	6723,70	1,47181356	1,47218752	-0,46594656398519872	5	-0,076507777	0,000685960695
2	0	0	0	0	6724,90	1,45981264	1,46010804	-0,47191686866184134	5	-0,0770711079	0,000689049601
2	0	0	1	0	6726,10	1,44781148	1,44806862	-0,47781767665098227	5	-0,0776416287	0,000691912777
2	0	0	1	0	6727,30	1,43581033	1,43606913	-0,48466246854513971	5	-0,0782196671	0,000696008792
2	0	0	0	0	6728,50	1,42380929	1,42401958	-0,49154746641094381	5	-0,0788061097	0,0006999732
2	0	0	0	0	6729,70	1,41180813	1,41218078	-0,49942266754806086	5	-0,0794013515	0,000705275103
2	0	0	1	0	6730,90	1,39980698	1,40013134	-0,50736063299700749	5	-0,0800062045	0,000710371532
2	0	0	1	0	6732,10	1,38780653	1,38807273	-0,51624666038709146	5	-0,0806210861	0,000716587936
2	0	0	0	0	6733,30	1,37580466	1,37606227	-0,52530466004585286	5	-0,0812468082	0,000722851953
2	0	0	1	0	6734,50	1,36380363	1,36412311	-0,53542759253954131	5	-0,0818840414	0,000730389147
2	0	0	1	0	6735,70	1,35180259	1,35198355	-0,54612489293019098	5	-0,0825337172	0,000738351897
2	0	0	0	0	6736,90	1,33980131	1,34003413	-0,55801939281324397	5	-0,0831971243	0,000747765007
2	0	0	0	0	6738,10	1,32780027	1,32791448	-0,57062250158438733	5	-0,0838751793	0,0007577379
2	0	0	1	0	6739,30	1,31579912	1,31615579	-0,58434207830578086	5	-0,084569253	0,000769085193
2	0	0	1	0	6740,50	1,30379808	1,30400598	-0,5994623744239433	5	-0,0852803662	0,000781702518
2	0	0	0	0	6741,70	1,29179692	1,29210699	-0,6155037799229239	5	-0,0860100314	0,000795296743
2	0	0	1	0	6742,90	1,27979577	1,28004742	-0,6324473698623479	5	-0,0867594555	0,000809562625
2	0	0	1	0	6744,10	1,26779473	1,26803803	-0,6507022155759241	5	-0,0875299796	0,00082511513
2	0	0	0	0	6745,31	1,25579357	1,25608873	-0,67028885645171021	5	-0,0883233473	0,000841942267
2	0	0	0	0	6746,51	1,24379241	1,24421978	-0,69117914279922752	5	-0,0891408473	0,000859978783
2	0	0	1	0	6747,71	1,23179126	1,23205996	-0,7128843882431593	5	-0,089984104	0,000878316292
2	0	0	1	0	6748,91	1,21979022	1,21999037	-0,7359982851582263	5	-0,0908541754	0,000897910795
2	0	0	0	0	6750,11	1,20778894	1,20823169	-0,75987517445658573	5	-0,0917525515	0,000918105245
2	0	0	0	0	6751,31	1,19578791	1,19599175	-0,78519672621041664	5	-0,0926803648	0,000939088815
2	0	0	1	0	6752,51	1,18378687	1,18417263	-0,81082256572942054	5	-0,093638882	0,000960153877
2	0	0	0	0	6753,71	1,17178571	1,171983	-0,83797651870797312	5	-0,0946291685	0,000982094207
2	0	0	0	0	6754,91	1,15978456	1,16017401	-0,86538575030863283	5	-0,0956520215	0,0010039981
2	0	0	1	0	6756,11	1,14778352	1,14816463	-0,89425966919710835	5	-0,0967088863	0,00102675729
2	0	0	1	0	6757,31	1,13578236	1,13615525	-0,92332272107402598	5	-0,0978003293	0,00104903791
2	0	0	0	0	6758,51	1,1237812	1,12414587	-0,95372524919608819	5	-0,0989279151	0,00107212632
2	0	0	0	0	6759,71	1,11178005	1,11221671	-0,98549678766479334	5	-0,100092284	0,00109608599
2	0	0	1	0	6760,95	1,09937894	1,09944546	-1,0187327681730203	5	-0,10133557	0,00112004112
2	0	0	1	0	6762,15	1,0873785	1,08754706	-1,0530817475707398	5	-0,102579162	0,00114527601
2	0	0	0	0	6763,35	1,07537675	1,07564712	-1,0890597064668946	5	-0,103865027	0,00117144396
2	0	0	1	0	6764,55	1,06337559	1,06366777	-1,1279155019049867	5	-0,105196059	0,00119972741
2	0	0	1	0	6765,75	1,05137432	1,05155826	-1,170311546574041	5	-0,106575303	0,00123065081
2	0	0	0	0	6766,95	1,0393734	1,03966916	-1,2169005908071989	5	-0,108008094	0,00126517401
2	0	0	0	0	6768,15	1,02737224	1,0276798	-1,2686130156119618	5	-0,109499529	0,00130372797
2	0	0	1	0	6769,35	1,01537108	1,01563036	-1,3272987250238693	5	-0,111057371	0,00134804484
2	0	0	1	0	6770,55	1,00337005	1,0033704	-1,3942987766737787	5	-0,112690233	0,00139899808
2	1	0	1	0	6771,67	1,00777042	1,00785136	-1,2900085880731602	5	-0,114212669	0,00130013691
2	1	0	1	0	6772,87	1,01977158	1,01968026	-1,1939990983034186	5	-0,115700729	0,00121749728
2	1	0	0	0	6774,07	1,03177261	1,03203058	-1,1040115461995166	5	-0,117078587	0,00113937363
2	1	0	0	0	6775,27	1,0437746	1,0441308	-1,0177175243458371	5	-0,118350454	0,00106263021
2	1	0	1	0	6776,47	1,05577493	1,05610943	-0,93569078482687834	5	-0,119521335	0,000988191809
2	1	0	0	0	6777,67	1,06777585	1,06794834	-0,86082592451324301	5	-0,120597817	0,000919317594
2	1	0	0	0	6778,87	1,07977712	1,07999778	-0,7910659871995465	5	-0,121587485	0,000854349521
2	1	0	1	0	6780,07	1,09177828	1,09196711	-0,72824464878067546	5	-0,122497708	0,00079521921
2	1	0	1	0	6781,27	1,10377932	1,10387623	-0,67087709205225114	5	-0,123335741	0,000740565301
2	1	0	0	0	6782,47	1,11578047	1,11598599	-0,61941082604850355	5	-0,124108665	0,000691253808
2	1	0	0	0	6783,67	1,12778151	1,12819576	-0,57236681055898586	5	-0,12482246	0,00064574182
2	1	0	1	0	6784,87	1,13978267	1,14015508	-0,53054035827517421	5	-0,125482932	0,000604898261
2	1	0	0	0	6786,11	1,15218389	1,15249527	-0,49191759278376954	5	-0,126115128	0,000566932722
2	1	0	0	0	6787,31	1,16418505	1,16457486	-0,4575336764877047	5	-0,126683354	0,00053283223
2	1	0	1	0	6788,51	1,17618608	1,1764338	-0,42606157856062144	5	-0,127212092	0,000501233269
2	1	0	1	0	6789,71	1,18818712	1,18855357	-0,39704878535121677	5	-0,12770462	0,000471913751
2	1	0	0	0	6790,91	1,2001884	1,20043254	-0,37058544127891469	5	-0,128164336	0,000444862817
2	1	0	0	0	6792,11	1,21218944	1,21246207	-0,34651192595871814	5	-0,128593698	0,000420132565
2	1	0	1	0	6793,31	1,22419059	1,22461176	-0,32409518864005779	5	-0,12899527	0,000396890769
2	1	0	1	0	6794,51	1,23619175	1,23642063	-0,30358471985285542	5	-0,129371062	0,000375358417
2	1	0	0	0	6795,71	1,24819279	1,24846005	-0,28441452529902288	5	-0,129723102	0,000355080178
2	1	0	1	0	6796,91	1,26019394	1,26060987	-0,26673153229057757	5	-0,130053028	0,000336244411
2	1	0	1	0	6798,11	1,2721951	1,27229846	-0,25050764546419213	5	-0,130362257	0,0003187205
2	1	0	0	0	6799,31	1,28419626	1,28455842	-0,23468445062947773	5	-0,130652443	0,000301465887
2	1	0	0	0	6800,51	1,2961973	1,29671824	-0,21992480087404554	5	-0,130924374	0,000285180489
2	1	0	1	0	6801,71	1,30819845	1,30856729	-0,20645781808222451	5	-0,131179422	0,000270163961
2	1	0	1	0	6802,91	1,32019949	1,32068694	-0,19335773525138688	5	-0,131418362	0,000255365041
2	1	0	0	0	6804,11	1,33220077	1,33244562	-0,18123816419392867	5	-0,131642297	0,000241489994
2	1	0	0	0	6805,31	1,34420156	1,34443402	-0,16949987411017158	5	-0,131851822	0,000227881392
2	1	0	1	0	6806,51	1,35620296	1,35615373	-0,15875822798504214	5	-0,132047862	0,000215300563
2	1	0	0	0	6807,71	1,368204	1,36840355	-0,1482265173302344	5	-0,132230923	0,000202833689
2	1	0	0	0	6808,91	1,38020515	1,38038301	-0,13788904172057914	5	-0,132401645	0,000190339691
2	1	0	1	0	6810,11	1,39220631	1,3923924	-0,12799538388693144	5	-0,132560521	0,000178219794
2	1	0	1	0	6811,31	1,40420747	1,40442181	-0,11888770883281997	5	-0,132708043	0,000166968486
2	1	0	0	0	6812,51	1,41620839	1,41648126	-0,1098060464719311	5	-0,132844582	0,000155538204
2	1	0	0	0	6813,71	1,42820966	1,42872119	-0,10127547053465059	5	-0,132970527	0,000144694408
2	1	0	1	0	6814,91	1,44021082	1,44057012	-0,09270796783190871	5	-0,133086234	0,000133552327
2	1	0	0	0	6816,11	1,45221174	1,45260966	-0,084767376499561344	5	-0,133192018	0,000123133912
2	1	0	0	0	6817,31	1,46421301	1,46462905	-0,076630665707246746	5	-0,133288085	0,000112235502
2	1	0	1	0	6818,51	1,47621417	1,47661841	-0,068891427576696806	5	-0,133374631	0,000101726349
2	1	0	1	0	6819,71	1,48821521	1,48837721	-0,06105444229130327	5	-0,133451909	9,08720394E-005
2	1	0	0	0	6820,91	1,50021636	1,50042665	-0,053585351095535085	5	-0,133519918	8,04008887E-005
2	1	0	0	0	6822,15	1,51261771	1,5130074	-0,045742599933873971	5	-0,133580744	6,92088943E-005
2	1	0	1	0	6823,35	1,52461863	1,52466595	-0,037979018913271488	5	-0,13363035	5,79053158E-005
2	1	0	1	0	6824,55	1,53662002	1,5369662	-0,03071928500639559	5	-0,133670956	4,72145039E-005
2	1	0	0	0	6825,75	1,54862094	1,54907572	-0,022839135213871542	5	-0,133702442	3,53795513E-005
2	1	0	1	0	6826,95	1,56062198	1,56104517	-0,015582551762539283	5	-0,133724794	2,4325067E-005
2	1	0	1	0	6828,15	1,57262301	1,5728941	-0,0076754243588463283	5	-0,133737862	1,20726299E-005
2	1	0	0	0	6829,39	1,58502412	1,58549488	0,00093169903872573722	5	-0,133741632	1,47720402E-006
2	1	0	0	0	6830,59	1,59702539	1,59738374	0,0092701420896143245	5	-0,133735493	1,48079744E-005
2	1	0	1	0	6831,83	1,6094265	1,60982418	0,017407084024550032	5	-0,133718982	2,80223448E-005
2	1	0	1	0	6833,03	1,62142754	1,62188387	0,025513429660350029	5	-0,133692846	4,13798189E-005
2	1	0	0	0	6834,23	1,63342869	1,63402367	0,034173975611338278	5	-0,133656591	5,58410866E-005
2	1	0	1	0	6835,43	1,64542997	1,64572215	0,04277801077114407	5	-0,13360998	7,0400718E-005
2	1	0	1	0	6836,63	1,65743101	1,65772152	0,051769658263462362	5	-0,133552849	8,581968E-005
2	1	0	0	0	6837,83	1,66943192	1,66953027	0,060679009785720384	5	-0,133484989	0,000101305443
2	1	0	0	0	6839,03	1,6814332	1,68177032	0,069977090732815437	5	-0,133406281	0,000117685391
2	1	0	1	0	6840,23	1,69343436	1,69382989	0,078857646789401549	5	-0,133316517	0,000133571433
2	1	0	1	0	6841,43	1,7054354	1,70574903	0,088400280277710182	5	-0,133215681	0,000150788692
2	1	0	0	0	6842,63	1,71743667	1,71768832	0,097349991109998426	5	-0,133103713	0,000167216946
2	1	0	0	0	6843,87	1,72983825	1,73016953	0,10709836521697147	5	-0,132976145	0,000185298326
2	1	0	1	0	6845,07	1,74183881	1,74207795	0,11630621032478894	5	-0,132841304	0,000202614479
2	1	0	0	0	6846,28	1,75383997	1,7539773	0,12584359454922334	5	-0,132695138	0,000220726812
2	1	0	0	0	6847,48	1,76584101	1,76610684	0,1349738853750747	5	-0,132537767	0,000238378299
2	1	0	1	0	6848,68	1,77784216	1,77827656	0,14439362753182515	5	-0,132369071	0,000256771804
2	1	0	1	0	6849,88	1,78984344	1,79040635	0,15397389365049686	5	-0,132189259	0,000275675848
2	1	0	0	0	6851,08	1,80184448	1,80206478	0,16349099929599718	5	-0,131998181	0,000294621364
2	1	0	0	0	6852,28	1,81384552	1,81415427	0,17258816670315968	5	-0,131795973	0,000313101569
2	1	0	1	0	6853,48	1,82584667	1,82614374	0,18188781935411203	5	-0,131582633	0,000332153315
2	1	0	1	0	6854,68	1,83784711	1,83813179	0,19085048708816198	5	-0,131358355	0,000350808346
2	1	0	0	0	6855,88	1,84984887	1,85001206	0,20009807241149203	5	-0,13112317	0,000370183843
2	1	0	1	0	6857,08	1,86185014	1,86209154	0,20872588021059891	5	-0,130877182	0,000388666696
2	1	0	1	0	6858,28	1,87385118	1,87410116	0,21766632702201606	5	-0,130620673	0,000407928717
2	1	0	0	0	6859,48	1,88585222	1,88629079	0,22607305335501792	5	-0,130353689	0,00042643951
2	1	0	0	0	6860,68	1,89785337	1,89816999	0,2346011166616031	5	-0,130076632	0,000445312791
2	1	0	1	0	6861,88	1,90985453	1,91025949	0,24258226590851971	5	-0,129789576	0,000463395088
2	1	0	1	0	6863,08	1,92185581	1,92196834	0,25054931322423181	5	-0,129492909	0,000481547846
2	1	0	0	0	6864,28	1,93385684	1,93397748	0,25815787453514803	5	-0,129186839	0,000499271497
2	1	0	1	0	6865,48	1,94585788	1,94622755	0,26556705551532378	5	-0,128871754	0,000516853936
2	1	0	1	0	6866,68	1,95785904	1,95821691	0,27255043891879494	5	-0,128547996	0,000533712853
2	1	0	0	0	6867,88	1,96986008	1,97039664	0,27929759661977414	5	-0,128215864	0,000550327066
2	1	0	0	0	6869,08	1,98186123	1,98235595	0,28605023204969859	5	-0,127875775	0,000567053386
2	1	0	1	0	6870,28	1,99386251	1,99410486	0,29229564041209734	5	-0,127528116	0,000582868175
2	1	0	1	0	6871,48	2,00586343	2,00622416	0,29802346089854861	5	-0,127173334	0,000597901875
2	1	0	0	0	6872,68	2,0178647	2,01804304	0,30348382129644282	5	-0,126811728	0,000612443429
2	1	0	1	0	6873,88	2,0298655	2,03024364	0,30861786926099731	5	-0,126443803	0,000626569439
2	1	0	1	0	6875,08	2,04186678	2,04224229	0,31335094866032346	5	-0,126069963	0,000639938575
2	1	0	0	0	6876,28	2,05386782	2,05404162	0,31775515448922854	5	-0,125690624	0,000652682327
2	1	0	0	0	6877,48	2,06586909	2,06618094	0,32183590065687853	5	-0,125306204	0,000664971187
2	1	0	1	0	6878,68	2,07787013	2,07815027	0,32548395373548058	5	-0,12491712	0,000676404568
2	1	0	1	0	6879,88	2,08987117	2,09024978	0,32901066712414195	5	-0,124523759	0,000687714492
2	1	0	0	0	6881,08	2,10187244	2,10209894	0,33180647397724307	5	-0,124126688	0,000697490061
2	1	0	0	0	6882,28	2,11387348	2,11425853	0,33474650412487386	5	-0,12372601	0,000707740663
2	1	0	1	0	6883,48	2,12587452	2,12619805	0,33716526247250522	5	-0,123322099	0,000716880138
2	1	0	0	0	6884,68	2,1378758	2,13823724	0,33949934660146662	5	-0,122915216	0,000725930149
2	1	0	0	0	6885,88	2,14987683	2,1501565	0,34135550532179539	5	-0,122505896	0,000733967754
2	1	0	1	0	6887,08	2,16187811	2,16207576	0,34323141025379187	5	-0,122094102	0,000742092321
2	1	0	1	0	6888,28	2,17387915	2,17380428	0,34510400301466368	5	-0,12168029	0,000750188541
2	1	0	0	0	6889,48	2,18588018	2,1863153	0,34674695692956538	5	-0,121264517	0,000758098206
2	1	0	0	0	6890,68	2,19788146	2,19824433	0,34789174236357082	5	-0,120847233	0,00076475105
2	1	0	1	0	6891,88	2,20988226	2,21017337	0,34916860346371917	5	-0,120428368	0,000771723164
2	1	0	1	0	6893,08	2,2218833	2,22221255	0,35002422584314899	5	-0,120008215	0,000777828216
2	1	0	0	0	6894,28	2,23388481	2,23435235	0,35115106846205888	5	-0,119586907	0,000784595206
2	1	0	1	0	6895,48	2,24588585	2,24614143	0,35178162685284954	5	-0,119164452	0,000790151302
2	1	0	1	0	6896,68	2,25788689	2,25816107	0,35277640284038944	5	-0,118741103	0,000796625915
2	1	0	0	0	6897,88	2,26988816	2,27028036	0,35343403097552486	5	-0,118316673	0,000802394352
2	1	0	0	0	6899,08	2,2818892	2,28233004	0,35426202633728602	5	-0,117891498	0,000808542885
2	1	0	1	0	6900,28	2,29389048	2,29406857	0,35473467006037485	5	-0,117465407	0,000813785649
2	1	0	1	0	6901,48	2,30589151	2,30624843	0,35535326367244122	5	-0,117038712	0,000819532899
2	1	0	0	0	6902,68	2,31789255	2,31812763	0,35575442474025024	5	-0,116611287	0,000824684161
2	1	0	0	0	6903,88	2,32989287	2,33010554	0,35624204932358784	5	-0,116183326	0,000830081583
2	1	0	1	0	6905,08	2,34189463	2,34192586	0,35651347832754163	5	-0,11575491	0,000834928127
2	1	0	0	0	6906,28	2,3538959	2,35407543	0,35683989214400326	5	-0,115325958	0,000840028049
2	1	0	0	0	6907,48	2,36589694	2,36628556	0,35746112690928064	5	-0,11489664	0,000845855102
2	1	0	1	0	6908,68	2,37789822	2,3780942	0,35796367516741158	5	-0,114466831	0,000851271325
2	1	0	1	0	6909,88	2,38989925	2,39010382	0,35824600125973325	5	-0,114036664	0,000856245111
2	1	0	0	0	6911,08	2,40190029	2,40218329	0,35852182136538182	5	-0,113606021	0,000861235138
2	1	0	0	0	6912,28	2,41390181	2,41397214	0,35879630889083546	5	-0,113175057	0,00086612429
2	1	0	1	0	6913,48	2,42590284	2,42593122	0,35925782774574963	5	-0,112743638	0,00087153475
2	1	0	0	0	6914,68	2,43790388	2,4381814	0,35952090277957363	5	-0,112311751	0,000876577164
2	1	0	0	0	6915,88	2,44990492	2,45021081	0,35985001665539904	5	-0,111879513	0,000881708402
2	1	0	1	0	6917,08	2,46190619	2,46216011	0,36019807324434304	5	-0,111446843	0,000886865309
2	1	0	1	0	6918,28	2,47390699	2,47427988	0,36067051230929658	5	-0,11101374	0,00089239981
2	1	0	0	0	6919,48	2,48590827	2,48613858	0,3608489087782791	5	-0,110580236	0,000897120393
2	1	0	0	0	6920,68	2,49790931	2,4980979	0,36139181481363789	5	-0,110146232	0,000902792148
2	1	0	1	0	6921,88	2,50991058	2,51009727	0,36155315255746336	5	-0,109711915	0,000907533569
2	1	0	0	0	6923,08	2,52191234	2,52217722	0,36219361303578202	5	-0,109276965	0,000913516502
2	1	0	0	0	6924,28	2,53391266	2,53418636	0,36255081370472819	5	-0,108841471	0,000918771315
2	1	0	1	0	6925,48	2,5459137	2,54603529	0,36310163450737696	5	-0,10840524	0,000924469554
2	1	0	1	0	6926,68	2,55791521	2,55819511	0,36381749288799712	5	-0,107968457	0,000930716109
2	1	0	0	0	6927,88	2,56991601	2,57010412	0,36471483545998586	5	-0,107530765	0,0009373551
2	1	0	0	0	6929,08	2,58191729	2,58221388	0,36528452470277715	5	-0,107092232	0,000943242747
2	1	0	1	0	6930,28	2,59391856	2,59432364	0,36629605650280902	5	-0,106652685	0,00095029053
2	1	0	1	0	6931,48	2,60591936	2,60616255	0,36704877251759104	5	-0,106212154	0,000956588774
2	1	0	0	0	6932,68	2,61792064	2,61817169	0,36831389716826202	5	-0,105770379	0,000964309031
2	1	0	1	0	6933,88	2,62992191	2,63009143	0,3693118618981721	5	-0,105327219	0,000971323985
2	1	0	1	0	6935,08	2,64192271	2,64235115	0,37084809333706835	5	-0,104882628	0,000979910837
2	1	0	0	0	6936,28	2,65392399	2,65415001	0,37214221393999923	5	-0,104436241	0,000987721258
2	1	0	0	0	6937,48	2,66592503	2,66593862	0,37393831213315206	5	-0,103988051	0,000996896531
2	1	0	1	0	6938,68	2,67792606	2,67815876	0,37577919025594842	5	-0,103537567	0,00100639637
2	1	0	1	0	6939,88	2,68992734	2,6903584	0,37782067774484493	5	-0,103084795	0,00101647305
2	1	0	0	0	6941,08	2,70192838	2,70221734	0,38010488093520147	5	-0,102629334	0,00102712598
2	1	0	0	0	6942,28	2,71392965	2,71425676	0,3825899102569865	5	-0,102171101	0,00103844726
2	1	0	1	0	6943,48	2,72593069	2,72619629	0,3850306655901168	5	-0,101709776	0,00104966923
2	1	0	0	0	6944,68	2,73793173	2,73812532	0,38779896598619821	5	-0,101245217	0,00106184219
2	1	0	0	0	6945,88	2,749933	2,7503252	0,39099648129194976	5	-0,100777321	0,00107536744
2	1	0	1	0	6947,08	2,7619338	2,76225424	0,39418365464856288	5	-0,100305714	0,00108883542
2	1	0	1	0	6948,28	2,77393508	2,7743237	0,39738459776465971	5	-0,099830322	0,00110247347
2	1	0	0	0	6949,48	2,78593636	2,78622317	0,40109837381169197	5	-0,099350661	0,0011175496
2	1	0	0	0	6950,68	2,79793739	2,79823256	0,40488657246654125	5	-0,0988666266	0,00113296683
2	1	0	1	0	6951,88	2,80993843	2,81023192	0,4091569154212873	5	-0,0983776897	0,00114982587
2	1	0	0	0	6953,08	2,82193899	2,82205009	0,41366206161600518	5	-0,0978835374	0,00116737501
2	1	0	0	0	6954,29	2,83394074	2,83419037	0,41858590859919962	5	-0,0973836482	0,00118635211
2	1	0	1	0	6955,49	2,84594202	2,84605956	0,4240451939403993	5	-0,0968774632	0,00120685785
2	1	0	1	0	6956,69	2,85794306	2,85822916	0,43026090941081299	5	-0,0963644087	0,00122978434
2	1	0	0	0	6957,89	2,8699441	2,87028885	0,43660241458565043	5	-0,0958437026	0,00125317508
2	1	0	0	0	6959,09	2,88194537	2,88222814	0,44334208002934797	5	-0,095315069	0,00127781299
2	1	0	1	0	6960,29	2,89394617	2,89402676	0,4497306461756416	5	-0,0947785079	0,00130153249
2	1	0	1	0	6961,49	2,90594745	2,90617681	0,45584799209609536	5	-0,0942344666	0,00132477481
2	1	0	0	0	6962,69	2,91794848	2,91812587	0,46095901029184326	5	-0,0936836302	0,00134513644
2	1	0	1	0	6963,89	2,92994976	2,93024564	0,46636601351201536	5	-0,0931263641	0,00136656698
2	1	0	1	0	6965,09	2,9419508	2,9423151	0,47155096133550067	5	-0,0925629437	0,00138745154
2	1	0	0	0	6966,29	2,95395184	2,95396352	0,47689404586951059	5	-0,091993317	0,00140872761
2	1	0	0	0	6967,49	2,96595287	2,96623349	0,48190647518883066	5	-0,0914176106	0,00142944709
2	1	0	1	0	6968,69	2,97795439	2,97819281	0,48737651528790547	5	-0,0908353701	0,00145150127
2	1	0	1	0	6969,89	2,98995543	2,99015212	0,49288615693027738	5	-0,0902467445	0,00147380459
2	1	0	0	0	6971,09	3,00195622	3,00204086	0,49863104599838515	5	-0,089651309	0,00149691082
2	1	0	0	0	6972,29	3,01395655	3,01411057	0,50399536833733818	5	-0,0890491754	0,00151909771
2	1	0	1	0	6973,49	3,02595854	3,02602983	0,51004850879932493	5	-0,0884400606	0,001543422
2	1	0	0	0	6974,69	3,03795981	3,03818965	0,51592273063336736	5	-0,0878238752	0,00156747107
2	1	0	0	0	6975,89	3,04996085	3,05007863	0,52199511059249382	5	-0,0872006938	0,00159212609
2	1	0	1	0	6977,09	3,06196213	3,06228876	0,52798007195815264	5	-0,0865700543	0,00161682745
2	1	0	1	0	6978,29	3,07396317	3,0741477	0,53437506593763693	5	-0,0859320462	0,0016427479
2	1	0	0	0	6979,49	3,0859642	3,08610702	0,54058964488406944	5	-0,0852863565	0,00166831748
2	1	0	0	0	6980,69	3,09796524	3,09843683	0,54716593275467475	5	-0,0846330747	0,00169535913
2	1	0	1	0	6981,89	3,10996675	3,11045647	0,55379257273549773	5	-0,0839717463	0,00172254769
2	1	0	0	0	6983,09	3,12196755	3,12210488	0,56041564233601094	5	-0,0833023414	0,00174967642
2	1	0	0	0	6984,29	3,13396859	3,13416409	0,56751857046037914	5	-0,0826249048	0,00177869631
2	1	0	1	0	6985,49	3,14596987	3,14602327	0,5747128734365097	5	-0,0819389373	0,0018080601
2	1	0	1	0	6986,69	3,15797091	3,15783238	0,58185158809646963	5	-0,0812444985	0,00183738978
2	1	0	0	0	6987,89	3,16997194	3,17019248	0,5892624173623799	5	-0,0805411488	0,00186807534
2	1	0	0	0	6989,09	3,1819725	3,1822505	0,59660017984932749	5	-0,0798291638	0,00189853122
2	1	0	1	0	6990,29	3,19397402	3,19434166	0,60415988042950451	5	-0,0791080445	0,00192989304
2	1	0	0	0	6991,49	3,20597506	3,20609021	0,61184324168910554	5	-0,0783777907	0,00196162472
2	1	0	0	0	6992,69	3,21797633	3,21831012	0,61943627831836429	5	-0,0776384175	0,00199353811
2	1	0	1	0	6993,89	3,22997737	3,23022938	0,62739471610014515	5	-0,0768895522	0,00202662894
2	1	0	1	0	6995,09	3,24197841	3,2421689	0,63545833450431565	5	-0,0761311576	0,00206026318
2	1	0	0	0	6996,29	3,25397992	3,25438857	0,6431829223098857	5	-0,0753632784	0,00209316704
2	1	0	0	0	6997,49	3,26598096	3,26606727	0,6514017797696105	5	-0,0745858401	0,00212752214
2	1	0	1	0	6998,69	3,277982	3,27820683	0,65923905201877043	5	-0,0737986416	0,00216112193
2	1	0	1	0	6999,89	3,28998184	3,29028606	0,6673473306793856	5	-0,0730019435	0,00219576363
2	1	0	0	0	7001,09	3,30198431	3,30188489	0,67521349387243392	5	-0,0721955299	0,00222947728
2	1	0	1	0	7002,29	3,31398535	3,31412458	0,68341624628131686	5	-0,0713793561	0,00226492668
2	1	0	1	0	7003,49	3,32598639	3,32595348	0,6917495727539063	5	-0,0705536008	0,00230072695
2	1	0	0	0	7004,69	3,33798742	3,33801317	0,6996823184502592	5	-0,0697179958	0,00233554887
2	1	0	0	0	7005,89	3,3499887	3,35014272	0,70747558834652045	5	-0,0688731298	0,00237014424
2	1	0	1	0	7007,09	3,36198974	3,36198211	0,71579003194346739	5	-0,068018429	0,00240647327
2	1	0	1	0	7008,29	3,37399077	3,37428188	0,72348441105956864	5	-0,0671543851	0,00244124024
2	1	0	0	0	7009,49	3,38599229	3,38625121	0,73155618986735859	5	-0,0662807599	0,00247723307
2	1	0	1	0	7010,69	3,39799356	3,398031	0,73930424261088909	5	-0,0653975755	0,00251217862
2	1	0	1	0	7011,89	3,40999436	3,41027999	0,74734836273516019	5	-0,0645050481	0,00254866714
2	1	0	0	0	7013,09	3,42199564	3,42220902	0,75516486788789376	5	-0,0636028275	0,00258433213
2	1	0	0	0	7014,29	3,43399668	3,43443918	0,76312374820311885	5	-0,0626913011	0,00262090215
2	1	0	1	0	7015,49	3,44599771	3,44625807	0,7710582191745417	5	-0,0617699809	0,00265726564
2	1	0	1	0	7016,69	3,45799875	3,45835757	0,77902575101082406	5	-0,0608392209	0,0026941495
2	1	0	0	0	7017,89	3,46999979	3,4701364	0,78722479939460582	5	-0,0598986149	0,00273177749
2	1	0	0	0	7019,09	3,48200083	3,4822464	0,79562276636884557	5	-0,0589482337	0,00277055451
2	1	0	1	0	7020,29	3,4940021	3,49418545	0,80388625711202266	5	-0,0579876006	0,00280892756
2	1	0	0	0	7021,49	3,50600314	3,50629497	0,81233295208464013	5	-0,0570167378	0,00284827896
2	1	0	0	0	7022,69	3,51800418	3,51826429	0,82147714185218138	5	-0,0560356267	0,00289017381
2	1	0	1	0	7023,89	3,53000569	3,53028345	0,83081424329430054	5	-0,0550436154	0,00293300976
2	1	0	1	0	7025,09	3,54200673	3,54222298	0,8401219168057033	5	-0,0540406592	0,00297589926
2	1	0	0	0	7026,29	3,55400801	3,55410194	0,84980948424587584	5	-0,0530259982	0,00302030961
2	1	0	0	0	7027,49	3,56600904	3,56630182	0,8599086506292233	5	-0,0519996211	0,0030666939
2	1	0	1	0	7028,69	3,57801008	3,57833123	0,87046662190307699	5	-0,0509607233	0,0031148179
2	1	0	1	0	7029,89	3,59001064	3,5903697	0,88130832814007219	5	-0,0499090031	0,0031642227
2	1	0	0	0	7031,09	3,60201216	3,60232997	0,89265098298589146	5	-0,0488439165	0,00321562332
2	1	0	1	0	7032,29	3,6140132	3,61431932	0,90418367212017254	5	-0,0477649532	0,00326800859
2	1	0	1	0	7033,49	3,62601447	3,62635875	0,91643917995194496	5	-0,0466718972	0,0033233373
2	1	0	0	0	7034,69	3,63801551	3,63793731	0,92854526018102848	5	-0,0455640741	0,0033779894
2	1	0	0	0	7035,89	3,65001655	3,65021706	0,94123056437820378	5	-0,0444414206	0,00343569578
2	1	0	1	0	7037,09	3,66201806	3,6621263	0,9543732715149673	5	-0,0433030725	0,00349503546
2	1	0	1	0	7038,29	3,6740191	3,67440653	0,96822335415830093	5	-0,0421487875	0,00355764618
2	1	0	0	0	7039,49	3,68602014	3,68615532	0,98206637085725926	5	-0,0409776643	0,00362004922
2	1	0	1	0	7040,69	3,69802141	3,69819474	0,99645282452305216	5	-0,0397893935	0,00368507649
2	1	0	1	0	7041,93	3,71042252	3,71053505	1,0130830630660058	5	-0,0385419093	0,00375908031
2	1	0	0	0	7043,13	3,72242355	3,72258449	1,0287146670743805	5	-0,037316002	0,00382947735
2	1	0	0	0	7044,33	3,73442459	3,7346139	1,0442765643820202	5	-0,0360719413	0,00389996986
2	1	0	1	0	7045,53	3,74642563	3,74651289	1,060350767336785	5	-0,0348083526	0,00397261791
2	1	0	1	0	7046,73	3,75842667	3,75868249	1,0774479896451013	5	-0,0335252024	0,00404978497
2	1	0	0	0	7047,93	3,77042794	3,77057195	1,0945532709980981	5	-0,0322213806	0,00412709173
2	1	0	1	0	7049,13	3,7824297	3,78268242	1,1129635650338176	5	-0,0308962408	0,00420998782
2	1	0	1	0	7050,33	3,79443002	3,79455042	1,1312370719388128	5	-0,0295490623	0,00429253606
2	1	0	0	0	7051,53	3,80643153	3,8064096	1,1508651239176579	5	-0,028178826	0,00438066386
2	1	0	0	0	7052,73	3,81843257	3,81845903	1,1707950017104558	5	-0,0267853625	0,00447063288
2	1	0	1	0	7053,93	3,83043361	3,83053851	1,1914114980027066	5	-0,0253671277	0,00456374744
2	1	0	1	0	7055,13	3,84243488	3,84253764	1,2128470822547861	5	-0,0239239335	0,00466041034
2	1	0	0	0	7056,33	3,85443592	3,85478806	1,2349874824285534	5	-0,0224543065	0,00476061506
2	1	0	0	0	7057,53	3,86643696	3,86647654	1,2576507593815514	5	-0,0209580194	0,00486267731
2	1	0	1	0	7058,73	3,878438	3,87833548	1,281554020320371	5	-0,0194335319	0,00497029629
2	1	0	0	0	7059,94	3,89043903	3,89062572	1,3057461017370216	5	-0,0178800914	0,00508016953
2	1	0	0	0	7061,14	3,90244031	3,90260458	1,3312366955603174	5	-0,016296912	0,00519529032
2	1	0	1	0	7062,34	3,91444135	3,91470432	1,3581070139383194	5	-0,0146822762	0,00531658763
2	1	0	1	0	7063,54	3,92644238	3,9267242	1,3857767296334061	5	-0,0130355572	0,0054415632
2	1	0	0	0	7064,74	3,9384439	3,93867302	1,4140306723614499	5	-0,0113548459	0,00556940446
2	1	0	0	0	7065,94	3,95044494	3,95097303	1,4441866685325914	5	-0,00963948388	0,0057059424
2	1	0	1	0	7067,14	3,96244597	3,96258187	1,4750848993038154	5	-0,00788719952	0,00584514486
2	1	0	1	0	7068,34	3,97444582	3,97457886	1,5084983330754442	5	-0,00609663408	0,00599564565
2	1	0	0	0	7069,54	3,98644829	3,9866004	1,5433991296837738	5	-0,00426475704	0,00615291577
2	1	0	1	0	7070,74	3,99844933	3,99844933	1,5806199902047702	5	-0,00238952157	0,00632002903
2	1	0	1	0	7071,94	4,01045036	4,01057863	1,6201766120890717	5	-0,000468391838	0,00649784552
2	1	0	0	0	7073,14	4,0224514	4,02259827	1,6626899068554214	5	0,00150216138	0,00668833358
2	1	0	0	0	7074,34	4,03445244	4,03481817	1,7074021653582605	5	0,00352479215	0,00688905735
2	1	0	1	0	7075,54	4,04645348	4,04640675	1,7551857916017325	5	0,0056031351	0,00710219564
2	1	0	1	0	7076,74	4,05845499	4,05864668	1,8056246538956912	5	0,00774043007	0,00732839247
2	1	0	0	0	7077,94	4,07045603	4,07044554	1,8593855227033274	5	0,00994063355	0,00756852748
2	1	0	0	0	7079,14	4,08245564	4,08266401	1,9155997457800566	5	0,0122065237	0,00782075059
2	1	0	1	0	7080,34	4,0944581	4,09478474	1,9759416393935664	5	0,014542954	0,00809105579
2	1	0	0	0	7081,54	4,10645914	4,10645342	2,0396393096695392	5	0,0169533715	0,0083756838
2	1	0	0	0	7082,74	4,11846066	4,11873341	2,1068090864767549	5	0,0194415133	0,00867738482
2	1	0	1	0	7083,94	4,13046169	4,13064241	2,1772678320606502	5	0,0220124982	0,00899351481
2	1	0	1	0	7085,14	4,14246273	4,14262199	2,2514512805888957	5	0,0246701706	0,00932691153
2	1	0	0	0	7086,34	4,15446377	4,15464115	2,3295333211620637	5	0,0274194498	0,00967837498
2	1	0	1	0	7087,54	4,16646528	4,16662169	2,4118268396740374	5	0,030265281	0,0100491699
2	1	0	1	0	7088,74	4,17846584	4,17869043	2,4979195358852502	5	0,0332114734	0,0104380324
2	1	0	0	0	7089,94	4,19046688	4,19083977	2,588838383555423	5	0,0362648331	0,0108494069
2	0	0	0	1	7091,07	4,1981678	4,19809771	2,613093147054313	5	0,0392355546	0,0109700207
2	0	0	0	1	7092,27	4,18616724	4,18649006	2,4167192222576669	5	0,0422447808	0,0101175709
2	0	0	1	1	7093,47	4,17416573	4,17432928	2,2511291094124246	5	0,0450433567	0,00939695444
2	0	0	0	1	7094,67	4,16216469	4,16212988	2,0972733100255318	5	0,0476510264	0,00872912351
2	0	0	0	1	7095,87	4,15016365	4,15018082	1,9517314868668656	5	0,0500786379	0,00810003839
2	0	0	1	1	7097,07	4,13816261	4,13814116	1,8143028759708032	5	0,0523368977	0,00750784157
2	0	0	1	1	7098,27	4,12616158	4,1261611	1,684250075358193	5	0,0544343144	0,00694948714
2	0	0	0	1	7099,47	4,11416006	4,1144433	1,5609409054741229	5	0,0563799702	0,0064224028
2	0	0	1	1	7100,67	4,10215807	4,1023612	1,4438902148688365	5	0,0581813939	0,00592335919
2	0	0	1	1	7101,87	4,09015751	4,09035444	1,3326253956183755	5	0,0598457269	0,00545091042
2	0	0	0	1	7103,07	4,07815647	4,07819462	1,2272496360043678	5	0,0613803267	0,00500496291
2	0	0	0	1	7104,27	4,06615543	4,06647539	1,1270658615976573	5	0,0627912655	0,00458318554
2	0	0	1	1	7105,47	4,0541544	4,05432606	1,0324516473338026	5	0,064085722	0,00418589544
2	0	0	1	1	7106,67	4,04215336	4,04229641	0,9429086629922185	5	0,0652693436	0,00381151633
2	0	0	0	1	7107,87	4,03015232	4,03049803	0,85788198746740646	5	0,0663482696	0,00345769175
2	0	0	0	1	7109,07	4,01815176	4,01831913	0,77723961483147302	5	0,0673279688	0,00312319677
2	0	0	1	1	7110,27	4,00615025	4,00619841	0,70135837684695744	5	0,0682141334	0,00280978088
2	0	0	0	1	7111,47	3,99414897	3,99413872	0,63015071721747162	5	0,0690120757	0,00251690927
2	0	0	0	1	7112,67	3,98214793	3,98205924	0,56260019044081357	5	0,0697264895	0,0022403074
2	0	0	1	1	7113,87	3,97014642	3,97012997	0,49897931702434925	5	0,0703623891	0,00198101276
2	0	0	1	1	7115,11	3,95774531	3,9579103	0,436254514070848	5	0,0709406734	0,00172665622
2	0	0	0	1	7116,31	3,94574428	3,94602108	0,38051944637360634	5	0,0714297071	0,00150153774
2	0	0	0	1	7117,51	3,93374372	3,93401217	0,32788258160720838	5	0,0718534738	0,00128989411
2	0	0	1	1	7118,71	3,9217422	3,9219625	0,27880582779956374	5	0,0722164139	0,00109346595
2	0	0	0	1	7119,91	3,90974116	3,90990281	0,23262610170058861	5	0,0725221336	0,000909545459
2	0	0	0	1	7121,11	3,89773989	3,8979733	0,19007996896592294	5	0,0727746487	0,000740926655
2	0	0	1	1	7122,31	3,88573885	3,88596416	0,15020269050728509	5	0,0729776323	0,000583682267
2	0	0	1	1	7123,51	3,87373781	3,87395501	0,11360562546178712	5	0,0731347799	0,000440103089
2	0	0	0	1	7124,71	3,8617363	3,86169457	0,079382316810855283	5	0,0732493997	0,000306550268
2	0	0	0	1	7125,93	3,84953523	3,84989071	0,047644052528388115	5	0,073325716	0,000183424389
2	0	0	1	1	7127,15	3,83733416	3,83741498	0,017904881936071094	5	0,0733644143	6,87084612E-005
2	0	0	1	1	7128,43	3,8245337	3,82461381	-0,010625003895975378	5	0,0733677819	4,06365361E-005
2	0	0	0	1	7129,63	3,81253195	3,81255436	-0,036169188795611373	5	0,0733385533	0,000137897005
2	0	0	1	1	7130,83	3,80053067	3,80062532	-0,060009063260319181	5	0,0732800737	0,000228071964
2	0	0	1	1	7132,03	3,78852963	3,78876615	-0,082392610958777446	5	0,0731941089	0,000312166347
2	0	0	0	1	7133,27	3,77612853	3,77645636	-0,10354188783094293	5	0,0730780438	0,000391021429
2	0	0	0	1	7134,47	3,76412749	3,76435661	-0,1238309316492332	5	0,0729408935	0,0004661438
2	0	0	1	1	7135,67	3,75212646	3,75244761	-0,14258937002159611	5	0,0727803409	0,000535059138
2	0	0	0	1	7136,87	3,74012399	3,74028683	-0,16087969664329594	5	0,0725975409	0,000601736188
2	0	0	0	1	7138,07	3,7281239	3,72829843	-0,17750123604976896	5	0,0723936036	0,000661777565
2	0	0	1	1	7139,27	3,7161231	3,71640944	-0,19470503425691366	5	0,0721694008	0,000723603647
2	0	0	1	1	7140,47	3,70412159	3,7043395	-0,21060546503091882	5	0,0719254464	0,000780154136
2	0	0	0	1	7141,67	3,69212055	3,69214964	-0,2262866927776488	5	0,0716625601	0,000835484359
2	0	0	0	1	7142,87	3,68011951	3,68039107	-0,24105890599700429	5	0,071381323	0,00088719104
2	0	0	1	1	7144,07	3,66811848	3,66810107	-0,25576437365574112	5	0,0710823312	0,0009381696
2	0	0	1	1	7145,27	3,65611744	3,65622187	-0,26980433046507379	5	0,0707660988	0,000986464438
2	0	0	0	1	7146,47	3,64411616	3,64421248	-0,28364076814614282	5	0,0704331249	0,00103364722
2	0	0	1	1	7147,67	3,63211465	3,63223243	-0,29672962365533216	5	0,0700838566	0,00107779098
2	0	0	1	1	7148,87	3,62011409	3,62019372	-0,30958549228186438	5	0,0697190017	0,00112075941
2	0	0	0	1	7150,07	3,60811305	3,60845494	-0,32242752145975827	5	0,0693388358	0,0011634652
2	0	0	0	1	7151,27	3,59611154	3,59623528	-0,33465344388969331	5	0,0689440295	0,00120349252
2	0	0	1	1	7152,47	3,58411074	3,58419561	-0,34619045412788941	5	0,0685348138	0,00124081434
2	0	0	1	1	7153,67	3,57210922	3,57225633	-0,35772642198329299	5	0,0681118742	0,00127789052
2	0	0	0	1	7154,87	3,56010818	3,560287	-0,36830819607712326	5	0,0676755905	0,00131128286
2	0	0	0	1	7156,07	3,54810715	3,5483377	-0,37893510268380346	5	0,0672266036	0,00134458975
2	0	0	1	1	7157,27	3,53610611	3,53636837	-0,3887597389208777	5	0,0667652637	0,00137479766
2	0	0	0	1	7158,47	3,52410507	3,52444935	-0,39831656481449837	5	0,0662921742	0,00140384655
2	0	0	0	1	7159,67	3,5121038	3,51224947	-0,40735763823613523	5	0,0658080429	0,00143074163
2	0	0	1	1	7160,87	3,50010276	3,50010991	-0,4162505910110976	5	0,0653130785	0,00145692285
2	0	0	1	1	7162,07	3,48810172	3,48825073	-0,42416954692453101	5	0,0648081154	0,00147960975
2	0	0	0	1	7163,28	3,47610068	3,47621179	-0,43215185869485139	5	0,0642933697	0,00150225137
2	0	0	0	1	7164,48	3,46409917	3,46435261	-0,43940558067212531	5	0,0637696236	0,00152225583
2	0	0	1	1	7165,68	3,45209837	3,45230269	-0,44643827714026016	5	0,0632371753	0,00154124002
2	0	0	1	1	7166,88	3,44009805	3,44023442	-0,45270262417221651	5	0,0626967773	0,00155740313
2	0	0	0	1	7168,08	3,42809582	3,42822409	-0,45893351702640397	5	0,0621486679	0,00157332688
2	0	0	1	1	7169,28	3,41609478	3,41618466	-0,46477554226294157	5	0,0615935735	0,00158775912
2	0	0	1	1	7170,48	3,40409374	3,40421534	-0,47030867155020672	5	0,0610319674	0,00160103198
2	0	0	0	1	7171,68	3,3920927	3,39239597	-0,47493420913815674	5	0,0604641885	0,00161116489
2	0	0	0	1	7172,88	3,38009143	3,38035655	-0,47963417104135078	5	0,0598908253	0,00162133446
2	0	0	1	1	7174,08	3,36809039	3,3684175	-0,48352183680981395	5	0,0593121909	0,00162870344
2	0	0	1	1	7175,28	3,35608935	3,3564384	-0,48761109914630739	5	0,0587288849	0,00163663656
2	0	0	0	1	7176,48	3,34408832	3,34435868	-0,4907980050581209	5	0,0581410751	0,00164140458
2	0	0	0	1	7177,68	3,33208752	3,33208895	-0,49419667645827834	5	0,0575493574	0,0016467073
2	0	0	1	1	7178,88	3,320086	3,3202498	-0,49694018779943507	5	0,0569539964	0,00164996553
2	0	0	0	1	7180,08	3,30808496	3,30814004	-0,49964486015960666	5	0,0563553087	0,00165289512
2	0	0	0	1	7181,28	3,29608345	3,2964313	-0,50170113146305261	5	0,0557537936	0,0016538233
2	0	0	1	1	7182,48	3,28408241	3,28434181	-0,50380154124771616	5	0,0551496558	0,00165465649
2	0	0	1	1	7183,68	3,27208138	3,2724328	-0,50543519016355456	5	0,0545433238	0,0016540027
2	0	0	0	1	7184,88	3,26008034	3,26026297	-0,50711177832757402	5	0,0539349653	0,00165331771
2	0	0	0	1	7186,08	3,24808002	3,24841571	-0,50817360736591866	5	0,0533249415	0,00165075914
2	0	0	1	1	7187,28	3,23607802	3,2361238	-0,50939666836832973	5	0,0527133048	0,00164847064
2	0	0	0	1	7188,48	3,22407699	3,22414446	-0,51059067621827059	5	0,0521004274	0,00164621812
2	0	0	0	1	7189,68	3,21207595	3,21212506	-0,51160001785804922	5	0,0514866821	0,00164332322
2	0	0	1	1	7190,88	3,20007491	3,20012569	-0,51204737136140646	5	0,0508719161	0,00163861597
2	0	0	1	1	7192,08	3,18807364	3,18820643	-0,51264635970195194	5	0,0502566211	0,00163442246
2	0	0	0	1	7193,28	3,1760726	3,17598677	-0,51294760545715776	5	0,0496406294	0,00162911485
2	0	0	0	1	7194,48	3,16407156	3,16415787	-0,51333141947785907	5	0,0490242913	0,00162426161
2	0	0	1	1	7195,68	3,15207005	3,15230894	-0,51341848277176538	5	0,0484075658	0,00161845365
2	0	0	1	1	7196,88	3,14006925	3,14022827	-0,51361847540776397	5	0,0477906577	0,00161287922
2	0	0	0	1	7198,08	3,12806797	3,12848091	-0,51367688303192582	5	0,0471736491	0,0016070283
2	0	0	1	1	7199,28	3,11606693	3,1162405	-0,51382450774932928	5	0,0465564765	0,00160120078
2	0	0	1	1	7200,45	3,10436654	3,10464287	-0,51360978592525971	5	0,0459551103	0,00159457501