File: Experimentelles/Rohdaten/Batterietests/AlteZelle/Studenten_Batterietests/Sonstige/ECLab-Export/LiCoO2 vs Li_02_CV_C01_loop10.mpt
EC-Lab ASCII FILE
Nb header lines : 3
mode	ox/red	error	control changes	counter inc.	time/s	control/V	Ewe/V	<I>/mA	cycle number	(Q-Qo)/C	P/W
2	0	0	1	0	10401,15	3,1055665	3,10584569	-0,94643217325210573	11	0	0,00293947221
2	0	0	0	0	10402,33	3,09376502	3,0939362	-0,79507061156133926	11	-0,000972145994	0,00245989766
2	0	0	0	0	10403,53	3,08176374	3,08203697	-0,78404474848260634	11	-0,00191953662	0,00241645495
2	0	0	1	0	10404,73	3,06976295	3,0699172	-0,7765661647232864	11	-0,00285687391	0,00238399394
2	0	0	0	0	10405,93	3,05776119	3,05778718	-0,76956132971173658	11	-0,00378538808	0,00235315482
2	0	0	0	0	10407,13	3,04576063	3,04594874	-0,76280067752425933	11	-0,00470519392	0,00232345168
2	0	0	1	0	10408,33	3,03375959	3,03394938	-0,75587767735123571	11	-0,00561699318	0,00229329453
2	0	0	1	0	10409,53	3,02175832	3,02177954	-0,74962240535144934	11	-0,00652067456	0,00226519373
2	0	0	0	0	10410,73	3,00975704	3,00986052	-0,74298447184264832	11	-0,00741681224	0,00223627966
2	0	0	0	0	10411,93	2,997756	2,99786091	-0,7371593931069001	11	-0,00830520317	0,00220990134
2	0	0	1	0	10413,13	2,98575497	2,98589158	-0,73073218110948979	11	-0,00918668415	0,00218188716
2	0	0	1	0	10414,33	2,97375369	2,97380185	-0,72544710446770202	11	-0,010061048	0,00215733587
2	0	0	0	0	10415,53	2,96175265	2,96215343	-0,72001463718091507	11	-0,0109290471	0,00213279389
2	0	0	1	0	10416,73	2,94975138	2,95006418	-0,71480071697383923	11	-0,011790528	0,00210870802
2	0	0	1	0	10417,93	2,93775058	2,93794441	-0,70970188096786573	11	-0,0126457894	0,00208506477
2	0	0	0	0	10419,13	2,9257493	2,92574453	-0,70501340506598438	11	-0,0134954257	0,00206268905
2	0	0	0	0	10420,33	2,91374826	2,91396546	-0,70048129977658573	11	-0,0143394805	0,00204117829
2	0	0	1	0	10421,54	2,90174723	2,90182567	-0,69615590060130074	11	-0,015178143	0,00202012295
2	0	0	1	0	10422,74	2,88974595	2,88991666	-0,69190116071452582	11	-0,0160118137	0,00199953676
2	0	0	0	0	10423,94	2,87774467	2,87806797	-0,68816102202981798	11	-0,0168408193	0,0019805741
2	0	0	0	0	10425,14	2,86574459	2,86602879	-0,68480616909168307	11	-0,0176652912	0,00196267408
2	0	0	1	0	10426,34	2,8537426	2,85389876	-0,6816521824027095	11	-0,0184856243	0,00194536627
2	0	0	0	0	10427,54	2,84174156	2,84198952	-0,67812294000759923	11	-0,0193019733	0,00192721828
2	0	0	0	0	10428,74	2,82974029	2,82993007	-0,67529826921721178	11	-0,0201145429	0,00191104691
2	0	0	1	0	10429,94	2,81773901	2,81800079	-0,67223714928453222	11	-0,0209236518	0,00189436483
2	0	0	1	0	10431,14	2,80573821	2,80585098	-0,66943724639714125	11	-0,0217291974	0,00187834119
2	0	0	0	0	10432,34	2,79373693	2,79410219	-0,66679568821564493	11	-0,0225315653	0,00186309533
2	0	0	0	0	10433,54	2,7817359	2,78197265	-0,66397832039122662	11	-0,0233305991	0,00184716948
2	0	0	1	0	10434,74	2,76973486	2,77023387	-0,66155294872199552	11	-0,0241266768	0,00183265633
2	0	0	1	0	10435,94	2,75773454	2,7579546	-0,65946925706837606	11	-0,0249198452	0,00181878626
2	0	0	0	0	10437,14	2,74573231	2,74604464	-0,65703140494103258	11	-0,0257104933	0,0018042376
2	0	0	1	0	10438,34	2,73373151	2,73404527	-0,65524792779858022	11	-0,0264986921	0,00179147755
2	0	0	1	0	10439,54	2,72173023	2,72210622	-0,65331850433722138	11	-0,0272844769	0,00177840237
2	0	0	0	0	10440,74	2,70972919	2,70988631	-0,6517459152576832	11	-0,0280683003	0,00176615734
2	0	0	0	0	10441,94	2,69772792	2,69793701	-0,64985780340309235	11	-0,0288500283	0,0017532754
2	0	0	1	0	10443,14	2,68572688	2,68592739	-0,64842551760375475	11	-0,0296300016	0,00174162386
2	0	0	1	0	10444,34	2,67372584	2,67404866	-0,64709509738410547	11	-0,0304078776	0,00173036382
2	0	0	0	0	10445,54	2,66172457	2,66183853	-0,64626748797793971	11	-0,0311843771	0,00172025966
2	0	0	1	0	10446,74	2,64972353	2,64989924	-0,64465016111110592	11	-0,0319595672	0,00170825794
2	0	0	1	0	10447,94	2,63772249	2,63791013	-0,64382248278707264	11	-0,0327331461	0,00169834588
2	0	0	0	0	10449,14	2,62572122	2,62570024	-0,64195128250867302	11	-0,0335053466	0,00168557162
2	0	0	0	0	10450,34	2,61372042	2,61385131	-0,64148516735683008	11	-0,0342759527	0,00167674688
2	0	0	1	0	10451,54	2,60171914	2,60191202	-0,64022672828286976	11	-0,0350458324	0,00166581362
2	0	0	1	0	10452,74	2,58971786	2,58979225	-0,63956463709473549	11	-0,0358142629	0,0016563395
2	0	0	0	0	10453,94	2,57771683	2,57805371	-0,63833583487818752	11	-0,0365817733	0,0016456641
2	0	0	0	0	10455,14	2,56571579	2,56621456	-0,63753353232291238	11	-0,0373480842	0,00163604785
2	0	0	1	0	10456,34	2,55371451	2,55382419	-0,636815892377248	11	-0,038113188	0,00162631588
2	0	0	0	0	10457,54	2,54171348	2,54205537	-0,63573612645268442	11	-0,0388774276	0,00161607645
2	0	0	0	0	10458,74	2,5297122	2,52993608	-0,63459343230351757	11	-0,0396403931	0,00160548079
2	0	0	1	0	10459,94	2,51771116	2,51770616	-0,63380260532721971	11	-0,0404022746	0,00159572868
2	0	0	1	0	10461,14	2,50571012	2,50585675	-0,63239233676965248	11	-0,0411628112	0,00158468459
2	0	0	0	0	10462,34	2,49370909	2,49376726	-0,63093362981453632	11	-0,0419218764	0,00157340162
2	0	0	0	0	10463,54	2,48170805	2,48170781	-0,63017171310881805	11	-0,0426793545	0,00156390201
2	0	0	1	0	10464,74	2,46970677	2,47009945	-0,62859161462013978	11	-0,0434352383	0,00155268377
2	0	0	0	0	10465,94	2,4577055	2,45804	-0,62675709727531008	11	-0,0441892631	0,00154059404
2	0	0	0	0	10467,14	2,44570446	2,44591045	-0,6250423202291136	11	-0,0449410491	0,00152879755
2	0	0	1	0	10468,34	2,43370342	2,43398118	-0,62300481492032845	11	-0,0456907749	0,00151638198
2	0	0	1	0	10469,54	2,42170215	2,42177129	-0,62090767438833971	11	-0,0464376211	0,00150369643
2	0	0	0	0	10470,74	2,40970111	2,41000247	-0,61807060257221453	11	-0,0471816324	0,00148955162
2	0	0	0	0	10471,94	2,39769983	2,39798307	-0,61501901270821606	11	-0,0479222462	0,00147480518
2	0	0	1	0	10473,14	2,3856988	2,38614416	-0,61177836094672602	11	-0,0486590825	0,00145979133
2	0	0	1	0	10474,34	2,37369728	2,37396526	-0,60825717077558528	11	-0,049391754	0,00144398143
2	0	0	0	0	10475,54	2,36169672	2,362005	-0,60385377192869965	11	-0,050119672	0,00142630562
2	0	0	1	0	10476,74	2,34969568	2,34979486	-0,59952335944399373	11	-0,0508426204	0,00140875694
2	0	0	1	0	10477,94	2,33769441	2,33761525	-0,59462534263730227	11	-0,0515597835	0,00139000523
2	0	0	0	0	10479,14	2,32569313	2,32568598	-0,58952696357543206	11	-0,0522711389	0,00137105456
2	0	0	0	0	10480,34	2,31369209	2,31395745	-0,58349597981820493	11	-0,0529758558	0,0013501849
2	0	0	1	0	10481,54	2,30169106	2,30203819	-0,5776852451575305	11	-0,0536737777	0,00132985355
2	0	0	1	0	10482,74	2,28969002	2,28987837	-0,57163352208832973	11	-0,0543641634	0,0013089712
2	0	0	0	0	10483,94	2,27768874	2,27786899	-0,56527005586152333	11	-0,055046957	0,00128761108
2	0	0	1	0	10485,14	2,26568651	2,26586866	-0,55808461825507558	11	-0,055721622	0,00126454642
2	0	0	1	0	10486,34	2,25368667	2,2540307	-0,55143205805992147	11	-0,0563879386	0,00124294474
2	0	0	0	0	10487,54	2,24168539	2,24212146	-0,54400142251203398	11	-0,0570458546	0,00121971732
2	0	0	0	0	10488,74	2,22968435	2,23009229	-0,53693534371753594	11	-0,0576948971	0,0011974154
2	0	0	1	0	10489,94	2,21768332	2,21806264	-0,5293227241684999	11	-0,0583354048	0,00117407099
2	0	0	1	0	10491,14	2,20568204	2,20579267	-0,52237281948328198	11	-0,0589670055	0,00115224614
2	0	0	0	0	10492,34	2,19368076	2,19398379	-0,51510881291081478	11	-0,0595902018	0,00113014039
2	0	0	0	0	10493,54	2,18167973	2,18183422	-0,50825649204974586	11	-0,0602047741	0,00110893138
2	0	0	1	0	10494,74	2,16967869	2,16986465	-0,50121246837079616	11	-0,060811203	0,00108756323
2	0	0	0	0	10495,94	2,15767694	2,15796566	-0,49473913724398957	11	-0,0614095218	0,00106763002
2	0	0	0	0	10497,14	2,14567637	2,14610672	-0,48830331427355757	11	-0,0619999841	0,00104795105
2	0	0	1	0	10498,34	2,13367534	2,13383675	-0,48238103588422374	11	-0,0625831336	0,00102932239
2	0	0	1	0	10499,54	2,1216743	2,12220812	-0,47631846787408083	11	-0,0631591976	0,00101084693
2	0	0	0	0	10500,74	2,10967302	2,11014867	-0,47084327011058669	11	-0,0637285933	0,000993549242
2	0	0	0	0	10501,94	2,09767199	2,0980289	-0,46606353592748384	11	-0,0642915145	0,00097781478
2	0	0	1	0	10503,14	2,08567119	2,08583927	-0,4613610569698121	11	-0,0648485273	0,000962325023
2	0	0	1	0	10504,34	2,07367015	2,07383037	-0,45677666052798035	11	-0,065400064	0,000947277294
2	0	0	0	0	10505,54	2,06166863	2,06197071	-0,4529869691468775	11	-0,0659465715	0,000934045878
2	0	0	1	0	10506,74	2,0496676	2,0498209	-0,44901652354747059	11	-0,066488415	0,000920403458
2	0	0	1	0	10507,94	2,03766632	2,03793216	-0,44589236130317043	11	-0,0670259744	0,000908698363
2	0	0	0	0	10509,14	2,02566528	2,02578211	-0,44252143598472141	11	-0,0675596669	0,000896451995
2	0	0	0	0	10510,34	2,01366425	2,01391315	-0,43981333170086323	11	-0,0680898279	0,00088574586
2	0	0	1	0	10511,54	2,00166297	2,00196385	-0,43733111893137357	11	-0,0686168596	0,000875521102
2	0	0	1	0	10512,74	1,98966205	1,98989451	-0,4353161922966455	11	-0,0691411048	0,000866233313
2	0	0	0	0	10513,94	1,97766078	1,97809553	-0,43309113755822272	11	-0,0696629062	0,000856695639
2	0	0	1	0	10515,14	1,96565986	1,96607614	-0,43172027046481888	11	-0,0701826662	0,000848794938
2	0	0	1	0	10516,34	1,95365858	1,95404673	-0,43008328260233062	11	-0,0707005188	0,000840402849
2	0	0	0	0	10517,54	1,94165754	1,94179666	-0,42915622672687091	11	-0,0712169856	0,00083333411
2	0	0	0	0	10518,74	1,92965639	1,92986763	-0,42789899914835994	11	-0,0717321038	0,000825788418
2	0	0	1	0	10519,94	1,91765511	1,91784811	-0,42732420641308096	11	-0,0722464174	0,000819542911
2	0	0	1	0	10521,14	1,90565407	1,90576851	-0,42704771226271987	11	-0,072759904	0,000813854102
2	0	0	0	0	10522,34	1,89365315	1,89394963	-0,42695690287898016	11	-0,0732729584	0,000808634853
2	0	0	0	0	10523,54	1,88165188	1,88182998	-0,42641107551753523	11	-0,0737855807	0,000802433118
2	0	0	1	0	10524,74	1,86965072	1,86997104	-0,42656083948289504	11	-0,0742980614	0,000797656423
2	0	0	0	0	10525,94	1,85764968	1,85777116	-0,4264843586521856	11	-0,0748105943	0,00079231034
2	0	0	0	0	10527,14	1,84564841	1,84575188	-0,42707856620351501	11	-0,0753233284	0,00078828109
2	0	0	1	0	10528,35	1,83364749	1,83377242	-0,42716114223003565	11	-0,0758366361	0,000783316325
2	0	0	1	0	10529,55	1,82164645	1,82205379	-0,42816666746511878	11	-0,0763505101	0,000780142727
2	0	0	0	0	10530,75	1,80964518	1,81003428	-0,42864067619666547	11	-0,0768653452	0,000775854336
2	0	0	0	0	10531,95	1,79764402	1,79800498	-0,42983870736013152	11	-0,0773811117	0,00077285216
2	0	0	1	0	10533,15	1,78564274	1,78572488	-0,43069219666843654	11	-0,0778982788	0,000769097765
2	0	0	0	0	10534,35	1,77364206	1,77374554	-0,43213774812939757	11	-0,0784168094	0,000766502402
2	0	0	0	0	10535,55	1,76164079	1,7616961	-0,43347363313660384	11	-0,0789370686	0,00076364883
2	0	0	1	0	10536,75	1,74963951	1,75016773	-0,43512071358660973	11	-0,0794591233	0,000761534204
2	0	0	1	0	10537,95	1,73763847	1,73793781	-0,43655143212527034	11	-0,0799831301	0,000758699258
2	0	0	0	0	10539,15	1,72563732	1,72584832	-0,43845868188267014	11	-0,0805093125	0,000756713154
2	0	0	0	0	10540,35	1,71363604	1,71386898	-0,4407019855765015	11	-0,0810377225	0,00075530546
2	0	0	1	0	10541,55	1,70163512	1,70182955	-0,4428895472859353	11	-0,0815685242	0,000753722503
2	0	0	1	0	10542,75	1,68963408	1,68995047	-0,44479633774608371	11	-0,0821017697	0,00075168378
2	0	0	0	0	10543,95	1,67763281	1,67784071	-0,44726858536402502	11	-0,0826377347	0,00075044547
2	0	0	1	0	10545,15	1,66563165	1,66580129	-0,44928631636624595	11	-0,0831763968	0,000748421706
2	0	0	1	0	10546,35	1,65363061	1,65376174	-0,45160406952103072	11	-0,083717607	0,000746845559
2	0	0	0	0	10547,55	1,64162934	1,64200318	-0,45350504837309382	11	-0,0842614546	0,000744656718
2	0	0	0	0	10548,75	1,62962842	1,62987328	-0,45570415863767264	11	-0,0848077536	0,000742740056
2	0	0	1	0	10549,95	1,61762738	1,61794424	-0,45793504081666605	11	-0,0853567198	0,000740913383
2	0	0	1	0	10551,15	1,60562611	1,60584462	-0,46064977503071347	11	-0,0859085694	0,000739731942
2	0	0	0	0	10552,35	1,59362495	1,5938853	-0,46283025232454381	11	-0,086463511	0,000737698341
2	0	0	0	0	10553,55	1,58162367	1,58192515	-0,46570651715766419	11	-0,0870215371	0,000736712827
2	0	0	1	0	10554,75	1,56962276	1,56980634	-0,46814660588279546	11	-0,0875826627	0,000734899484
2	0	0	0	0	10555,95	1,55762172	1,5578171	-0,47125466742242496	11	-0,0881472826	0,000734128582
2	0	0	0	0	10557,15	1,54562068	1,54585791	-0,47405828209593894	11	-0,088715449	0,000732826767
2	0	0	1	0	10558,35	1,53361952	1,53399873	-0,47756228611494048	11	-0,0892877057	0,000732579967
2	0	0	1	0	10559,55	1,52161837	1,5217489	-0,48146079558258138	11	-0,0898640528	0,000732662447
2	0	0	0	0	10560,75	1,50961709	1,50974941	-0,4855754982369639	11	-0,0904449522	0,000733097317
2	0	0	0	0	10561,95	1,49761605	1,49769998	-0,48932971308628838	11	-0,0910304934	0,000732869084
2	0	0	1	0	10563,15	1,48561502	1,48582089	-0,49388844488809446	11	-0,0916211829	0,000733829744
2	0	0	0	0	10564,35	1,47361374	1,4739219	-0,49819266736507379	11	-0,0922171921	0,000734297093
2	0	0	0	0	10565,55	1,4616127	1,46171188	-0,50330741470679731	11	-0,092818737	0,00073569041
2	0	0	1	0	10566,75	1,44961166	1,44964254	-0,50816196855157658	11	-0,0934264511	0,000736653223
2	0	0	1	0	10567,95	1,43761039	1,43781352	-0,5141404306826487	11	-0,0940405279	0,00073923805
2	0	0	0	0	10569,15	1,42560935	1,42588425	-0,51980411028489472	11	-0,0946616679	0,000741180498
2	0	0	0	0	10570,35	1,41360831	1,41367447	-0,52649105495462842	11	-0,0952900872	0,000744286983
2	0	0	1	0	10571,55	1,40160716	1,40174532	-0,53299563284963366	11	-0,0959266797	0,000747124141
2	0	0	1	0	10572,75	1,389606	1,3897959	-0,54050753902023277	11	-0,0965716168	0,000751195184
2	0	0	0	0	10573,95	1,37760496	1,37790692	-0,54806639952585101	11	-0,0972257257	0,000755184505
2	0	0	1	0	10575,15	1,36560369	1,36583745	-0,55665181158110675	11	-0,0978895277	0,000760295894
2	0	0	1	0	10576,35	1,35360265	1,3537277	-0,56547401845455258	11	-0,098563835	0,000765497854
2	0	0	0	0	10577,55	1,34160173	1,34169829	-0,5755128874443488	11	-0,0992496833	0,000772164669
2	0	0	0	0	10578,75	1,32960033	1,32977915	-0,58672100491821811	11	-0,0999479219	0,000780209375
2	0	0	1	0	10579,95	1,3175993	1,31777978	-0,59872989232341568	11	-0,10065984	0,000788994133
2	0	0	1	0	10581,15	1,30559826	1,30614126	-0,6113814762793481	11	-0,101386465	0,000798550551
2	0	0	0	0	10582,35	1,29359698	1,29386127	-0,62544293732692506	11	-0,102129333	0,000809236371
2	0	0	0	0	10583,55	1,28159595	1,28182185	-0,64050007689123418	11	-0,10288959	0,000821007008
2	0	0	1	0	10584,75	1,26959479	1,26977229	-0,65675542798514458	11	-0,103668764	0,000833929866
2	0	0	0	0	10585,95	1,25759375	1,25797343	-0,67410103154058022	11	-0,10446813	0,00084800116
2	0	0	0	0	10587,15	1,24559259	1,24583364	-0,69283814153944602	11	-0,105289161	0,000863161054
2	0	0	1	0	10588,35	1,23359132	1,23389447	-0,71246051586543642	11	-0,106133252	0,000879101106
2	0	0	1	0	10589,55	1,22159028	1,22194517	-0,7333596455864617	11	-0,107001491	0,000896125275
2	0	0	0	0	10590,75	1,20958936	1,20999599	-0,75469011565049587	11	-0,107895166	0,000913172029
2	0	0	0	0	10591,95	1,19758797	1,1976459	-0,77752823273961843	11	-0,108815365	0,000931203482
2	0	0	1	0	10593,15	1,18558705	1,1858269	-0,80062655949344294	11	-0,109763198	0,000949404493
2	0	0	1	0	10594,35	1,17358613	1,17399848	-0,82483570141208064	11	-0,110739499	0,00096835586
2	0	0	0	0	10595,55	1,16158462	1,16186821	-0,84893639944494131	11	-0,111744873	0,000986352214
2	0	0	1	0	10596,75	1,14958358	1,14987886	-0,87423635305216064	11	-0,112780251	0,00100526586
2	0	0	1	0	10597,95	1,13758254	1,13822043	-0,90024819504469811	11	-0,113845944	0,00102468091
2	0	0	0	0	10599,15	1,12558138	1,12587011	-0,92664922401309107	11	-0,114942916	0,00104328664
2	0	0	0	0	10600,35	1,11358035	1,1138407	-0,95294268615544026	11	-0,116071336	0,00106142636
2	0	0	1	0	10601,55	1,10157919	1,10178113	-0,98034569465865933	11	-0,117232256	0,00108012639
2	0	0	1	0	10602,79	1,08917797	1,08923042	-1,0082366289570963	11	-0,118465945	0,00109820196
2	0	0	0	0	10603,99	1,07717681	1,07747173	-1,0370197556912917	11	-0,119694047	0,0011173595
2	0	0	1	0	10605,19	1,06517577	1,06553245	-1,0664255286877342	11	-0,120957196	0,00113631098
2	0	0	1	0	10606,39	1,0531745	1,05345285	-1,0973393771176517	11	-0,122256324	0,0011559953
2	0	0	0	0	10607,59	1,04117346	1,04134333	-1,1292734260981288	11	-0,123593457	0,00117596134
2	0	0	0	0	10608,79	1,02917242	1,02908325	-1,1636041222761086	11	-0,124969907	0,00119744556
2	0	0	1	0	10609,99	1,01717126	1,01742482	-1,1993296130870794	11	-0,12638855	0,00122022768
2	0	0	1	0	10611,19	1,00517011	1,00546563	-1,2377579193562261	11	-0,127851516	0,0012445231
2	1	0	1	0	10612,34	1,00627029	1,0064379	-1,1166429842511824	11	-0,129239067	0,00112383184
2	1	0	1	0	10613,54	1,01827133	1,01861775	-0,98992995731532928	11	-0,130497247	0,00100836018
2	1	0	0	0	10614,74	1,03027248	1,03048682	-0,88917199739565683	11	-0,131622404	0,000916280027
2	1	0	0	0	10615,94	1,04227364	1,04255617	-0,80268868586669133	11	-0,132635653	0,000836848048
2	1	0	1	0	10617,14	1,0542748	1,05457568	-0,72550563809151475	11	-0,133550718	0,000765100587
2	1	0	1	0	10618,34	1,06627655	1,06642604	-0,6575530909896416	11	-0,134378821	0,000701231766
2	1	0	0	0	10619,54	1,07827687	1,07854426	-0,59697419793034662	11	-0,135130048	0,00064386311
2	1	0	1	0	10620,74	1,09027815	1,09049344	-0,54344942125802477	11	-0,13581273	0,000592628028
2	1	0	1	0	10621,98	1,10267925	1,10306442	-0,4948615908312313	11	-0,136454403	0,000545864226
2	1	0	0	0	10623,18	1,11468041	1,11525416	-0,45224509527906688	11	-0,137021154	0,000504368218
2	1	0	0	0	10624,38	1,12668145	1,12683249	-0,41382941355307846	11	-0,137539297	0,000466316415
2	1	0	1	0	10625,58	1,13868248	1,13885188	-0,37950874034625805	11	-0,138013899	0,000432204251
2	1	0	1	0	10626,78	1,15068376	1,15097153	-0,34846067195758246	11	-0,138449028	0,000401068304
2	1	0	0	0	10627,98	1,1626848	1,16292071	-0,31993487803265498	11	-0,138848618	0,000372058887
2	1	0	1	0	10629,19	1,17468596	1,17504036	-0,29394477512687469	11	-0,139215887	0,000345396984
2	1	0	1	0	10630,39	1,18668711	1,18692958	-0,27031406216944333	11	-0,139553502	0,00032084377
2	1	0	0	0	10631,59	1,19868815	1,19904912	-0,24875202526648922	11	-0,139864087	0,000298265892
2	1	0	0	0	10632,79	1,21068931	1,2110486	-0,22883991043393869	11	-0,140149683	0,000277136249
2	1	0	1	0	10633,99	1,22269046	1,22289765	-0,21039753779768966	11	-0,140412346	0,000257294654
2	1	0	1	0	10635,19	1,23469162	1,23512745	-0,19336831111771379	11	-0,140653744	0,000238834502
2	1	0	0	0	10636,39	1,24669266	1,24715686	-0,17766748473513926	11	-0,140875414	0,000221579219
2	1	0	0	0	10637,59	1,25869381	1,25899589	-0,16279110366788989	11	-0,141078725	0,000204953336
2	1	0	1	0	10638,79	1,27069485	1,27087498	-0,14900742556589354	11	-0,14126496	0,000189369806
2	1	0	0	0	10639,99	1,28269613	1,28308487	-0,13623477316771958	11	-0,1414354	0,000174800778
2	1	0	0	0	10641,19	1,29469717	1,29515433	-0,12416974249451094	11	-0,141590625	0,000160818978
2	1	0	1	0	10642,39	1,30669832	1,30723405	-0,11282672849483787	11	-0,141731888	0,000147490937
2	1	0	1	0	10643,59	1,31869948	1,31906295	-0,10209244268480688	11	-0,141859829	0,000134666363
2	1	0	0	0	10644,79	1,33070052	1,33097208	-0,092138454065813363	11	-0,141975358	0,000122633704
2	1	0	0	0	10645,99	1,34270167	1,34307158	-0,08272483110583095	11	-0,142079026	0,000111105372
2	1	0	1	0	10647,19	1,35470283	1,35467994	-0,073455167526845107	11	-0,142171606	9,95082446E-005
2	1	0	1	0	10648,39	1,36670363	1,36699986	-0,064577222749294336	11	-0,142253578	8,82770546E-005
2	1	0	0	0	10649,59	1,37870502	1,37884915	-0,056473450250147827	11	-0,142325565	7,7868368E-005
2	1	0	1	0	10650,83	1,39110625	1,39119935	-0,048495046183234189	11	-0,142389819	6,74662733E-005
2	1	0	1	0	10652,03	1,40310729	1,40339923	-0,040851427756327552	11	-0,142442867	5,73308607E-005
2	1	0	0	0	10653,23	1,41510832	1,41528833	-0,033852670933507968	11	-0,142487153	4,79112896E-005
2	1	0	0	0	10654,43	1,4271096	1,42740798	-0,026898746174992992	11	-0,142523095	3,83954866E-005
2	1	0	1	0	10655,63	1,43911064	1,43940735	-0,020581049577837517	11	-0,142551035	2,96245144E-005
2	1	0	1	0	10656,83	1,45111167	1,45132649	-0,014151276579165512	11	-0,142571226	2,0538122E-005
2	1	0	0	0	10658,03	1,46311307	1,46324575	-0,0082241374863467059	11	-0,142584041	1,20339346E-005
2	1	0	1	0	10659,27	1,47551405	1,47571623	-0,0016135309803454874	11	-0,142589733	2,38111397E-006
2	1	0	1	0	10660,47	1,48751521	1,48782599	0,003987972784671015	11	-0,142588288	5,93340974E-006
2	1	0	0	0	10661,67	1,49951637	1,49977505	0,0095253999655445786	11	-0,142580032	1,42859571E-005
2	1	0	0	0	10662,91	1,51191735	1,51199508	0,014682791753633267	11	-0,142564744	2,22003091E-005
2	1	0	1	0	10664,11	1,52391875	1,52397442	0,019688696324010435	11	-0,14254342	3,00050688E-005
2	1	0	1	0	10665,31	1,53591967	1,53622437	0,02498934704150696	11	-0,142515913	3,83892439E-005
2	1	0	0	0	10666,51	1,5479207	1,54817355	0,029633383664380064	11	-0,142482296	4,58776194E-005
2	1	0	1	0	10667,71	1,55992198	1,56032312	0,034588094781308141	11	-0,142442748	5,39686043E-005
2	1	0	1	0	10668,91	1,5719229	1,57220232	0,039721842360449786	11	-0,142397344	6,24507738E-005
2	1	0	0	0	10670,11	1,58392406	1,58440208	0,044813922237760038	11	-0,142346188	7,10032691E-005
2	1	0	0	0	10671,31	1,59592533	1,59614086	0,049247273884247987	11	-0,142289296	7,86055825E-005
2	1	0	1	0	10672,51	1,60792637	1,60833073	0,054143580045395878	11	-0,142226696	8,70807853E-005
2	1	0	1	0	10673,71	1,61992729	1,62019968	0,058707992332832192	11	-0,142158449	9,51186739E-005
2	1	0	0	0	10674,91	1,63192856	1,63239956	0,063599644015387866	11	-0,142084569	0,000103820028
2	1	0	0	0	10676,11	1,64392972	1,64414823	0,068071991767889638	11	-0,142005071	0,000111920446
2	1	0	1	0	10677,31	1,65593076	1,65629804	0,072824812552425958	11	-0,141919926	0,000120619596
2	1	0	0	0	10678,51	1,66793203	1,66813684	0,07742719552091648	11	-0,141829178	0,000129159162
2	1	0	0	0	10679,71	1,67993307	1,68002617	0,082328589012225395	11	-0,141732797	0,000138314179
2	1	0	1	0	10680,91	1,69193399	1,69204557	0,086705319855051648	11	-0,141630694	0,000146709353
2	1	0	1	0	10682,11	1,70393527	1,70414519	0,091688438609707994	11	-0,141522944	0,000156250419
2	1	0	0	0	10683,31	1,71593642	1,71614456	0,096172029055499814	11	-0,141409576	0,000165045101
2	1	0	0	0	10684,55	1,72833753	1,72857487	0,10104293449937035	11	-0,141286403	0,000174660279
2	1	0	1	0	10685,75	1,7403388	1,74056435	0,10576840812185195	11	-0,141161367	0,000184096716
2	1	0	0	0	10686,95	1,75234127	1,75264645	0,11040879828070237	11	-0,14103052	0,000193507585
2	1	0	0	0	10688,15	1,76434088	1,76456308	0,1154685410826153	11	-0,140893951	0,000203751522
2	1	0	1	0	10689,35	1,77634203	1,7767328	0,12059664951326933	11	-0,140751481	0,000214268017
2	1	0	1	0	10690,55	1,78834319	1,78866196	0,12542472515876102	11	-0,140603244	0,000224342439
2	1	0	0	0	10691,75	1,80034423	1,80085182	0,13035716034937638	11	-0,140449047	0,000234753927
2	1	0	0	0	10692,95	1,8123455	1,81262064	0,13535517353254034	11	-0,140288934	0,00024534759
2	1	0	1	0	10694,15	1,82434654	1,82446957	0,14037871306451571	11	-0,140122846	0,000256116677
2	1	0	1	0	10695,35	1,8363477	1,83654928	0,14522928278893187	11	-0,139950827	0,000266720745
2	1	0	0	0	10696,55	1,84834874	1,8485086	0,150218711894316	11	-0,139772862	0,000277680578
2	1	0	1	0	10697,75	1,86034989	1,86054778	0,15510782572285571	11	-0,139588922	0,000288585521
2	1	0	1	0	10698,95	1,87235117	1,87257731	0,16008518391754458	11	-0,139399111	0,000299771869
2	1	0	0	0	10700,15	1,88435221	1,88452649	0,16492226510308659	11	-0,139203355	0,000310800388
2	1	0	0	0	10701,35	1,89635324	1,89647579	0,16964110755361664	11	-0,139001876	0,000321720261
2	1	0	1	0	10702,55	1,9083544	1,90855539	0,17440763177970986	11	-0,138794571	0,000332866621
2	1	0	1	0	10703,75	1,92035556	1,92069519	0,17906794200340915	11	-0,138581663	0,000343934924
2	1	0	0	0	10704,95	1,9323566	1,93258429	0,18362532819931677	11	-0,138363093	0,000354871416
2	1	0	0	0	10706,15	1,94435728	1,9445132	0,18794839192526026	11	-0,138139129	0,00036546812
2	1	0	1	0	10707,35	1,95635891	1,95679343	0,19251826452091325	11	-0,137909755	0,000376718468
2	1	0	0	0	10708,55	1,96835995	1,96872258	0,19706121319904858	11	-0,137675211	0,000387958862
2	1	0	0	0	10709,75	1,9803611	1,98055148	0,20124086830765043	11	-0,137435555	0,000398567907
2	1	0	1	0	10710,95	1,99236226	1,99262106	0,20520402700640285	11	-0,137190968	0,000408893859
2	1	0	1	0	10712,15	2,0043633	2,00456023	0,2092849980108431	11	-0,136941597	0,000419524382
2	1	0	0	0	10713,35	2,01636457	2,01644945	0,21305618365295232	11	-0,136687517	0,000429617037
2	1	0	0	0	10714,55	2,02836561	2,02870941	0,21672421181574464	11	-0,136429012	0,000439670461
2	1	0	1	0	10715,75	2,04036665	2,04037786	0,22019646223634394	11	-0,136166066	0,00044928398
2	1	0	0	0	10716,95	2,05236793	2,05261779	0,22364747943356634	11	-0,135898963	0,000459062809
2	1	0	0	0	10718,15	2,06436896	2,06463742	0,22696468707484429	11	-0,135627881	0,000468599785
2	1	0	1	0	10719,35	2,07637	2,07647634	0,23006066020267645	11	-0,13535291	0,000477715512
2	1	0	1	0	10720,55	2,08837128	2,08867598	0,23310137423686771	11	-0,135074228	0,000486873236
2	1	0	0	0	10721,75	2,10037231	2,10049486	0,23593568343979587	11	-0,134792089	0,000495581713
2	1	0	0	0	10722,95	2,11237335	2,11279511	0,23883143866745014	11	-0,134506375	0,000504601921
2	1	0	1	0	10724,15	2,12437439	2,12482452	0,24149869739388419	11	-0,134217307	0,000513142382
2	1	0	0	0	10725,35	2,13637638	2,13673544	0,24399853012313978	11	-0,133924946	0,000521360314
2	1	0	0	0	10726,55	2,14837694	2,14874315	0,24667542691652944	11	-0,13362962	0,000530042162
2	1	0	1	0	10727,75	2,16037774	2,16059208	0,24931834149174304	11	-0,133331254	0,000538675231
2	1	0	1	0	10728,95	2,17237878	2,17262149	0,2515568103796495	11	-0,133030161	0,000546537747
2	1	0	0	0	10730,15	2,18438029	2,18466091	0,25375673834544976	11	-0,132726312	0,00055437244
2	1	0	0	0	10731,35	2,19638109	2,19669032	0,25575637429331667	11	-0,132419989	0,000561817549
2	1	0	1	0	10732,55	2,20838237	2,20891047	0,25782220779607635	11	-0,132111162	0,000569506199
2	1	0	1	0	10733,75	2,22038364	2,22063899	0,25957673749265581	11	-0,13180007	0,000576426217
2	1	0	0	0	10734,95	2,23238468	2,23264837	0,2615497458415721	11	-0,131486654	0,000583948626
2	1	0	1	0	10736,16	2,24438643	2,24474883	0,26318281926925869	11	-0,131171048	0,000590779353
2	1	0	1	0	10737,36	2,25638676	2,25645661	0,26499244485360822	11	-0,130853474	0,000597943959
2	1	0	0	0	10738,56	2,26838803	2,2686367	0,26662747973265776	11	-0,130533755	0,000604880915
2	1	0	0	0	10739,76	2,28038907	2,28069592	0,26811128746097245	11	-0,130212218	0,000611480325
2	1	0	1	0	10740,96	2,29239011	2,29285574	0,26951310581838016	11	-0,129888818	0,000617954647
2	1	0	1	0	10742,16	2,30439115	2,30459452	0,27087861664282698	11	-0,129563808	0,000624265347
2	1	0	0	0	10743,36	2,31639242	2,31659389	0,27211283799260765	11	-0,129237115	0,00063037494
2	1	0	0	0	10744,56	2,32839346	2,3284328	0,27328237472102045	11	-0,128908947	0,00063631963
2	1	0	1	0	10745,76	2,34039474	2,34051228	0,27466283125492374	11	-0,128579229	0,000642851752
2	1	0	0	0	10746,96	2,35239601	2,3525517	0,27603485850306765	11	-0,12824811	0,00064938626
2	1	0	0	0	10748,16	2,36439681	2,36481166	0,27718544479769891	11	-0,127915576	0,000655491371
2	1	0	1	0	10749,36	2,37639785	2,37665081	0,27829802222550003	11	-0,127581567	0,000661417202
2	1	0	1	0	10750,56	2,38839912	2,38858008	0,27950591244734822	11	-0,127246276	0,000667622255
2	1	0	0	0	10751,76	2,40040016	2,40059948	0,28043261985294522	11	-0,126909629	0,000673206407
2	1	0	0	0	10752,96	2,41240144	2,41249847	0,28164565671856202	11	-0,12657176	0,000679469726
2	1	0	1	0	10754,16	2,42440248	2,42459822	0,28255862820272614	11	-0,126232505	0,00068509113
2	1	0	1	0	10755,36	2,43640304	2,43681669	0,2836616820860911	11	-0,125892103	0,000691231515
2	1	0	0	0	10756,56	2,44840479	2,44872713	0,28471592790447174	11	-0,125550389	0,00069719163
2	1	0	1	0	10757,76	2,46040583	2,46087694	0,28563333527805933	11	-0,125207499	0,000702908495
2	1	0	1	0	10758,96	2,4724071	2,47284603	0,28659025509841786	11	-0,124863438	0,00070869358
2	1	0	0	0	10760,16	2,48440838	2,4845047	0,28750989803423456	11	-0,124518216	0,0007143197
2	1	0	0	0	10761,36	2,49640918	2,49673462	0,28845262232546995	11	-0,124171883	0,000720189651
2	1	0	1	0	10762,56	2,50841022	2,50852346	0,28925187132942163	11	-0,123824552	0,000725595106
2	1	0	1	0	10763,76	2,52041125	2,52055287	0,29022640773716102	11	-0,123475961	0,000731531007
2	1	0	0	0	10764,96	2,53241253	2,53268266	0,29136728572969562	11	-0,123126104	0,000737940893
2	1	0	0	0	10766,16	2,54441261	2,54460025	0,29268914948622534	11	-0,122775048	0,000744776858
2	1	0	1	0	10767,36	2,55641484	2,55657125	0,29371924124037197	11	-0,122422673	0,000750914158
2	1	0	0	0	10768,56	2,56841588	2,56867051	0,29479199725513722	11	-0,122068919	0,000757223519
2	1	0	0	0	10769,76	2,58041716	2,5807302	0,29600131333184698	11	-0,121713907	0,00076389953
2	1	0	1	0	10770,96	2,59241819	2,59270978	0,29725137492641805	11	-0,121357374	0,000770686544
2	1	0	1	0	10772,16	2,60441947	2,60456872	0,29840410182563027	11	-0,120999396	0,000777214009
2	1	0	0	0	10773,36	2,61642075	2,61673832	0,29985189313689843	11	-0,120639786	0,000784633914
2	1	0	0	0	10774,56	2,62842155	2,62869763	0,30124046389634438	11	-0,120278507	0,000791870116
2	1	0	1	0	10775,76	2,64042258	2,64082742	0,30288087173054554	11	-0,119915389	0,00079985609
2	1	0	0	0	10776,96	2,65242362	2,65258622	0,30450860310035386	11	-0,119550258	0,000807735312
2	1	0	0	0	10778,16	2,6644249	2,66452503	0,30637006803105306	11	-0,119183049	0,000816330721
2	1	0	1	0	10779,36	2,67642593	2,67670512	0,30847499185862624	11	-0,118813358	0,000825696567
2	1	0	1	0	10780,56	2,68842721	2,6886344	0,31075104628689542	11	-0,118441187	0,000835495943
2	1	0	0	0	10781,76	2,70042825	2,70059347	0,31305847425634605	11	-0,11806614	0,00084544369
2	1	0	0	0	10782,96	2,71242929	2,71243238	0,31555610390690394	11	-0,117688194	0,00085592462
2	1	0	1	0	10784,16	2,72443032	2,72456217	0,31834384077228563	11	-0,11730703	0,000867347582
2	1	0	1	0	10785,36	2,73643136	2,73687053	0,32124368151857843	11	-0,116922654	0,000879202387
2	1	0	0	0	10786,56	2,74843287	2,74874139	0,32418256012412442	11	-0,116534904	0,000891094038
2	1	0	1	0	10787,76	2,76043391	2,76063037	0,32720410598752371	11	-0,116143495	0,00090328959
2	1	0	1	0	10788,96	2,77243495	2,77271008	0,33069249444330765	11	-0,115748234	0,000916914432
2	1	0	0	0	10790,16	2,78443599	2,78461909	0,33430390936943334	11	-0,115348712	0,000930909067
2	1	0	0	0	10791,36	2,79643703	2,79682899	0,3384319531420864	11	-0,114944547	0,000946536311
2	1	0	1	0	10792,56	2,8084383	2,80855751	0,34284782914134438	11	-0,114535116	0,000962907856
2	1	0	1	0	10793,76	2,82043958	2,82075739	0,34813612505483072	11	-0,114119954	0,000982007594
2	1	0	0	0	10794,96	2,83244061	2,83252645	0,35422677686437875	11	-0,113697946	0,00100335677
2	1	0	1	0	10796,16	2,84444165	2,84484649	0,36109333757000608	11	-0,113268174	0,00102725509
2	1	0	1	0	10797,36	2,85644269	2,85669565	0,36867822155666906	11	-0,112829633	0,0010532015
2	1	0	0	0	10798,56	2,8684442	2,86868477	0,37636528148626259	11	-0,112381816	0,0010796733
2	1	0	0	0	10799,76	2,880445	2,88061404	0,38314114883542061	11	-0,111925252	0,00110368175
2	1	0	1	0	10800,96	2,89244628	2,89238286	0,3889339238715657	11	-0,111461073	0,00112494582
2	1	0	1	0	10802,16	2,90444732	2,90474296	0,39384195472424198	11	-0,110990494	0,00114400964
2	1	0	0	0	10803,36	2,91644835	2,91663218	0,39853720444565075	11	-0,110514194	0,00116238638
2	1	0	0	0	10804,56	2,92844963	2,92864108	0,40357913626337094	11	-0,11003226	0,00118193845
2	1	0	1	0	10805,76	2,94045067	2,94092155	0,40860570858543174	11	-0,109544411	0,00120167737
2	1	0	0	0	10806,96	2,95245194	2,9527607	0,41402972877646515	11	-0,109050207	0,00122253073
2	1	0	0	0	10808,16	2,96445298	2,96470976	0,4197315100270007	11	-0,108549431	0,00124438212
2	1	0	1	0	10809,36	2,97645402	2,97666907	0,42589920029665018	11	-0,108041495	0,00126776099
2	1	0	1	0	10810,56	2,98845506	2,98860836	0,43225587997585446	11	-0,107526049	0,00129184348
2	1	0	0	0	10811,76	3,00045633	3,00064778	0,43894200709958842	11	-0,107002668	0,00131711038
2	1	0	0	0	10812,96	3,01245737	3,01244664	0,44584892923012378	11	-0,106471151	0,00134309614
2	1	0	1	0	10814,16	3,02445865	3,02451611	0,45316211848209062	11	-0,105931073	0,00137059612
2	1	0	0	0	10815,36	3,03646064	3,0365355	0,46085453575613043	11	-0,105381951	0,00139940111
2	1	0	0	0	10816,56	3,04846072	3,04864526	0,46868665500854336	11	-0,10482356	0,00142885931
2	1	0	1	0	10817,76	3,06046176	3,06041408	0,47696761492018778	11	-0,104255363	0,00145971845
2	1	0	1	0	10818,96	3,07246304	3,07277441	0,48567408183589619	11	-0,103677109	0,00149236689
2	1	0	0	0	10820,16	3,08446407	3,08453298	0,49464903973663789	11	-0,103088081	0,00152576133
2	1	0	0	0	10821,36	3,09646535	3,09677291	0,50391741810987155	11	-0,102488101	0,00156051782
2	1	0	1	0	10822,56	3,10846639	3,10874224	0,51398056140169414	11	-0,101876453	0,00159783312
2	1	0	1	0	10823,76	3,12046647	3,12077117	0,52426047029078317	11	-0,101252891	0,00163609697
2	1	0	0	0	10824,96	3,13246846	3,13282108	0,5348552361441152	11	-0,10061688	0,00167560577
2	1	0	1	0	10826,16	3,14446974	3,14470029	0,5458350330591193	11	-0,0999678373	0,00171648758
2	1	0	1	0	10827,36	3,15647078	3,15648913	0,55727695984144934	11	-0,0993054733	0,00175903866
2	1	0	0	0	10828,56	3,16847181	3,16861868	0,56898272347946797	11	-0,0986290723	0,00180288928
2	1	0	0	0	10829,76	3,18047285	3,18056774	0,58108227637906662	11	-0,097938478	0,00184817158
2	1	0	1	0	10830,96	3,19247413	3,19252706	0,59340739638234074	11	-0,0972330198	0,00189446914
2	1	0	1	0	10832,16	3,20447612	3,20450687	0,60613382054897574	11	-0,0965126082	0,00194235996
2	1	0	0	0	10833,36	3,2164762	3,21659613	0,61887532829617382	11	-0,0957769081	0,00199067197
2	1	0	1	0	10834,56	3,22847724	3,22867584	0,6317537371069175	11	-0,0950257778	0,00203972799
2	1	0	1	0	10835,76	3,24047828	3,24068499	0,6447030937609577	11	-0,094259195	0,0020892797
2	1	0	0	0	10836,96	3,25247979	3,25274467	0,6576961760098729	11	-0,0934769735	0,0021393178
2	1	0	0	0	10838,16	3,26448083	3,26480412	0,67029492991665856	11	-0,0926793516	0,00218838174
2	1	0	1	0	10839,36	3,27648163	3,27677345	0,6829030029475671	11	-0,091866456	0,00223771832
2	1	0	1	0	10840,56	3,28848314	3,28874278	0,69495145169397248	11	-0,0910387784	0,00228551659
2	1	0	0	0	10841,76	3,30048418	3,30043125	0,70708560446898176	11	-0,0901965797	0,00233368739
2	1	0	1	0	10842,97	3,31248593	3,3124814	0,71859904039835597	11	-0,0893403739	0,00238034595
2	1	0	1	0	10844,17	3,32448649	3,32465053	0,72967939854909952	11	-0,0884707496	0,00242592907
2	1	0	0	0	10845,37	3,33648753	3,33651972	0,7401474829142272	11	-0,0875880793	0,00246951659
2	1	0	0	0	10846,57	3,34848857	3,34864926	0,75008289640148365	11	-0,08669319	0,00251176464
2	1	0	1	0	10847,77	3,36048961	3,36092925	0,75962056980157837	11	-0,0857865512	0,00255303108
2	1	0	1	0	10848,97	3,37249064	3,37265801	0,76832609608148326	11	-0,0848691091	0,00259130122
2	1	0	0	0	10850,17	3,38449216	3,38462734	0,77680861546347341	11	-0,083941184	0,00262920768
2	1	0	0	0	10851,37	3,3964932	3,39678693	0,78460497967898931	11	-0,0830036178	0,00266513601
2	1	0	1	0	10852,57	3,408494	3,408566	0,79237291372070477	11	-0,0820565894	0,00270085526
2	1	0	0	0	10853,77	3,42049551	3,42061543	0,79927870351821363	11	-0,0811006278	0,00273402501
2	1	0	0	0	10854,97	3,43249655	3,43288541	0,80641754902898906	11	-0,0801364779	0,00276833912
2	1	0	1	0	10856,17	3,44449759	3,44489503	0,81314382391671104	11	-0,0791637823	0,00280119502
2	1	0	1	0	10857,37	3,45649862	3,45666361	0,82017122178027968	11	-0,0781829283	0,00283505605
2	1	0	0	0	10858,57	3,4684999	3,46888375	0,82698975658664858	11	-0,0771935955	0,00286873127
2	1	0	0	0	10859,77	3,48050094	3,48066235	0,83390909836938266	11	-0,0761959851	0,00290255598
2	1	0	1	0	10860,97	3,49250197	3,49241114	0,84156993900736051	11	-0,0751896128	0,00293910829
2	1	0	0	0	10862,17	3,5045042	3,5045507	0,84945347190311437	11	-0,0741742179	0,00297695282
2	1	0	0	0	10863,37	3,51650405	3,51680064	0,85761828565349414	11	-0,073149465	0,00301607256
2	1	0	1	0	10864,57	3,52850556	3,52863955	0,86618874222040179	11	-0,0721144676	0,00305646774
2	1	0	1	0	10865,77	3,54050636	3,54078913	0,87554064299911437	11	-0,07106895	0,00310010486
2	1	0	0	0	10866,97	3,5525074	3,55260849	0,88529852063705766	11	-0,0700116381	0,00314511894
2	1	0	0	0	10868,17	3,56450891	3,56485844	0,89587667863816384	11	-0,0689422712	0,00319367344
2	1	0	1	0	10869,37	3,57650995	3,5768075	0,90713451895862822	11	-0,0678595454	0,00324464566
2	1	0	1	0	10870,57	3,58851099	3,58907747	0,91925883541504576	11	-0,066763036	0,00329929125
2	1	0	0	0	10871,77	3,60051227	3,6007061	0,93221009336412045	11	-0,065651305	0,00335661462
2	1	0	1	0	10872,97	3,61251378	3,61286616	0,9456132316146153	11	-0,0645238385	0,00341637409
2	1	0	1	0	10874,17	3,62451434	3,62479496	0,95955223031341914	11	-0,0633798316	0,00347818015
2	1	0	0	0	10875,37	3,63651538	3,63640356	0,9739287905395031	11	-0,0622186884	0,0035415981
2	1	0	0	0	10876,57	3,64851642	3,64874363	0,98893263159940403	11	-0,0610400252	0,00360836159
2	1	0	1	0	10877,80	3,66081762	3,6609633	1,0063429245104346	11	-0,0598120503	0,00368418451
2	1	0	1	0	10879,00	3,67281866	3,6730032	1,0226713127146158	11	-0,0585938655	0,00375627493
2	1	0	0	0	10880,20	3,68482018	3,68484211	1,0398943768814206	11	-0,0573551767	0,00383184664
2	1	0	1	0	10881,40	3,69682121	3,69702196	1,0583460687866299	11	-0,0560952425	0,00391272875
2	1	0	1	0	10882,60	3,70882225	3,70891094	1,0774344320719411	11	-0,0548132397	0,00399610819
2	1	0	0	0	10883,80	3,72082353	3,7209003	1,0965554279585702	11	-0,0535081625	0,00408017356
2	1	0	0	0	10885,00	3,73282456	3,73283911	1,1167301991954437	11	-0,0521795303	0,00416857423
2	1	0	1	0	10886,20	3,7448256	3,74504948	1,1379152477408474	11	-0,0508259647	0,0042615491
2	1	0	1	0	10887,40	3,75682664	3,7571187	1,1598916314542293	11	-0,0494468398	0,00435785064
2	1	0	0	0	10888,60	3,76882768	3,76914811	1,18201706682642	11	-0,0480408706	0,0044551976
2	1	0	0	0	10889,80	3,78082895	3,78097725	1,2056132266297901	11	-0,0466074832	0,00455839606
2	1	0	1	0	10891,00	3,79282999	3,79279613	1,2292503959809728	11	-0,045145493	0,00466229627
2	1	0	0	0	10892,20	3,80483174	3,8049469	1,2541444673827797	11	-0,043654345	0,00477195298
2	1	0	0	0	10893,40	3,81683254	3,81684518	1,2789913459370518	11	-0,0421335474	0,00488171214
2	1	0	1	0	10894,60	3,82883358	3,8288343	1,3054990454887339	11	-0,0405816473	0,00499853957
2	1	0	1	0	10895,80	3,84083462	3,84086394	1,3318976974114776	11	-0,0389984734	0,00511563802
2	1	0	0	0	10897,00	3,85283589	3,85297346	1,359486694758135	11	-0,037382517	0,00523806596
2	1	0	0	0	10898,20	3,86483693	3,86503291	1,3872966617345819	11	-0,0357334241	0,00536194723
2	1	0	1	0	10899,40	3,87683797	3,87703204	1,4163399956499542	11	-0,03404985	0,00549119571
2	1	0	1	0	10900,60	3,88883901	3,88903165	1,4460784466937203	11	-0,0323316343	0,00562384492
2	1	0	0	0	10901,80	3,90084004	3,9009409	1,4762844005599619	11	-0,0305774733	0,00575889833
2	1	0	1	0	10903,00	3,91284108	3,91287017	1,5071484019731507	11	-0,0287866034	0,0058972761
2	1	0	1	0	10904,20	3,92484236	3,92508984	1,5395248718559741	11	-0,0269580651	0,00604277337
2	1	0	0	0	10905,40	3,9368434	3,93716931	1,5722382279733792	11	-0,0250900108	0,00619016821
2	1	0	0	0	10906,60	3,94884443	3,94916892	1,6071095311393293	11	-0,0231818538	0,00634674681
2	1	0	1	0	10907,80	3,96084595	3,9610579	1,6425068490207197	11	-0,0212311354	0,00650606491
2	1	0	1	0	10909,00	3,97284698	3,97291684	1,6802719042946883	11	-0,0192368235	0,00667558052
2	1	0	0	0	10910,20	3,98484802	3,98478603	1,7194808448354342	11	-0,0171959214	0,00685176346
2	1	0	0	0	10911,40	3,99684858	3,99689245	1,7612841983506586	11	-0,0151068596	0,00703966338
2	1	0	1	0	10912,60	4,0088501	4,00913525	1,8046669246007987	11	-0,0129661048	0,00723515358
2	1	0	0	0	10913,80	4,02085114	4,02114487	1,8505714194228221	11	-0,0107717467	0,00744141592
2	1	0	0	0	10915,00	4,03285265	4,03300381	1,8983901347964966	11	-0,00852162857	0,00765621476
2	1	0	1	0	10916,20	4,04485369	4,04498339	1,9485294185578752	11	-0,00621222472	0,00788176898
2	1	0	1	0	10917,40	4,05685472	4,05698299	2,0015629082918096	11	-0,00384105532	0,00812030677
2	1	0	0	0	10918,60	4,06885576	4,06891203	2,057078762600817	11	-0,00140441547	0,00837007258
2	1	0	1	0	10919,80	4,08085775	4,08107281	2,1159942052507264	11	0,00110059115	0,00863552652
2	1	0	1	0	10921,00	4,09285831	4,09296036	2,1777739475170762	11	0,00367715233	0,00891354214
2	1	0	0	0	10922,20	4,10485935	4,10517073	2,2416891779624634	11	0,00632982235	0,00920251664
2	1	0	0	0	10923,40	4,11686039	4,11718035	2,3100809672226531	11	0,0090614073	0,00951102003
2	1	0	1	0	10924,60	4,12886143	4,12906885	2,3817788772284986	11	0,0118775396	0,0098345289
2	1	0	1	0	10925,80	4,14086246	4,14075756	2,4576681107282602	11	0,0147815896	0,0101766074
2	1	0	0	0	10927,00	4,1528635	4,15311813	2,5368615984916688	11	0,0177792553	0,0105358856
2	1	0	0	0	10928,20	4,16486502	4,16516733	2,6210637868692502	11	0,0208748672	0,010917169
2	1	0	1	0	10929,40	4,17686605	4,17696619	2,7094946006933808	11	0,024074113	0,0113174673
2	1	0	1	0	10930,60	4,18886518	4,18896437	2,8027671899926787	11	0,0273819491	0,011740692
2	0	0	0	1	10931,74	4,19966793	4,19996214	2,8799094986170477	11	0,0306314863	0,012095511
2	0	0	0	1	10932,94	4,18766785	4,18778229	2,6245852005478269	11	0,0339165218	0,0109911915
2	0	0	1	1	10934,14	4,17566586	4,17585373	2,4240747950971126	11	0,0369431488	0,0101225814
2	0	0	0	1	10935,34	4,16366482	4,16401434	2,2396741025149939	11	0,039739117	0,00932603516
2	0	0	0	1	10936,54	4,15166378	4,15202522	2,066157415509217	11	0,0423204079	0,00857873727
2	0	0	1	1	10937,74	4,13966227	4,13977528	1,9043810752530845	11	0,0447011292	0,00788370986
2	0	0	1	1	10938,94	4,12766123	4,12777615	1,7515331947555168	11	0,0468926094	0,00722993677
2	0	0	0	1	10940,14	4,11566019	4,11587667	1,6081105433404371	11	0,048906628	0,00661878474
2	0	0	1	1	10941,34	4,1036582	4,10353661	1,4720843218286816	11	0,0507529937	0,00604075193
2	0	0	1	1	10942,54	4,09165764	4,0919981	1,3443628263970205	11	0,0524409935	0,00550113013
2	0	0	0	1	10943,74	4,0796566	4,07973671	1,2231165136272738	11	0,053979896	0,00498999329
2	0	0	0	1	10944,94	4,06765556	4,06777859	1,1092530066768269	11	0,0553772897	0,00451219548
2	0	0	1	1	10946,15	4,05565453	4,05568933	1,001446151485041	11	0,0566418543	0,00406155456
2	0	0	1	1	10947,35	4,04365349	4,04367018	0,89910202318181478	11	0,0577803403	0,00363567215
2	0	0	0	1	10948,55	4,03165245	4,03176069	0,80265838683893338	11	0,0588003062	0,00323612662
2	0	0	0	1	10949,75	4,01965141	4,01980162	0,71217427914962176	11	0,0597078241	0,00286279921
2	0	0	1	1	10950,95	4,0076499	4,00792217	0,62658096430823117	11	0,0605097413	0,00251128781
2	0	0	0	1	10952,15	3,9956491	3,99567246	0,54548513314997126	11	0,0612117238	0,00217958004
2	0	0	0	1	10953,39	3,983248	3,98339248	0,46556148678064346	11	0,0618373081	0,00185451412
2	0	0	1	1	10954,59	3,97124696	3,97125292	0,39372792358820608	11	0,0623515919	0,00156359316
2	0	0	1	1	10955,79	3,95924544	3,95937371	0,32554194494150554	11	0,0627817363	0,00128894218
2	0	0	0	1	10956,99	3,94724441	3,9474647	0,2614726650062944	11	0,0631326661	0,00103215408
2	0	0	0	1	10958,19	3,93524313	3,93532515	0,20044191305835955	11	0,0634083971	0,000788804085
2	0	0	1	1	10959,39	3,92324209	3,92359638	0,14341764152050018	11	0,0636134371	0,000562712958
2	0	0	1	1	10960,59	3,91124177	3,91157842	0,088946322048990336	11	0,0637513846	0,000347920519
2	0	0	0	1	10961,83	3,89883995	3,89888573	0,035695324302650989	11	0,0638276413	0,000139171985
2	0	0	1	1	10963,03	3,88683891	3,88701653	-0,012727465776455005	11	0,0638402849	4,94718697E-005
2	0	0	1	1	10964,23	3,87483788	3,8750875	-0,059499421098735245	11	0,0637959316	0,000230565463
2	0	0	0	1	10965,47	3,86243677	3,86275721	-0,104583460255526	11	0,0636927485	0,000403980521
2	0	0	0	1	10966,67	3,85043526	3,8506074	-0,14724824744431952	11	0,0635400116	0,000566995179
2	0	0	1	1	10967,87	3,83843422	3,83852816	-0,18834002867030586	11	0,063337341	0,00072294852
2	0	0	1	1	10969,07	3,82643366	3,82654881	-0,22743048834243318	11	0,0630869865	0,000870273856
2	0	0	0	1	10970,27	3,81443191	3,81462979	-0,26446736852327923	11	0,0627908483	0,00100884505
2	0	0	1	1	10971,47	3,80243087	3,80237937	-0,30062836067130227	11	0,0624507181	0,00114310312
2	0	0	1	1	10972,67	3,79042983	3,79048061	-0,33508984271126522	11	0,0620683469	0,00127015158
2	0	0	0	1	10973,87	3,77842879	3,77844119	-0,36872881713012915	11	0,0616450533	0,00139322015
2	0	0	0	1	10975,07	3,76642776	3,76669192	-0,40086557747175354	11	0,0611823536	0,00150993711
2	0	0	1	1	10976,27	3,75442648	3,75456238	-0,43245584533239347	11	0,060681209	0,00162368244
2	0	0	1	1	10977,47	3,74242544	3,74258327	-0,46293443193038406	11	0,0601429902	0,0017325707
2	0	0	0	1	10978,67	3,7304244	3,73048353	-0,49280306184664416	11	0,0595684871	0,00183839374
2	0	0	1	1	10979,87	3,71842384	3,71867514	-0,52120928534471654	11	0,0589592233	0,00193820801
2	0	0	1	1	10981,07	3,70642185	3,70653486	-0,54957420006394522	11	0,0583155602	0,00203701598
2	0	0	0	1	10982,27	3,69442105	3,69454575	-0,57675518281758003	11	0,0576385595	0,00213084836
2	0	0	0	1	10983,47	3,68241954	3,68263626	-0,60372758160034573	11	0,0569291413	0,00222330913
2	0	0	1	1	10984,67	3,6704185	3,67050672	-0,62923151130477568	11	0,0561880507	0,00230959849
2	0	0	1	1	10985,87	3,65841746	3,65853786	-0,65470578537012262	11	0,0554163232	0,00239526597
2	0	0	0	1	10987,07	3,64641643	3,64662838	-0,67954059317708198	11	0,0546145663	0,00247803191
2	0	0	0	1	10988,27	3,63441539	3,63432837	-0,70357347792014566	11	0,0537839793	0,00255701714
2	0	0	1	1	10989,47	3,62241411	3,62255931	-0,72628463913376422	11	0,0529251508	0,00263100909
2	0	0	0	1	10990,67	3,61041307	3,61100125	-0,7488362405759616	11	0,0520390384	0,00270404853
2	0	0	0	1	10991,87	3,59841204	3,59872127	-0,7701250873506071	11	0,0511268377	0,00277146557
2	0	0	1	1	10993,07	3,586411	3,58662152	-0,79081396199762995	11	0,0501892678	0,00283635035
2	0	0	1	1	10994,27	3,57440948	3,5746119	-0,81023384475459533	11	0,0492277481	0,00289627165
2	0	0	0	1	10995,47	3,56240869	3,5624826	-0,82915468576053901	11	0,0482430346	0,00295384903
2	0	0	0	1	10996,67	3,55040765	3,55045342	-0,84667571478833997	11	0,04723664	0,00300608273
2	0	0	1	1	10997,87	3,53840613	3,53860402	-0,86346158447364723	11	0,0462095216	0,00305544864
2	0	0	1	1	10999,07	3,52640533	3,52657437	-0,87867889563356621	11	0,0451631397	0,00309872651
2	0	0	0	1	11000,27	3,51440406	3,5144949	-0,89322180487215603	11	0,0440988466	0,00313922344
2	0	0	1	1	11001,47	3,50240302	3,50257587	-0,90630552545190208	11	0,0430178307	0,00317440392
2	0	0	1	1	11002,67	3,49040174	3,49059653	-0,91846607718616819	11	0,041921895	0,00320599461
2	0	0	0	1	11003,87	3,47840071	3,47842717	-0,9289765385910857	11	0,0408120416	0,00323137734
2	0	0	0	1	11005,07	3,46639967	3,46648765	-0,93855361019571853	11	0,0396901779	0,00325348461
2	0	0	1	1	11006,27	3,45439863	3,45464849	-0,94730201891313114	11	0,038557373	0,00327259558
2	0	0	1	1	11007,47	3,44239712	3,44269943	-0,95459379969785728	11	0,037415538	0,00328637962
2	0	0	0	1	11008,67	3,43039632	3,43062019	-0,96018798835575219	11	0,0362657756	0,00329404022
2	0	0	0	1	11009,87	3,418396	3,41864181	-0,96492302042483174	11	0,0351098105	0,00329872617
2	0	0	1	1	11011,07	3,40639377	3,40656066	-0,96825074839095411	11	0,0339490846	0,00329840486
2	0	0	0	1	11012,27	3,39439273	3,39453173	-0,97066489917536819	11	0,0327847637	0,00329495291
2	0	0	0	1	11013,47	3,38239169	3,3825922	-0,97154282095531738	11	0,0316186137	0,00328633306
2	0	0	1	1	11014,67	3,37039065	3,37045264	-0,97164150824150042	11	0,0304516107	0,00327487173
2	0	0	1	1	11015,87	3,35838938	3,35877419	-0,97057612519711258	11	0,029285416	0,00325994613
2	0	0	0	1	11017,07	3,34638834	3,34657431	-0,96893986190358912	11	0,0281207226	0,00324262935
2	0	0	0	1	11018,27	3,33438683	3,33462501	-0,96558333874400051	11	0,0269591343	0,00321985828
2	0	0	1	1	11019,47	3,32238626	3,32247519	-0,96198478589455232	11	0,0258015525	0,00319617055
2	0	0	0	1	11020,67	3,31038523	3,31056619	-0,95729096978902989	11	0,0246488433	0,003169175
2	0	0	0	1	11021,87	3,29838395	3,2985065	-0,95211260889967347	11	0,0235023182	0,00314054964
2	0	0	1	1	11023,07	3,28638291	3,28676772	-0,94568948168307904	11	0,0223624147	0,00310826162
2	0	0	1	1	11024,27	3,27438188	3,27464819	-0,93948800178865715	11	0,0212301314	0,00307649258
2	0	0	0	1	11025,47	3,26238036	3,26254869	-0,9325555373604128	11	0,0201058108	0,00304250792
2	0	0	0	1	11026,67	3,25037932	3,25047874	-0,92531739175319667	11	0,0189904459	0,00300772442
2	0	0	1	1	11027,87	3,23837829	3,23850989	-0,91717575024813773	11	0,0178841986	0,00297028269
2	0	0	0	1	11029,07	3,2263763	3,2266202	-0,90908448888478067	11	0,0167875532	0,0029332703
2	0	0	0	1	11030,27	3,21437597	3,21449113	-0,90042199598004659	11	0,0157010574	0,00289439852
2	0	0	1	1	11031,47	3,20237494	3,20249152	-0,89206593638906906	11	0,0146247661	0,00285683363
2	0	0	1	1	11032,67	3,1903739	3,19068265	-0,88298140031595904	11	0,0135591226	0,00281731342
2	0	0	0	1	11033,87	3,17837286	3,17837238	-0,87432284560054541	11	0,0125039192	0,0027789236
2	0	0	0	1	11035,07	3,16637158	3,16644335	-0,86521233773479974	11	0,0114595424	0,00273964577
2	0	0	1	1	11036,27	3,15437055	3,15444422	-0,85643691693743219	11	0,0104258023	0,00270158239
2	0	0	1	1	11037,47	3,14236951	3,1424346	-0,84724418943126784	11	0,00940288976	0,00266240956
2	0	0	0	1	11038,67	3,13036799	3,13073611	-0,83838397078215987	11	0,00839060172	0,00262475898
2	0	0	1	1	11039,87	3,1183672	3,11855626	-0,82950141187757427	11	0,00738889584	0,00258684671
2	0	0	1	1	11041,07	3,10641646	3,1065805	-0,82111027795407309	11	0,00640197285	0,00255084527
2	0	0	1	1	11041,09	3,1061666	3,10664773	-0,82191983553079411	11	0,00638537388	0,00255341548