File: Experimentelles/Rohdaten/Batterietests/AlteZelle/Studenten_Batterietests/Sonstige/ECLab-Export/LiCoO2 vs Li_02_CV_C01_loop7.mpt
EC-Lab ASCII FILE
Nb header lines : 3
mode	ox/red	error	control changes	counter inc.	time/s	control/V	Ewe/V	<I>/mA	cycle number	(Q-Qo)/C	P/W
2	0	0	1	0	8480,84	3,10466647	3,10504365	-0,80122458934783936	8	0	0,00248783734
2	0	0	0	0	8482,02	3,09286499	3,09325433	-0,68345801904797824	8	-0,000833466882	0,00211410946
2	0	0	0	0	8483,22	3,08086371	3,08098435	-0,67647803016007053	8	-0,00164949812	0,0020842182
2	0	0	1	0	8484,42	3,06886292	3,06931591	-0,6718002368385641	8	-0,00245933281	0,00206196704
2	0	0	0	0	8485,62	3,05686116	3,05693483	-0,66782101100455194	8	-0,00326410541	0,00204148539
2	0	0	0	0	8486,82	3,04486036	3,04493618	-0,66419822738195571	8	-0,00406399881	0,00202244124
2	0	0	1	0	8488,02	3,03285956	3,0329268	-0,66048218232268851	8	-0,00485934922	0,00200319407
2	0	0	1	0	8489,22	3,02085829	3,02094746	-0,65667717112228454	8	-0,00565008027	0,00198378717
2	0	0	0	0	8490,42	3,00885701	3,00896811	-0,65324408855910221	8	-0,00643662037	0,00196559052
2	0	0	0	0	8491,62	2,99685597	2,99700904	-0,64960338997964941	8	-0,00721878558	0,00194686721
2	0	0	1	0	8492,82	2,98485494	2,98508978	-0,64638145687058573	8	-0,00799703039	0,00192950666
2	0	0	1	0	8494,02	2,97285366	2,97296	-0,64321722571427738	8	-0,00877127796	0,00191225903
2	0	0	0	0	8495,22	2,96085262	2,9609704	-0,6401360059777888	8	-0,0095419772	0,00189542375
2	0	0	1	0	8496,42	2,94885135	2,94900131	-0,63708871618534182	8	-0,0103090713	0,00187877542
2	0	0	1	0	8497,62	2,93685055	2,93711233	-0,63458478668083789	8	-0,0110727251	0,00186384679
2	0	0	0	0	8498,82	2,92484927	2,92519331	-0,63179912030076045	8	-0,0118332654	0,00184813456
2	0	0	0	0	8500,02	2,91284823	2,91290307	-0,62952447930971725	8	-0,0125908004	0,00183374377
2	0	0	1	0	8501,22	2,9008472	2,90119457	-0,62692034120361126	8	-0,0133453635	0,00181881792
2	0	0	1	0	8502,42	2,88884592	2,88905454	-0,62503517543276301	8	-0,014097264	0,00180576066
2	0	0	0	0	8503,62	2,87684464	2,87696528	-0,62277888320386496	8	-0,0148467841	0,00179171318
2	0	0	1	0	8504,82	2,86484456	2,8651278	-0,6208851355613015	8	-0,0155939367	0,00177891529
2	0	0	1	0	8506,02	2,85284257	2,85311675	-0,61939506403481114	8	-0,0163388699	0,00176720647
2	0	0	0	0	8507,22	2,84084129	2,84094691	-0,61784456841026803	8	-0,0170818232	0,00175526366
2	0	0	0	0	8508,42	2,82884026	2,82888746	-0,61609287265067264	8	-0,0178226549	0,00174285739
2	0	0	1	0	8509,62	2,81683898	2,8169179	-0,61500419598693594	8	-0,0185618848	0,00173241633
2	0	0	1	0	8510,82	2,80483818	2,805089	-0,61316872574388979	8	-0,019299265	0,00171999284
2	0	0	0	0	8512,02	2,7928369	2,79312015	-0,61206714172537242	8	-0,0200350191	0,00170957705
2	0	0	0	0	8513,22	2,78083587	2,78121066	-0,61038873437792243	8	-0,0207690429	0,00169761968
2	0	0	1	0	8514,42	2,76883483	2,76927161	-0,60950700643782694	8	-0,0215015728	0,0016878905
2	0	0	0	0	8515,62	2,75683355	2,75707173	-0,60802679524446426	8	-0,0222327318	0,00167637353
2	0	0	0	0	8516,82	2,74483228	2,74510264	-0,60704606554160461	8	-0,022962369	0,00166640372
2	0	0	1	0	8518,02	2,73283124	2,7328124	-0,60585288594787558	8	-0,0236908793	0,00165568234
2	0	0	1	0	8519,22	2,7208302	2,720783	-0,60508413830151219	8	-0,0244180504	0,00164630264
2	0	0	0	0	8520,42	2,70882916	2,7089541	-0,60411063628271219	8	-0,0251443461	0,00163650804
2	0	0	0	0	8521,62	2,69682789	2,69706488	-0,60345663642510592	8	-0,025869539	0,00162756175
2	0	0	1	0	8522,82	2,68482661	2,68520594	-0,60236102885877286	8	-0,0265938845	0,00161746342
2	0	0	1	0	8524,02	2,67282653	2,6731081	-0,60151895097254554	8	-0,0273170937	0,00160792517
2	0	0	0	0	8525,22	2,66082454	2,66094637	-0,60104687372222362	8	-0,0280394573	0,00159935351
2	0	0	1	0	8526,42	2,6488235	2,64887714	-0,6004532782050464	8	-0,0287609641	0,00159052701
2	0	0	1	0	8527,62	2,63682246	2,63721848	-0,59953479251513997	8	-0,0294813532	0,00158110424
2	0	0	0	0	8528,82	2,62482119	2,62514877	-0,598848526676496	8	-0,0302009787	0,00157206645
2	0	0	0	0	8530,02	2,61281991	2,61292911	-0,59796719237541043	8	-0,0309195053	0,00156244589
2	0	0	1	0	8531,22	2,60081887	2,60091949	-0,59695350502928243	8	-0,0316370688	0,001552628
2	0	0	1	0	8532,42	2,58881783	2,58894038	-0,5960939746970944	8	-0,0323534645	0,0015432518
2	0	0	0	0	8533,62	2,5768168	2,57710123	-0,5952292803364489	8	-0,0330690481	0,00153396616
2	0	0	0	0	8534,82	2,56481576	2,56493258	-0,59404913608523917	8	-0,0337833092	0,001523696
2	0	0	1	0	8536,02	2,55281448	2,55294228	-0,59315461385995277	8	-0,0344963446	0,00151428953
2	0	0	0	0	8537,22	2,54081345	2,54112315	-0,59161926635230784	8	-0,0352079794	0,00150337745
2	0	0	0	0	8538,42	2,52881217	2,5289433	-0,59048493299633446	8	-0,0359180197	0,00149330287
2	0	0	1	0	8539,62	2,51681113	2,51706433	-0,58884440222755072	8	-0,0366264544	0,00148215925
2	0	0	1	0	8540,82	2,50481009	2,50486469	-0,5873519612165801	8	-0,0373329297	0,00147123716
2	0	0	0	0	8542,02	2,49280882	2,49297547	-0,58513831611101747	8	-0,0380372331	0,00145873544
2	0	0	0	0	8543,22	2,48080683	2,48092461	-0,58332699230110861	8	-0,0387393087	0,0014471903
2	0	0	1	0	8544,42	2,46880674	2,46910691	-0,58136178770413056	8	-0,0394389257	0,00143544446
2	0	0	0	0	8545,62	2,45680547	2,45736837	-0,57913219540690355	8	-0,0401358157	0,0014231411
2	0	0	0	0	8546,82	2,44480443	2,44508815	-0,57617912394925952	8	-0,040829543	0,00140880875
2	0	0	1	0	8548,02	2,43280339	2,43294859	-0,57353563296298035	8	-0,0415201113	0,00139538269
2	0	0	1	0	8549,22	2,42080212	2,42099929	-0,57019243482500493	8	-0,0422069244	0,00138043542
2	0	0	0	0	8550,42	2,40880108	2,40907001	-0,56686425193523379	8	-0,0428898893	0,00136561564
2	0	0	0	0	8551,62	2,3967998	2,39689016	-0,56284831681599366	8	-0,0435683914	0,00134908559
2	0	0	1	0	8552,82	2,38479877	2,38512135	-0,55899045926829235	8	-0,0442422181	0,00133326009
2	0	0	1	0	8554,02	2,37279749	2,37305164	-0,55468561204536474	8	-0,0449111126	0,00131629757
2	0	0	0	0	8555,22	2,36079669	2,36105275	-0,55019410668561971	8	-0,0455747172	0,00129903737
2	0	0	1	0	8556,42	2,34879565	2,34900308	-0,54518680957456486	8	-0,0462327264	0,00128064549
2	0	0	1	0	8557,62	2,33679438	2,33690333	-0,5401823388723024	8	-0,0468846075	0,00126235397
2	0	0	0	0	8558,83	2,3247931	2,32512474	-0,53466866755237242	8	-0,0475303456	0,0012431714
2	0	0	0	0	8560,03	2,31279206	2,31309533	-0,52927102831502816	8	-0,0481694229	0,00122425437
2	0	0	1	0	8561,23	2,30079103	2,30117607	-0,52326328586786899	8	-0,0488018505	0,00120412093
2	0	0	1	0	8562,43	2,28878975	2,28895617	-0,51744119714324557	8	-0,0494271815	0,00118440017
2	0	0	0	0	8563,63	2,27678871	2,27714729	-0,51179808921491168	8	-0,0500455871	0,00116543961
2	0	0	1	0	8564,83	2,2647872	2,2649672	-0,50598727389727661	8	-0,0506568328	0,00114604458
2	0	0	1	0	8566,03	2,2527864	2,25323868	-0,4997472519365447	8	-0,0512607545	0,00112604978
2	0	0	0	0	8567,23	2,24078536	2,24090862	-0,49377854354679942	8	-0,0518575609	0,00110651262
2	0	0	0	0	8568,43	2,22878432	2,22891927	-0,48782918897147098	8	-0,0524470992	0,00108733191
2	0	0	1	0	8569,63	2,21678329	2,21692991	-0,4820180232636633	8	-0,0530296601	0,00106860022
2	0	0	1	0	8570,83	2,20478201	2,20496058	-0,47610780503600858	8	-0,0536051355	0,00104979891
2	0	0	0	0	8572,03	2,19278073	2,19287086	-0,47054502973333133	8	-0,054173965	0,00103184453
2	0	0	0	0	8573,23	2,1807797	2,18094182	-0,46521257453908762	8	-0,0547360703	0,00101460156
2	0	0	1	0	8574,43	2,16877866	2,16916275	-0,46018120817219334	8	-0,0552919805	0,00099820795
2	0	0	0	0	8575,63	2,15677762	2,15682268	-0,45481949221963712	8	-0,055841729	0,000980964978
2	0	0	0	0	8576,83	2,14477634	2,14531469	-0,45038210709269011	8	-0,0563856252	0,000966211373
2	0	0	1	0	8578,03	2,13277507	2,13312507	-0,4456642526201904	8	-0,0569240078	0,000950657588
2	0	0	1	0	8579,23	2,12077403	2,12099528	-0,44163722032681107	8	-0,0574571416	0,00093671045
2	0	0	0	0	8580,43	2,10877299	2,1090157	-0,43733696872368454	8	-0,0579854175	0,000922350562
2	0	0	0	0	8581,63	2,09677196	2,09689617	-0,43382658887033542	8	-0,0585090891	0,00090968929
2	0	0	1	0	8582,83	2,08477092	2,08513737	-0,43043733915935078	8	-0,0590284429	0,000897520978
2	0	0	0	0	8584,03	2,07277012	2,07286787	-0,42765103774244294	8	-0,0595438741	0,000886464084
2	0	0	0	0	8585,23	2,0607686	2,06108856	-0,42450224499528666	8	-0,0600556955	0,000874936697
2	0	0	1	0	8586,43	2,04876733	2,04911923	-0,42209730825076442	8	-0,060564328	0,000864927715
2	0	0	1	0	8587,63	2,03676629	2,03682923	-0,41959059160823629	8	-0,0610699095	0,000854634389
2	0	0	0	0	8588,83	2,02476525	2,02498031	-0,41766248612354227	8	-0,0615729131	0,000845758303
2	0	0	0	0	8590,03	2,01276398	2,01303101	-0,41552312687660288	8	-0,0620734505	0,000836460909
2	0	0	1	0	8591,23	2,00076294	2,00102162	-0,41423535145198362	8	-0,0625720397	0,000828893913
2	0	0	1	0	8592,43	1,98876202	1,98895204	-0,41262810009841997	8	-0,0630687624	0,000820697518
2	0	0	0	0	8593,63	1,97676075	1,97729373	-0,41164937584350534	8	-0,0635639578	0,000813951716
2	0	0	1	0	8594,83	1,96475959	1,96507359	-0,41050116127977978	8	-0,0640580505	0,00080666499
2	0	0	1	0	8596,03	1,95275855	1,95313442	-0,41000654439752358	8	-0,0645511225	0,00080079789
2	0	0	0	0	8597,23	1,94075739	1,94109499	-0,40940274344757197	8	-0,0650436506	0,000794689637
2	0	0	0	0	8598,43	1,92875636	1,92893529	-0,4092473187483865	8	-0,0655356348	0,000789411599
2	0	0	1	0	8599,63	1,91675508	1,91710639	-0,40884871982659021	8	-0,0660274923	0,000783806492
2	0	0	1	0	8600,83	1,90475404	1,90487647	-0,40897251944989056	8	-0,0665192232	0,000779042137
2	0	0	0	0	8602,03	1,89275289	1,89296722	-0,40939452111100218	8	-0,0670111775	0,000774970395
2	0	0	0	0	8603,23	1,88075256	1,88091958	-0,40979398308084211	8	-0,0675032586	0,000770789513
2	0	0	1	0	8604,43	1,86875069	1,86921906	-0,41004300272713101	8	-0,0679957643	0,000766460202
2	0	0	0	0	8605,63	1,85674965	1,8570292	-0,41065512271598157	8	-0,0684888959	0,000762598531
2	0	0	0	0	8606,83	1,84474838	1,8450098	-0,41137178319816762	8	-0,0689827278	0,000758984999
2	0	0	1	0	8608,03	1,83274746	1,83322108	-0,41239953599870336	8	-0,0694776773	0,000756019494
2	0	0	1	0	8609,23	1,82074618	1,82107127	-0,41325418138876557	8	-0,0699736699	0,000752565335
2	0	0	0	0	8610,43	1,80874503	1,80909204	-0,41455013987918931	8	-0,0704711527	0,000749959378
2	0	0	0	0	8611,63	1,79674399	1,79719269	-0,41578613128513101	8	-0,0709700435	0,000747247774
2	0	0	1	0	8612,83	1,78474271	1,78501308	-0,41751950994754816	8	-0,071470812	0,000745277794
2	0	0	0	0	8614,03	1,77274168	1,77293336	-0,41889579718311597	8	-0,0719734356	0,00074267434
2	0	0	0	0	8615,23	1,76074076	1,7609942	-0,42092236255606074	8	-0,0724781454	0,000741241849
2	0	0	1	0	8616,43	1,74873948	1,74902499	-0,42263529961929082	8	-0,0729851499	0,000739199691
2	0	0	1	0	8617,63	1,73673832	1,73692548	-0,42496315374349658	8	-0,0734945983	0,000738129311
2	0	0	0	0	8618,83	1,72473729	1,72493625	-0,426791255207112	8	-0,0740066245	0,000736187678
2	0	0	0	0	8620,03	1,71273601	1,71303689	-0,42923887167126118	8	-0,0745213255	0,000735302048
2	0	0	1	0	8621,23	1,70073509	1,70093727	-0,43187298594663661	8	-0,0750389546	0,00073458883
2	0	0	1	0	8622,43	1,68873382	1,68903816	-0,43462835174674906	8	-0,0755594447	0,000734103844
2	0	0	0	0	8623,63	1,67673278	1,67668796	-0,43698256043717357	8	-0,0760831311	0,000732683402
2	0	0	1	0	8624,83	1,66473162	1,66495943	-0,4397253293233607	8	-0,0766099766	0,000732124841
2	0	0	1	0	8626,03	1,65273058	1,65293992	-0,44197622795278854	8	-0,0771396905	0,000730560161
2	0	0	0	0	8627,23	1,64072931	1,64097059	-0,44454169940824339	8	-0,0776723474	0,000729479827
2	0	0	0	0	8628,43	1,62872839	1,62905133	-0,4465578094435241	8	-0,0782077014	0,000727465609
2	0	0	1	0	8629,63	1,61672711	1,61697173	-0,4495111381014185	8	-0,0787461251	0,000726846803
2	0	0	1	0	8630,83	1,60472608	1,60493231	-0,45214237831532954	8	-0,0792878121	0,000725657912
2	0	0	0	0	8632,03	1,59272492	1,59304321	-0,4551881525355079	8	-0,0798329636	0,000725134392
2	0	0	0	0	8633,23	1,5807234	1,58091378	-0,45779165896017094	8	-0,080381602	0,000723729143
2	0	0	1	0	8634,43	1,56872272	1,56914473	-0,46101433938990067	8	-0,080933705	0,000723398232
2	0	0	0	0	8635,63	1,55672169	1,55684471	-0,46419133665040134	8	-0,0814897642	0,000722673838
2	0	0	0	0	8636,83	1,54472053	1,54498577	-0,46785580832511322	8	-0,0820498019	0,000722830591
2	0	0	1	0	8638,03	1,53271937	1,53296638	-0,4713331686022375	8	-0,0826143473	0,000722537923
2	0	0	1	0	8639,23	1,52071834	1,52099705	-0,47535150699938458	8	-0,0831834227	0,000723008241
2	0	0	0	0	8640,43	1,50871706	1,5088774	-0,47981356193001011	8	-0,083757475	0,000723979843
2	0	0	0	0	8641,63	1,49671602	1,49687803	-0,48433884388456858	8	-0,0843365341	0,000724996149
2	0	0	1	0	8642,83	1,48471498	1,48494875	-0,48875448961431898	8	-0,0849211067	0,000725775375
2	0	0	0	0	8644,03	1,47271371	1,4728893	-0,4936910246809321	8	-0,0855113864	0,000727152219
2	0	0	0	0	8645,23	1,46071267	1,46104026	-0,49890397194152134	8	-0,0861076489	0,000728918763
2	0	0	1	0	8646,43	1,44871151	1,44896078	-0,50462961771215034	8	-0,0867105126	0,000731188513
2	0	0	1	0	8647,63	1,43671036	1,43706155	-0,51046635024249466	8	-0,0873201936	0,000733571535
2	0	0	0	0	8648,83	1,42470932	1,42494202	-0,51686233840882733	8	-0,0879373848	0,000736498856
2	0	0	0	0	8650,03	1,41270816	1,41297269	-0,52360020919392538	8	-0,0885623768	0,000739832816
2	0	0	1	0	8651,23	1,40070713	1,40108359	-0,53102315853660275	8	-0,0891959891	0,000744007819
2	0	0	1	0	8652,43	1,38870597	1,38899398	-0,53847624097640435	8	-0,0898384377	0,00074794027
2	0	0	0	0	8653,63	1,37670469	1,37707484	-0,54700363334268288	8	-0,0904906914	0,000753264932
2	0	0	1	0	8654,83	1,36470366	1,36481476	-0,55572330113500358	8	-0,0911531895	0,000758459384
2	0	0	1	0	8656,03	1,35270262	1,35293567	-0,56560625943044941	8	-0,0918267891	0,000765228877
2	0	0	0	0	8657,23	1,34070134	1,34094644	-0,5758009762503207	8	-0,0925126672	0,000772118277
2	0	0	0	0	8658,43	1,3287003	1,32888699	-0,58732219366356557	8	-0,0932117179	0,000780484814
2	0	0	1	0	8659,63	1,31669927	1,31707799	-0,60007531661540275	8	-0,093925111	0,000790346006
2	0	0	1	0	8660,83	1,30469811	1,30501854	-0,61381579795852301	8	-0,0946539044	0,000801041024
2	0	0	0	0	8662,03	1,29269695	1,29301918	-0,62801218389843981	8	-0,0953996554	0,000812031794
2	0	0	1	0	8663,23	1,28069568	1,28113973	-0,64408529519885069	8	-0,0961635932	0,000825163268
2	0	0	1	0	8664,43	1,26869476	1,26884997	-0,66059374964485491	8	-0,096947059	0,000838194333
2	0	0	0	0	8665,64	1,2566936	1,25693083	-0,67901307779054016	8	-0,097751528	0,000853472447
2	0	0	0	0	8666,84	1,24469256	1,24494159	-0,69780563128491482	8	-0,098578237	0,000868727278
2	0	0	1	0	8668,04	1,23269129	1,23284185	-0,71833304564158246	8	-0,0994287804	0,000885591027
2	0	0	1	0	8669,24	1,22069025	1,2209729	-0,7394473340051881	8	-0,100304142	0,000902845175
2	0	0	0	0	8670,44	1,20868921	1,20896351	-0,76195738681902899	8	-0,101205766	0,000921178667
2	0	0	0	0	8671,64	1,19668794	1,19693398	-0,78489577646056794	8	-0,102134675	0,000939468446
2	0	0	1	0	8672,84	1,1846869	1,18509507	-0,80907061354567667	8	-0,103092045	0,000958825578
2	0	0	0	0	8674,04	1,17268574	1,17284513	-0,83372137540330547	8	-0,104078859	0,000977826072
2	0	0	0	0	8675,24	1,16068459	1,16116655	-0,85950139568497971	8	-0,105095677	0,000998024247
2	0	0	1	0	8676,44	1,14868355	1,14921725	-0,88541883695870899	8	-0,106143869	0,0010175386
2	0	0	1	0	8677,64	1,13668239	1,1370374	-0,91249246709048832	8	-0,107223816	0,00103753805
2	0	0	0	0	8678,84	1,12468135	1,12515843	-0,9405276797090976	8	-0,108336776	0,00105824263
2	0	0	0	0	8680,04	1,1126802	1,11304867	-0,9688932492087296	8	-0,109483063	0,00107842532
2	0	0	1	0	8681,26	1,10047889	1,10043788	-0,99781027358646669	8	-0,11068397	0,00109802827
2	0	0	1	0	8682,48	1,08827794	1,08855867	-1,0282563790678978	8	-0,111920565	0,00111931737
2	0	0	0	0	8683,68	1,07627678	1,07639897	-1,0593712171539664	8	-0,113173895	0,00114030612
2	0	0	1	0	8684,88	1,06427574	1,06435966	-1,0913746102402637	8	-0,114465214	0,00116161513
2	0	0	1	0	8686,08	1,05227447	1,05237031	-1,1251084844892229	8	-0,115795664	0,00118403079
2	0	0	0	0	8687,28	1,04027343	1,04049122	-1,1598627651110301	8	-0,117167465	0,001206827
2	0	0	0	0	8688,48	1,02827227	1,02856207	-1,1970061010991539	8	-0,118582264	0,00123119506
2	0	0	1	0	8689,68	1,01627123	1,01648235	-1,2360650130237154	8	-0,120043024	0,00125643832
2	0	0	1	0	8690,88	1,00427008	1,0046736	-1,277975525086127	8	-0,121552132	0,00128394831
2	1	0	1	0	8692,04	1,00727034	1,00756061	-1,1486722150196646	8	-0,122986488	0,00115735689
2	1	0	1	0	8693,24	1,01927149	1,01948977	-1,0294588577623198	8	-0,124288537	0,00104952278
2	1	0	0	0	8694,44	1,03127265	1,03142905	-0,93198957139005504	8	-0,125463217	0,000961281126
2	1	0	0	0	8695,64	1,04327369	1,04352868	-0,84591804444789978	8	-0,126527965	0,000882739725
2	1	0	1	0	8696,84	1,05527472	1,05561817	-0,76901464257389402	8	-0,127495274	0,000811785809
2	1	0	0	0	8698,04	1,067276	1,06759751	-0,70001382908473536	8	-0,128374949	0,000747333048
2	1	0	0	0	8699,24	1,07927704	1,07944655	-0,63855373036737267	8	-0,129176438	0,000689284643
2	1	0	1	0	8700,44	1,0912782	1,09152615	-0,58300674147904026	8	-0,129908025	0,000636367127
2	1	0	1	0	8701,64	1,10327935	1,10357559	-0,53400205758710758	8	-0,130576715	0,000589311647
2	1	0	0	0	8702,87	1,11558044	1,1156652	-0,48922701521466291	8	-0,131204128	0,000545813527
2	1	0	0	0	8704,07	1,12758148	1,12811565	-0,4492590396354592	8	-0,131765902	0,000506816141
2	1	0	1	0	8705,27	1,13958275	1,13976407	-0,41333269917716499	8	-0,132282197	0,000471101754
2	1	0	1	0	8706,47	1,15158379	1,15177345	-0,38076036043154547	8	-0,132757321	0,000438549672
2	1	0	0	0	8707,67	1,16358483	1,16385305	-0,35127290997964582	8	-0,133195162	0,000408830034
2	1	0	1	0	8708,87	1,17558622	1,17567194	-0,32403302084033658	8	-0,133599013	0,000380956539
2	1	0	1	0	8710,07	1,18758714	1,18802226	-0,29889197166388294	8	-0,133971676	0,000355090306
2	1	0	0	0	8711,27	1,19958818	1,19973087	-0,27606969559565187	8	-0,134315878	0,000331209332
2	1	0	0	0	8712,47	1,21158946	1,21186054	-0,25514908942083504	8	-0,134633735	0,000309205119
2	1	0	1	0	8713,67	1,22359049	1,22394001	-0,23573460585127302	8	-0,134927467	0,000288525014
2	1	0	1	0	8714,87	1,23559165	1,23591936	-0,21758580044843302	8	-0,135198668	0,000268918491
2	1	0	0	0	8716,07	1,24759281	1,24791873	-0,20096142372737293	8	-0,135449111	0,000250783516
2	1	0	0	0	8717,27	1,25959361	1,25991797	-0,18544052615794803	8	-0,135680124	0,000233639847
2	1	0	1	0	8718,47	1,27159488	1,27204776	-0,17113705441200499	8	-0,135892987	0,000217694513
2	1	0	0	0	8719,67	1,28359616	1,28405726	-0,15725180964606534	8	-0,136089176	0,000201920324
2	1	0	0	0	8720,87	1,2955972	1,29590631	-0,14418575617795203	8	-0,136269227	0,000186851234
2	1	0	1	0	8722,07	1,30759835	1,30809617	-0,13232990633696318	8	-0,136434391	0,000173100241
2	1	0	1	0	8723,27	1,31959951	1,31998515	-0,12088490743190096	8	-0,13658537	0,000159566276
2	1	0	0	0	8724,47	1,33160055	1,33176398	-0,11014992215981078	8	-0,136723116	0,000146693696
2	1	0	0	0	8725,67	1,3436017	1,34370315	-0,09989073988981545	8	-0,136848196	0,000134223505
2	1	0	1	0	8726,87	1,35560286	1,35586298	-0,090408456705820979	8	-0,136961356	0,000122581478
2	1	0	0	0	8728,07	1,36760402	1,36778224	-0,08120125454540073	8	-0,137063146	0,00011106563
2	1	0	0	0	8729,27	1,37960517	1,38015234	-0,072073683608323558	8	-0,137154207	9,94726652E-005
2	1	0	1	0	8730,47	1,39160621	1,39203155	-0,063431029654263501	8	-0,137234911	8,82979948E-005
2	1	0	1	0	8731,67	1,40360725	1,40385032	-0,055615273905762598	8	-0,137305707	7,80755217E-005
2	1	0	0	0	8732,91	1,41600835	1,41633093	-0,047527822549454976	8	-0,137369037	6,73151226E-005
2	1	0	0	0	8734,11	1,42800963	1,42829013	-0,040277038613567238	8	-0,137421146	5,7527297E-005
2	1	0	1	0	8735,31	1,44001067	1,44026959	-0,032917723321588819	8	-0,137464508	4,74103945E-005
2	1	0	1	0	8736,51	1,45201206	1,45218849	-0,026282069310754387	8	-0,137499467	3,81665195E-005
2	1	0	0	0	8737,71	1,4640131	1,46440852	-0,019350971885917987	8	-0,137526289	2,83377285E-005
2	1	0	1	0	8738,91	1,47601402	1,47632778	-0,013136546714425405	8	-0,137545213	1,93938486E-005
2	1	0	1	0	8740,11	1,48801529	1,48835707	-0,0066748192936453568	8	-0,137556553	9,93451431E-006
2	1	0	0	0	8741,35	1,50041628	1,50074744	9,2391118637134118E-007	8	-0,137560427	1,38655731E-009
2	1	0	0	0	8742,55	1,51241755	1,5126667	0,0058901513984892659	8	-0,137556866	8,90983574E-006
2	1	0	1	0	8743,79	1,52481878	1,5252074	0,011480202292053322	8	-0,137545675	1,75096902E-005
2	1	0	1	0	8744,99	1,53681922	1,53711605	0,017002653931284474	8	-0,137527898	2,61350524E-005
2	1	0	0	0	8746,19	1,54882097	1,54932642	0,022859492125765712	8	-0,137503222	3,54168151E-005
2	1	0	1	0	8747,39	1,56082201	1,56104505	0,027983683248748893	8	-0,137471899	4,36837909E-005
2	1	0	1	0	8748,59	1,57282305	1,57324481	0,033571322400045286	8	-0,137433931	5,28159071E-005
2	1	0	0	0	8749,79	1,58482432	1,58495343	0,039260369871044422	8	-0,137389451	6,22258594E-005
2	1	0	0	0	8750,99	1,59682536	1,59700298	0,044944323725455078	8	-0,137338459	7,17762159E-005
2	1	0	1	0	8752,19	1,6088264	1,60912275	0,050060066200482202	8	-0,137281016	8,05527889E-005
2	1	0	1	0	8753,39	1,62082756	1,62109208	0,055616725139164678	8	-0,137217104	9,01598323E-005
2	1	0	0	0	8754,59	1,63282859	1,63300109	0,060705389846892467	8	-0,137146801	9,91319685E-005
2	1	0	1	0	8755,79	1,64482975	1,64513075	0,06628407415235415	8	-0,13707006	0,00010904597
2	1	0	1	0	8756,99	1,65683103	1,65692949	0,07142788699517632	8	-0,136986881	0,000118350974
2	1	0	0	0	8758,19	1,66883206	1,66905928	0,077055683883372582	8	-0,136897206	0,000128610511
2	1	0	0	0	8759,39	1,6808331	1,68086803	0,082185409769105331	8	-0,136801109	0,00013814283
2	1	0	1	0	8760,59	1,69283426	1,69290769	0,08784893081368256	8	-0,13669844	0,000148720137
2	1	0	1	0	8761,79	1,70483541	1,70524788	0,093014697136823091	8	-0,136589304	0,000158613111
2	1	0	0	0	8763,01	1,71703649	1,71742773	0,098558606890340352	8	-0,136471659	0,000169267281
2	1	0	0	0	8764,23	1,72923756	1,72943711	0,10421081558645994	8	-0,13634716	0,000180226052
2	1	0	1	0	8765,43	1,74123883	1,741256	0,10959400473317693	8	-0,136218071	0,000190831212
2	1	0	0	0	8766,64	1,75323987	1,75352597	0,11515785253141053	8	-0,136082307	0,000201932286
2	1	0	0	0	8767,84	1,76524103	1,76559556	0,1206216597541544	8	-0,135939881	0,000212969069
2	1	0	1	0	8769,04	1,7772423	1,77748477	0,12636475497856736	8	-0,135790706	0,000224611431
2	1	0	1	0	8770,24	1,78924322	1,78977466	0,13220032851677322	8	-0,135634869	0,000236608801
2	1	0	0	0	8771,44	1,80124426	1,80142307	0,13793031467745731	8	-0,135472193	0,000248470838
2	1	0	0	0	8772,64	1,81324553	1,81341243	0,14346225680007374	8	-0,135302752	0,00026015623
2	1	0	1	0	8773,84	1,82524657	1,82546198	0,14925088481201466	8	-0,135126486	0,000272451813
2	1	0	1	0	8775,04	1,83724689	1,83748066	0,15477762912043235	8	-0,134943411	0,000284400914
2	1	0	0	0	8776,24	1,84924901	1,84966135	0,16057921484267946	8	-0,1347536	0,000297017163
2	1	0	1	0	8777,44	1,86124992	1,86162066	0,16597035205146947	8	-0,134556964	0,000308973831
2	1	0	1	0	8778,64	1,8732512	1,87383044	0,17162022421446909	8	-0,134353742	0,000321587198
2	1	0	0	0	8779,84	1,88525224	1,88551891	0,17700331316639994	8	-0,134143829	0,000333743083
2	1	0	0	0	8781,04	1,89725327	1,89754844	0,18250759916069594	8	-0,133927494	0,000346317014
2	1	0	1	0	8782,24	1,90925443	1,90944755	0,18771950939359709	8	-0,133704647	0,000358440564
2	1	0	1	0	8783,44	1,92125559	1,92155719	0,1928296038725721	8	-0,133475631	0,000370533118
2	1	0	0	0	8784,64	1,93325663	1,93327582	0,19783899242368819	8	-0,133240372	0,00038247733
2	1	0	1	0	8785,84	1,9452579	1,94545567	0,20273589614468256	8	-0,132999167	0,000394413684
2	1	0	1	0	8787,04	1,95725894	1,95762551	0,20739618890608291	8	-0,13275212	0,000406004081
2	1	0	0	0	8788,24	1,9692601	1,96957469	0,21214851100618582	8	-0,132499382	0,000417842326
2	1	0	0	0	8789,44	1,98126113	1,9815439	0,21686862548813203	8	-0,13224116	0,000429734704
2	1	0	1	0	8790,64	1,99326229	1,99346316	0,22125808506583146	8	-0,131977707	0,000441069831
2	1	0	1	0	8791,84	2,00526357	2,0052619	0,22536197708298733	8	-0,131709129	0,000451909786
2	1	0	0	0	8793,04	2,0172646	2,01761222	0,22949204330022211	8	-0,131435603	0,000463025965
2	1	0	1	0	8794,24	2,0292666	2,02950335	0,23325407843929914	8	-0,131157339	0,000473389926
2	1	0	1	0	8795,44	2,04126692	2,0414505	0,23712696251459408	8	-0,130874574	0,000484082964
2	1	0	0	0	8796,64	2,05326796	2,05351019	0,24042803856233741	8	-0,130587399	0,000493721454
2	1	0	0	0	8797,84	2,06526899	2,06553936	0,24386712520693709	8	-0,130296096	0,000503717165
2	1	0	1	0	8799,04	2,07727003	2,07766914	0,24713815166614861	8	-0,13000083	0,000513471314
2	1	0	1	0	8800,24	2,08927131	2,08959818	0,25025722524151117	8	-0,129701689	0,000522937044
2	1	0	0	0	8801,44	2,10127234	2,10158753	0,25301979125166784	8	-0,129399091	0,000531743222
2	1	0	0	0	8802,64	2,11327338	2,11359715	0,25601090157094042	8	-0,129092902	0,000541103887
2	1	0	1	0	8803,84	2,12527466	2,12575698	0,25867354543879517	8	-0,128783345	0,000549877121
2	1	0	0	0	8805,04	2,13727593	2,13751602	0,26126515773677882	8	-0,12847054	0,000558458443
2	1	0	0	0	8806,24	2,14927697	2,14955497	0,26351243164390326	8	-0,128154755	0,000566434464
2	1	0	1	0	8807,44	2,16127801	2,16151452	0,26601966874053072	8	-0,127835974	0,000575005368
2	1	0	1	0	8808,64	2,17327905	2,17341352	0,26844707597047046	8	-0,127514511	0,000583446526
2	1	0	0	0	8809,84	2,18528032	2,18537259	0,27067510325772038	8	-0,127190396	0,000591525924
2	1	0	0	0	8811,04	2,19728112	2,19767261	0,27249994563559699	8	-0,126863927	0,000598865678
2	1	0	1	0	8812,24	2,2092824	2,20966196	0,27455709354641568	8	-0,126535043	0,000606678368
2	1	0	1	0	8813,44	2,22128367	2,22145104	0,27632469730451613	8	-0,126203954	0,00061384181
2	1	0	0	0	8814,64	2,23328471	2,2337513	0,27820715618630221	8	-0,125870645	0,000621445593
2	1	0	1	0	8815,84	2,24528575	2,24567032	0,27967772337918451	8	-0,125535235	0,000628063979
2	1	0	1	0	8817,04	2,25728679	2,25772977	0,28145562903955578	8	-0,125197947	0,000635450764
2	1	0	0	0	8818,24	2,26928806	2,26958895	0,28294501057825917	8	-0,12485864	0,000642168859
2	1	0	0	0	8819,44	2,28128934	2,28177881	0,28437322106522723	8	-0,124517649	0,000648876769
2	1	0	1	0	8820,64	2,29329038	2,29359746	0,28567398013547062	8	-0,124174863	0,000655221113
2	1	0	1	0	8821,84	2,30529118	2,3055768	0,28699457513478877	8	-0,123830572	0,000661688042
2	1	0	0	0	8823,04	2,31729269	2,31756616	0,28818801464512944	8	-0,123484649	0,000667894783
2	1	0	0	0	8824,24	2,32929254	2,32937241	0,28945628541319168	8	-0,123137385	0,000674251467
2	1	0	1	0	8825,44	2,34129477	2,3413744	0,29038526738683322	8	-0,122788645	0,000679900637
2	1	0	0	0	8826,64	2,35329604	2,35343385	0,29162184226637056	8	-0,122438565	0,000686312735
2	1	0	0	0	8827,84	2,36529708	2,36569381	0,29294481896795379	8	-0,12208721	0,000693017733
2	1	0	1	0	8829,04	2,37729812	2,37740278	0,29403290858802714	8	-0,121734567	0,000699034659
2	1	0	1	0	8830,24	2,38929915	2,3895123	0,29493490008947712	8	-0,121380702	0,000704750593
2	1	0	0	0	8831,44	2,40130019	2,40157175	0,29591592013214995	8	-0,121025562	0,000710663327
2	1	0	0	0	8832,64	2,41330171	2,41366148	0,29695224071231904	8	-0,120669298	0,000716742186
2	1	0	1	0	8833,84	2,42530251	2,42535973	0,29796934469292634	8	-0,120311782	0,00072268286
2	1	0	0	0	8835,04	2,4373033	2,43768024	0,29879355707049402	8	-0,119953133	0,000728363171
2	1	0	0	0	8836,24	2,44930506	2,44953918	0,29983022948726976	8	-0,119593337	0,000734445872
2	1	0	1	0	8837,44	2,46130586	2,46151853	0,3006847735960032	8	-0,119232431	0,000740141142
2	1	0	1	0	8838,64	2,47330713	2,47348785	0,30161801034895098	8	-0,118870467	0,000746048463
2	1	0	0	0	8839,84	2,48530841	2,48554707	0,30232710399044026	8	-0,118507437	0,000751448271
2	1	0	0	0	8841,04	2,49730921	2,4974966	0,30325734134142611	8	-0,118143409	0,000757384172
2	1	0	1	0	8842,24	2,50931025	2,50935555	0,30391289976735878	8	-0,117778517	0,000762625539
2	1	0	1	0	8843,44	2,52131152	2,52150536	0,30483473353492749	8	-0,117412508	0,000768642407
2	1	0	0	0	8844,64	2,53331256	2,53337431	0,30558544560335699	8	-0,117045395	0,000774162298
2	1	0	1	0	8845,84	2,54531384	2,54556417	0,30664735388321062	8	-0,116677143	0,000780590519
2	1	0	1	0	8847,04	2,55731487	2,55754328	0,30780887603759699	8	-0,116307847	0,000787234516
2	1	0	0	0	8848,24	2,56931591	2,56962299	0,30881508082772237	8	-0,115937352	0,000793538347
2	1	0	0	0	8849,44	2,58131719	2,58164239	0,30963847592162618	8	-0,115565717	0,000799375819
2	1	0	1	0	8850,64	2,59331822	2,59375215	0,31082713014135744	8	-0,115192808	0,000806208525
2	1	0	1	0	8851,84	2,6053195	2,60568118	0,31188564437131117	8	-0,114818677	0,000812674582
2	1	0	0	0	8853,04	2,61732078	2,61751008	0,31316009978763757	8	-0,114443153	0,000819699722
2	1	0	0	0	8854,24	2,62932134	2,62973928	0,3142006906756256	8	-0,114066169	0,000826265896
2	1	0	1	0	8855,44	2,64132261	2,64152908	0,31574165727943072	8	-0,11368759	0,000834040751
2	1	0	0	0	8856,64	2,65332365	2,65366864	0,3172256068792192	8	-0,113307171	0,000841811649
2	1	0	0	0	8857,84	2,66532493	2,66545749	0,31899117437812218	8	-0,112924963	0,000850257406
2	1	0	1	0	8859,04	2,6773262	2,67733669	0,32065265571388134	8	-0,112540506	0,000858495128
2	1	0	1	0	8860,24	2,68932724	2,68968678	0,32272433388667834	8	-0,112153843	0,00086802739
2	1	0	0	0	8861,44	2,70132828	2,70162606	0,32485493792531405	8	-0,111764565	0,000877636543
2	1	0	0	0	8862,64	2,71333027	2,7135067	0,32712762919824454	8	-0,111372709	0,000887662987
2	1	0	1	0	8863,84	2,72533059	2,72545433	0,3294892571866512	8	-0,110977948	0,000898007944
2	1	0	0	0	8865,04	2,73733187	2,7376442	0,33203903360602816	8	-0,110580176	0,00090900471
2	1	0	0	0	8866,24	2,7493329	2,7494328	0,33492997506012378	8	-0,110179357	0,000920867431
2	1	0	1	0	8867,44	2,76133394	2,76149249	0,33777686612059667	8	-0,109775245	0,000932768278
2	1	0	1	0	8868,64	2,77333498	2,7737124	0,34075825762314074	8	-0,109367609	0,000945165404
2	1	0	0	0	8869,84	2,78533602	2,78565168	0,34421107545495078	8	-0,108956113	0,000958852179
2	1	0	0	0	8871,04	2,79733729	2,79775119	0,34787082959276928	8	-0,108540408	0,000973256014
2	1	0	1	0	8872,24	2,80933833	2,80941987	0,3519934505845104	8	-0,108119965	0,000988897402
2	1	0	1	0	8873,44	2,82133985	2,82142901	0,3566458041200535	8	-0,107694276	0,00100625085
2	1	0	0	0	8874,65	2,83334064	2,83362913	0,36197015239546592	8	-0,107262611	0,00102568918
2	1	0	1	0	8875,85	2,84534192	2,84555817	0,36798110689657414	8	-0,106824137	0,0010471117
2	1	0	1	0	8877,05	2,85734272	2,85738707	0,3747425711868937	8	-0,106377989	0,00107078452
2	1	0	0	0	8878,25	2,86934423	2,86952686	0,38151988084428013	8	-0,105923556	0,00109478156
2	1	0	0	0	8879,45	2,88134527	2,88170671	0,3880486294316743	8	-0,105461076	0,00111824239
2	1	0	1	0	8880,65	2,89334631	2,89347553	0,39372801609958227	8	-0,104991198	0,00113924243
2	1	0	1	0	8881,85	2,90534735	2,90581584	0,39875649039943981	8	-0,104514971	0,0011587129
2	1	0	0	0	8883,05	2,91734838	2,91767454	0,40311367996037005	8	-0,10403309	0,00117615447
2	1	0	1	0	8884,25	2,92935061	2,92971539	0,40789160118046854	8	-0,103545599	0,00119500631
2	1	0	1	0	8885,45	2,9413507	2,94163346	0,41286623089884602	8	-0,103052579	0,0012145011
2	1	0	0	0	8886,65	2,95335197	2,95360255	0,4178845410545655	8	-0,102553651	0,00123426481
2	1	0	0	0	8887,85	2,96535301	2,96543145	0,42304431476319859	8	-0,10204865	0,00125450897
2	1	0	1	0	8889,05	2,97735405	2,97772169	0,42867678496986739	8	-0,101537056	0,00127648015
2	1	0	1	0	8890,25	2,98935509	2,98936009	0,43435703590512275	8	-0,101018727	0,00129844958
2	1	0	0	0	8891,45	3,0013566	3,00149989	0,44055153693382995	8	-0,100493267	0,00132231542
2	1	0	0	0	8892,65	3,0133574	3,01336884	0,44648309812570598	8	-0,0999604911	0,00134541828
2	1	0	1	0	8893,85	3,02535868	3,025208	0,45312106454124058	8	-0,0994200781	0,00137078553
2	1	0	0	0	8895,05	3,03735971	3,03755808	0,45972267445176838	8	-0,0988717228	0,00139643438
2	1	0	0	0	8896,25	3,04936075	3,04952741	0,46675778351103149	8	-0,0983153433	0,0014233907
2	1	0	1	0	8897,45	3,06136179	3,06161714	0,47379898823176858	8	-0,0977503657	0,00145059114
2	1	0	1	0	8898,65	3,07336307	3,07358623	0,48126655273760518	8	-0,097176753	0,00147921429
2	1	0	0	0	8899,85	3,08536434	3,08550549	0,4889821211496983	8	-0,0965938419	0,00150875701
2	1	0	0	0	8901,05	3,09736538	3,09760499	0,49697584596773005	8	-0,09600164	0,00153943489
2	1	0	1	0	8902,25	3,10936642	3,1094842	0,50505365043257645	8	-0,0953995809	0,00157045631
2	1	0	0	0	8903,45	3,12136745	3,12146354	0,51364899147301869	8	-0,0947874561	0,00160333666
2	1	0	0	0	8904,65	3,13336849	3,13369322	0,52270744042470874	8	-0,0941650942	0,00163800479
2	1	0	1	0	8905,85	3,14536977	3,14565253	0,53165594798823258	8	-0,0935319662	0,00167240493
2	1	0	1	0	8907,05	3,15737081	3,15739083	0,54085325930888282	8	-0,0928879827	0,00170768518
2	1	0	0	0	8908,25	3,16937184	3,16973138	0,55039681463191846	8	-0,0922326595	0,00174461002
2	1	0	0	0	8909,45	3,18137288	3,18183112	0,5601250706240535	8	-0,0915658772	0,00178222335
2	1	0	1	0	8910,65	3,19337416	3,1934092	0,56999628447617299	8	-0,0908872411	0,00182023144
2	1	0	0	0	8911,85	3,20537591	3,20564151	0,57992420397018483	8	-0,0901966318	0,00185902906
2	1	0	0	0	8913,05	3,21737623	3,21747828	0,59006685266892083	8	-0,0894940346	0,00189852726
2	1	0	1	0	8914,25	3,22937727	3,22937727	0,60027391122032986	8	-0,0887791216	0,00193851092
2	1	0	1	0	8915,45	3,24137878	3,24138641	0,61068636101359987	8	-0,0880519748	0,00197947049
2	1	0	0	0	8916,65	3,25337982	3,25331569	0,62076519383117555	8	-0,0873123854	0,00201954506
2	1	0	0	0	8917,85	3,26538086	3,26544547	0,63097485201433126	8	-0,086560674	0,00206041406
2	1	0	1	0	8919,05	3,27738214	3,27755547	0,64074130325267917	8	-0,0857967362	0,00210006512
2	1	0	1	0	8920,25	3,28938317	3,28970504	0,65110121450076442	8	-0,0850208476	0,00214193086
2	1	0	0	0	8921,45	3,30138421	3,30153394	0,66075442731380288	8	-0,0842327923	0,00218150322
2	1	0	1	0	8922,65	3,31338525	3,31352353	0,67058707680553203	8	-0,083432883	0,00222200598
2	1	0	1	0	8923,85	3,32538652	3,32553267	0,68037931279589619	8	-0,0826215893	0,00226262375
2	1	0	0	0	8925,05	3,33738756	3,3375721	0,6897359372427063	8	-0,0817989036	0,00230204337
2	1	0	0	0	8926,25	3,3493886	3,34943104	0,6986704338341943	8	-0,0809654072	0,00234014844
2	1	0	1	0	8927,45	3,36138964	3,36146045	0,70748029757911987	8	-0,080121085	0,00237816712
2	1	0	1	0	8928,65	3,37339067	3,37356019	0,715959357097744	8	-0,0792664886	0,00241533201
2	1	0	0	0	8929,85	3,38539219	3,38554978	0,72441466851159757	8	-0,0784016028	0,00245254184
2	1	0	1	0	8931,05	3,39739418	3,39741802	0,73248189243904256	8	-0,0775266811	0,00248854724
2	1	0	1	0	8932,25	3,4093945	3,40952826	0,74053887790068979	8	-0,0766421929	0,00252488814
2	1	0	0	0	8933,45	3,42139554	3,42166781	0,74846963987996237	8	-0,0757479668	0,00256101438
2	1	0	0	0	8934,65	3,43339658	3,43355703	0,75620623305439949	8	-0,0748446435	0,00259647728
2	1	0	1	0	8935,85	3,44539762	3,44558644	0,76396725559606976	8	-0,0739316717	0,00263231527
2	1	0	1	0	8937,05	3,45739865	3,45786643	0,77180754595125747	8	-0,0730094984	0,00266880752
2	1	0	0	0	8938,25	3,46939993	3,46961522	0,77978927921503693	8	-0,0720776394	0,00270556868
2	1	0	0	0	8939,45	3,48140097	3,48141408	0,78783188170442739	8	-0,0711363479	0,00274276896
2	1	0	1	0	8940,65	3,493402	3,49359393	0,79608909226953984	8	-0,0701849684	0,0027812121
2	1	0	0	0	8941,85	3,50540304	3,50556326	0,8046956818178295	8	-0,0692234933	0,00282091158
2	1	0	0	0	8943,05	3,51740456	3,5175724	0,81402364249030874	8	-0,0682515949	0,00286338711
2	1	0	1	0	8944,25	3,52940559	3,52950168	0,82332472472141299	8	-0,0672685578	0,00290592597
2	1	0	1	0	8945,45	3,54140639	3,541852	0,83299434836953792	8	-0,0662742853	0,0029503426
2	1	0	0	0	8946,65	3,55340791	3,55388141	0,84333952857802432	8	-0,0652678013	0,00299712876
2	1	0	0	0	8947,85	3,56540895	3,56569028	0,8540530297905225	8	-0,064248912	0,00304528861
2	1	0	1	0	8949,05	3,57740998	3,57751942	0,86527789446214861	8	-0,0632166341	0,00309554837
2	1	0	1	0	8950,25	3,58941054	3,58964896	0,87721496094720128	8	-0,0621705279	0,00314889383
2	1	0	0	0	8951,45	3,6014123	3,60185909	0,88965400525679078	8	-0,0611095987	0,00320440833
2	1	0	1	0	8952,65	3,61341333	3,61361742	0,90252353685597338	8	-0,060033422	0,00326137478
2	1	0	1	0	8953,85	3,62541437	3,62577724	0,91619035881012326	8	-0,0589415058	0,00332190213
2	1	0	0	0	8955,05	3,63741541	3,63729548	0,92970501414189683	8	-0,0578331053	0,00338161178
2	1	0	0	0	8956,25	3,64941645	3,64935493	0,94421764556318515	8	-0,0567079335	0,00344578526
2	1	0	1	0	8957,45	3,66141796	3,66152477	0,95904440432787034	8	-0,0555650517	0,00351156481
2	1	0	1	0	8958,65	3,67341876	3,67369461	0,97485115720579789	8	-0,0544039086	0,0035813055
2	1	0	0	0	8959,85	3,68542027	3,68566394	0,99070622026919962	8	-0,0532234162	0,00365141011
2	1	0	0	0	8961,09	3,69782043	3,6979332	1,009702433339557	8	-0,0519817136	0,00373381213
2	1	0	1	0	8962,29	3,70982242	3,70986342	1,0277308144917096	8	-0,0507582538	0,00381274102
2	1	0	0	0	8963,49	3,72182345	3,72194266	1,046297443099319	8	-0,0495132171	0,00389425899
2	1	0	0	0	8964,69	3,73382449	3,73406243	1,0646276700620856	8	-0,0482461639	0,00397538627
2	1	0	1	0	8965,89	3,74582553	3,74586129	1,0841714435567446	8	-0,0469560809	0,00406115595
2	1	0	1	0	8967,09	3,75782681	3,75805116	1,1041869213804656	8	-0,0456423759	0,00414959108
2	1	0	0	0	8968,29	3,76982784	3,7700603	1,1254382239033749	8	-0,0443037339	0,00424297014
2	1	0	0	0	8969,49	3,7818296	3,78201056	1,1465208541669822	8	-0,0429398045	0,00433615409
2	1	0	1	0	8970,69	3,79383039	3,7938087	1,168911247824628	8	-0,041549664	0,00443462562
2	1	0	0	0	8971,89	3,80583143	3,80591822	1,191615229162072	8	-0,0401323475	0,0045351903
2	1	0	0	0	8973,09	3,81783247	3,81790757	1,2153912444288509	8	-0,0386874042	0,0046402514
2	1	0	1	0	8974,29	3,82983375	3,82969618	1,2392156043400382	8	-0,037213631	0,00474581914
2	1	0	1	0	8975,49	3,84183478	3,84202671	1,2642830728242842	8	-0,0357106999	0,00485740928
2	1	0	0	0	8976,69	3,85383582	3,85401607	1,2894102176651358	8	-0,0341773331	0,0049694078
2	1	0	0	0	8977,89	3,86583686	3,86609578	1,3158291246121082	8	-0,0326132514	0,00508712139
2	1	0	1	0	8979,09	3,8778379	3,87788439	1,3425257491568701	8	-0,0310169216	0,00520615978
2	1	0	0	0	8980,30	3,88983989	3,88989472	1,3704376590281733	8	-0,0293876957	0,00533085829
2	1	0	0	0	8981,50	3,90184021	3,90197325	1,3993942836920405	8	-0,0277249385	0,0054603992
2	1	0	1	0	8982,70	3,91384125	3,91412282	1,4289014004170894	8	-0,0260271467	0,00559289567
2	1	0	1	0	8983,90	3,92584229	3,92609239	1,4590868040298429	8	-0,0242937915	0,00572850974
2	1	0	0	0	8985,10	3,9378438	3,93806171	1,4904851801693421	8	-0,02252312	0,00586962281
2	1	0	0	0	8986,30	3,94984484	3,95018101	1,5236484588434253	8	-0,0207139552	0,00601868704
2	1	0	1	0	8987,50	3,96184564	3,96179962	1,5584770155449696	8	-0,0188637525	0,00617437344
2	1	0	1	0	8988,70	3,97384715	3,97407961	1,594853508596616	8	-0,0169711486	0,0063380748
2	1	0	0	0	8989,90	3,98584819	3,98592901	1,633664282038808	8	-0,0150329489	0,00651167007
2	1	0	1	0	8991,10	3,99784994	3,99818158	1,6744641552414096	8	-0,0130468886	0,00669481186
2	1	0	1	0	8992,30	4,0098505	4,00998735	1,7182566225528752	8	-0,0110103898	0,00689018751
2	1	0	0	0	8993,50	4,02185154	4,02192688	1,7640618855754512	8	-0,00891983323	0,00709492806
2	1	0	0	0	8994,70	4,03385258	4,03372526	1,8133498895913293	8	-0,00677250559	0,00731455535
2	1	0	1	0	8995,90	4,04585361	4,04617596	1,8640824680527056	8	-0,00456492417	0,00754240574
2	1	0	1	0	8997,10	4,05785561	4,0579567	1,9187567722747971	8	-0,00229405193	0,00778623205
2	1	0	0	0	8998,30	4,06985617	4,07004452	1,9760171628246682	8	4,39354553E-005	0,008042478
2	1	0	1	0	8999,50	4,08185816	4,08210468	2,0367433321386131	8	0,00245312438	0,00831419975
2	1	0	1	0	9000,70	4,09385824	4,09419346	2,1008583686004058	8	0,00493650883	0,00860132091
2	1	0	0	0	9001,90	4,10585928	4,10610247	2,1689367859313827	8	0,00749918772	0,00890587643
2	1	0	0	0	9003,10	4,11786032	4,11818218	2,2398651080826931	8	0,0101449937	0,00922417268
2	1	0	1	0	9004,30	4,12986135	4,13008165	2,3151051507641894	8	0,0128788389	0,00956157316
2	1	0	1	0	9005,50	4,14186287	4,14194059	2,3949497466285978	8	0,0157053266	0,00991973933
2	1	0	0	0	9006,70	4,15386391	4,15383959	2,4789385944604893	8	0,0186305381	0,0102971131
2	1	0	0	0	9007,90	4,16586399	4,16617966	2,5667118965360515	8	0,0216585342	0,0106933825
2	1	0	1	0	9009,10	4,17786598	4,17816877	2,6597501865277594	8	0,0247955639	0,0111128855
2	1	0	0	0	9010,30	4,1898675	4,1899786	2,7571524046309933	8	0,0280468687	0,0115524093
2	0	0	0	1	9011,44	4,198668	4,19898033	2,800370847185448	8	0,0312433485	0,0117587019
2	0	0	1	1	9012,64	4,18666649	4,18688965	2,575055913872049	8	0,0344580933	0,0107814753
2	0	0	1	1	9013,84	4,17466545	4,17484093	2,3874377775937283	8	0,0374328569	0,00996717252
2	0	0	0	1	9015,04	4,16266441	4,16269112	2,2125371073683091	8	0,0401908159	0,00921010878
2	0	0	0	1	9016,24	4,15066338	4,15071201	2,0483057548602429	8	0,0427451245	0,00850192737
2	0	0	1	1	9017,44	4,13866234	4,13881302	1,8926195042828714	8	0,0451082624	0,00783319864
2	0	0	1	1	9018,64	4,12666035	4,12680197	1,7465636084556166	8	0,0472902246	0,00720772194
2	0	0	0	1	9019,84	4,11465979	4,11469412	1,6076549372325363	8	0,0493009984	0,00661500823
2	0	0	1	1	9021,04	4,10265827	4,10293388	1,4767038459398342	8	0,0511500053	0,0060588182
2	0	0	1	1	9022,24	4,09065819	4,09095526	1,3521564289306571	8	0,0528455712	0,00553161139
2	0	0	0	1	9023,44	4,07865667	4,07865572	1,2347509652997034	8	0,0543961227	0,00503612403
2	0	0	0	1	9024,64	4,06665564	4,06677675	1,1227413366238278	8	0,0558087118	0,00456593838
2	0	0	1	1	9025,84	4,0546546	4,05492783	1,0179246406381317	8	0,0570914075	0,00412761094
2	0	0	1	1	9027,04	4,04265356	4,04266787	0,91775718765953946	8	0,0582507215	0,00371018751
2	0	0	0	1	9028,24	4,03065205	4,03075838	0,8231221462289495	8	0,0592936464	0,0033178064
2	0	0	0	1	9029,44	4,01865149	4,01882935	0,73347855551573018	8	0,0602261983	0,00294772512
2	0	0	1	1	9030,64	4,00664997	4,00671959	0,64960110854978522	8	0,0610548258	0,00260276953
2	0	0	0	1	9031,84	3,99464869	3,99469018	0,56947619545583808	8	0,0617851056	0,00227488088
2	0	0	0	1	9033,08	3,98224759	3,98227978	0,49113230857377312	8	0,0624419674	0,0019558263
2	0	0	1	1	9034,28	3,97024655	3,97043061	0,42010746834178739	8	0,0629875287	0,00166800758
2	0	0	1	1	9035,48	3,95824528	3,95809054	0,35335328523069664	8	0,0634503812	0,00139860425
2	0	0	0	1	9036,68	3,94624424	3,94669271	0,29022804996930061	8	0,0638353676	0,00114544097
2	0	0	0	1	9037,88	3,9342432	3,93454313	0,23083244535761539	8	0,0641466901	0,000908220187
2	0	0	1	1	9039,08	3,92224216	3,9224534	0,17460878173975843	8	0,0643887594	0,000684894796
2	0	0	0	1	9040,28	3,91024113	3,91056442	0,12175922297096496	8	0,0645653382	0,000476147281
2	0	0	0	1	9041,48	3,89824009	3,89835453	0,072037033853121344	8	0,064680323	0,000280825887
2	0	0	1	1	9042,72	3,88583899	3,88594413	0,023235594776148518	8	0,0647381991	9,02922257E-005
2	0	0	1	1	9043,92	3,87383771	3,87391448	-0,020675177176599446	8	0,064738676	8,00938651E-005
2	0	0	0	1	9045,12	3,86183667	3,86221576	-0,062687045972173453	8	0,0646875352	0,000242110895
2	0	0	0	1	9046,36	3,84943557	3,84963512	-0,10302547175282006	8	0,0645835027	0,00039661047
2	0	0	1	1	9047,56	3,83743405	3,83768582	-0,14065402975150686	8	0,0644358322	0,00053978595
2	0	0	1	1	9048,76	3,82543373	3,82544589	-0,1763711863054585	8	0,0642442852	0,000674698444
2	0	0	0	1	9049,96	3,81343198	3,81352711	-0,21074335983333549	8	0,0640109479	0,000803675503
2	0	0	1	1	9051,16	3,8014307	3,80157781	-0,2430435773761328	8	0,0637378097	0,000923949061
2	0	0	1	1	9052,36	3,78942966	3,78961849	-0,27399632932307805	8	0,0634266436	0,00103834155
2	0	0	0	1	9053,56	3,77742863	3,77764916	-0,3037949463663008	8	0,0630789846	0,00114763074
2	0	0	0	1	9054,76	3,76542759	3,76564956	-0,33246622040557395	8	0,0626964197	0,00125195133
2	0	0	1	1	9055,96	3,75342655	3,75377035	-0,35992384344960326	8	0,0622800849	0,00135107141
2	0	0	1	1	9057,16	3,74142528	3,74146056	-0,38659712136723104	8	0,0618313178	0,00144643791
2	0	0	0	1	9058,36	3,72942424	3,72954154	-0,41203043734033965	8	0,0613510348	0,00153668458
2	0	0	1	1	9059,56	3,7174232	3,71773243	-0,43708645738661421	8	0,0608406439	0,00162497046
2	0	0	1	1	9060,76	3,70542169	3,70574331	-0,46130919735878726	8	0,0603006855	0,00170949346
2	0	0	0	1	9061,96	3,69342065	3,69365358	-0,4847736636487159	8	0,0597320385	0,00179058593
2	0	0	0	1	9063,16	3,68141961	3,68154383	-0,50763275194913504	8	0,0591355599	0,0018688722
2	0	0	1	1	9064,36	3,66941833	3,66961503	-0,52988829044625338	8	0,0585119203	0,00194448605
2	0	0	1	1	9065,56	3,6574173	3,65740466	-0,55148965834329779	8	0,0578620248	0,00201702095
2	0	0	0	1	9066,76	3,64541626	3,6456058	-0,57247038822000282	8	0,0571863949	0,00208700146
2	0	0	1	1	9067,96	3,63341403	3,63343501	-0,59327454619067405	8	0,0564857125	0,00215562456
2	0	0	1	1	9069,16	3,62141418	3,62168717	-0,6132796035769097	8	0,0557610691	0,00222110678
2	0	0	0	1	9070,36	3,60941315	3,60969782	-0,63247648673132058	8	0,0550128818	0,00228304905
2	0	0	0	1	9071,56	3,59741187	3,59778881	-0,65089596978699226	8	0,0542421564	0,00234178617
2	0	0	1	1	9072,76	3,58541083	3,58555865	-0,66885759681463424	8	0,0534494407	0,00239822804
2	0	0	1	1	9073,96	3,5734098	3,57356954	-0,68593389944483981	8	0,0526358746	0,0024512324
2	0	0	0	1	9075,16	3,56140828	3,56160021	-0,70221595761055782	8	0,0518022068	0,00250101252
2	0	0	0	1	9076,36	3,54940724	3,5495708	-0,71742517997821414	8	0,0509496182	0,0025465514
2	0	0	1	1	9077,56	3,53740621	3,53749156	-0,73202426296969408	8	0,0500789657	0,00258952961
2	0	0	0	1	9078,76	3,52540445	3,52544093	-0,74577891343680051	8	0,0491912998	0,00262919953
2	0	0	0	1	9079,96	3,51340389	3,51352262	-0,75839610459904	8	0,048288025	0,00266464194
2	0	0	1	1	9081,16	3,50140285	3,50154328	-0,77014417527243584	8	0,0473697856	0,00269669318
2	0	0	1	1	9082,36	3,48940182	3,48951387	-0,78079653453702886	8	0,046438273	0,00272460026
2	0	0	0	1	9083,57	3,47740078	3,4773941	-0,7907752624402455	8	0,0454942472	0,00274983724
2	0	0	0	1	9084,77	3,4653995	3,46542501	-0,79930818080902106	8	0,0445392542	0,00276994263
2	0	0	1	1	9085,97	3,45339847	3,45354581	-0,80714682582765824	8	0,0435741395	0,00278751855
2	0	0	1	1	9087,17	3,44139743	3,44165707	-0,81410957748691354	8	0,0426004305	0,00280188606
2	0	0	0	1	9088,37	3,42939591	3,42970729	-0,82002428794901056	8	0,0416190699	0,0028124433
2	0	0	1	1	9089,57	3,41739488	3,41750789	-0,82475863010932749	8	0,040631406	0,00281861913
2	0	0	1	1	9090,77	3,40539384	3,40563869	-0,82871275705595917	8	0,0396386459	0,00282229623
2	0	0	0	1	9091,97	3,39339256	3,39350867	-0,83151946837703322	8	0,0386416912	0,00282176863
2	0	0	0	1	9093,17	3,38139153	3,38158011	-0,83366057835519488	8	0,0376419276	0,00281909015
2	0	0	1	1	9094,37	3,36939049	3,3696208	-0,83470656940092877	8	0,036640089	0,0028126447
2	0	0	1	1	9095,57	3,35738945	3,35756111	-0,83521869778633114	8	0,0356374346	0,00280429772
2	0	0	0	1	9096,77	3,34538841	3,34553146	-0,83469924175491174	8	0,0346346013	0,00279251253
2	0	0	0	1	9097,97	3,33338785	3,33342314	-0,83352758380948979	8	0,0336329378	0,00277850009
2	0	0	1	1	9099,17	3,3213861	3,32152271	-0,83184052910655821	8	0,0326328091	0,00276297727
2	0	0	0	1	9100,37	3,30938506	3,30940318	-0,82939679579188659	8	0,0316350907	0,00274480833
2	0	0	0	1	9101,57	3,29738402	3,2975843	-0,82644579807917568	8	0,0306407679	0,00272527477
2	0	0	1	1	9102,77	3,28538251	3,28571534	-0,82296851060043251	8	0,0296501927	0,00270404015
2	0	0	1	1	9103,97	3,27338147	3,2736156	-0,81885454493264115	8	0,0286642648	0,00268061506
2	0	0	0	1	9105,17	3,26138043	3,26165652	-0,81443363241851379	8	0,0276831966	0,00265640276
2	0	0	0	1	9106,37	3,24937916	3,24932623	-0,80989957600831846	8	0,0267076846	0,00263162795
2	0	0	1	1	9107,57	3,23737812	3,23763728	-0,80498695994417075	8	0,0257380027	0,0026062557
2	0	0	0	1	9108,77	3,22537708	3,22555804	-0,79964957758784294	8	0,0247745272	0,00257931603
2	0	0	0	1	9109,97	3,21337605	3,21362853	-0,79405833190928026	8	0,0238177292	0,00255180849
2	0	0	1	1	9111,17	3,20137501	3,20157909	-0,78851063642650842	8	0,0228675213	0,00252447906
2	0	0	1	1	9112,37	3,18937373	3,18960023	-0,78261028385410739	8	0,0219243225	0,00249621389
2	0	0	0	1	9113,57	3,17737269	3,17754054	-0,77670989263182118	8	0,0209880434	0,00246802717
2	0	0	0	1	9114,77	3,16537166	3,16533065	-0,77048861406122662	8	0,0200591404	0,00243885117
2	0	0	1	1	9115,97	3,15337014	3,15336132	-0,76446833352868992	8	0,0191374011	0,0024106449
2	0	0	1	1	9117,17	3,1413703	3,14137244	-0,75840628330555046	8	0,0182230417	0,00238243653
2	0	0	0	1	9118,37	3,12936807	3,12945271	-0,75221852740894054	8	0,017315967	0,00235403236
2	0	0	1	1	9119,57	3,11736703	3,11756372	-0,74620924579600794	8	0,0164160598	0,00232635485
2	0	0	1	1	9120,76	3,10546613	3,10590529	-0,73999993441005786	8	0,0155310528	0,00229836977
2	0	0	0	1	9120,77	3,10526657	3,10568523	-0,74150807016036096	8	0,0155211259	0,00230289064