File: Experimentelles/Rohdaten/Batterietests/AlteZelle/Studenten_Batterietests/Sonstige/ECLab-Export/LiCoO2 vs Li_05_GCPL_C01_loop5.mpt
EC-Lab ASCII FILE
Nb header lines : 3
mode	ox/red	error	control changes	Ns changes	counter inc.	Ns	time/s	control/V/mA	Ewe/V	dq/mA.h	<I>/mA	P/W	(Q-Qo)/mA.h	x	Capacity/mA.h
1	0	0	1	1	0	1	196404,14	-0,100000001	4,19583559	0	0	0	0	0	0
1	0	0	1	0	0	1	196494,14	-0,100000001	3,89016438	-0,00027771946290466518	-0,099978991002747328	0,000388934714	-0,0024980983213047408	9,3207407096794637E-005	0,0024980983213047408
1	0	0	1	0	0	1	196584,14	-0,100000001	3,85701561	-0,0002777190392435425	-0,099978838484767014	0,000385619933	-0,0049975690529075162	0,00018646602066703421	0,0049975690529075162
1	0	0	1	0	0	1	196674,14	-0,100000001	3,83780622	-0,00027771962772599526	-0,099979050338416883	0,000383700215	-0,0074970414078966016	0,00027972469480799968	0,0074970414078966016
1	0	0	1	0	0	1	196764,14	-0,100000001	3,82325578	-0,00027771956874761318	-0,099979029106202637	0,000382245402	-0,0099965147623140173	0,00037298340623897984	0,0099965147623140173
1	0	0	1	0	0	1	196854,14	-0,100000001	3,81118774	-0,00027771895942919786	-0,09997880975160745	0,000381038	-0,01249598695666113	0,00046624207438617734	0,01249598695666113
1	0	0	1	0	0	1	196944,14	-0,100000001	3,80074286	-0,00027771944921629296	-0,099978986074934093	0,000379994424	-0,014995458701443114	0,00055950072575949536	0,014995458701443114
1	0	0	1	0	0	1	197034,14	-0,100000001	3,79075623	-0,0002777188602954977	-0,099978774063480973	0,000378995173	-0,017494927808177741	0,00065275927870371968	0,017494927808177741
1	0	0	1	0	0	1	197124,14	-0,100000001	3,7819345	-0,00027771904310004579	-0,099978839873107994	0,000378113415	-0,019994395188333037	0,00074601776722694771	0,019994395188333037
1	0	0	1	0	0	1	197214,14	-0,100000001	3,77343726	-0,00027771867638205491	-0,09997870785465193	0,000377263379	-0,022493864826658314	0,00083927634000553395	0,022493864826658314
1	0	0	1	0	0	1	197304,14	-0,100000001	3,7653029	-0,00027771955051066147	-0,099979022540901056	0,000376451295	-0,024993335684074493	0,0009325349582700407	0,024993335684074493
1	0	0	1	0	0	1	197394,14	-0,100000001	3,75766492	-0,00027771902821626928	-0,099978834514949286	0,00037568697	-0,027492807707221341	0,0010257936200295261	0,027492807707221341
1	0	0	1	0	0	1	197484,14	-0,100000001	3,75027514	-0,00027771903495200803	-0,099978836939814848	0,00037494814	-0,029992277670087699	0,0011190522049171765	0,029992277670087699
1	0	0	1	0	0	1	197574,14	-0,100000001	3,74298072	-0,00027771856077967421	-0,099978666237801395	0,000374218216	-0,032491745823606637	0,0012123107222956419	0,032491745823606637
1	0	0	1	0	0	1	197664,14	-0,100000001	3,73585844	-0,00027771906970027421	-0,099978849449188723	0,000373506831	-0,034991217370296723	0,0013055693662778846	0,034991217370296723
1	0	0	1	0	0	1	197754,14	-0,100000001	3,7290988	-0,00027771834689006208	-0,099978589237553062	0,000372830051	-0,037490688120237043	0,0013988279805323229	0,037490688120237043
1	0	0	1	0	0	1	197844,14	-0,100000001	3,72251105	-0,00027771818307663002	-0,099978530264726746	0,000372171198	-0,039990150142197613	0,0014920862691341014	0,039990150142197613
1	0	0	1	0	0	1	197934,14	-0,100000001	3,71575141	-0,00027771837612241504	-0,09997859976119849	0,000371495611	-0,042489617301261062	0,0015853447494080954	0,042489617301261062
1	0	0	1	0	0	1	198024,14	-0,100000001	3,70939279	-0,00027771787086253363	-0,099978417867669645	0,000370859227	-0,044989079122691731	0,0016786030305278339	0,044989079122691731
1	0	0	1	0	0	1	198114,14	-0,100000001	3,70307255	-0,00027771820846696694	-0,099978539405246618	0,00037022779	-0,047488542946026765	0,0017718613863413158	0,047488542946026765
1	0	0	1	0	0	1	198204,14	-0,100000001	3,69688582	-0,00027771896101824109	-0,099978810323662925	0,000369610236	-0,049988005948905101	0,001865119711542455	0,049988005948905101
1	0	0	1	0	0	1	198294,14	-0,100000001	3,69067979	-0,0002777180613444911	-0,099978486441163597	0,000368988578	-0,052487473001474912	0,0019583781878430282	0,052487473001474912
1	0	0	1	0	0	1	198384,14	-0,100000001	3,68447399	-0,00027771870283492733	-0,099978717377684518	0,000368368987	-0,054986935301617389	0,0020516364868241478	0,054986935301617389
1	0	0	1	0	0	1	198474,14	-0,100000001	3,67844009	-0,00027771782007606493	-0,099978399584543757	0,000367764558	-0,057486398066022931	0,0021448948031275469	0,057486398066022931
1	0	0	1	0	0	1	198564,14	-0,100000001	3,67250156	-0,00027771800365133414	-0,099978465671630349	0,000367171073	-0,059985860366453914	0,002238153102119431	0,059985860366453914
1	0	0	1	0	0	1	198654,14	-0,100000001	3,66639113	-0,00027771835250821379	-0,099978591260087373	0,00036656062	-0,062485324229899584	0,0023314114594294944	0,062485324229899584
1	0	0	1	0	0	1	198744,14	-0,100000001	3,66033816	-0,00027771802384737462	-0,099978472942203789	0,000365955028	-0,064984788718878182	0,0024246698400790323	0,064984788718878182
1	0	0	1	0	0	1	198834,14	-0,100000001	3,65438056	-0,00027771835256202355	-0,099978591279458893	0,000365359825	-0,067484250256941747	0,0025179281106259632	0,067484250256941747
1	0	0	1	0	0	1	198924,14	-0,100000001	3,64848018	-0,00027771836364683181	-0,099978595269989235	0,00036476992	-0,069983712956934925	0,0026111864245260502	0,069983712956934925
1	0	0	1	0	0	1	199014,14	-0,100000001	3,64246535	-0,0002777188286864095	-0,099978762684211021	0,000364169187	-0,07248318187708137	0,0027044449705084186	0,07248318187708137
1	0	0	1	0	0	1	199104,14	-0,100000001	3,636374	-0,00027771851916280058	-0,099978651255729216	0,000363559753	-0,074982647863685875	0,0027977034070363926	0,074982647863685875
1	0	0	1	0	0	1	199194,14	-0,100000001	3,63053083	-0,00027771822779253123	-0,099978546362448666	0,000362975203	-0,077482109129365312	0,0028909616674203059	0,077482109129365312
1	0	0	1	0	0	1	199284,14	-0,100000001	3,62438226	-0,00027771809247839782	-0,099978497649368269	0,000362360297	-0,079981574208958886	0,0029842200701064826	0,079981574208958886
1	0	0	1	0	0	1	199374,14	-0,100000001	3,61840558	-0,00027771811810011664	-0,0999785068731856	0,000361762795	-0,082481036672909018	0,0030774783751994861	0,082481036672909018
1	0	0	1	0	0	1	199464,14	-0,100000001	3,61233354	-0,00027771851141709421	-0,099978648467275379	0,000361156213	-0,084980501427477632	0,0031707367657585453	0,084980501427477632
1	0	0	1	0	0	1	199554,14	-0,100000001	3,60620403	-0,0002777186265649895	-0,099978689920511194	0,000360543549	-0,087479966095363725	0,0032639951530833626	0,087479966095363725
1	0	0	1	0	0	1	199644,14	-0,100000001	3,6000936	-0,00027771906046941875	-0,09997884612608128	0,000359933212	-0,089979433500898586	0,003357253642553536	0,089979433500898586
1	0	0	1	0	0	1	199734,14	-0,100000001	3,59404063	-0,00027771875253278346	-0,099978735268909926	0,000359327649	-0,092478899435320038	0,0034505120771344902	0,092478899435320038
1	0	0	1	0	0	1	199824,14	-0,100000001	3,58783484	-0,0002777183110858831	-0,099978576348050662	0,000358706631	-0,094978364072255603	0,0035437704633045024	0,094978364072255603
1	0	0	1	0	0	1	199914,14	-0,100000001	3,58155251	-0,00027771905371712314	-0,099978843695255245	0,000358079473	-0,097477831242907187	0,0036370289440108646	0,097477831242907187
1	0	0	1	0	0	1	200004,14	-0,100000001	3,57527018	-0,00027771855701133606	-0,099978664881199872	0,000357450743	-0,099977297433407987	0,0037302873881464845	0,099977297433407987
1	0	0	1	0	0	1	200094,14	-0,100000001	3,56873989	-0,00027771966424087683	-0,099979063483772173	0,000356799283	-0,10247676776672094	0,0038235459868559955	0,10247676776672094
1	0	0	1	0	0	1	200184,14	-0,100000001	3,56222844	-0,00027771951195390685	-0,099979008660471565	0,000356148055	-0,10497624170481106	0,0039168047200645888	0,10497624170481106
1	0	0	1	0	0	1	200274,14	-0,100000001	3,55565977	-0,00027771951393534739	-0,099979009373790054	0,000355491327	-0,10747571783454117	0,004010063535046217	0,10747571783454117
1	0	0	1	0	0	1	200364,14	-0,100000001	3,54886198	-0,00027771969075252608	-0,099979073027964416	0,000354811928	-0,10997519580455725	0,0041033224186913894	0,10997519580455725
1	0	0	1	0	0	1	200454,14	-0,100000001	3,5419879	-0,00027771863145215645	-0,099978691679891008	0,000354123302	-0,11247466767301637	0,0041965810746792678	0,11247466767301637
1	0	0	1	0	0	1	200544,14	-0,100000001	3,53498006	-0,00027771828322278125	-0,099978566317335565	0,000353422249	-0,11497413574634635	0,0042898395890657747	0,11497413574634635
1	0	0	1	0	0	1	200634,14	-0,100000001	3,52789569	-0,0002777184908857776	-0,099978641076002547	0,000352714211	-0,11747359902553566	0,004383097924576448	0,11747359902553566
1	0	0	1	0	0	1	200724,14	-0,100000001	3,52075434	-0,00027771875267765587	-0,099978735321063974	0,000352000556	-0,11997306739727795	0,0044763564500971206	0,11997306739727795
1	0	0	1	0	0	1	200814,14	-0,100000001	3,5135746	-0,00027771908605222902	-0,099978855335891546	0,000351283175	-0,12247253862863714	0,004569615082313943	0,12247253862863714
1	0	0	1	0	0	1	200904,14	-0,100000001	3,5062995	-0,0002777189200259745	-0,099978795566449254	0,000350555609	-0,12497200991888072	0,0046628737167278227	0,12497200991888072
1	0	0	1	0	0	1	200994,14	-0,100000001	3,49877596	-0,00027771882974563373	-0,099978763065531661	0,000349803304	-0,12747148163427186	0,0047561323670045286	0,12747148163427186
1	0	0	1	0	0	1	201084,14	-0,100000001	3,49113822	-0,0002777183993524975	-0,099978608124026867	0,000349039154	-0,12997094968295824	0,0048493908804715507	0,12997094968295824
1	0	0	1	0	0	1	201174,14	-0,100000001	3,48346186	-0,00027771905546759565	-0,099978844325425242	0,000348272501	-0,13247041869231008	0,0049426494297822918	0,13247041869231008
1	0	0	1	0	0	1	201264,14	-0,100000001	3,47549939	-0,00027771940333478979	-0,09997896955759552	0,00034747686	-0,13496989268880034	0,0050359081651698733	0,13496989268880034
1	0	0	1	0	0	1	201354,14	-0,100000001	3,46753669	-0,00027771913229011827	-0,09997887198152905	0,000346680405	-0,13746936340846643	0,0051291667782947398	0,13746936340846643
1	0	0	1	0	0	1	201444,14	-0,100000001	3,45936418	-0,00027771883536047402	-0,099978765089201677	0,000345862965	-0,13996883611693634	0,0052224254656245498	0,13996883611693634
1	0	0	1	0	0	1	201534,14	-0,100000001	3,45115328	-0,00027771932298814259	-0,099978940632807078	0,000345042645	-0,1424683072252347	0,005315684093249808	0,1424683072252347
1	0	0	1	0	0	1	201624,14	-0,100000001	3,44269443	-0,00027771867846904531	-0,099978708605968358	0,000344196131	-0,14496777306474819	0,0054089425242896186	0,14496777306474819
1	0	0	1	0	0	1	201714,14	-0,100000001	3,43394876	-0,00027771861635024346	-0,099978686243203174	0,000343321677	-0,14746723720746474	0,0055022008920196538	0,14746723720746474
1	0	0	1	0	0	1	201804,14	-0,100000001	3,42533708	-0,00027771763461290138	-0,099978332817815334	0,000342459476	-0,14996669978386022	0,0055954592013081453	0,14996669978386022
1	0	0	1	0	0	1	201894,14	-0,100000001	3,41628599	-0,00027771678586138618	-0,09997802726731767	0,000341553532	-0,15246615235173149	0,0056887171371651405	0,15246615235173149
1	0	0	1	0	0	1	201984,14	-0,100000001	3,40700603	-0,00027771736856756941	-0,09997823704151081	0,000340626459	-0,1549656099000729	0,0057819752588501734	0,1549656099000729
1	0	0	1	0	0	1	202074,14	-0,100000001	3,3976686	-0,00027771784783858394	-0,099978409579049037	0,000339693506	-0,15746506956750061	0,0058752334596011661	0,15746506956750061
1	0	0	1	0	0	1	202164,14	-0,100000001	3,3881402	-0,00027771750876804192	-0,099978287513673024	0,000338740443	-0,15996452919538186	0,0059684916588766259	0,15996452919538186
1	0	0	1	0	0	1	202254,14	-0,100000001	3,37849736	-0,00027771729288746912	-0,099978209796678976	0,000337776117	-0,16246398480338634	0,006061749708165079	0,16246398480338634
1	0	0	1	0	0	1	202344,14	-0,100000001	3,36858702	-0,00027771705656540061	-0,09997812472074761	0,000336785015	-0,16496344235399936	0,0061550078299348685	0,16496344235399936
1	0	0	1	0	0	1	202434,14	-0,100000001	3,3584857	-0,00027771794485756093	-0,099978444505875302	0,000335776189	-0,16746289975673696	0,0062482659461872282	0,16746289975673696
1	0	0	1	0	0	1	202524,14	-0,100000001	3,34834647	-0,00027771799049195318	-0,099978460934253939	0,000334762532	-0,16996235835391683	0,006341524107005833	0,16996235835391683
1	0	0	1	0	0	1	202614,14	-0,100000001	3,33797789	-0,00027771752958041098	-0,09997829500612471	0,000333725329	-0,1724618182021792	0,0064347823145040102	0,1724618182021792
1	0	0	1	0	0	1	202704,14	-0,100000001	3,32738018	-0,00027771732160076499	-0,099978220133463872	0,000332665542	-0,17496127824807898	0,0065280405293763034	0,17496127824807898
1	0	0	1	0	0	1	202794,14	-0,100000001	3,31657243	-0,00027771804091251555	-0,099978479085653542	0,000331585878	-0,17746073550305414	0,006621298640115447	0,17746073550305414
1	0	0	1	0	0	1	202884,14	-0,100000001	3,30542111	-0,00027771780518607962	-0,099978394224149888	0,000330470706	-0,17996019969466474	0,0067145570096697856	0,17996019969466474
1	0	0	1	0	0	1	202974,14	-0,100000001	3,29430771	-0,00027771763173780506	-0,099978331782780813	0,000329359376	-0,18245966040616131	0,0068078152493763917	0,18245966040616131
1	0	0	1	0	0	1	203064,14	-0,100000001	3,28283167	-0,00027771697918242877	-0,099978096862882125	0,000328211259	-0,18495911573631504	0,0069010732882978598	0,18495911573631504
1	0	0	1	0	0	1	203154,14	-0,100000001	3,27110744	-0,00027771712338634662	-0,099978148776284429	0,000327039277	-0,18745856934006618	0,0069943312628049254	0,18745856934006618
1	0	0	1	0	0	1	203244,14	-0,100000001	3,25923038	-0,00027771759069214262	-0,099978317006344653	0,000325852365	-0,18995802527191968	0,0070875893241766208	0,18995802527191968
1	0	0	1	0	0	1	203334,14	-0,100000001	3,24699068	-0,00027771827782690525	-0,09997856437482048	0,00032462948	-0,19245749031497606	0,0071808477254995456	0,19245749031497606
1	0	0	1	0	0	1	203424,14	-0,100000001	3,23463631	-0,00027771795889693827	-0,099978449560050355	0,000323393935	-0,1949569552346351	0,0072741061222183501	0,1949569552346351
1	0	0	1	0	0	1	203514,14	-0,100000001	3,22205257	-0,00027771860165397328	-0,099978680952546752	0,000322136562	-0,19745642367072314	0,007367364650139849	0,19745642367072314
1	0	0	1	0	0	1	203604,14	-0,100000001	3,20935464	-0,00027771822694233718	-0,099978546056378867	0,000320866617	-0,19995589011532554	0,0074606231037563418	0,19995589011532554
1	0	0	1	0	0	1	203694,14	-0,100000001	3,19612169	-0,00027771875560532016	-0,09997873637502295	0,000319544197	-0,20245535745661366	0,0075538815908293824	0,20245535745661366
1	0	0	1	0	0	1	203784,14	-0,100000001	3,18296552	-0,00027771836765069101	-0,099978596711378317	0,000318228413	-0,20495482918779133	0,0076471402416951066	0,20495482918779133
1	0	0	1	0	0	1	203874,14	-0,100000001	3,16938901	-0,00027771901925032339	-0,09997883128720928	0,000316871796	-0,20745430325568176	0,0077403989797467226	0,20745430325568176
1	0	0	1	0	0	1	203964,14	-0,100000001	3,15537333	-0,00027771991083232893	-0,09997915225668105	0,000315471552	-0,20995378019261606	0,0078336578248462246	0,20995378019261606
1	0	0	1	0	0	1	204054,14	-0,100000001	3,14114761	-0,00027771854040026662	-0,099978658901215808	0,000314047735	-0,21245324962673085	0,0079269163900054426	0,21245324962673085
1	0	0	1	0	0	1	204144,14	-0,100000001	3,12661624	-0,00027771970412880182	-0,099979077843422925	0,00031259621	-0,21495272256842083	0,0080201750860370086	0,21495272256842083
1	0	0	1	0	0	1	204234,14	-0,100000001	3,11166501	-0,00027771935704184906	-0,099978952892139482	0,000311101001	-0,21745219603203853	0,0081134338015423962	0,21745219603203853
1	0	0	1	0	0	1	204324,14	-0,100000001	3,09644628	-0,00027771915078618461	-0,099978878640111898	0,00030957922	-0,21995166916902227	0,0082066925048606362	0,21995166916902227
1	0	0	1	0	0	1	204414,14	-0,100000001	3,08084583	-0,00027771885024383664	-0,099978770444883558	0,000308019167	-0,22245113747439398	0,0082999510279049318	0,22245113747439398
1	0	0	1	0	0	1	204504,14	-0,100000001	3,06461525	-0,00027771908319534525	-0,09997885430741353	0,000306396716	-0,22495060699808874	0,0083932095964064998	0,22495060699808874
1	0	0	1	0	0	1	204594,14	-0,100000001	3,04794526	-0,00027771846806796064	-0,099978632861589722	0,000304729387	-0,22745007538820912	0,0084864681226128819	0,22745007538820912
1	0	0	1	0	0	1	204684,14	-0,100000001	3,03085542	-0,00027771844474722944	-0,099978624466127808	0,000303020759	-0,22994954271671904	0,0085797266092091507	0,22994954271671904
1	0	0	1	0	0	1	204774,14	-0,100000001	3,01321173	-0,00027771821331232787	-0,099978541149576269	0,000301256514	-0,23244900893063498	0,0086729850542184205	0,23244900893063498
1	0	0	1	0	0	1	204864,14	-0,100000001	2,99505234	-0,00027771864144007366	-0,099978695275540646	0,000299441424	-0,23494847632717325	0,0087662435433529203	0,23494847632717325
1	0	0	1	0	0	1	204954,14	-0,100000001	2,97641587	-0,00027771875768858525	-0,099978737124998272	0,000297578314	-0,23744794674776106	0,0088595021453187725	0,23744794674776106
1	0	0	1	0	0	1	205044,14	-0,100000001	2,95724463	-0,00027771901423318522	-0,099978829481039808	0,000295661855	-0,23994741632106512	0,0089527607156713306	0,23994741632106512
1	0	0	1	0	0	1	205134,14	-0,100000001	2,93729043	-0,00027771857694122525	-0,099978672055958848	0,00029366641	-0,24244688473263491	0,0090460192426780186	0,24244688473263491
1	0	0	1	0	0	1	205224,14	-0,100000001	2,91708803	-0,00027771922861991658	-0,099978906660251008	0,000291647273	-0,24494635668366058	0,0091392779017465677	0,24494635668366058
1	0	0	1	0	0	1	205314,14	-0,100000001	2,89612174	-0,00027771954585446253	-0,099979020864669696	0,000289551419	-0,24744582678679651	0,009232536491867863	0,24744582678679651
1	0	0	1	0	0	1	205404,14	-0,100000001	2,87462091	-0,00027771913159928387	-0,099978871732828723	0,000287401344	-0,24994529647721258	0,0093257950665900288	0,24994529647721258
1	0	0	1	0	0	1	205494,14	-0,100000001	2,85275722	-0,00027771892955857843	-0,099978798998186138	0,000285215239	-0,25244476616996637	0,009419053641399415	0,25244476616996637
1	0	0	1	0	0	1	205584,14	-0,100000001	2,83028245	-0,0002777190865654912	-0,099978855520665894	0,000282968394	-0,25494423424187578	0,0095123121557329203	0,25494423424187578
1	0	0	1	0	0	1	205674,14	-0,100000001	2,80725408	-0,00027771825146137011	-0,099978554883229338	0,000280665205	-0,25744370270112477	0,009605570684518583	0,25744370270112477
1	0	0	1	0	0	1	205764,14	-0,100000001	2,78361464	-0,00027771842621432406	-0,099978617794282918	0,000278301944	-0,25994316528767341	0,0096988289941859021	0,25994316528767341
1	0	0	1	0	0	1	205854,14	-0,100000001	2,75966954	-0,00027771778076928525	-0,099978385434105293	0,00027590731	-0,26244263082501706	0,0097920874139513498	0,26244263082501706
1	0	0	1	0	0	1	205944,14	-0,100000001	2,73538089	-0,000277717968997856	-0,09997845319638016	0,000273479149	-0,26494209197060477	0,0098853456698544781	0,26494209197060477
1	0	0	1	0	0	1	206034,14	-0,100000001	2,71074843	-0,00027771839889221722	-0,09997860795832599	0,000271016848	-0,26744155673018259	0,0099786040606004378	0,26744155673018259
1	0	0	1	0	0	1	206124,14	-0,100000001	2,68584871	-0,0002777184638724559	-0,099978631351208256	0,000268527481	-0,26994102148770749	0,0100718624512698	0,26994102148770749
1	0	0	1	0	0	1	206214,14	-0,100000001	2,66052866	-0,0002777174773775041	-0,099978276213081165	0,00026599507	-0,27244047848012048	0,010165120552212395	0,27244047848012048
1	0	0	1	0	0	1	206304,14	-0,100000001	2,63536167	-0,00027771770569599338	-0,099978358407724454	0,000263479131	-0,2749399355719847	0,010258378656865651	0,2749399355719847
1	0	0	1	0	0	1	206394,14	-0,100000001	2,6099081	-0,00027771801591623158	-0,09997847008699273	0,000260934612	-0,27743939648534032	0,010351636904103888	0,27743939648534032
1	0	0	1	0	0	1	206484,14	-0,100000001	2,58447385	-0,00027771836711963014	-0,099978596520196429	0,000258392072	-0,27993886305115008	0,010444895362242789	0,27993886305115008
1	0	0	1	0	0	1	206574,14	-0,100000001	2,55913472	-0,00027771792780235408	-0,099978438366001792	0,000255858293	-0,28243832868293389	0,010538153785531926	0,28243832868293389
1	0	0	1	0	0	1	206664,14	-0,100000001	2,53352857	-0,00027771804817020896	-0,099978481698422771	0,000253298349	-0,28493779141510662	0,010631412100632675	0,28493779141510662
1	0	0	1	0	0	1	206754,14	-0,100000001	2,50809407	-0,00027771811097363629	-0,099978504307653082	0,000250755489	-0,28743725746146352	0,010724670539390094	0,28743725746146352
1	0	0	1	0	0	1	206844,14	-0,100000001	2,48285055	-0,00027771912456841933	-0,099978869201717875	0,000248232594	-0,2899367237347072	0,010817928986612958	0,2899367237347072
1	0	0	1	0	0	1	206934,14	-0,100000001	2,45766449	-0,00027772044440110525	-0,09997934434141047	0,000245715695	-0,29243619648840166	0,01091118767563016	0,29243619648840166
1	0	0	1	0	0	1	207024,14	-0,100000001	2,4320581	-0,00027771841304542288	-0,099978613053479232	0,000243153801	-0,29493566470315571	0,011004446195293389	0,29493566470315571
1	0	0	1	0	0	1	207114,14	-0,100000001	2,40656662	-0,00027771855133978854	-0,099978662839443085	0,00024060531	-0,29743512999437056	0,01109770460587544	0,29743512999437056
1	0	0	1	0	0	1	207204,14	-0,100000001	2,38067389	-0,00027771820211534701	-0,099978537118663808	0,000238016291	-0,29993459612558291	0,011190963047798928	0,29993459612558291
1	0	0	1	0	0	1	207294,14	-0,100000001	2,35401726	-0,00027771828915427126	-0,099978568452671629	0,000235351283	-0,30243406228813293	0,011284221490891664	0,30243406228813293
1	0	0	1	0	0	1	207384,14	-0,100000001	2,32648253	-0,00027771919873522387	-0,099978895901763328	0,000232599152	-0,30493353310812269	0,011377480107759742	0,30493353310812269
1	0	0	1	0	0	1	207474,14	-0,100000001	2,29738188	-0,00027771896811574694	-0,099978812878764634	0,000229689511	-0,30743300227734163	0,011470738663035339	0,30743300227734163
1	0	0	1	0	0	1	207564,14	-0,100000001	2,26585603	-0,00027771874927025706	-0,099978734094400602	0,000226537421	-0,30993247125001549	0,011563997210977578	0,30993247125001549
1	0	0	1	0	0	1	207654,14	-0,100000001	2,23100781	-0,00027771898323545853	-0,099978818321859955	0,000223053532	-0,31243194189273626	0,01165725582123151	0,31243194189273626
1	0	0	1	0	0	1	207744,14	-0,100000001	2,1916151	-0,00027771931395886672	-0,099978937382268262	0,000219115347	-0,31493141857773664	0,011750514656931018	0,31493141857773664
1	0	0	1	0	0	1	207834,14	-0,100000001	2,14678025	-0,00027771910431732736	-0,099978861913653709	0,000214632644	-0,31743088942932448	0,011843773274978061	0,31743088942932448
1	0	0	1	0	0	1	207924,14	-0,100000001	2,09560585	-0,00027771923112869264	-0,099978907563410266	0,00020951638	-0,31993036181723808	0,011937031950347485	0,31993036181723808
1	0	0	1	0	0	1	208014,14	-0,100000001	2,03851223	-0,00027771950247014563	-0,099979005246318054	0,00020380842	-0,32242983506935853	0,012030290657961629	0,32242983506935853
1	0	0	1	0	0	1	208104,14	-0,100000001	1,97721744	-0,00027771877588331699	-0,099978743675100685	0,000197679721	-0,32492930461490214	0,012123549227278408	0,32492930461490214
1	0	0	1	0	0	1	208194,14	-0,100000001	1,91336405	-0,00027771872575663859	-0,099978725629499277	0,000191295694	-0,32742877359785626	0,012216807775604211	0,32742877359785626
1	0	0	1	0	0	1	208284,14	-0,100000001	1,84973991	-0,00027771904832207498	-0,099978841753038195	0,000184934848	-0,32992824158877997	0,012310066286916032	0,32992824158877997
1	0	0	1	0	0	1	208374,14	-0,100000001	1,7886734	-0,0002777194352394177	-0,099978981043259789	0,000178829738	-0,33242771780340166	0,012403325105065078	0,33242771780340166
1	0	0	1	0	0	1	208464,14	-0,100000001	1,73220968	-0,00027771916318270893	-0,099978883102859955	0,000173184395	-0,33492718942819443	0,012496583751961438	0,33492718942819443
1	0	0	1	0	0	1	208554,14	-0,100000001	1,67935503	-0,00027771837368276387	-0,099978598882924211	0,000167899561	-0,3374266575594473	0,012589842268509125	0,3374266575594473
1	0	0	1	0	0	1	208644,14	-0,100000001	1,62953639	-0,0002777177815573911	-0,09997838571782336	0,000162918412	-0,33992612038918573	0,012683100587250184	0,33992612038918573
1	0	0	1	0	0	1	208734,14	-0,100000001	1,58468246	-0,00027771784382106528	-0,099978408132742554	0,000158434035	-0,34242558403255827	0,012776358936349022	0,34242558403255827
1	0	0	1	0	0	1	208824,14	-0,100000001	1,54628265	-0,0002777182078651256	-0,09997853918858377	0,00015459508	-0,34492504836166899	0,012869617311033674	0,34492504836166899
1	0	0	1	0	0	1	208914,14	-0,100000001	1,5146997	-0,00027771795093143978	-0,09997844669247136	0,000151437329	-0,34742451371131213	0,012962875723795763	0,34742451371131213
1	1	0	0	0	0	2	208984,80	0,100000001	1,89988208	0,00027782347529174554	0,10001643545623762	0,000190019433	-0,34827581349038867	0,012994638863137835	0,00055565202143415808
1	1	0	0	0	0	2	209074,80	0,100000001	2,50062704	0,00027782379036727878	0,10001654888341184	0,000250104087	-0,3457753984753584	0,012901345017083315	0,0030560670364643962
1	1	0	0	0	0	2	209164,80	0,100000001	2,67526913	0,00027782291109984125	0,10001623234718384	0,000267570344	-0,34327498942228896	0,012808051393477568	0,0055564760895338323
1	1	0	0	0	0	2	209254,80	0,100000001	2,78412914	0,0002778231031642192	0,10001630149034909	0,00027845829	-0,34077457806651328	0,012714757683954755	0,0080568874453095078
1	1	0	0	0	0	2	209344,80	0,100000001	2,86417484	0,0002778232940774825	0,10001637021911312	0,000286464376	-0,33827416584054867	0,012621463941964019	0,010557299671274091
1	1	0	0	0	0	2	209434,80	0,100000001	2,92665339	0,00027782286657310195	0,10001621631756021	0,000292712793	-0,33577375572308467	0,01252817027864428	0,013057709788738022
1	1	0	0	0	0	2	209524,80	0,100000001	2,97672033	0,00027782267348840838	0,10001614680708138	0,000297720107	-0,33327334860892083	0,012434876727381709	0,015558116902901894
1	1	0	0	0	0	2	209614,80	0,100000001	3,01911092	0,00027782307650604179	0,10001629189340674	0,000301960274	-0,33077293974942496	0,012341583110998451	0,018058525762397792
1	1	0	0	0	0	2	209704,80	0,100000001	3,05722451	0,0002778238100115624	0,10001655595535283	0,000305773079	-0,32827252808719078	0,012248289390041259	0,020558937424631987
1	1	0	0	0	0	2	209794,80	0,100000001	3,09407759	0,00027782432094174954	0,10001673989019142	0,000309459545	-0,32577211029200077	0,01215499544025524	0,023059355219821955
1	1	0	0	0	0	2	209884,80	0,100000001	3,13112164	0,00027782427533177862	0,10001672347060448	0,000313164521	-0,3232716894602903	0,01206170137717256	0,025559776051532464
1	1	0	0	0	0	2	209974,80	0,100000001	3,16921616	0,00027782413926099741	0,10001667448513088	0,000316974474	-0,32077127030450432	0,011968407376620874	0,02806019520731849
1	1	0	0	0	0	2	210064,80	0,100000001	3,20868516	0,00027782394875917171	0,10001660590448437	0,000320921798	-0,3182708525828937	0,011875113429580202	0,030560612928929005
1	1	0	0	0	0	2	210154,80	0,100000001	3,2485745	0,00027782448256015776	0,1000167980728093	0,00032491202	-0,31577043409067392	0,011781819453787062	0,033061031421148934
1	1	0	0	0	0	2	210244,80	0,100000001	3,28796721	0,00027782469857235754	0,10001687583718902	0,000328852213	-0,31327001628969478	0,011688525503785042	0,035561449222128
1	1	0	0	0	0	2	210334,80	0,100000001	3,32516408	0,00027782420132226413	0,10001669682718342	0,000332571915	-0,31076959721432576	0,011595231506233822	0,038061868297497011
1	1	0	0	0	0	2	210424,80	0,100000001	3,35982156	0,00027782461592679219	0,10001684608479018	0,000336038764	-0,30826917692204678	0,011501937463278058	0,040562288589775968
1	1	0	0	0	0	2	210514,80	0,100000001	3,39142346	0,00027782461322016186	0,10001684511040339	0,000339199469	-0,30576875814898554	0,011408643477006346	0,043062707362837254
1	1	0	0	0	0	2	210604,80	0,100000001	3,4199512	0,00027782420237238211	0,10001669720522582	0,000342052226	-0,30326833924004429	0,01131534948566477	0,045563126271778502
1	1	0	0	0	0	2	210694,80	0,100000001	3,4454813	0,00027782440573680736	0,10001677041640746	0,000344605913	-0,3007679206238823	0,011222055505247182	0,048063544887940499
1	1	0	0	0	0	2	210784,80	0,100000001	3,46847153	0,00027782406048352518	0,10001664612524533	0,000346904882	-0,29826749936997517	0,011128761426411774	0,05056396614184768
1	1	0	0	0	0	2	210874,80	0,100000001	3,48922753	0,0002778241729177535	0,10001668660156118	0,000348980975	-0,29576708140647072	0,011035467470345718	0,053064384105352058
1	1	0	0	0	0	2	210964,80	0,100000001	3,50807428	0,00027782409634896454	0,10001665903680146	0,000350865856	-0,29326666289255386	0,010942173493743034	0,055564802619268909
1	1	0	0	0	0	2	211054,80	0,100000001	3,52533603	0,00027782333286065194	0,10001638418105194	0,000352591363	-0,29076624871097414	0,010848879678785672	0,058065216800848653
1	1	0	0	0	0	2	211144,80	0,100000001	3,54095578	0,00027782414930893315	0,1000166781023872	0,000354154647	-0,28826583434823392	0,01075558585706897	0,060565631163588826
1	1	0	0	0	0	2	211234,80	0,100000001	3,55539155	0,0002778244207580056	0,10001677582403798	0,000355598808	-0,28576541831333885	0,01066229197296192	0,063066047198483904
1	1	0	0	0	0	2	211324,80	0,100000001	3,56868148	0,00027782391075210445	0,10001659222194229	0,000356927369	-0,28326500085420986	0,010568998035714787	0,065566464657612954
1	1	0	0	0	0	2	211414,80	0,100000001	3,58094049	0,00027782348065492179	0,10001643738698077	0,000358152902	-0,28076458663175379	0,010475704219232275	0,068066878880069056
1	1	0	0	0	0	2	211504,80	0,100000001	3,5923593	0,00027782375896390941	0,10001653757820064	0,000359295344	-0,27826417541341203	0,010382410514837307	0,070567290098410918
1	1	0	0	0	0	2	211594,80	0,100000001	3,60312867	0,00027782292456510995	0,10001623719467982	0,00036037137	-0,27576376771830685	0,010289116941899032	0,073067697793516032
1	1	0	0	0	0	2	211684,80	0,100000001	3,61313438	0,00027782332112847104	0,10001637995746749	0,000361372629	-0,27326335776721277	0,010195823284786778	0,075568107744610163
1	1	0	0	0	0	2	211774,80	0,100000001	3,62277746	0,0002778235175696512	0,10001645067628128	0,000362337334	-0,27076294799492506	0,01010252963434603	0,078068517516897805
1	1	0	0	0	0	2	211864,80	0,100000001	3,63169479	0,00027782353938453728	0,10001645852963902	0,00036322925	-0,26826253512051328	0,010009235868160861	0,080568930391309594
1	1	0	0	0	0	2	211954,80	0,100000001	3,64024925	0,00027782331314227651	0,10001637708243789	0,000364084553	-0,26576212406156013	0,0099159421697128947	0,083069341450262861
1	1	0	0	0	0	2	212044,80	0,100000001	3,64840269	0,00027782397404892579	0,1000166150087944	0,000364900887	-0,26326171207911702	0,009822648436808279	0,085569753432706035
1	1	0	0	0	0	2	212134,80	0,100000001	3,65607882	0,00027782314465815824	0,1000163164281648	0,00036566754	-0,26076130421116262	0,0097293548574207654	0,088070161300660454
1	1	0	0	0	0	2	212224,80	0,100000001	3,66352606	0,0002778234384684927	0,10001642219986866	0,000366412773	-0,25826089331315059	0,0096360611649777306	0,090570572198672461
1	1	0	0	0	0	2	212314,80	0,100000001	3,67078209	0,00027782370031169722	0,10001651646340755	0,000367138826	-0,25576048339856022	0,009542767509227479	0,093070982113262848
1	1	0	0	0	0	2	212404,80	0,100000001	3,67784715	0,00027782344578786026	0,10001642483484058	0,000367845118	-0,25326007117025034	0,0094494737671492416	0,095571394341572723
1	1	0	0	0	0	2	212494,80	0,100000001	3,68468308	0,00027782382694549027	0,10001656205156592	0,000368529349	-0,25075965569327373	0,0093561799038588813	0,098071809818549312
1	1	0	0	0	0	2	212584,80	0,100000001	3,69100356	0,00027782418132490579	0,10001668962813554	0,000369161949	-0,24825924122926157	0,009262886078363584	0,1005722242825615
1	1	0	0	0	0	2	212674,80	0,100000001	3,69736218	0,00027782421112681424	0,1000167003568209	0,000369797955	-0,24575882511061072	0,0091695921911314944	0,1030726404012123
1	1	0	0	0	0	2	212764,80	0,100000001	3,70351076	0,00027782394706250893	0,10001660529368586	0,00037041257	-0,2432584107593593	0,0090762983698434547	0,1055730547524637
1	1	0	0	0	0	2	212854,80	0,100000001	3,70942998	0,00027782399487909344	0,10001662250765358	0,000371004659	-0,24075799515181584	0,0089830045016814682	0,10807347036000714
1	1	0	0	0	0	2	212944,80	0,100000001	3,71525407	0,00027782423623195952	0,10001670939467179	0,000371587492	-0,23825757961019261	0,0088897106359790566	0,11057388590163034
1	1	0	0	0	0	2	213034,80	0,100000001	3,72100163	0,0002778241012129519	0,10001666078783664	0,000372162147	-0,23575716146560227	0,0087964166731564403	0,11307430404622064
1	1	0	0	0	0	2	213124,80	0,100000001	3,72650099	0,00027782391400345498	0,1000165933924283	0,000372711947	-0,2332567445354735	0,0087031227556470182	0,11557472097634936
1	1	0	0	0	0	2	213214,80	0,100000001	3,7320385	0,000277824189050744	0,10001669240943685	0,000373266143	-0,23075632736821392	0,0086098288292899264	0,11807513814360893
1	1	0	0	0	0	2	213304,80	0,100000001	3,73742318	0,00027782427364173862	0,10001672286219016	0,000373804825	-0,2282559095605575	0,0085165348790387686	0,12057555595126538
1	1	0	0	0	0	2	213394,80	0,100000001	3,74269342	0,00027782465290402374	0,10001685939659142	0,000374332449	-0,22575549000220131	0,008423240863466647	0,12307597550962158
1	1	0	0	0	0	2	213484,80	0,100000001	3,74794459	0,0002778247027401295	0,10001687733758672	0,000374857715	-0,22325507038481702	0,0083299468456921101	0,12557639512700586
1	1	0	0	0	0	2	213574,80	0,100000001	3,75308108	0,0002778246942510208	0,10001687428150805	0,000375371426	-0,2207546475639489	0,0082366527083912806	0,12807681794787402
1	1	0	0	0	0	2	213664,80	0,100000001	3,7581985	0,0002778246718355351	0,10001686621193445	0,000375883246	-0,2182542253148809	0,0081433585924250867	0,130577240196942
1	1	0	0	0	0	2	213754,80	0,100000001	3,76327777	0,00027782454340408246	0,10001681997661874	0,000376391079	-0,21575380455349517	0,0080500645319663155	0,13307766095832774
1	1	0	0	0	0	2	213844,80	0,100000001	3,76808953	0,00027782475038948982	0,10001689449135374	0,000376872602	-0,21325338630956003	0,0079567705654370112	0,13557807920226286
1	1	0	0	0	0	2	213934,80	0,100000001	3,77311158	0,00027782484382763501	0,10001692812908074	0,000377375021	-0,21075295892807974	0,0078634762579736128	0,13807850658374315
1	1	0	0	0	0	2	214024,80	0,100000001	3,77799988	0,00027782556145058739	0,10001718647330317	0,000377864926	-0,20825253273967126	0,0077701819950253261	0,14057893277215163
1	1	0	0	0	0	2	214114,80	0,100000001	3,78271627	0,00027782457030937078	0,10001682966252101	0,000378335302	-0,20575211007826496	0,0076768878636742349	0,14307935543355794
1	1	0	0	0	0	2	214204,80	0,100000001	3,78752828	0,00027782456764413251	0,10001682870303541	0,000378816563	-0,20325169199061811	0,0075835939029762573	0,14557977352120477
1	1	0	0	0	0	2	214294,80	0,100000001	3,79218745	0,0002778244500189192	0,10001678635796522	0,000379282399	-0,20075127285281987	0,0074902999030957184	0,14808019265900301
1	1	0	0	0	0	2	214384,80	0,100000001	3,79696107	0,00027782364484088285	0,1000164964939175	0,000379758741	-0,19825085537734006	0,0073970059652385165	0,15058061013448282
1	1	0	0	0	0	2	214474,80	0,100000001	3,8016777	0,00027782361256207024	0,10001648487354678	0,000380230427	-0,19575044503104563	0,0073037122933808051	0,15308102048077725
1	1	0	0	0	0	2	214564,80	0,100000001	3,80624127	0,00027782375727800861	0,10001653697127643	0,000380687066	-0,19325002981876915	0,0072104184399667622	0,15558143569305373
1	1	0	0	0	0	2	214654,80	0,100000001	3,81072855	0,00027782343881949786	0,1000164223262305	0,00038113544	-0,1907496160363584	0,0071171246399029312	0,15808184947546451
1	1	0	0	0	0	2	214744,80	0,100000001	3,81529236	0,0002778238403304584	0,10001656687015368	0,000381592457	-0,1882492022776016	0,0070238308407216614	0,16058226323422131
1	1	0	0	0	0	2	214834,80	0,100000001	3,81981778	0,00027782326570567162	0,1000163600052628	0,000382044265	-0,18574879263086739	0,0069305371949654835	0,16308267288095552
1	1	0	0	0	0	2	214924,80	0,100000001	3,82445788	0,00027782423779865104	0,10001670995868064	0,000382509694	-0,18324837757740957	0,0068372433474771776	0,16558308793441334
1	1	0	0	0	0	2	215014,80	0,100000001	3,82886863	0,00027782464096115696	0,10001685509716008	0,000382951403	-0,18074795964347734	0,0067439493925144998	0,16808350586834557
1	1	0	0	0	0	2	215104,80	0,100000001	3,83337522	0,00027782472123702365	0,10001688399646755	0,00038340225	-0,17824754220066797	0,0066506554558762752	0,17058392331115494
1	1	0	0	0	0	2	215194,80	0,100000001	3,83805346	0,00027782394753396515	0,10001660546341008	0,000383869075	-0,1757471249376216	0,0065573615259452506	0,17308434057420131
1	1	0	0	0	0	2	215284,80	0,100000001	3,84242606	0,00027782384988955322	0,1000165703114273	0,000384306273	-0,17324671154642842	0,0064640677404782733	0,17558475396539446
1	1	0	0	0	0	2	215374,80	0,100000001	3,84710431	0,00027782308985168736	0,10001629669783837	0,000384773128	-0,17074630014956941	0,0063707740294225856	0,1780851653622535
1	1	0	0	0	0	2	215464,80	0,100000001	3,85157251	0,00027782358658065402	0,10001647552023838	0,000385220716	-0,16824589030412205	0,0062774803762521523	0,18058557520770086
1	1	0	0	0	0	2	215554,80	0,100000001	3,85617447	0,00027782334218505357	0,100016387537836	0,000385680643	-0,16574547868649738	0,0061841866569594022	0,1830859868253255
1	1	0	0	0	0	2	215644,80	0,100000001	3,86081457	0,00027782376562886765	0,10001653997758523	0,000386145315	-0,16324506439405587	0,0060908928378656371	0,18558640111776704
1	1	0	0	0	0	2	215734,80	0,100000001	3,86522555	0,000277823078698996	0,10001629268287013	0,00038658554	-0,1607446533162593	0,0059975991387145984	0,18808681219556362
1	1	0	0	0	0	2	215824,80	0,100000001	3,8699038	0,00027782293737183011	0,10001624180509837	0,000387053238	-0,15824424367136083	0,0059043054930269146	0,19058722184046205
1	1	0	0	0	0	2	215914,80	0,100000001	3,87458205	0,00027782399408229523	0,10001662222080629	0,000387522596	-0,15574383077621827	0,0058110117260682534	0,19308763473560464
1	1	0	0	0	0	2	216004,80	0,100000001	3,8792603	0,00027782326757493942	0,10001636067819912	0,000387989508	-0,15324342054899277	0,0057177180586531642	0,19558804496283014
1	1	0	0	0	0	2	216094,80	0,100000001	3,88395762	0,00027782367469370365	0,1000165072409313	0,000388459885	-0,15074300898365504	0,0056244243413113094	0,19808845652816784
1	1	0	0	0	0	2	216184,80	0,100000001	3,88876939	0,00027782448334371053	0,10001679835488822	0,000388942251	-0,14824259539960445	0,0055311305486485626	0,20058887011221843
1	1	0	0	0	0	2	216274,80	0,100000001	3,89346671	0,00027782411910303763	0,10001666722826651	0,000389411551	-0,14574217678865075	0,0054378365684253037	0,20308928872317213
1	1	0	0	0	0	2	216364,80	0,100000001	3,89822149	0,00027782445552407043	0,10001678833981936	0,000389887602	-0,14324175802393618	0,0053445425824650189	0,20558970748788669
1	1	0	0	0	0	2	216454,80	0,100000001	3,90330076	0,00027782415879807542	0,10001668151847786	0,000390395202	-0,14074134051570533	0,005251248643385831	0,20809012499611754
1	1	0	0	0	0	2	216544,80	0,100000001	3,90818906	0,00027782431393530637	0,10001673736787227	0,000390884321	-0,13824092146208869	0,0051579546466462221	0,21059054404973418
1	1	0	0	0	0	2	216634,80	0,100000001	3,91317272	0,00027782326978238096	0,10001636147287792	0,000391381298	-0,13574050691909789	0,0050646608182041274	0,21309095859272499
1	1	0	0	0	0	2	216724,80	0,100000001	3,91821384	0,00027782490422783629	0,10001694987314979	0,000391887792	-0,13324008828645517	0,0049713668371716205	0,21559137722536771
1	1	0	0	0	0	2	216814,80	0,100000001	3,92312121	0,00027782471903910237	0,10001688320521602	0,000392378366	-0,13073966571860123	0,0048780727093110931	0,21809179979322163
1	1	0	0	0	0	2	216904,80	0,100000001	3,92829585	0,00027782528562719619	0,10001708717689789	0,000392896705	-0,12823924211316872	0,0047847785427371136	0,22059222339865414
1	1	0	0	0	0	2	216994,80	0,100000001	3,93335605	0,00027782468838782778	0,10001687217075888	0,000393401977	-0,12573881921308638	0,0046914844024806976	0,22309264629873648
1	1	0	0	0	0	2	217084,80	0,100000001	3,93851161	0,00027782486028679539	0,10001693405437757	0,000393917842	-0,12323839548839613	0,0045981902314570515	0,22559307002342672
1	1	0	0	0	0	2	217174,80	0,100000001	3,94362903	0,00027782527563348413	0,1000170835791621	0,000394430273	-0,12073797368047741	0,0045048961319507283	0,22809349183134538
1	1	0	0	0	0	2	217264,80	0,100000001	3,94886112	0,0002778249621536169	0,10001697072642755	0,000394953124	-0,11823755181764176	0,0044116020303953792	0,23059391369418109
1	1	0	0	0	0	2	217354,80	0,100000001	3,95424581	0,00027782508449421987	0,10001701476903773	0,000395491865	-0,1157371284387648	0,0043183078722744928	0,23309433707305802
1	1	0	0	0	0	2	217444,80	0,100000001	3,9597261	0,00027782452755007478	0,10001681426917686	0,000396039191	-0,11323670483014429	0,0042250137055815642	0,23559476068167856
1	1	0	0	0	0	2	217534,80	0,100000001	3,96530175	0,00027782472294362058	0,10001688461084235	0,000396597141	-0,11073628305751114	0,0041317196073917939	0,23809518245431171
1	1	0	0	0	0	2	217624,80	0,100000001	3,97072482	0,00027782528615825709	0,10001708736807978	0,000397140335	-0,10823585824096022	0,0040384253956293581	0,24059560727086262
1	1	0	0	0	0	2	217714,80	0,100000001	3,9764533	0,00027782555096927622	0,10001718270003173	0,000397713651	-0,10573543118433182	0,0039451311002866202	0,24309603432749104
1	1	0	0	0	0	2	217804,80	0,100000001	3,98195267	0,00027782519886187386	0,10001705594138672	0,00039826319	-0,10323499872965349	0,0038518366035353805	0,24559646678216941
1	1	0	0	0	0	2	217894,80	0,100000001	3,98781466	0,0002778247495703399	0,10001689419645981	0,000398848846	-0,10073457341734096	0,0037585423732754125	0,24809689209448192
1	1	0	0	0	0	2	217984,80	0,100000001	3,99365783	0,00027782539800471728	0,10001712763279914	0,000399434182	-0,098234146455263744	0,0036652480814605062	0,25059731905655907
1	1	0	0	0	0	2	218074,80	0,100000001	3,9992907	0,00027782576453189059	0,10001725958256088	0,000399998098	-0,095733714558398362	0,0035719536055220186	0,25309775095342445
1	1	0	0	0	0	2	218164,80	0,100000001	4,00517225	0,0002778246913833751	0,10001687324915576	0,000400584802	-0,093233290625339802	0,0034786594267238707	0,25559817488648301
1	1	0	0	0	0	2	218254,80	0,100000001	4,011168	0,00027782488507694672	0,10001694297883062	0,000401184749	-0,090732868814260826	0,0033853653270996339	0,25809859669756208
1	1	0	0	0	0	2	218344,80	0,100000001	4,01701117	0,00027782483866852186	0,1000169262718003	0,000401769095	-0,088232444430484339	0,0032920711314845939	0,26059902108133853
1	1	0	0	0	0	2	218434,80	0,100000001	4,02312136	0,00027782512554153805	0,10001702954606997	0,000402380654	-0,085732017945152397	0,0031987768574576947	0,26309944756667043
1	1	0	0	0	0	2	218524,80	0,100000001	4,02907896	0,00027782517850978502	0,10001704861463589	0,000402976584	-0,083231591222891994	0,0031054825745906758	0,26559987428893078
1	1	0	0	0	0	2	218614,80	0,100000001	4,03507471	0,00027782488457486032	0,10001694279807954	0,000403575832	-0,080731168394287219	0,003012188437001184	0,26810029711753552
1	1	0	0	0	0	2	218704,80	0,100000001	4,0411849	0,00027782471609198381	0,10001688214425352	0,000404186721	-0,078230743710712218	0,0029188942302002586	0,27060072180111056
1	1	0	0	0	0	2	218794,80	0,100000001	4,0472765	0,0002778245276208553	0,10001681429465787	0,00040479569	-0,07573032414278656	0,0028256002142710883	0,27310114136903629
1	1	0	0	0	0	2	218884,80	0,100000001	4,05350113	0,00027782505887912378	0,10001700554760459	0,000405419036	-0,073229899997963046	0,0027323060275717053	0,27560156551385984
1	1	0	0	0	0	2	218974,80	0,100000001	4,05968809	0,0002778246836418079	0,100016870462192	0,000406037288	-0,070729474105335974	0,0026390117756594214	0,27810199140648688
1	1	0	0	0	0	2	219064,80	0,100000001	4,06576014	0,00027782439702376723	0,1000167672797135	0,000406644191	-0,068229052299309312	0,0025457176762236938	0,28060241321251357
1	1	0	0	0	0	2	219154,80	0,100000001	4,07206154	0,0002778246608016392	0,10001686223973256	0,000407274812	-0,065728631919858138	0,0024524236300154154	0,28310283359196464
1	1	0	0	0	0	2	219244,80	0,100000001	4,07821035	0,00027782449397279158	0,10001680218135683	0,000407889573	-0,063228211721802957	0,002359129590575265	0,28560325379001987
1	1	0	0	0	0	2	219334,80	0,100000001	4,08433962	0,00027782519112610154	0,10001705315650914	0,000408503605	-0,060727788393342451	0,0022658354343354832	0,28810367711848035
1	1	0	0	0	0	2	219424,80	0,100000001	4,09054565	0,00027782543134482368	0,10001713963523555	0,000409124681	-0,058227364521800013	0,0021725412578325846	0,29060410099002272
1	1	0	0	0	0	2	219514,80	0,100000001	4,09665585	0,0002778248562816944	0,10001693261254142	0,000409734959	-0,055726940922684749	0,0020792470914943101	0,29310452458913798
1	1	0	0	0	0	2	219604,80	0,100000001	4,10274696	0,00027782547080102896	0,10001715383946723	0,000410345063	-0,053226517948853677	0,0019859529484862298	0,29560494756296909
1	1	0	0	0	0	2	219694,80	0,100000001	4,10887671	0,00027782459687979686	0,10001683922787291	0,000410956854	-0,05072609271694409	0,0018926587212262035	0,29810537279487859
1	1	0	0	0	0	2	219784,80	0,100000001	4,11487246	0,00027782496536688672	0,10001697188320451	0,000411557092	-0,048225668434562163	0,0017993645293943312	0,30060579707726054
1	1	0	0	0	0	2	219874,80	0,100000001	4,12100172	0,00027782459113622701	0,1000168371601881	0,000412169553	-0,045725244333715283	0,0017060703443357757	0,30310622117810746
1	1	0	0	0	0	2	219964,80	0,100000001	4,1269021	0,00027782502813844221	0,10001699448096094	0,000412760332	-0,043224820640434202	0,001612776174484048	0,30560664487138861
1	1	0	0	0	0	2	220054,80	0,100000001	4,13274527	0,00027782506894734176	0,10001700917216246	0,000413344824	-0,040724396679371386	0,0015194819946410237	0,30810706883245146
1	1	0	0	0	0	2	220144,80	0,100000001	4,1386075	0,00027782472704309558	0,10001688608665312	0,000413930626	-0,03822397449977799	0,0014261878812670186	0,3106074910120448
1	1	0	0	0	0	2	220234,80	0,100000001	4,14433575	0,00027782508342216413	0,10001701438309771	0,000414504088	-0,035723548141487968	0,001332893611980224	0,31310791737033485
1	1	0	0	0	0	2	220324,80	0,100000001	4,15010262	0,00027782552875743974	0,10001717470377187	0,000415081537	-0,033223118697197267	0,001239599227550595	0,3156083468146256
1	1	0	0	0	0	2	220414,80	0,100000001	4,15573549	0,00027782536788450352	0,10001711678952387	0,000415644696	-0,030722690188315373	0,0011463048780223261	0,31810877532350739
1	1	0	0	0	0	2	220504,80	0,100000001	4,16112041	0,00027782594944702256	0,10001732615199798	0,000416184135	-0,028222263062992634	0,0010530105801165098	0,32060920244883021
1	1	0	0	0	0	2	220594,80	0,100000001	4,16654301	0,00027782545166504048	0,10001714695051248	0,000416725758	-0,025721833420957731	0,00095971618830877875	0,32310963209086522
1	1	0	0	0	0	2	220684,80	0,100000001	4,17187071	0,00027782528586230342	0,10001708726153648	0,000417258358	-0,023221400786073862	0,00086642168483382886	0,32561006472574899
1	1	0	0	0	0	2	220774,80	0,100000001	4,17694998	0,00027782442577472989	0,10001677763005843	0,000417765084	-0,020720975843527024	0,00077312746837031616	0,32811048966829587
1	1	0	0	0	0	2	220864,80	0,100000001	4,18210554	0,00027782426536124614	0,10001671988121333	0,000418280484	-0,018220550113611533	0,00067983322252902016	0,33061091539821139
1	1	0	0	0	0	2	220954,80	0,100000001	4,18693638	0,00027782493198373251	0,10001695986527088	0,000418764655	-0,01572012210869063	0,00058653889180421363	0,33311134340313229
1	1	0	0	0	0	2	221044,80	0,100000001	4,19176769	0,00027782516910756627	0,10001704522983766	0,000419248216	-0,013219693382467024	0,00049324453416663347	0,33561177212935597
1	1	0	0	0	0	2	221134,80	0,100000001	4,19589281	0,00027782574243595206	0,10001725162802426	0,000419661665	-0,010719263095414666	0,00039995011829243392	0,33811220241640826
1	1	0	0	0	0	2	221214,62	0,100000001	4,19997931	0,00027261290810546938	0,10001694953882077	0,000420069118	-0,0085018703051621171	0,00031721621197179706	0,34032959520666086