File: Experimentelles/Rohdaten/Batterietests/AlteZelle/Studenten_Batterietests/Sonstige/ECLab-Export/S vs Li_05_GCPL_C02_loop9.mpt
EC-Lab ASCII FILE
Nb header lines : 3
mode	ox/red	error	control changes	Ns changes	counter inc.	Ns	time/s	control/V/mA	Ewe/V	dq/mA.h	<I>/mA	P/W	(Q-Qo)/mA.h	x	Capacity/mA.h
1	0	0	1	1	0	1	598530,59	-0,100000001	2,72797465	0	0	0	0	0	0
1	0	0	1	0	0	1	598750,59	-0,100000001	2,22537208	-0,00027771182099233069	-0,099974378231285683	0,000222480186	-0,0061082929201139059	0,00022790862153662694	0,0061082929201139059
1	0	0	1	0	0	1	598970,60	-0,100000001	2,20973182	-0,00027771278576221734	-0,099974725541923059	0,000220917325	-0,012217962132684941	0,0004558685943952743	0,012217962132684941
1	0	0	1	0	0	1	599190,60	-0,100000001	2,2024076	-0,00027771275311915411	-0,099974713790640973	0,000220185073	-0,018327644174060102	0,00068382904591385203	0,018327644174060102
1	0	0	1	0	0	1	599410,60	-0,100000001	2,194664	-0,00027771191054955126	-0,099974410471279693	0,000219410242	-0,024437311515848714	0,00091178894897109184	0,024437311515848714
1	0	0	1	0	0	1	599630,61	-0,100000001	2,18760681	-0,0002777113462434047	-0,099974207324881626	0,000218704256	-0,030546970178444397	0,0011397485281959741	0,030546970178444397
1	0	0	1	0	0	1	599850,61	-0,100000001	2,1808548	-0,00027771093211778336	-0,099974058242457434	0,000218028901	-0,036656616439136832	0,001367707644689172	0,036656616439136832
1	0	0	1	0	0	1	600070,62	-0,100000001	2,18201828	-0,00027771260139553082	-0,099974659171162214	0,000218146539	-0,042766273607912211	0,0015956671681776102	0,042766273607912211
1	0	0	1	0	0	1	600290,62	-0,100000001	2,17471313	-0,00027771237632383901	-0,099974578142219315	0,000217416033	-0,048875950706755584	0,0018236274352836819	0,048875950706755584
1	0	0	1	0	0	1	600510,62	-0,100000001	2,17055511	-0,0002777116912888984	-0,099974331535435366	0,00021699979	-0,054985624306021114	0,0020515875718157984	0,054985624306021114
1	0	0	1	0	0	1	600730,63	-0,100000001	2,16738892	-0,00027771165766939523	-0,099974319433805312	0,000216683227	-0,061095278778725261	0,0022795469947101942	0,061095278778725261
1	0	0	1	0	0	1	600950,63	-0,100000001	2,16439438	-0,00027771284121688867	-0,099974745505229862	0,000216384782	-0,067204955440989427	0,0025075072455269082	0,067204955440989427
1	0	0	1	0	0	1	601170,64	-0,100000001	2,16103745	-0,00027771405013319517	-0,099975180706927949	0,000216050103	-0,073314638922200896	0,0027354677507677149	0,073314638922200896
1	0	0	1	0	0	1	601390,64	-0,100000001	2,15859628	-0,00027771290769055488	-0,099974769435300339	0,000215805165	-0,079424329691753664	0,0029634285279463341	0,079424329691753664
1	0	0	1	0	0	1	601610,65	-0,100000001	2,15586877	-0,00027771253874649603	-0,09997463661793321	0,0002155322	-0,085534010654101824	0,0031913889392049638	0,085534010654101824
1	0	0	1	0	0	1	601830,65	-0,100000001	2,15472436	-0,00027771282863741117	-0,099974740976703002	0,000215418011	-0,09164369728278208	0,0034193495618820627	0,09164369728278208
1	0	0	1	0	0	1	602050,65	-0,100000001	2,15062356	-0,00027771079178237254	-0,099974007722658189	0,000215006454	-0,097753354940244365	0,0036473091036040666	0,097753354940244365
1	0	0	1	0	0	1	602270,66	-0,100000001	2,14799142	-0,00027771307389976253	-0,099974829269491533	0,000214745072	-0,10386301982975965	0,0038752689151636915	0,10386301982975965
1	0	0	1	0	0	1	602490,66	-0,100000001	2,14474893	-0,000277712703914692	-0,099974696077367219	0,000214420623	-0,10997270391319738	0,004103229442874368	0,10997270391319738
1	0	0	1	0	0	1	602710,67	-0,100000001	2,14053369	-0,00027771297483022013	-0,099974793605125965	0,000213999418	-0,11608239254994275	0,0043311901404750771	0,11608239254994275
1	0	0	1	0	0	1	602930,67	-0,100000001	2,13561273	-0,00027771317376900051	-0,09997486522174208	0,000213507592	-0,12219207835252957	0,0045591507323295187	0,12219207835252957
1	0	0	1	0	0	1	603150,67	-0,100000001	2,13362908	-0,00027771311080455782	-0,099974842554968358	0,000213309235	-0,12830176540104757	0,004787111370671328	0,12830176540104757
1	0	0	1	0	0	1	603370,68	-0,100000001	2,12769723	-0,00027771277401637699	-0,099974721313499917	0,000212715939	-0,13441145840759741	0,0050150722313153158	0,13441145840759741
1	0	0	1	0	0	1	603590,68	-0,100000001	2,12313867	-0,00027771347867449123	-0,099974974981002227	0,00021226074	-0,14052114415933445	0,0052430328212724838	0,14052114415933445
1	0	0	1	0	0	1	603810,69	-0,100000001	2,11981988	-0,00027771371636249949	-0,099975060549406106	0,000211929117	-0,14663084115724774	0,0054709938308396083	0,14663084115724774
1	0	0	1	0	0	1	604030,69	-0,100000001	2,1195147	-0,00027771283226832749	-0,099974742281480666	0,000211897932	-0,15274053450052742	0,00569895470404744	0,15274053450052742
1	0	0	1	0	0	1	604250,69	-0,100000001	2,11549044	-0,00027771278132125738	-0,099974723938552141	0,000211495571	-0,15885021477902986	0,0059269150897908659	0,15885021477902986
1	0	0	1	0	0	1	604470,70	-0,100000001	2,11205721	-0,00027771244237489171	-0,09997460192480713	0,000211152073	-0,16495989761296595	0,0061548755708809574	0,16495989761296595
1	0	0	1	0	0	1	604690,70	-0,100000001	2,10484743	-0,00027771294090110394	-0,099974781390873498	0,000210431666	-0,17106957596214624	0,0063828358846387802	0,17106957596214624
1	0	0	1	0	0	1	604910,71	-0,100000001	2,10063219	-0,00027771215049467152	-0,099974496849900966	0,000210009646	-0,17717924778479757	0,0066107959548830323	0,17717924778479757
1	0	0	1	0	0	1	605130,71	-0,100000001	2,09622622	-0,00027771288338137997	-0,099974760684161715	0,000209569713	-0,18328892942830509	0,0068387563915566336	0,18328892942830509
1	0	0	1	0	0	1	605350,72	-0,100000001	2,09246874	-0,00027771190943403376	-0,099974410069700928	0,000209193327	-0,18939860402299382	0,0070667165652293286	0,18939860402299382
1	0	0	1	0	0	1	605570,72	-0,100000001	2,08688021	-0,00027771247804330454	-0,099974614765194624	0,000208635043	-0,19550828031831155	0,0072946768023547776	0,19550828031831155
1	0	0	1	0	0	1	605790,72	-0,100000001	2,07898378	-0,0002777125876160959	-0,099974654210658816	0,000207845689	-0,20161795882126608	0,0075226371218501248	0,20161795882126608
1	0	0	1	0	0	1	606010,73	-0,100000001	2,07341456	-0,00027771303665058483	-0,09997481586003936	0,000207289238	-0,20772763474418675	0,0077505973450809395	0,20772763474418675
1	0	0	1	0	0	1	606230,73	-0,100000001	2,06799769	-0,00027771258340734576	-0,099974652695537203	0,000206747354	-0,21383731500803184	0,0079785577302774797	0,21383731500803184
1	0	0	1	0	0	1	606450,74	-0,100000001	2,06033015	-0,00027771205461935869	-0,099974462335436454	0,000205980396	-0,21994699108327683	0,0082065179591917197	0,21994699108327683
1	0	0	1	0	0	1	606670,74	-0,100000001	2,05237651	-0,00027771186921745536	-0,099974395592004582	0,000205185104	-0,22605665723963875	0,008434477818019095	0,22605665723963875
1	0	0	1	0	0	1	606890,74	-0,100000001	2,04417491	-0,00027771154325579606	-0,099974278243355392	0,000204364915	-0,23216632491604077	0,0086624377335612122	0,23216632491604077
1	0	0	1	0	0	1	607110,75	-0,100000001	2,03557301	-0,00027771251675610742	-0,099974628698050445	0,000203505653	-0,23827599507671475	0,0088903977417948544	0,23827599507671475
1	0	0	1	0	0	1	607330,75	-0,100000001	2,02639866	-0,00027771201918936438	-0,099974449578550349	0,000202588097	-0,24438566304534304	0,0091183576682403251	0,24438566304534304
1	0	0	1	0	0	1	607550,76	-0,100000001	2,01789188	-0,00027771277262891331	-0,09997472080936704	0,000201738178	-0,25049532249778966	0,0093463172769356083	0,25049532249778966
1	0	0	1	0	0	1	607770,76	-0,100000001	2,00991917	-0,00027771240727975968	-0,099974589290796838	0,000200940849	-0,25660500310596624	0,0095742776749796198	0,25660500310596624
1	0	0	1	0	0	1	607990,77	-0,100000001	2,00049686	-0,00027771308711171152	-0,099974834025703859	0,00019999934	-0,26271469694656058	0,0098022385667429299	0,26271469694656058
1	0	0	1	0	0	1	608210,77	-0,100000001	1,99324906	-0,00027771240441335571	-0,099974588258910784	0,000199274247	-0,26882437571244189	0,010030198896048427	0,26882437571244189
1	0	0	1	0	0	1	608430,77	-0,100000001	1,98659241	-0,00027771222032234074	-0,09997452198738985	0,000198608628	-0,27493405375234621	0,010258159198266749	0,27493405375234621
1	0	0	1	0	0	1	608650,78	-0,100000001	1,98132813	-0,0002777122931190663	-0,099974548193718938	0,000198082387	-0,28104372725563248	0,01048611933121775	0,28104372725563248
1	0	0	1	0	0	1	608870,78	-0,100000001	1,97835267	-0,00027771222400541107	-0,099974523313270272	0,000197784859	-0,28715340163536912	0,010714079496870293	0,28715340163536912
1	0	0	1	0	0	1	609090,79	-0,100000001	1,97367978	-0,00027771228727449971	-0,099974546089714483	0,000197317742	-0,29326307499158259	0,010942039624333811	0,29326307499158259
1	0	0	1	0	0	1	609310,79	-0,100000001	1,97079968	-0,00027771316644839117	-0,099974862586372211	0,000197030429	-0,29937275148498803	0,011169999868850179	0,29937275148498803
1	0	0	1	0	0	1	609530,79	-0,100000001	1,96927381	-0,00027771215979009869	-0,099974500196191898	0,000196877168	-0,30548243320270765	0,011397960308292733	0,30548243320270765
1	0	0	1	0	0	1	609750,80	-0,100000001	1,96774793	-0,00027771270334265299	-0,099974695871437056	0,000196724999	-0,31159210728666739	0,011625920462909445	0,31159210728666739
1	0	0	1	0	0	1	609970,80	-0,100000001	1,9658215	-0,00027771227423888112	-0,099974541396979904	0,000196532099	-0,31770177170752416	0,011853880256982789	0,31770177170752416
1	0	0	1	0	0	1	610190,81	-0,100000001	1,96379972	-0,0002777126337699592	-0,09997467082108224	0,000196330235	-0,32381144311753478	0,012081840311830861	0,32381144311753478
1	0	0	1	0	0	1	610410,81	-0,100000001	1,96233106	-0,00027771200388794144	-0,09997444406897769	0,000196182955	-0,32992111125396877	0,01230980024453739	0,32992111125396877
1	0	0	1	0	0	1	610630,81	-0,100000001	1,96109128	-0,00027771258724273907	-0,09997465407392521	0,000196059424	-0,33603077649705754	0,012537760069289315	0,33603077649705754
1	0	0	1	0	0	1	610850,82	-0,100000001	1,96008039	-0,00027771295022757517	-0,099974784743684749	0,000195958608	-0,34214046051636448	0,012765720594607189	0,34214046051636448
1	0	0	1	0	0	1	611070,82	-0,100000001	1,9598515	-0,00027771212181200586	-0,099974486524335219	0,00019593515	-0,3482501321830144	0,012993680659030818	0,3482501321830144
1	0	0	1	0	0	1	611290,83	-0,100000001	1,96017575	-0,00027771282867259446	-0,099974740989368742	0,000195968067	-0,35435980532445165	0,013221640778480747	0,35435980532445165
1	0	0	1	0	0	1	611510,83	-0,100000001	1,96065259	-0,00027771270647272467	-0,09997469699824169	0,000196015651	-0,36046948915499904	0,013449601296755746	0,36046948915499904
1	0	0	1	0	0	1	611730,84	-0,100000001	1,95884061	-0,00027771268592278163	-0,099974689600401114	0,00019583448	-0,36657917521594931	0,013677561898250074	0,36657917521594931
1	0	0	1	0	0	1	611950,84	-0,100000001	1,95548368	-0,00027771218122210768	-0,099974507911570253	0,00019549852	-0,37268885786896166	0,013905522372589658	0,37268885786896166
1	0	0	1	0	0	1	612170,84	-0,100000001	1,95414853	-0,00027771181919508506	-0,099974377584289408	0,000195364788	-0,37879853001719174	0,014133482454981691	0,37879853001719174
1	0	0	1	0	0	1	612390,85	-0,100000001	1,95411038	-0,00027771244316299757	-0,09997460220851991	0,000195361412	-0,38490819567376986	0,014361442295161459	0,38490819567376986
1	0	0	1	0	0	1	612610,85	-0,100000001	1,95367181	-0,00027771178433547414	-0,099974365035065139	0,000195317101	-0,3910178802086905	0,014589402839717574	0,3910178802086905
1	0	0	1	0	0	1	612830,86	-0,100000001	1,95220315	-0,00027771345883690646	-0,099974967844261184	0,000195171451	-0,39712755535702202	0,014817363034047424	0,39712755535702202
1	0	0	1	0	0	1	613050,86	-0,100000001	1,95163095	-0,00027771330333790848	-0,099974911865673062	0,000195114131	-0,40323724076732787	0,015045323611265338	0,40323724076732787
1	0	0	1	0	0	1	613270,86	-0,100000001	1,95027673	-0,00027771247306052179	-0,099974612971426522	0,000194978158	-0,40934692508869658	0,015273284147853539	0,40934692508869658
1	0	0	1	0	0	1	613490,87	-0,100000001	1,94838846	-0,00027771269587510163	-0,09997469317851369	0,000194789536	-0,41545659573951475	0,015501244174375123	0,41545659573951475
1	0	0	1	0	0	1	613710,87	-0,100000001	1,948789	-0,00027771161277592182	-0,099974303272458381	0,000194828826	-0,42156626438035264	0,015729204125901635	0,42156626438035264
1	0	0	1	0	0	1	613930,88	-0,100000001	1,9469198	-0,0002777136173658073	-0,09997502491010231	0,000194643362	-0,42767595129043507	0,015957164759078227	0,42767595129043507
1	0	0	1	0	0	1	614150,88	-0,100000001	1,94894159	-0,00027771392598210112	-0,099975136008718003	0,000194845707	-0,43378564579008493	0,016185125675431786	0,43378564579008493
1	0	0	1	0	0	1	614370,89	-0,100000001	1,94472635	-0,00027771204634590282	-0,099974459357048269	0,000194422959	-0,43989532271725869	0,01641308593613263	0,43989532271725869
1	0	0	1	0	0	1	614590,89	-0,100000001	1,94272363	-0,00027771141568240189	-0,0999742323224512	0,000194222303	-0,44600498552517325	0,016641045670024934	0,44600498552517325
1	0	0	1	0	0	1	614810,89	-0,100000001	1,94287622	-0,00027771191104667053	-0,09997441065023927	0,000194237902	-0,45211464898926547	0,016869005428400109	0,45211464898926547
1	0	0	1	0	0	1	615030,90	-0,100000001	1,94230402	-0,00027771192674049069	-0,099974416299908442	0,000194180713	-0,45822430939043834	0,017096965072493645	0,45822430939043834
1	0	0	1	0	0	1	615250,90	-0,100000001	1,94236124	-0,00027771285898362598	-0,099974751901135194	0,000194187087	-0,46433398390562022	0,017324925243199834	0,46433398390562022
1	0	0	1	0	0	1	615470,91	-0,100000001	1,94127405	-0,00027771252514546112	-0,099974631721652582	0,000194078151	-0,47044365693666054	0,017552885358530701	0,47044365693666054
1	0	0	1	0	0	1	615690,91	-0,100000001	1,94005334	-0,00027771223063353034	-0,099974525699348403	0,000193955915	-0,47655333296588627	0,017780845585727901	0,47655333296588627
1	0	0	1	0	0	1	615910,91	-0,100000001	1,93991983	-0,00027771229948765699	-0,09997455048636855	0,000193942615	-0,48266300850323066	0,018008805794572346	0,48266300850323066
1	0	0	1	0	0	1	616130,92	-0,100000001	1,93845117	-0,00027771277341163824	-0,09997472109579808	0,000193796121	-0,48877268712886605	0,018236766118645082	0,48877268712886605
1	0	0	1	0	0	1	616350,92	-0,100000001	1,9383558	-0,00027771334532938074	-0,099974926982319219	0,000193786982	-0,49488236911989933	0,018464726568285338	0,49488236911989933
1	0	0	1	0	0	1	616570,93	-0,100000001	1,9377836	-0,00027771260030195117	-0,099974658777480947	0,000193729255	-0,50099204094648755	0,018692686638676477	0,50099204094648755
1	0	0	1	0	0	1	616790,93	-0,100000001	1,93724954	-0,00027771361103446947	-0,099975022629699635	0,000193676562	-0,50710173224610554	0,018920647435632544	0,50710173224610554
1	0	0	1	0	0	1	617010,93	-0,100000001	1,93669641	-0,0002777132251146767	-0,099974883703510733	0,000193621003	-0,51321143038236883	0,019148608487673037	0,51321143038236883
1	0	0	1	0	0	1	617230,94	-0,100000001	1,93631494	-0,00027771250995289952	-0,099974626250105446	0,000193582368	-0,51932111115957491	0,019376568892023766	0,51932111115957491
1	0	0	1	0	0	1	617450,94	-0,100000001	1,93536127	-0,00027771230833563539	-0,099974553666925619	0,000193486878	-0,5254307856722967	0,019604529062638163	0,5254307856722967
1	0	0	1	0	0	1	617670,95	-0,100000001	1,93469369	-0,00027771294342602294	-0,09997478229982729	0,000193420579	-0,53154047640966342	0,019832489838615878	0,53154047640966342
1	0	0	1	0	0	1	617890,95	-0,100000001	1,9339689	-0,00027771310186096365	-0,099974839335334912	0,000193348227	-0,53765017156951424	0,020060450779602422	0,53765017156951424
1	0	0	1	0	0	1	618110,96	-0,100000001	1,93330145	-0,00027771225333172413	-0,09997453387054473	0,00019328091	-0,54375985525804058	0,020288411292578426	0,54375985525804058
1	0	0	1	0	0	1	618330,96	-0,100000001	1,93267202	-0,00027771265002215904	-0,099974676676419686	0,000193218264	-0,54986952374918541	0,020516371238519693	0,54986952374918541
1	0	0	1	0	0	1	618550,96	-0,100000001	1,93171835	-0,00027771241403660845	-0,099974591723216704	0,00019312276	-0,55597920045840845	0,020744331491088506	0,55597920045840845
1	0	0	1	0	0	1	618770,97	-0,100000001	1,93240499	-0,00027771225322162112	-0,09997453383090839	0,000193191285	-0,5620888707203335	0,020972291503099962	0,5620888707203335
1	0	0	1	0	0	1	618990,97	-0,100000001	1,93131781	-0,00027771184614590474	-0,099974387286402304	0,00019308232	-0,5681985283095511	0,021200251042275661	0,5681985283095511
1	0	0	1	0	0	1	619210,98	-0,100000001	1,93072653	-0,00027771196428479421	-0,099974429815603891	0,000193023283	-0,57430819709505357	0,021428210999199805	0,57430819709505357
1	0	0	1	0	0	1	619430,98	-0,100000001	1,92971563	-0,0002777125550173223	-0,099974642475320678	0,000192922627	-0,58041786378468608	0,021656170877924224	0,58041786378468608
1	0	0	1	0	0	1	619650,98	-0,100000001	1,92866659	-0,00027771208828397926	-0,099974474454472282	0,000192817432	-0,58652753559696102	0,021884130947781325	0,58652753559696102
1	0	0	1	0	0	1	619870,99	-0,100000001	1,92797995	-0,00027771242210227581	-0,099974594626802445	0,000192749008	-0,59263721174582182	0,022112091179442266	0,59263721174582182
1	0	0	1	0	0	1	620090,99	-0,100000001	1,92668295	-0,00027771296776541408	-0,099974791057188211	0,000192619729	-0,59874688722919027	0,022340051386272794	0,59874688722919027
1	0	0	1	0	0	1	620311,00	-0,100000001	1,92624426	-0,00027771269857552317	-0,099974694152974861	0,000192575681	-0,6048565679833879	0,02256801178976505	0,6048565679833879
1	0	0	1	0	0	1	620531,00	-0,100000001	1,92487097	-0,00027771273605277142	-0,099974707642203213	0,000192438412	-0,61096625125395123	0,022795972287146291	0,61096625125395123
1	0	0	1	0	0	1	620751,00	-0,100000001	1,92330694	-0,00027771335364340083	-0,099974929970654899	0,000192282474	-0,61707593848849779	0,023023932932429078	0,61707593848849779
1	0	0	1	0	0	1	620971,01	-0,100000001	1,92107534	-0,00027771312595903872	-0,09997484801047904	0,000192059219	-0,62318562916768589	0,023251893706236067	0,62318562916768589
1	0	0	1	0	0	1	621191,01	-0,100000001	1,92017889	-0,00027771237821049162	-0,099974578826056845	0,000191969069	-0,62929530966833984	0,023479854100268262	0,62929530966833984
1	0	0	1	0	0	1	621411,02	-0,100000001	1,91769934	-0,00027771338686264224	-0,099974941934012595	0,000191721876	-0,6354049985500681	0,023707814807009616	0,6354049985500681
1	0	0	1	0	0	1	621631,02	-0,100000001	1,9162879	-0,00027771407858985997	-0,099975190951134925	0,000191581246	-0,64151470621027763	0,023935776214401347	0,64151470621027763
1	0	0	1	0	0	1	621851,03	-0,100000001	1,91418982	-0,00027771484867690336	-0,099975468177264768	0,000191372019	-0,64762442395455526	0,024163737998043219	0,64762442395455526
1	0	0	1	0	0	1	622071,03	-0,100000001	1,9117676	-0,00027771398180888758	-0,099975156110639091	0,000191129264	-0,65373413651874854	0,024391699588409181	0,65373413651874854
1	0	0	1	0	0	1	622291,03	-0,100000001	1,9089638	-0,00027771375843013328	-0,099975075695797581	0,000190848805	-0,65984384964067494	0,024619661199584915	0,65984384964067494
1	0	0	1	0	0	1	622511,04	-0,100000001	1,90625536	-0,00027771443920830886	-0,099975320771338752	0,000190578488	-0,66595357021773542	0,024847623088921718	0,66595357021773542
1	0	0	1	0	0	1	622731,04	-0,100000001	1,90318453	-0,0002777154935395552	-0,099975700323460173	0,0001902722	-0,67206329661714112	0,025075585195498061	0,67206329661714112
1	0	0	1	0	0	1	622951,05	-0,100000001	1,89984667	-0,00027771488405391571	-0,099975480912750067	0,000189938088	-0,67817304297377293	0,025303548046705331	0,67817304297377293
1	0	0	1	0	0	1	623171,05	-0,100000001	1,89641345	-0,00027771613849078618	-0,099975932501543462	0,000189595696	-0,68428278864766182	0,025531510872438554	0,68428278864766182
1	0	0	1	0	0	1	623391,05	-0,100000001	1,89145446	-0,00027771410784622032	-0,09997520148322688	0,000189098544	-0,69039252875044096	0,025759473490306179	0,69039252875044096
1	0	0	1	0	0	1	623611,06	-0,100000001	1,88561797	-0,00027771475649914806	-0,099975434989240589	0,000188515478	-0,69650225568254822	0,02598743561675833	0,69650225568254822
1	0	0	1	0	0	1	623831,06	-0,100000001	1,87766433	-0,00027771604883381059	-0,099975900222146778	0,000187721176	-0,70261200046489869	0,02621539840922705	0,70261200046489869
1	0	0	1	0	0	1	624051,07	-0,100000001	1,86934841	-0,00027771444151716096	-0,099975321597854528	0,000186888705	-0,70872173153547827	0,026443360690091165	0,70872173153547827
1	0	0	1	0	0	1	624271,07	-0,100000001	1,85784709	-0,00027771425220453078	-0,099975253451242778	0,00018573874	-0,71483145462775616	0,026671322673274122	0,71483145462775616
1	0	0	1	0	0	1	624491,08	-0,100000001	1,84295082	-0,00027771442745005091	-0,099975316538445376	0,000184249599	-0,72094116459761242	0,026899284166841872	0,72094116459761242
1	0	0	1	0	0	1	624711,08	-0,100000001	1,82254231	-0,00027771465013300378	-0,099975396702803072	0,000182209391	-0,72705087951404314	0,027127245844972979	0,72705087951404314
1	0	0	1	0	0	1	624931,08	-0,100000001	1,78321302	-0,0002777144296231369	-0,099975317320741632	0,000178277289	-0,73316058941399258	0,027355207335932416	0,73316058941399258
1	0	0	1	0	0	1	625151,09	-0,100000001	1,71824908	-0,00027771429287807811	-0,099975268093444864	0,00017178242	-0,73927029801627635	0,027583168778474208	0,73927029801627635
1	0	0	1	0	0	1	625371,09	-0,100000001	1,65299904	-0,00027771428262318173	-0,099975264401751488	0,000165259014	-0,74538001629325606	0,027811130581991914	0,74538001629325606
1	0	0	1	0	0	1	625591,10	-0,100000001	1,56062675	-0,00027771301375329494	-0,099974807617169792	0,000156023365	-0,75148971319271936	0,028039091587885734	0,75148971319271936
1	0	0	1	0	0	1	625811,10	-0,100000001	1,4661181	-0,00027771447782797949	-0,099975334674159104	0,00014657565	-0,75759941493078093	0,028267052774314166	0,75759941493078093
1	0	0	1	0	0	1	626031,10	-0,100000001	1,40004802	-0,00027771442904447517	-0,099975317112427328	0,000139970245	-0,76370913824145638	0,028495014765645821	0,76370913824145638
1	0	0	1	0	0	1	626251,11	-0,100000001	1,33218491	-0,00027771518249106077	-0,099975588348104858	0,000133185968	-0,76981886556542029	0,028722976906718666	0,76981886556542029
1	0	0	1	0	0	1	626471,11	-0,100000001	1,27174139	-0,00027771525669594608	-0,099975615061361933	0,000127143125	-0,77592858929459712	0,028950938913665178	0,77592858929459712
1	0	0	1	0	0	1	626691,12	-0,100000001	1,20075023	-0,00027771457697244154	-0,099975370365495219	0,00012004545	-0,78203831941603213	0,02917890115911543	0,78203831941603213
1	0	0	1	0	0	1	626911,12	-0,100000001	1,11564481	-0,00027771516128132742	-0,099975580708088845	0,000111537236	-0,7881480412133024	0,02940686309397991	0,7881480412133024
1	0	0	1	0	0	1	627131,12	-0,100000001	1,01516628	-0,00027771560959683523	-0,099975742100968755	0,000101492005	-0,79425778110307917	0,029634825703900128	0,79425778110307917
1	1	0	0	0	0	2	627331,84	0,100000001	2,42266703	0,00027781574526304998	0,1000117902662188	0,000242295268	-0,79038779920722035	0,029490431476119635	0,0047228627131879328
1	1	0	0	0	0	2	627551,84	0,100000001	2,46779466	0,00027781486098137168	0,10001147193079234	0,000246807787	-0,784275865267072	0,029262387003230118	0,010834796653336536
1	1	0	0	0	0	2	627771,85	0,100000001	2,46350312	0,0002778150144612623	0,10001152718251546	0,00024637871	-0,77816393865184192	0,029034342803643155	0,016946723268566448
1	1	0	0	0	0	2	627991,85	0,100000001	2,45146775	0,00027781523243793181	0,10001160565264294	0,000245175237	-0,7720520072284777	0,02880629842465824	0,023058654691930867
1	1	0	0	0	0	2	628211,86	0,100000001	2,44330454	0,00027781418527911104	0,10001122868254624	0,000244357885	-0,76594008506663526	0,028578254391233155	0,029170576853773254
1	1	0	0	0	0	2	628431,86	0,100000001	2,43619013	0,00027781408789629738	0,10001119362539163	0,000243646282	-0,75982817098474406	0,028350210659281914	0,035282490935664627
1	1	0	0	0	0	2	628651,86	0,100000001	2,43067789	0,00027781524200364947	0,10001160909623664	0,000243096001	-0,75371625542355968	0,028122166872136253	0,041394406496848909
1	1	0	0	0	0	2	628871,87	0,100000001	2,42575693	0,00027781382852751347	0,10001110024972571	0,000242602619	-0,74760434013240768	0,027894123095065866	0,047506321788000992
1	1	0	0	0	0	2	629091,87	0,100000001	2,42037821	0,0002778144212460352	0,10001131362671528	0,000242065202	-0,74149243218578368	0,027666079592029693	0,053618229734624864
1	1	0	0	0	0	2	629311,88	0,100000001	2,4195962	0,00027781378086159626	0,10001108309148198	0,000241986432	-0,73538051981536115	0,027438035923935645	0,059730142105047514
1	1	0	0	0	0	2	629531,88	0,100000001	2,42013025	0,00027781424912644752	0,10001125166249872	0,00024204026	-0,7292686172356503	0,027209992621146221	0,065842044684758221
1	1	0	0	0	0	2	629751,89	0,100000001	2,41932917	0,00027781536326143475	0,10001165274821965	0,000241961112	-0,72315669310838029	0,026981948514388387	0,071953968812028198
1	1	0	0	0	0	2	629971,89	0,100000001	2,41534281	0,00027781432592661846	0,10001127931469814	0,000241561531	-0,71704476702319526	0,026753904334578118	0,078065894897213069
1	1	0	0	0	0	2	630191,89	0,100000001	2,4166398	0,00027781417503456278	0,10001122499457811	0,000241691101	-0,71093284814288141	0,02652586042359127	0,084177813777526682
1	1	0	0	0	0	2	630411,90	0,100000001	2,41915751	0,00027781449075332944	0,10001133865119986	0,000241943184	-0,70482093071809741	0,026297816566912205	0,09028973120231063
1	1	0	0	0	0	2	630631,90	0,100000001	2,41917658	0,0002778151507911583	0,10001157626035638	0,000241945658	-0,69870901297300442	0,026069772698281981	0,096401648947403302
1	1	0	0	0	0	2	630851,91	0,100000001	2,42030191	0,00027781489317533043	0,10001148352039984	0,000242057984	-0,69259707636375347	0,025841728125804659	0,10251358555665454
1	1	0	0	0	0	2	631071,91	0,100000001	2,41852808	0,00027781504128004112	0,10001153683709451	0,000241880713	-0,68648515075695462	0,025613683963843619	0,10862551116345334
1	1	0	0	0	0	2	631291,91	0,100000001	2,41852808	0,00027781343792420301	0,10001095963983144	0,000241879316	-0,68037323363196173	0,025385640118350157	0,11473742828844624
1	1	0	0	0	0	2	631511,92	0,100000001	2,41885233	0,00027781408450048835	0,10001119240292331	0,000241912305	-0,67426132620776922	0,025157596634806611	0,12084933571263867
1	1	0	0	0	0	2	631731,92	0,100000001	2,41900492	0,00027781491410194173	0,10001149105383845	0,000241928283	-0,66814939775092672	0,024929552366506608	0,12696126416948117
1	1	0	0	0	0	2	631951,93	0,100000001	2,42095041	0,0002778135563842952	0,10001100228466384	0,000242121678	-0,66203748535346432	0,024701508697403667	0,13307317656694365
1	1	0	0	0	0	2	632171,93	0,100000001	2,42220926	0,0002778136438578367	0,10001103377454747	0,000242247654	-0,65592557571984102	0,024473465131423283	0,13918508620056691
1	1	0	0	0	0	2	632391,93	0,100000001	2,42497492	0,00027781314104091789	0,10001085276152723	0,000242523805	-0,64981368591549338	0,024245422305299834	0,1452969760049144
1	1	0	0	0	0	2	632611,94	0,100000001	2,42589045	0,00027781338988410106	0,10001094234339096	0,000242615584	-0,64370178972867418	0,024017379241037789	0,15140887219173392
1	1	0	0	0	0	2	632831,94	0,100000001	2,42943811	0,00027781348837539552	0,10001097779726266	0,000242970476	-0,63758989561354202	0,023789336254073174	0,15752076630686608
1	1	0	0	0	0	2	633051,95	0,100000001	2,43681955	0,00027781320712425642	0,10001087655341086	0,000243708462	-0,63147799009902067	0,023561292841782016	0,16363267182138733
1	1	0	0	0	0	2	633271,95	0,100000001	2,44111109	0,0002778140772370001	0,10001118978811664	0,000244138428	-0,6253660855436265	0,023333249465277187	0,16974457637678138
1	1	0	0	0	0	2	633491,96	0,100000001	2,44139719	0,00027781374083004061	0,10001106868388534	0,000244166731	-0,61925417385378611	0,023105205822576579	0,1758564880666216
1	1	0	0	0	0	2	633711,96	0,100000001	2,44031	0,00027781347392002742	0,1000109725980849	0,000244057781	-0,6131422668522025	0,022877162354801136	0,18196839506820509
1	1	0	0	0	0	2	633931,96	0,100000001	2,43971872	0,00027781385668077402	0,10001111038936622	0,000243998977	-0,6070303566660361	0,022649118768204624	0,18808030525437168
1	1	0	0	0	0	2	634151,97	0,100000001	2,43899393	0,00027781311917677517	0,10001084489291216	0,000243925839	-0,60091845297437171	0,022421075423926717	0,19419220894603594
1	1	0	0	0	0	2	634371,97	0,100000001	2,43861246	0,00027781309818103904	0,10001083733458909	0,000243887669	-0,5948065490115177	0,022193032069530355	0,20030411290888986
1	1	0	0	0	0	2	634591,98	0,100000001	2,4364953	0,00027781378820248771	0,10001108573764608	0,000243676535	-0,58869464800158413	0,021964988825311427	0,20641601391882374
1	1	0	0	0	0	2	634811,98	0,100000001	2,43647623	0,00027781432995448509	0,10001128076470288	0,000243675109	-0,58258274442134566	0,021736945485190973	0,21252791749906218
1	1	0	0	0	0	2	635031,98	0,100000001	2,43317652	0,00027781359966430397	0,10001101786517443	0,000243344461	-0,5764708352164992	0,021508901935208822	0,21863982670390909
1	1	0	0	0	0	2	635251,99	0,100000001	2,43226099	0,00027781390976077981	0,1000111294978095	0,000243253162	-0,57035892706079859	0,021280858424371722	0,2247517348596095
1	1	0	0	0	0	2	635471,99	0,100000001	2,43287134	0,00027781459410488608	0,10001137585240453	0,000243314804	-0,56424702009828019	0,02105281495805385	0,23086364182212797
1	1	0	0	0	0	2	635692,00	0,100000001	2,43186045	0,00027781340735736822	0,10001094863830608	0,000243212664	-0,55813510845322822	0,020824771317024358	0,2369755534671799
1	1	0	0	0	0	2	635912,00	0,100000001	2,42934275	0,0002778135719862249	0,10001100789659603	0,000242961018	-0,55202319812614118	0,02059672772516991	0,24308746379426675
1	1	0	0	0	0	2	636132,00	0,100000001	2,43235636	0,00027781333578998845	0,1000109228675476	0,000243262199	-0,54591130046354272	0,020368684605844554	0,24919936145686502
1	1	0	0	0	0	2	636352,01	0,100000001	2,43262339	0,00027781355454814099	0,10001100162366075	0,000243289105	-0,53979940594198074	0,020140641603715494	0,25531125597842675
1	1	0	0	0	0	2	636572,01	0,100000001	2,43447351	0,0002778128996263775	0,10001076585625315	0,000243473565	-0,53368751013768512	0,01991259855372592	0,26142315178272234
1	1	0	0	0	0	2	636792,02	0,100000001	2,43596125	0,00027781288811647229	0,10001076171276507	0,000243622344	-0,52757561974287846	0,019684555705571648	0,26753504217752928
1	1	0	0	0	0	2	637012,02	0,100000001	2,43840265	0,00027781293240272333	0,10001077765551608	0,00024386654	-0,52146373331499309	0,019456513005428544	0,27364692860541485
1	1	0	0	0	0	2	637232,03	0,100000001	2,43952799	0,00027781334225998986	0,10001092520136138	0,000243979448	-0,51535184745017472	0,019228470326294227	0,27975881447023366
1	1	0	0	0	0	2	637452,03	0,100000001	2,44008112	0,00027781424989675478	0,10001125194446118	0,000244035575	-0,50923994420267616	0,019000426998588742	0,2858707177177321
1	1	0	0	0	0	2	637672,03	0,100000001	2,44175959	0,00027781438114328522	0,1000112991923249	0,000244203547	-0,50312802622390362	0,018772383121239619	0,29198263569650477
1	1	0	0	0	0	2	637892,04	0,100000001	2,44174051	0,0002778146443826457	0,10001139395671518	0,000244201859	-0,4970161109678496	0,018544339345478784	0,29809455095255885
1	1	0	0	0	0	2	638112,04	0,100000001	2,44341898	0,00027781460681599043	0,10001138043297325	0,000244369701	-0,49090419319395136	0,018316295475773795	0,30420646872645715
1	1	0	0	0	0	2	638332,05	0,100000001	2,44313288	0,00027781462254706358	0,10001138609605322	0,000244341092	-0,48479227768068838	0,01808825169041615	0,31031838423972006
1	1	0	0	0	0	2	638552,05	0,100000001	2,44370508	0,0002778143794867727	0,1000112985959916	0,000244398107	-0,47868036236298042	0,017860207912354925	0,3164302995574281
1	1	0	0	0	0	2	638772,05	0,100000001	2,44504023	0,00027781454701431917	0,10001135890477584	0,00024453181	-0,47256845131769229	0,017632164293703424	0,32254221060271616
1	1	0	0	0	0	2	638992,06	0,100000001	2,44612718	0,00027781415740441946	0,10001121864318864	0,000244640163	-0,46645653551904678	0,017404120497697773	0,32865412640136166
1	1	0	0	0	0	2	639212,06	0,100000001	2,44811082	0,00027781396495550874	0,10001114936870306	0,000244838389	-0,46034462248907187	0,017176076804994941	0,33476603943133658
1	1	0	0	0	0	2	639432,07	0,100000001	2,44998002	0,00027781366833837501	0,10001104258271872	0,000245025061	-0,45423271875507328	0,016948033459137485	0,34087794316533523
1	1	0	0	0	0	2	639652,07	0,100000001	2,44858766	0,00027781369767669178	0,10001105314897149	0,000244885829	-0,4481208241138535	0,016719990452543834	0,34698983780655494
1	1	0	0	0	0	2	639872,08	0,100000001	2,45141053	0,00027781353813161453	0,10001099571382219	0,000245168019	-0,44200893541650874	0,01649194766772415	0,35310172650389971
1	1	0	0	0	0	2	640092,08	0,100000001	2,45392823	0,00027781417910340758	0,10001122645933475	0,000245420379	-0,43589703748030118	0,01626390453819007	0,35921362444010726
1	1	0	0	0	0	2	640312,08	0,100000001	2,45768571	0,00027781267258773248	0,10001068412387571	0,000245794829	-0,42978513485871872	0,016035861233838362	0,36532552706168973
1	1	0	0	0	0	2	640532,09	0,100000001	2,45791459	0,0002778130567272504	0,10001082241150538	0,000245818053	-0,42367324767850042	0,015807818505624704	0,3714374142419081
1	1	0	0	0	0	2	640752,09	0,100000001	2,45703721	0,00027781345684702198	0,10001096645191837	0,000245730655	-0,4175613529419369	0,015579775495473648	0,37754930897847155
1	1	0	0	0	0	2	640972,10	0,100000001	2,46050858	0,00027781474152745475	0,10001142892818973	0,000246078969	-0,41144943915149274	0,015351731774396685	0,38366122276891571
1	1	0	0	0	0	2	641192,10	0,100000001	2,45921159	0,00027781386916504963	0,10001111488362107	0,000245948497	-0,4053375252413968	0,015123688048855357	0,38977313667901165
1	1	0	0	0	0	2	641412,10	0,100000001	2,46125245	0,00027781281737817654	0,1000107362474568	0,000246151671	-0,39922564281927827	0,0148956454981728	0,39588501910113024
1	1	0	0	0	0	2	641632,11	0,100000001	2,46249223	0,00027781320636015798	0,10001087627834061	0,000246276002	-0,39311374750684621	0,014667602466535315	0,4019969144135623
1	1	0	0	0	0	2	641852,11	0,100000001	2,46489549	0,00027781349579410419	0,10001098047260467	0,000246516604	-0,38700185679920851	0,014439559606708899	0,40810880512119994
1	1	0	0	0	0	2	642072,12	0,100000001	2,46695542	0,00027781329603865741	0,10001090856199419	0,000246722455	-0,38088996564154125	0,014211516730091277	0,4142206962788672
1	1	0	0	0	0	2	642292,12	0,100000001	2,46729875	0,00027781509204208848	0,10001155510643134	0,000246758398	-0,37477805775760282	0,013983473229393984	0,42033260416280563
1	1	0	0	0	0	2	642512,12	0,100000001	2,46809983	0,00027781384304331405	0,10001110547764432	0,000246837386	-0,3686661393688743	0,013755429336748851	0,42644452255153414
1	1	0	0	0	0	2	642732,13	0,100000001	2,47077012	0,00027781363561832243	0,10001103081070656	0,000247104268	-0,36255423872576653	0,013527386106216688	0,43255642319464192
1	1	0	0	0	0	2	642952,13	0,100000001	2,47088456	0,0002778136099970175	0,10001102158022442	0,000247115677	-0,356442333184912	0,013299342692943011	0,43866832873549645
1	1	0	0	0	0	2	643172,14	0,100000001	2,47174287	0,00027781188235763046	0,10001039964638091	0,000247199991	-0,35033044270118285	0,013071299841470922	0,4447802192192256
1	1	0	0	0	0	2	643392,14	0,100000001	2,47321153	0,00027781269242573114	0,10001069126542114	0,000247347605	-0,34421857342029747	0,012843257781105443	0,45089208850011098
1	1	0	0	0	0	2	643612,15	0,100000001	2,47262025	0,00027781169271220762	0,1000103313753107	0,000247287564	-0,33810670540588403	0,012615215767993733	0,45700395651452448
1	1	0	0	0	0	2	643832,15	0,100000001	2,47345948	0,00027781156856318317	0,10001028668250115	0,000247371383	-0,33199485264440723	0,012387174323989602	0,46311580927600122
1	1	0	0	0	0	2	644052,15	0,100000001	2,4748137	0,00027781102163137658	0,10001008979074802	0,000247506337	-0,32588300076737478	0,012159132912985275	0,46922766115303373
1	1	0	0	0	0	2	644272,16	0,100000001	2,47540498	0,00027781234453370176	0,10001056602664229	0,000247566641	-0,31977113305609069	0,011931090911183728	0,47533952886431782
1	1	0	0	0	0	2	644492,16	0,100000001	2,47874284	0,00027781305092490384	0,10001082032269984	0,000247901102	-0,31365926282441338	0,011703048815342925	0,48145139909599507
1	1	0	0	0	0	2	644712,17	0,100000001	2,47828507	0,00027781263066165971	0,10001066903077296	0,000247854943	-0,30754738976396582	0,011475006613956899	0,48756327215644262
1	1	0	0	0	0	2	644932,17	0,100000001	2,48099351	0,00027781291975494886	0,10001077310240277	0,000248126074	-0,30143550703328442	0,01124696405176145	0,49367515488712403
1	1	0	0	0	0	2	645152,17	0,100000001	2,48244309	0,00027781214266767107	0,10001049335623586	0,000248270371	-0,29532363659349882	0,011018921948155845	0,49978702532690963
1	1	0	0	0	0	2	645372,18	0,100000001	2,48383546	0,0002778116492956049	0,10001031574562722	0,000248409167	-0,28921177826564806	0,010790880296462813	0,50589888365476019
1	1	0	0	0	0	2	645592,18	0,100000001	2,48290086	0,00027781249129648013	0,10001061886025038	0,000248316443	-0,28309990703759584	0,010562838163445923	0,51201075488281222
1	1	0	0	0	0	2	645812,19	0,100000001	2,4864676	0,0002778118019087447	0,10001037068183312	0,000248672557	-0,27698803464362854	0,010334795986927171	0,51812262727677958
1	1	0	0	0	0	2	646032,19	0,100000001	2,48684883	0,00027781205952333075	0,10001046342483539	0,000248710916	-0,27087616608469107	0,010106753953498539	0,52423449583571712
1	1	0	0	0	0	2	646252,19	0,100000001	2,48768806	0,00027781240393055805	0,10001058740910902	0,000248795142	-0,26476428908247872	0,0098787116050399718	0,53034637283792954
1	1	0	0	0	0	2	646472,20	0,100000001	2,48745918	0,00027781345372150342	0,1000109653267528	0,000248773198	-0,25865241070417805	0,009650669205237696	0,53645825121623014
1	1	0	0	0	0	2	646692,20	0,100000001	2,48856544	0,00027781340907721059	0,10001094925510917	0,000248883793	-0,25254052653094333	0,0094226265892186394	0,54257013538946477
1	1	0	0	0	0	2	646912,21	0,100000001	2,49148369	0,00027781268867477773	0,10001068991510326	0,000249175006	-0,24642864107200864	0,0091945839252283891	0,54868202084839936
1	1	0	0	0	0	2	647132,21	0,100000001	2,49129295	0,0002778136685055991	0,10001104264757533	0,000249156816	-0,24031674856922387	0,0089665409984226227	0,55479391335118387
1	1	0	0	0	0	2	647352,22	0,100000001	2,49180794	0,00027781328378576374	0,10001090415103528	0,000249207951	-0,23420485265228637	0,0087384979442302246	0,56090580926812141
1	1	0	0	0	0	2	647572,22	0,100000001	2,49344826	0,00027781312654208806	0,10001084754437501	0,000249371864	-0,22809296644494877	0,0085104552523160576	0,56701769547545875
1	1	0	0	0	0	2	647792,22	0,100000001	2,49434471	0,00027781256029630701	0,10001064369972163	0,000249461009	-0,22198108099428221	0,0082824125886343027	0,57312958092612531
1	1	0	0	0	0	2	648012,23	0,100000001	2,49638557	0,00027781302389171389	0,10001081059093421	0,000249665551	-0,21586920161587974	0,0080543701515168845	0,57924146030452749
1	1	0	0	0	0	2	648232,23	0,100000001	2,49716759	0,00027781355364993219	0,10001100130031165	0,000249744218	-0,20975731462937494	0,0078263274305309402	0,58535334729103245
1	1	0	0	0	0	2	648452,24	0,100000001	2,49705315	0,00027781336968392134	0,10001093507379134	0,000249732606	-0,20364543205611971	0,0075982848742092698	0,59146522986428762
1	1	0	0	0	0	2	648672,24	0,100000001	2,49686241	0,00027781326673552394	0,10001089801306422	0,000249713456	-0,19753353943163469	0,0073702419428627021	0,59757712248877286
1	1	0	0	0	0	2	648892,24	0,100000001	2,49762535	0,0002778136631399393	0,10001104071131702	0,000249790115	-0,19142163807960496	0,0071421986858797082	0,60368902384080243
1	1	0	0	0	0	2	649112,25	0,100000001	2,49854088	0,00027781364400850403	0,10001103382995094	0,000249881647	-0,18530973486647363	0,0069141553594565107	0,6098009270539337
1	1	0	0	0	0	2	649332,25	0,100000001	2,49842644	0,00027781346068489882	0,10001096783119957	0,000249870034	-0,17919782539867427	0,0066861117996632397	0,6159128365217335
1	1	0	0	0	0	2	649552,26	0,100000001	2,50027657	0,00027781346823854582	0,1000109705481329	0,000250055076	-0,17308591732321824	0,006458068291820169	0,62202474459718938
1	1	0	0	0	0	2	649772,26	0,100000001	2,50287056	0,00027781418269707101	0,10001122775302928	0,000250315148	-0,16697400327050499	0,0062300245609575962	0,62813665864990272
1	1	0	0	0	0	2	649992,27	0,100000001	2,50472069	0,00027781322636248336	0,10001088347904253	0,000250499317	-0,16086210463725133	0,0060019814054157926	0,63424855728315648
1	1	0	0	0	0	2	650212,27	0,100000001	2,49962807	0,00027781402105341354	0,10001116956240531	0,000249990728	-0,15475020311998592	0,0057739381422676314	0,64036045880042189
1	1	0	0	0	0	2	650432,27	0,100000001	2,50308037	0,00027781376505187814	0,10001107740358314	0,000250335754	-0,14863829814624717	0,0055458947501538035	0,64647236377416038
1	1	0	0	0	0	2	650652,28	0,100000001	2,49920845	0,00027781345027229853	0,10001096408506237	0,000249948236	-0,14252639819872267	0,0053178515455747885	0,65258426372168448
1	1	0	0	0	0	2	650872,28	0,100000001	2,5057888	0,00027781319605062406	0,10001087256697808	0,000250606128	-0,13641451019397016	0,0050898087865966528	0,65869615172643699
1	1	0	0	0	0	2	651092,29	0,100000001	2,5083065	0,00027781283043366336	0,10001074094734379	0,000250857585	-0,13030262176236526	0,0048617660116920794	0,66480804015804211
1	1	0	0	0	0	2	651312,29	0,100000001	2,50954628	0,00027781314815911981	0,10001085532636029	0,000250981859	-0,12419073552947677	0,0046337233188245722	0,67091992639093069
1	1	0	0	0	0	2	651532,29	0,100000001	2,51000404	0,00027781259598127664	0,10001065654606947	0,000251027144	-0,11807885513630776	0,0044056808438448512	0,67703180678409971
1	1	0	0	0	0	2	651752,30	0,100000001	2,51204491	0,00027781347378508915	0,10001097254950805	0,000251232064	-0,11196697367259382	0,0041776383289216589	0,68314368824781363
1	1	0	0	0	0	2	651972,30	0,100000001	2,51318932	0,00027781412154932819	0,10001120574025522	0,000251347083	-0,10585507349845704	0,0039495951158874336	0,68925558842195059
1	1	0	0	0	0	2	652192,31	0,100000001	2,51498222	0,00027781291400930947	0,1000107710293544	0,000251525315	-0,099743173978728755	0,0037215519272700698	0,69536748794167885
1	1	0	0	0	0	2	652412,31	0,100000001	2,51475334	0,00027781387395825654	0,10001111660565034	0,000251503283	-0,093631276543130278	0,003493508816414391	0,70147938537727731
1	1	0	0	0	0	2	652632,31	0,100000001	2,51605034	0,00027781495528543987	0,10001150588194792	0,000251633988	-0,087519367012667776	0,0032654652542830733	0,70759129490773965
1	1	0	0	0	0	2	652852,32	0,100000001	2,51723289	0,00027781430065507686	0,10001127021245693	0,000251751655	-0,081407456463655872	0,0030374216541483085	0,71370320545675162
1	1	0	0	0	0	2	653072,32	0,100000001	2,51900673	0,00027781325762594739	0,10001089473367824	0,000251928112	-0,075295562549164493	0,0028093786746698694	0,71981509937124275
1	1	0	0	0	0	2	653292,33	0,100000001	2,52135277	0,00027781293214360874	0,10001077756223658	0,000252162456	-0,06918367824999049	0,0025813360539518496	0,72592698367041664
1	1	0	0	0	0	2	653512,33	0,100000001	2,52217293	0,00027781263526446288	0,10001067068775096	0,000252244208	-0,063071797173004749	0,0023532935534580061	0,73203886474740237
1	1	0	0	0	0	2	653732,34	0,100000001	2,52289772	0,00027781355814511574	0,10001100291854736	0,000252317521	-0,056959891345218374	0,0021252501294785133	0,73815077057518874
1	1	0	0	0	0	2	653952,34	0,100000001	2,52331734	0,00027781272931852272	0,1000107045465767	0,000252358732	-0,050847988994466054	0,0018972068352318365	0,74426267292594099
1	1	0	0	0	0	2	654172,34	0,100000001	2,52177238	0,000277812243203736	0,10001052954853962	0,000252203783	-0,044736113123104499	0,0016691645289668307	0,7503745487973024
1	1	0	0	0	0	2	654392,35	0,100000001	2,523489	0,00027781243219971654	0,10001059758581501	0,000252375641	-0,03862423590023785	0,0014411221722753523	0,75648642602016896
1	1	0	0	0	0	2	654612,35	0,100000001	2,52585411	0,00027781326902202429	0,10001089883618888	0,000252612954	-0,032512358838555814	0,0012130798215978888	0,76259830308185075
1	1	0	0	0	0	2	654832,36	0,100000001	2,52821898	0,00027781315550994544	0,10001085797260784	0,000252849364	-0,026400481680428918	0,00098503746732193818	0,7687101802399776
1	1	0	0	0	0	2	655052,36	0,100000001	2,53190017	0,00027781327035195296	0,10001089931495421	0,000253217615	-0,020288593548901472	0,00075699470361365888	0,77482206837150515
1	1	0	0	0	0	2	655272,36	0,100000001	2,53394103	0,000277813274986628	0,1000109009834059	0,00025342172	-0,014176702708362795	0,00052895183882852819	0,7809339592120439
1	1	0	0	0	0	2	655492,37	0,100000001	2,53630614	0,00027781328315908714	0,10001090392543594	0,000253658276	-0,008064814933688777	0,00030090908843493011	0,78704584698671795
1	1	0	0	0	0	2	655712,37	0,100000001	2,53703094	0,00027781333992795808	0,10001092435951722	0,000253730803	-0,0019529251588153392	7,2866263411202342E-005	0,79315773676159155
1	1	0	0	0	0	2	655932,38	0,100000001	2,53849959	0,00027781353148569667	0,1000109933178439	0,000253877864	0,0041589628446639366	-0,00015517649551942752	0,79926962476507085
1	1	0	0	0	0	2	656152,38	0,100000001	2,5405786	0,00027781357311498787	0,10001100830760013	0,00025408584	0,010270866512222333	-0,00038321983889791002	0,80538152843262925
1	1	0	0	0	0	2	656372,38	0,100000001	2,54204726	0,00027781369788199667	0,10001105322287986	0,000254232815	0,016382771644625309	-0,00061126323693171315	0,81149343356503232
1	1	0	0	0	0	2	656592,39	0,100000001	2,53954864	0,00027781402061921027	0,10001116940609506	0,00025398322	0,022494673833657789	-0,00083930652514440576	0,81760533575406464
1	1	0	0	0	0	2	656812,39	0,100000001	2,54183745	0,00027781323541990582	0,10001088673965339	0,000254211423	0,028606566258372435	-0,0010673494490372718	0,82371722817877926
1	1	0	0	0	0	2	657032,40	0,100000001	2,54443145	0,00027781340397852989	0,10001094741961861	0,000254471001	0,034718464226432467	-0,0012953925797598072	0,8298291261468393
1	1	0	0	0	0	2	657252,40	0,100000001	2,5459764	0,00027781283677617712	0,10001074323060586	0,000254624989	0,040830343124976915	-0,0015234349989730771	0,83594100504538355
1	1	0	0	0	0	2	657472,41	0,100000001	2,55104995	0,00027781302362556256	0,10001081049512155	0,00025513256	0,046942220113918093	-0,001751477346936481	0,84205288203432499
1	1	0	0	0	0	2	657692,41	0,100000001	2,55413985	0,00027781360702837507	0,10001102051619024	0,000255442137	0,053054102973716045	-0,0019795199139494451	0,84816476489412262
1	1	0	0	0	0	2	657912,41	0,100000001	2,55494094	0,00027781349737031597	0,10001098104003024	0,000255522144	0,059166004266603443	-0,00220756316872576	0,85427666618701005
1	1	0	0	0	0	2	658132,42	0,100000001	2,55894637	0,00027781369693701469	0,10001105288269272	0,000255922932	0,065277901661605773	-0,0024356062780667418	0,86038856358201242
1	1	0	0	0	0	2	658352,42	0,100000001	2,56241775	0,00027781373811347616	0,10001106770594051	0,000256270141	0,071389781156959526	-0,0026636487195477693	0,86650044307736602
1	1	0	0	0	0	2	658572,43	0,100000001	2,56400084	0,00027781298133565322	0,10001079527104005	0,000256427767	0,077501658958616678	-0,0028916910978346989	0,87261232087902323
1	1	0	0	0	0	2	658792,43	0,100000001	2,56672835	0,00027781195367955498	0,10001042531713461	0,000256699597	0,083613530478433498	-0,0031197332417377203	0,87872419239884006
1	1	0	0	0	0	2	659012,43	0,100000001	2,56873107	0,00027781207241531875	0,10001046806819243	0,000256900006	0,089725400863503309	-0,0033477753433018048	0,88483606278390976
1	1	0	0	0	0	2	659232,44	0,100000001	2,5734992	0,00027781270076251693	0,10001069426311488	0,000257377455	0,095837271045939674	-0,0035758174373053626	0,89094793296634624
1	1	0	0	0	0	2	659452,44	0,100000001	2,57471991	0,00027781170453007024	0,10001033562500435	0,000257498614	0,10194914982425987	-0,0038038598520329043	0,89705981174466637
1	1	0	0	0	0	2	659672,45	0,100000001	2,5792594	0,00027781416593905952	0,10001122172025842	0,000257954875	0,10806102535398792	-0,0040319021455511046	0,90317168727439462
1	1	0	0	0	0	2	659892,45	0,100000001	2,58324575	0,00027781285417535235	0,10001074949419133	0,000258352346	0,11417290364650258	-0,0042599445421525882	0,90928356556690906
1	1	0	0	0	0	2	660112,46	0,100000001	2,58625937	0,00027781239903511274	0,10001058564678181	0,000258653308	0,12028477358863163	-0,0044879866271899571	0,91539543550903808
1	1	0	0	0	0	2	660332,46	0,100000001	2,59287786	0,0002778132065286239	0,1000108763389872	0,000259315973	0,12639665280885776	-0,0047160290584056032	0,92150731472926426
1	1	0	0	0	0	2	660552,46	0,100000001	2,59814215	0,00027781355767614314	0,10001100274972037	0,000259842811	0,13250854747513291	-0,004944072065934105	0,92761920939553958
1	1	0	0	0	0	2	660772,47	0,100000001	2,60622931	0,00027781377922039888	0,10001108250415482	0,00026065181	0,13862044625371301	-0,0051721152268982342	0,93373110817411942
1	1	0	0	0	0	2	660992,47	0,100000001	2,61795926	0,00027781363523834278	0,10001103067158794	0,000261824811	0,14473234353144986	-0,0054001583318638829	0,93984300545185626
1	1	0	0	0	0	2	661212,48	0,100000001	2,63819623	0,00027781288917404083	0,10001076209348259	0,000263848022	0,150844237802992	-0,0056282013246643667	0,94595489972339866
1	1	0	0	0	0	2	661432,48	0,100000001	2,67649555	0,00027781329076819946	0,10001090666466494	0,000267678755	0,15695612925375558	-0,0058562442122178086	0,95206679117416218
1	1	0	0	0	0	2	661652,48	0,100000001	2,72692561	0,00027781359334662554	0,10001101559085291	0,000272722595	0,16306801997238086	-0,0060842870724541875	0,95817868189278707
1	1	0	0	0	0	2	661872,49	0,100000001	2,7687726	0,00027781295816103619	0,10001078692833458	0,000276907114	0,1691799136478953	-0,0063123300430160742	0,96429057556830144
1	1	0	0	0	0	2	662092,49	0,100000001	2,79995751	0,00027781291328163613	0,1000107707673969	0,00028002591	0,17529179727500368	-0,0065403726386584218	0,97040245919540954
1	1	0	0	0	0	2	662312,50	0,100000001	2,82803345	0,00027781321051054531	0,10001087777012349	0,000282834109	0,1814036879087167	-0,0067684154957266086	0,97651434982912269
1	1	0	0	0	0	2	662532,50	0,100000001	2,85486984	0,00027781373862963584	0,10001106789408301	0,000285518588	0,18751558726736176	-0,0069964586783337421	0,98262624918776781
1	1	0	0	0	0	2	662752,50	0,100000001	2,88222098	0,00027781278361048966	0,10001072408666077	0,00028825301	0,1936274781009855	-0,0072245015428608666	0,98873814002139187
1	1	0	0	0	0	2	662972,51	0,100000001	2,91205168	0,00027781358455825181	0,10001101242709778	0,000291237229	0,19973936260397549	-0,0074525441711835354	0,9948500245243817
1	1	0	0	0	0	2	663161,79	0,100000001	2,93827748	0,00025781132644456294	0,10001098152069538	0,000293860008	0,20499780917817174	-0,0076487438829234086	1,0001084710985778