File: Experimentelles/Rohdaten/Batterietests/AlteZelle/Studenten_Batterietests/Sonstige/ECLab-Export/S vs Li_02_CV_C02_loop1.mpt
EC-Lab ASCII FILE
Nb header lines : 3
mode	ox/red	error	control changes	counter inc.	time/s	control/V	Ewe/V	<I>/mA	cycle number	(Q-Qo)/C	P/W
2	0	0	1	0	4340,20	2,39045238	2,39110208	-0,072990015149116518	2	0	0,000174526576
2	0	0	0	0	4341,52	2,37725019	2,37788343	-0,16953467170242221	2	-0,00015863459	0,000403133687
2	0	0	1	0	4342,82	2,36424851	2,36463523	-0,27228936351214816	2	-0,000446167658	0,000643865031
2	0	0	0	0	4344,12	2,35124683	2,35190749	-0,38003035658039238	2	-0,000870497373	0,00089379627
2	0	0	1	0	4345,42	2,33824492	2,33858919	-0,49290421993161274	2	-0,00143854308	0,00115270051
2	0	0	0	0	4346,72	2,325243	2,32545114	-0,61249031530072525	2	-0,00215717917	0,00142431632
2	0	0	1	0	4348,02	2,31224108	2,31288409	-0,73615569031486758	2	-0,00303441612	0,00170264277
2	0	0	0	0	4349,32	2,29923964	2,29983592	-0,86231424131741363	2	-0,00407299353	0,00198318134
2	0	0	0	0	4350,62	2,28623748	2,28673697	-0,99563779069345587	2	-0,00528103858	0,00227676169
2	0	0	1	0	4351,95	2,27293611	2,27362967	-1,1358580399925522	2	-0,00669881236	0,00258252048
2	0	0	0	0	4353,25	2,25993419	2,26057172	-1,2777938010791949	2	-0,00826891046	0,00288854446
2	0	0	1	0	4354,55	2,24693227	2,24765396	-1,4225392264003576	2	-0,0100254351	0,00319737592
2	0	0	0	0	4355,85	2,23393035	2,23450589	-1,5691159193714483	2	-0,0119725233	0,00350619876
2	0	0	1	0	4357,15	2,22092867	2,22146797	-1,7139205858111398	2	-0,014108194	0,00380741968
2	0	0	0	0	4358,45	2,20792699	2,20847034	-1,8648602757602982	2	-0,0164343491	0,00411848864
2	0	0	1	0	4359,75	2,19492507	2,19548202	-2,0094081442803146	2	-0,0189516339	0,00441161962
2	0	0	0	0	4361,05	2,18192339	2,18224382	-2,1569589711725782	2	-0,0216604415	0,00470701046
2	0	0	0	0	4362,35	2,16892242	2,16937709	-2,3026678419744461	2	-0,0245606117	0,00499535492
2	0	0	1	0	4363,65	2,15591979	2,15638828	-2,455588166912399	2	-0,0276552904	0,00529520167
2	0	0	0	0	4364,95	2,14291811	2,14327025	-2,6123472936451507	2	-0,0309495889	0,00559896603
2	0	0	1	0	4366,25	2,12991619	2,13046241	-2,7575113407025818	2	-0,0344389193	0,00587477442
2	0	0	0	0	4367,55	2,11691427	2,11746478	-2,9083436994502989	2	-0,0381238312	0,00615831558
2	0	0	1	0	4368,85	2,10391283	2,10426641	-3,0661193908502752	2	-0,0420088954	0,00645193225
2	0	0	0	0	4370,15	2,09091091	2,09125876	-3,221937004476793	2	-0,04609593	0,00673790416
2	0	0	1	0	4371,45	2,07790923	2,078511	-3,3764024190604755	2	-0,0503856614	0,00701788953
2	0	0	0	0	4372,75	2,06490755	2,06543303	-3,5391737557947635	2	-0,0548821054	0,00730992621
2	0	0	1	0	4374,05	2,05190563	2,05258536	-3,6961880611876621	2	-0,0595845692	0,00758674135
2	0	0	1	0	4375,35	2,03890395	2,03918672	-3,8571130844453914	2	-0,0644948855	0,00786537398
2	0	0	0	0	4376,65	2,02590227	2,02631927	-4,0217036294440474	2	-0,069619678	0,008149256
2	0	0	1	0	4377,95	2,01290035	2,01352143	-4,1780181191861894	2	-0,0749501139	0,00841252878
2	0	0	0	0	4379,25	1,99989855	2,00036359	-4,3281992884973734	2	-0,0804777369	0,00865797233
2	0	0	1	0	4380,55	1,98689675	1,98764586	-4,4913777410984179	2	-0,0862157345	0,00892726798
2	0	0	0	0	4381,85	1,97389495	1,97445762	-4,6458576607207507	2	-0,0921558067	0,00917304866
2	0	0	1	0	4383,15	1,96089315	1,96140981	-4,7994467566410746	2	-0,0982941613	0,00941368192
2	0	0	0	0	4384,45	1,94789124	1,94848216	-4,9469854161143302	2	-0,10463395	0,00963911321
2	0	0	1	0	4385,75	1,93488967	1,93518353	-5,0644427140553818	2	-0,111149661	0,00980062596
2	0	0	1	0	4387,05	1,92188704	1,92251611	-5,1172708848183034	2	-0,117788613	0,00983803533
2	0	0	0	0	4388,35	1,90888596	1,90943825	-5,2166138788064557	2	-0,124478512	0,00996080227
2	0	0	1	0	4389,65	1,89588439	1,89643013	-5,3745608938237126	2	-0,13136591	0,010192479
2	0	0	0	0	4390,95	1,8828826	1,88335228	-5,5097139440476896	2	-0,13844648	0,0103767319
2	0	0	1	0	4392,25	1,86988068	1,87053454	-5,6550560370087552	2	-0,145704493	0,0105779776
2	0	0	0	0	4393,55	1,85687888	1,85743654	-5,7997895479202266	2	-0,153151691	0,0107727414
2	0	0	1	0	4394,85	1,84387708	1,84441853	-5,9316905563076429	2	-0,160781756	0,0109405201
2	0	0	0	0	4396,15	1,83087528	1,83146071	-6,066683394213513	2	-0,168582112	0,0111108925
2	0	0	1	0	4397,45	1,8178736	1,81819236	-6,2014122617741734	2	-0,176560268	0,0112753604
2	0	0	0	0	4398,75	1,8048718	1,80530465	-6,337825020154327	2	-0,184716508	0,0114417048
2	0	0	0	0	4400,05	1,79187	1,79238689	-6,4503770644466125	2	-0,193029299	0,0115615716
2	0	0	1	0	4401,35	1,7788682	1,77937913	-6,5734714046120781	2	-0,201500624	0,0116966981
2	0	0	0	0	4402,65	1,76586628	1,76634097	-6,6900033379594714	2	-0,21012713	0,0118168266
2	0	0	1	0	4403,95	1,75286472	1,75338304	-6,8007603809237478	2	-0,218893975	0,0119243376
2	0	0	0	0	4405,25	1,73986292	1,74044538	-6,9281767234206336	2	-0,227824181	0,0120581128
2	0	0	1	0	4406,55	1,726861	1,72744739	-7,0312944551309043	2	-0,236902505	0,0121461917
2	0	0	0	0	4407,85	1,71385944	1,71427906	-7,1434786766767219	2	-0,246121049	0,0122459158
2	0	0	1	0	4409,16	1,70085764	1,70123124	-7,2619978313644826	2	-0,255488217	0,0123543376
2	0	0	0	0	4410,46	1,68785572	1,68816328	-7,3656964153051302	2	-0,26499629	0,0124344984
2	0	0	0	0	4411,76	1,67485392	1,67525554	-7,4591896037260595	2	-0,274633914	0,0124960486
2	0	0	1	0	4413,06	1,66185212	1,66237772	-7,5571214035153395	2	-0,284409732	0,01256279
2	0	0	0	0	4414,36	1,64885032	1,64946997	-7,6477631727854464	2	-0,294300377	0,0126147559
2	0	0	1	0	4415,66	1,63584852	1,63640201	-7,7426009128491021	2	-0,304306537	0,0126700075
2	0	0	0	0	4416,96	1,62284684	1,62350416	-7,8445683990915712	2	-0,314437956	0,0127356891
2	0	0	1	0	4418,26	1,60984504	1,61042619	-7,937758199870615	2	-0,324693561	0,0127831735
2	0	0	0	0	4419,56	1,59684324	1,59741819	-8,039518438279657	2	-0,335084677	0,0128424726
2	0	0	1	0	4420,86	1,58384144	1,58433032	-8,1413410579165056	2	-0,345602363	0,0128985737
2	0	0	0	0	4422,16	1,57083976	1,57146263	-8,2417628814776973	2	-0,356254756	0,0129516227
2	0	0	0	0	4423,46	1,55783844	1,55848551	-8,3284986028507571	2	-0,367031902	0,0129798446
2	0	0	1	0	4424,76	1,54483616	1,54523647	-8,4196253170569869	2	-0,377918243	0,0130103119
2	0	0	0	0	4426,06	1,53183436	1,53231859	-8,4928766638040832	2	-0,388910472	0,0130137932
2	0	0	1	0	4427,36	1,51883268	1,51918054	-8,5689106037219661	2	-0,399997562	0,0130177224
2	0	0	0	0	4428,66	1,50583088	1,50617266	-8,655485133330025	2	-0,411193341	0,0130366553
2	0	0	1	0	4429,96	1,49282908	1,49340498	-8,7553297728300096	2	-0,422516614	0,013075253
2	0	0	0	0	4431,26	1,47982717	1,48024702	-8,8437989751498099	2	-0,433956057	0,0130910072
2	0	0	1	0	4432,56	1,46682549	1,46749938	-8,915972853700311	2	-0,445512801	0,0130841844
2	0	0	0	0	4433,86	1,45382369	1,454211	-9,0031588549415462	2	-0,457156539	0,0130924927
2	0	0	0	0	4435,16	1,44082105	1,44127262	-9,0826158163954918	2	-0,468920738	0,0130905258
2	0	0	1	0	4436,46	1,42782021	1,42825544	-9,1363908176620902	2	-0,480763346	0,0130490996
2	0	0	0	0	4437,76	1,41481841	1,4153775	-9,199965265889943	2	-0,492686242	0,0130214235
2	0	0	1	0	4439,06	1,40181649	1,40218937	-9,2732400620977293	2	-0,50469768	0,0130028389
2	0	0	0	0	4440,36	1,38881481	1,38928163	-9,3509002874295386	2	-0,516807854	0,0129910344
2	0	0	1	0	4441,66	1,37581301	1,37646389	-9,4208907981713702	2	-0,529006541	0,0129675157
2	0	0	0	0	4442,96	1,36281121	1,36333573	-9,4900016859173914	2	-0,541299403	0,012938058
2	0	0	1	0	4444,26	1,34980929	1,35032797	-9,609733723104	2	-0,55369693	0,0129762925
2	0	0	0	0	4445,56	1,33680761	1,33718979	-9,6722164452075904	2	-0,566246569	0,0129335895
2	0	0	1	0	4446,86	1,32380593	1,32429206	-9,7566196851929306	2	-0,578893304	0,0129206143
2	0	0	1	0	4448,16	1,31080401	1,3112843	-9,8197994257012979	2	-0,591614187	0,0128765488
2	0	0	0	0	4449,46	1,29780233	1,29818618	-9,8848559906085568	2	-0,604422688	0,0128323836
2	0	0	1	0	4450,76	1,28480053	1,28538859	-9,951107680797577	2	-0,617321491	0,0127910404
2	0	0	0	0	4452,09	1,27149856	1,27227044	-10,016488234202072	2	-0,630601704	0,0127436817
2	0	0	1	0	4453,39	1,25849688	1,2590822	-10,057511692245811	2	-0,643653989	0,012663234
2	0	0	0	0	4454,69	1,2454952	1,24609435	-10,097494192421464	2	-0,656759799	0,0125824306
2	0	0	1	0	4455,99	1,23249328	1,2329762	-10,189017648498237	2	-0,66994518	0,012562816
2	0	0	0	0	4457,29	1,2194916	1,21990836	-10,295376194020122	2	-0,683285654	0,0125594158
2	0	0	1	0	4458,59	1,20648992	1,20732093	-10,328587549428157	2	-0,696692288	0,0124699203
2	0	0	1	0	4459,89	1,19348717	1,19407165	-10,332724264984733	2	-0,710124731	0,0123380134
2	0	0	0	0	4461,19	1,1804862	1,18111491	-10,305884415904656	2	-0,723528981	0,0121724335
2	0	0	1	0	4462,49	1,16748428	1,16797686	-10,324962899088888	2	-0,73694545	0,0120593179
2	0	0	0	0	4463,79	1,1544826	1,15498888	-10,372482240200014	2	-0,750401735	0,0119801015
2	0	0	1	0	4465,09	1,14148092	1,1419909	-10,408596312006325	2	-0,763906837	0,0118865222
2	0	0	0	0	4466,39	1,128479	1,12902308	-10,42656507343056	2	-0,777462304	0,0117718326
2	0	0	1	0	4467,69	1,11547732	1,11606526	-10,472380913794069	2	-0,791057289	0,0116878608
2	0	0	0	0	4468,99	1,10247552	1,1030072	-10,50481067597869	2	-0,80469352	0,0115868822
2	0	0	1	0	4470,29	1,08947361	1,08992922	-10,536166866620392	2	-0,818379104	0,0114836758
2	0	0	0	0	4471,59	1,07647192	1,07692122	-10,564454823732376	2	-0,83210063	0,0113770859
2	0	0	0	0	4472,89	1,06347013	1,06387341	-10,584235367675589	2	-0,845846474	0,0112602869
2	0	0	1	0	4474,19	1,05046833	1,05096567	-10,610496205588221	2	-0,85962522	0,0111512672
2	0	0	0	0	4475,49	1,03746665	1,03783739	-10,623601771891117	2	-0,87342757	0,0110255713
2	0	0	1	0	4476,79	1,02446496	1,02503979	-10,634550983707086	2	-0,887257099	0,0109008383
2	0	0	0	0	4478,09	1,01146305	1,01198173	-10,658979403475888	2	-0,901098907	0,0107866926
2	0	0	1	0	4479,39	0,998461306	0,999114156	-10,680212646722822	2	-0,914975464	0,0106707513
2	0	0	0	0	4480,69	0,985459507	0,986026108	-10,691803117593139	2	-0,928883374	0,0105423974
2	0	0	1	0	4482,00	0,972457647	0,972968042	-10,735386987527221	2	-0,942810714	0,0104451887
2	0	0	0	0	4483,30	0,959455967	0,95998019	-10,748377042512146	2	-0,956778526	0,010318229
2	0	0	0	0	4484,60	0,946454227	0,946892142	-10,767879334588869	2	-0,970772505	0,0101960199
2	0	0	1	0	4485,90	0,933452368	0,933954298	-10,769962914288074	2	-0,984784722	0,0100586535
2	0	0	0	0	4487,20	0,920450568	0,921016514	-10,826043124000216	2	-0,998835623	0,00997096486
2	0	0	1	0	4488,50	0,907448769	0,908088744	-10,82398613293963	2	-1,01291955	0,00982914027
2	0	0	0	0	4489,80	0,894447088	0,894930542	-10,786729757984499	2	-1,02695966	0,00965337362
2	0	0	1	0	4491,10	0,881445289	0,881942689	-10,793523895243816	2	-1,04099941	0,00951926969
2	0	0	0	0	4492,40	0,868443489	0,868894696	-10,800408497452765	2	-1,05504465	0,00938441791
2	0	0	1	0	4493,70	0,855441749	0,855896771	-10,820579568545032	2	-1,06909811	0,00926129892
2	0	0	0	0	4495,00	0,842440009	0,842898846	-10,812155902385725	2	-1,08316457	0,00911355391
2	0	0	0	0	4496,30	0,82943821	0,829870999	-10,8112946674228	2	-1,09722114	0,00897197984
2	0	0	1	0	4497,60	0,81643635	0,816883028	-10,810131130119166	2	-1,11127949	0,00883061253
2	0	0	0	0	4498,90	0,803434551	0,803885102	-10,781216658651861	2	-1,12530935	0,00866685901
2	0	0	1	0	4500,20	0,790432692	0,790646851	-10,793143182992957	2	-1,13932872	0,0085335644
2	0	0	0	0	4501,50	0,777431011	0,778089643	-10,792791637281597	2	-1,1533618	0,00839775894
2	0	0	1	0	4502,80	0,764429271	0,764941514	-10,805884361267106	2	-1,16740119	0,00826586969
2	0	0	0	0	4504,10	0,751427472	0,752063811	-10,811012223362912	2	-1,18145037	0,00813057087
2	0	0	1	0	4505,40	0,738425672	0,738845587	-10,812742245694011	2	-1,19551373	0,00798894651
2	0	0	0	0	4506,70	0,725423872	0,725667417	-10,818327705065386	2	-1,20958471	0,00785050821
2	0	0	0	0	4508,00	0,712422788	0,712961435	-10,828540080744246	2	-1,2236588	0,00772033166
2	0	0	1	0	4509,30	0,699420333	0,699901938	-10,826606142024246	2	-1,23774171	0,0075775627
2	0	0	0	0	4510,60	0,686418533	0,686653674	-10,813348531723037	2	-1,25181162	0,00742502557
2	0	0	1	0	4511,90	0,673416734	0,673825979	-10,801948711276098	2	-1,26586497	0,00727863377
2	0	0	0	0	4513,20	0,660414994	0,661018431	-10,792970500886469	2	-1,27990651	0,00713435235
2	0	0	1	0	4514,50	0,647413254	0,647840202	-10,774789472421077	2	-1,29393446	0,00698034186
2	0	0	0	0	4515,80	0,634411395	0,634832323	-10,7551189661026	2	-1,30793321	0,00682769716
2	0	0	1	0	4517,10	0,621409595	0,621894479	-10,740320223073162	2	-1,32191098	0,00667934585
2	0	0	0	0	4518,40	0,608407855	0,608846486	-10,748281113803387	2	-1,33586133	0,00654405309
2	0	0	1	0	4519,70	0,595406115	0,595918715	-10,707838150362171	2	-1,34981	0,00638100132
2	0	0	1	0	4521,00	0,582404315	0,58267045	-10,672228110333293	2	-1,36370552	0,00621839194
2	0	0	0	0	4522,30	0,569402516	0,569962919	-10,637250858048595	2	-1,37756526	0,00606283871
2	0	0	1	0	4523,60	0,556400716	0,556864858	-10,616970288256795	2	-1,39138043	0,00591221778
2	0	0	0	0	4524,90	0,543398917	0,543907046	-10,58809472620488	2	-1,40516388	0,00575893931
2	0	0	1	0	4526,20	0,530397117	0,530869067	-10,55379682779311	2	-1,41890538	0,00560268434
2	0	0	0	0	4527,50	0,517395318	0,518051386	-10,513718257347734	2	-1,43260217	0,00544664636
2	0	0	1	0	4528,80	0,504393637	0,504833221	-10,485692034165069	2	-1,44625843	0,00529352576
2	1	0	0	0	4530,02	0,507794023	0,508167803	-10,288449073831245	2	-1,45897198	0,00522825867
2	1	0	1	0	4531,32	0,520795822	0,521165669	-10,044952703018965	2	-1,47218525	0,00523508433
2	1	0	0	0	4532,62	0,533797622	0,534233749	-9,8277499477069056	2	-1,48509717	0,00525031565
2	1	0	1	0	4533,92	0,546799362	0,547271669	-9,638834948341056	2	-1,49774325	0,00527506135
2	1	0	0	0	4535,22	0,559801161	0,560379684	-9,4640167405208192	2	-1,51015842	0,00530344248
2	1	0	1	0	4536,52	0,572802961	0,573387623	-9,2957086488604621	2	-1,522349	0,00533004431
2	1	0	0	0	4537,82	0,58580476	0,58647567	-9,1575003042817434	2	-1,53434277	0,00537065091
2	1	0	1	0	4539,12	0,5988065	0,599213183	-9,0361178666352947	2	-1,54617167	0,0054145609
2	1	0	0	0	4540,42	0,6118083	0,612271249	-8,9123932619889677	2	-1,55783916	0,00545680197
2	1	0	0	0	4541,72	0,624810159	0,625389278	-8,8056872189044954	2	-1,56935513	0,00550698256
2	1	0	1	0	4543,02	0,63781184	0,638417244	-8,7018524532516608	2	-1,58073497	0,00555541273
2	1	0	0	0	4544,32	0,650813699	0,651375055	-8,6010662590464051	2	-1,59198487	0,00560251996
2	1	0	1	0	4545,62	0,663815498	0,664403081	-8,5054842780033651	2	-1,6031059	0,00565106981
2	1	0	0	0	4546,92	0,676817238	0,677300811	-8,4129369631409357	2	-1,61410403	0,00569808902
2	1	0	1	0	4548,22	0,689818978	0,690428853	-8,3153971508145114	2	-1,62497604	0,00574119017
2	1	0	0	0	4549,52	0,702820778	0,703246534	-8,2199450855453901	2	-1,6357286	0,00578064797
2	1	0	1	0	4550,83	0,715822577	0,716524839	-8,133244437476009	2	-1,64635456	0,00582767185
2	1	0	0	0	4552,13	0,728824317	0,729162276	-8,0381298512220314	2	-1,65686631	0,00586110121
2	1	0	1	0	4553,43	0,741826117	0,74252063	-7,9672331628203674	2	-1,66726935	0,00591583503
2	1	0	1	0	4554,73	0,754827917	0,75527823	-7,8793454344073997	2	-1,67756963	0,00595109817
2	1	0	0	0	4556,03	0,767829716	0,768266141	-7,7921150500575603	2	-1,68775821	0,00598641811
2	1	0	1	0	4557,33	0,780831456	0,781283975	-7,7115704938769485	2	-1,69783378	0,00602492644
2	1	0	0	0	4558,63	0,793833137	0,794492245	-7,6291204094886669	2	-1,70780504	0,00606127689
2	1	0	1	0	4559,93	0,806834996	0,807430029	-7,5566724464297293	2	-1,71767318	0,00610148441
2	1	0	0	0	4561,23	0,819836795	0,820197582	-7,4809339096148621	2	-1,72744787	0,00613584369
2	1	0	1	0	4562,53	0,832838655	0,833395839	-7,4014760131636877	2	-1,73712492	0,00616835942
2	1	0	0	0	4563,83	0,845840454	0,846503854	-7,3278712754448384	2	-1,74669731	0,00620307121
2	1	0	1	0	4565,13	0,858842075	0,859401643	-7,248114799459785	2	-1,75617266	0,00622904161
2	1	0	1	0	4566,43	0,871843934	0,872159183	-7,1821467007200115	2	-1,76554585	0,00626397505
2	1	0	0	0	4567,73	0,884845734	0,885547698	-7,1014453619718835	2	-1,7748245	0,00628866861
2	1	0	1	0	4569,03	0,897847533	0,898185074	-7,0188864817221914	2	-1,78400624	0,00630425895
2	1	0	0	0	4570,33	0,910849392	0,911273122	-6,9433870663245542	2	-1,79308188	0,00632732222
2	1	0	1	0	4571,63	0,923851132	0,924371183	-6,8678013384342477	2	-1,80206168	0,00634839758
2	1	0	0	0	4572,93	0,936852813	0,937549293	-6,79224250465632	2	-1,81094313	0,00636806199
2	1	0	1	0	4574,23	0,949854672	0,95032686	-6,7142149806022643	2	-1,81972063	0,00638069864
2	1	0	0	0	4575,53	0,962856472	0,963344872	-6,6336033915479936	2	-1,82839715	0,00639044773
2	1	0	1	0	4576,83	0,975858092	0,97643292	-6,5589262321591514	2	-1,83697081	0,00640435144
2	1	0	1	0	4578,13	0,988859951	0,989460826	-6,4767180730898982	2	-1,84544373	0,00640845904
2	1	0	0	0	4579,43	1,00186169	1,00232852	-6,396364904940128	2	-1,85381186	0,00641125906
2	1	0	1	0	4580,73	1,01486349	1,01547658	-6,3088966508706509	2	-1,86207306	0,00640653679
2	1	0	0	0	4582,03	1,02786541	1,02851462	-6,2290206588804723	2	-1,87022293	0,00640663877
2	1	0	1	0	4583,33	1,04086697	1,04161263	-6,1629892463485453	2	-1,8782748	0,00641944725
2	1	0	0	0	4584,63	1,05386877	1,05438018	-6,0759083492060595	2	-1,88622952	0,00640631747
2	1	0	1	0	4585,93	1,06687069	1,06737804	-5,9926433749496986	2	-1,89407623	0,00639641611
2	1	0	0	0	4587,23	1,07987225	1,08034599	-5,9050618124504832	2	-1,90181017	0,00637950981
2	1	0	1	0	4588,53	1,09287405	1,09365439	-5,8330774866044659	2	-1,90944207	0,00637937104
2	1	0	1	0	4589,83	1,10587573	1,10663342	-5,7557400203304922	2	-1,9169755	0,00636949437
2	1	0	0	0	4591,13	1,11887777	1,11952996	-5,6565297308067526	2	-1,92439246	0,00633265451
2	1	0	1	0	4592,43	1,13187957	1,13256788	-5,5707338886956563	2	-1,93169153	0,00630923407
2	1	0	0	0	4593,73	1,14488125	1,14552581	-5,4811250194907187	2	-1,93887818	0,00627877004
2	1	0	1	0	4595,03	1,15788317	1,15825331	-5,4002987494071277	2	-1,94594967	0,00625491375
2	1	0	0	0	4596,33	1,17088485	1,17153156	-5,3151783645153114	2	-1,95291781	0,0062268991
2	1	0	1	0	4597,63	1,18388653	1,18440938	-5,2019355893135072	2	-1,95976233	0,0061612213
2	1	0	0	0	4598,93	1,19688845	1,19738722	-5,1245611868798592	2	-1,96647441	0,00613608398
2	1	0	1	0	4600,23	1,20989025	1,21049523	-5,0352969976762976	2	-1,97307682	0,00609520311
2	1	0	0	0	4601,57	1,22329199	1,22402394	-4,9577679609259046	2	-1,97976732	0,00606842665
2	1	0	0	0	4602,87	1,23629391	1,23684156	-4,8740607264141216	2	-1,98615456	0,00602844078
2	1	0	1	0	4604,17	1,24929571	1,2499696	-4,7890184881786554	2	-1,99243355	0,00598612754
2	1	0	0	0	4605,47	1,26229727	1,26273727	-4,699993073940281	2	-1,99859893	0,00593485637
2	1	0	1	0	4606,77	1,27529919	1,27586532	-4,6158237295846086	2	-2,00465608	0,00588916941
2	1	0	0	0	4608,07	1,28830099	1,2888031	-4,5280095189809939	2	-2,01059842	0,00583571289
2	1	0	1	0	4609,37	1,30130279	1,30160081	-4,4424792875846323	2	-2,01643085	0,0057823346
2	1	0	0	0	4610,67	1,31430447	1,31480896	-4,3519015721976723	2	-2,02214503	0,00572191924
2	1	0	1	0	4611,97	1,32730639	1,32778692	-4,2609362378716467	2	-2,02774858	0,00565761561
2	1	0	0	0	4613,27	1,34030819	1,34078479	-4,1840511187911174	2	-2,03323412	0,00560991187
2	1	0	0	0	4614,57	1,35330915	1,35376251	-4,0962284539449741	2	-2,03861618	0,00554532045
2	1	0	1	0	4615,87	1,36631167	1,36691082	-4,0090361274778982	2	-2,04388428	0,0054799947
2	1	0	0	0	4617,17	1,37931347	1,37994874	-3,9195963491996224	2	-2,04903626	0,00540884212
2	1	0	1	0	4618,47	1,39231515	1,39287663	-3,8344813510775565	2	-2,05407548	0,00534095941
2	1	0	0	0	4619,77	1,40531695	1,40570438	-3,7472257850070886	2	-2,05900383	0,00526749156
2	1	0	1	0	4621,07	1,41831887	1,41878223	-3,668929349631072	2	-2,06382179	0,00520541193
2	1	0	0	0	4622,37	1,43132067	1,43185019	-3,5859118898709709	2	-2,06853652	0,00513448846
2	1	0	1	0	4623,68	1,44432247	1,44485831	-3,5044322796166086	2	-2,07314515	0,00506340805
2	1	0	0	0	4624,98	1,45732415	1,45775592	-3,4253417936464282	2	-2,07764959	0,00499331206
2	1	0	1	0	4626,28	1,47032595	1,47095406	-3,3458014540374208	2	-2,08205152	0,00492152013
2	1	0	1	0	4627,58	1,48332775	1,48388195	-3,263103856394679	2	-2,08634615	0,00484206108
2	1	0	0	0	4628,88	1,49632955	1,49698997	-3,1873132375379354	2	-2,0905416	0,00477137603
2	1	0	1	0	4630,18	1,50933135	1,5099678	-3,1088459106783117	2	-2,09463334	0,0046942574
2	1	0	0	0	4631,48	1,52233326	1,52252519	-3,0330139026045869	2	-2,0986259	0,00461784005
2	1	0	1	0	4632,78	1,53533494	1,53578341	-2,9530849549919418	2	-2,1025188	0,00453529879
2	1	0	0	0	4634,08	1,54833663	1,54893148	-2,8769609158237798	2	-2,10630894	0,00445621554
2	1	0	1	0	4635,38	1,56133854	1,56173921	-2,7925801047434416	2	-2,10999823	0,00436128164
2	1	0	0	0	4636,68	1,57433999	1,57486713	-2,7209462473789898	2	-2,11358261	0,00428512879
2	1	0	1	0	4637,98	1,5873419	1,5877248	-2,647069652254384	2	-2,11707211	0,00420281803
2	1	0	1	0	4639,28	1,6003437	1,60084307	-2,5706291515380144	2	-2,12046146	0,00411517406
2	1	0	0	0	4640,58	1,6133455	1,61387098	-2,4973498303443123	2	-2,12375522	0,00403040042
2	1	0	1	0	4641,88	1,6263473	1,62689888	-2,4220915324986051	2	-2,12695265	0,00394049799
2	1	0	0	0	4643,18	1,6393491	1,63993704	-2,3507583861549718	2	-2,13005495	0,00385509571
2	1	0	1	0	4644,48	1,65235078	1,65293467	-2,2782857095201798	2	-2,13306403	0,00376585755
2	1	0	0	0	4645,78	1,66535258	1,66593277	-2,2047376961757728	2	-2,13597918	0,00367294485
2	1	0	1	0	4647,08	1,67835438	1,67889047	-2,1334572571019379	2	-2,13879943	0,00358184101
2	1	0	0	0	4648,38	1,6913563	1,6917181	-2,0601845253258944	2	-2,14152575	0,00348525145
2	1	0	1	0	4649,68	1,7043581	1,70473623	-1,9928338179985693	2	-2,14416051	0,0033972559
2	1	0	1	0	4650,98	1,71735966	1,7178241	-1,9243180217842237	2	-2,14670515	0,00330563984
2	1	0	0	0	4652,28	1,73036158	1,73058164	-1,847655121857919	2	-2,14915991	0,00319751794
2	1	0	1	0	4653,58	1,74336338	1,74387002	-1,7786210943013411	2	-2,15151811	0,00310168392
2	1	0	0	0	4654,88	1,75636494	1,75680792	-1,7078524051855021	2	-2,15378356	0,0030003686
2	1	0	1	0	4656,18	1,76936686	1,76975572	-1,6352742283294646	2	-2,15595746	0,00289403601
2	1	0	0	0	4657,48	1,78236866	1,78269362	-1,5615014601498877	2	-2,1580348	0,0027836787
2	1	0	1	0	4658,78	1,79537046	1,79589164	-1,4901451819265894	2	-2,16001892	0,00267613935
2	1	0	0	0	4660,08	1,80837226	1,80881953	-1,422368495104216	2	-2,16191125	0,00257280795
2	1	0	1	0	4661,38	1,82137406	1,82206774	-1,3526478229711466	2	-2,16371512	0,00246461597
2	1	0	1	0	4662,68	1,83437514	1,83490396	-1,2862422315507037	2	-2,16542983	0,00236013089
2	1	0	0	0	4663,98	1,84737754	1,84774303	-1,2155369380489	2	-2,16705513	0,00224599987
2	1	0	1	0	4665,28	1,86037934	1,86087132	-1,14628508749108	2	-2,16859031	0,00213308912
2	1	0	0	0	4666,58	1,87338114	1,87407947	-1,0766900725041824	2	-2,17003512	0,00201780279
2	1	0	1	0	4667,88	1,88638306	1,88706732	-1,0069767010087762	2	-2,17138863	0,00190023286
2	1	0	0	0	4669,18	1,89938486	1,89980483	-0,93711128924041984	2	-2,17265296	0,00178032857
2	1	0	1	0	4670,48	1,91238642	1,9130131	-0,8680540757874624	2	-2,17382479	0,00166059879
2	1	0	0	0	4671,78	1,92538834	1,92591095	-0,80160622733334733	2	-2,17490911	0,00154382223
2	1	0	1	0	4673,08	1,93839014	1,93888879	-0,73264382733032461	2	-2,17590714	0,00142051489
2	1	0	0	0	4674,38	1,9513917	1,95198667	-0,66853849077597261	2	-2,17681813	0,00130497827
2	1	0	0	0	4675,68	1,96439362	1,96477425	-0,60049384304632717	2	-2,17764211	0,00117983483
2	1	0	1	0	4676,98	1,97739542	1,97792232	-0,53347038726011718	2	-2,17837882	0,00105516298
2	1	0	0	0	4678,32	1,99079728	1,99126089	-0,46640427550300954	2	-2,17904878	0,000928732567
2	1	0	1	0	4679,62	2,00379896	2,00432873	-0,39983859860027885	2	-2,17961168	0,000801407965
2	1	0	0	0	4680,92	2,01680088	2,0172267	-0,33493911156741338	2	-2,18008876	0,000675648102
2	1	0	1	0	4682,22	2,02980256	2,03052497	-0,27084020416562816	2	-2,18048215	0,000549947785
2	1	0	0	0	4683,52	2,04280424	2,04315257	-0,20647623102801571	2	-2,18079162	0,000421862438
2	1	0	1	0	4684,82	2,05580616	2,05658078	-0,14248184689010146	2	-2,18101811	0,000293025427
2	1	0	0	0	4686,12	2,06880808	2,06933832	-0,078802428111278797	2	-2,1811614	0,000163068878
2	1	0	0	0	4687,46	2,08220935	2,08255625	-0,013958054270398728	2	-2,18122292	2,90684329E-005
2	1	0	1	0	4688,76	2,09521174	2,09570456	0,04793588723987319	2	-2,18120027	0,00010045946
2	1	0	0	0	4690,10	2,10861325	2,10923338	0,11194756343805534	2	-2,1810925	0,000236123538
2	1	0	1	0	4691,40	2,12161517	2,12206101	0,17387047945521728	2	-2,1809063	0,000368963752
2	1	0	0	0	4692,70	2,13461709	2,13516927	0,23506107476229498	2	-2,18063951	0,000501895207
2	1	0	1	0	4694,00	2,14761853	2,14823699	0,29659951633463245	2	-2,18029356	0,000637166027
2	1	0	0	0	4695,30	2,16062045	2,16123486	0,35870823194272883	2	-2,17986727	0,00077525276
2	1	0	1	0	4696,61	2,17362237	2,17409277	0,41966161581997952	2	-2,17936039	0,000912383257
2	1	0	0	0	4697,91	2,18662405	2,18682027	0,48030794660250285	2	-2,1787746	0,00105034711
2	1	0	1	0	4699,21	2,19962573	2,20025873	0,54123897369330278	2	-2,17810988	0,00119086576
2	1	0	0	0	4700,51	2,2126286	2,21306682	0,60120672475174118	2	-2,17736673	0,0013305106
2	1	0	0	0	4701,81	2,22562933	2,22609425	0,66169483540579584	2	-2,17654538	0,00147299503
2	1	0	1	0	4703,11	2,23863125	2,23912215	0,72154486163829773	2	-2,17564631	0,00161562709
2	1	0	0	0	4704,41	2,25163293	2,2521801	0,78162609040737152	2	-2,17466903	0,00176036276
2	1	0	1	0	4705,71	2,26463485	2,26512814	0,84082429048915942	2	-2,17361379	0,0019045748
2	1	0	0	0	4707,01	2,27763653	2,27815604	0,89972253516316416	2	-2,17248201	0,00204970827
2	1	0	1	0	4708,31	2,29063845	2,2910738	0,95868239800134707	2	-2,17127395	0,00219641207
2	1	0	0	0	4709,64	2,30394006	2,30447221	1,0201636319980043	2	-2,16995764	0,00235093874
2	1	0	1	0	4710,94	2,31694198	2,31725979	1,0766585633779542	2	-2,16859341	0,00249489769
2	1	0	0	0	4712,24	2,32994413	2,33051944	1,1340887865984328	2	-2,16715503	0,00264301593
2	1	0	0	0	4713,54	2,34294558	2,34353614	1,1916887334858366	2	-2,16564178	0,00279276562
2	1	0	1	0	4714,84	2,35594726	2,35626364	1,2516803716619778	2	-2,16405201	0,00294928905
2	1	0	0	0	4716,14	2,36894894	2,36940193	1,3058806592598549	2	-2,16238952	0,00309415627
2	1	0	1	0	4717,44	2,38195109	2,38233972	1,3609180434917426	2	-2,16065621	0,00324216904
2	1	0	0	0	4718,74	2,39495254	2,39543724	1,4180135317146778	2	-2,15884972	0,00339676253
2	1	0	1	0	4720,04	2,40795422	2,4084959	1,4752063890919062	2	-2,15696788	0,00355302845
2	1	0	0	0	4721,34	2,42095637	2,42142344	1,5345879752809782	2	-2,15501094	0,0037158872
2	1	0	1	0	4722,64	2,43395805	2,43459153	1,5928422175347728	2	-2,15297794	0,0038779201
2	1	0	0	0	4723,94	2,44696045	2,44744921	1,6531276047835702	2	-2,15086651	0,00404594606
2	1	0	0	0	4725,24	2,45996165	2,46058726	1,7164992541074682	2	-2,14867568	0,0042235963
2	1	0	1	0	4726,54	2,47296333	2,47354507	1,7737385487804787	2	-2,14640665	0,00438742246
2	1	0	0	0	4727,84	2,48596501	2,48651314	1,8378788307309107	2	-2,14405704	0,00456991
2	1	0	1	0	4729,14	2,49896693	2,49956107	1,8939470214148368	2	-2,14162946	0,00473403605
2	1	0	0	0	4730,44	2,51196861	2,51236892	1,957235454271231	2	-2,13912439	0,00491729751
2	1	0	1	0	4731,74	2,52497029	2,52529669	2,0209710902223997	2	-2,13653874	0,00510355178
2	1	0	0	0	4733,04	2,53797221	2,53843451	2,09268190525472	2	-2,13386178	0,00531213591
2	1	0	1	0	4734,34	2,55097389	2,55144238	2,1541893184184957	2	-2,13110137	0,00549629005
2	1	0	0	0	4735,64	2,56397581	2,56462073	2,2137555368244646	2	-2,12826014	0,00567744346
2	1	0	0	0	4736,94	2,57697701	2,57743812	2,2875051393446294	2	-2,12533259	0,00589590287
2	1	0	1	0	4738,24	2,58997917	2,59046626	2,351006329680473	2	-2,12232041	0,00609020237
2	1	0	0	0	4739,54	2,60298109	2,60345411	2,4111213162541354	2	-2,11922455	0,00627724361
2	1	0	1	0	4740,84	2,61598301	2,61652207	2,4755723290145398	2	-2,11604691	0,00647738948
2	1	0	0	0	4742,14	2,62898469	2,62951016	2,5462341134746912	2	-2,11278319	0,0066953483
2	1	0	1	0	4743,44	2,64198661	2,6425581	2,6154628669222077	2	-2,1094265	0,00691151246
2	1	0	0	0	4744,74	2,65498829	2,65552592	2,6826586623986656	2	-2,10598063	0,00712386984
2	1	0	1	0	4746,04	2,66798997	2,66848397	2,7474131466200003	2	-2,10245442	0,00733142812
2	1	0	0	0	4747,34	2,68099189	2,68150187	2,8111719414591648	2	-2,09884143	0,00753816264
2	1	0	0	0	4748,64	2,69399333	2,69457006	2,8873078375816198	2	-2,09513807	0,00778005319
2	1	0	1	0	4749,94	2,70699525	2,70747781	2,9489483429739955	2	-2,09134364	0,0079842126
2	1	0	0	0	4751,24	2,71999741	2,72047544	3,0058174077421421	2	-2,08747315	0,00817725249
2	1	0	1	0	4752,54	2,73299909	2,7335434	3,064655873303607	2	-2,08352566	0,00837736949
2	1	0	0	0	4753,84	2,74600077	2,74649119	3,1267922446131706	2	-2,07949972	0,00858770777
2	1	0	1	0	4755,14	2,75900269	2,75948906	3,1873225358625133	2	-2,07539749	0,00879538152
2	1	0	0	0	4756,44	2,77200437	2,77243686	3,2462169056137286	2	-2,07121348	0,00899993163
2	1	0	1	0	4757,74	2,78500605	2,78553534	3,3178772131601875	2	-2,06694722	0,00924206432
2	1	0	0	0	4759,04	2,79800797	2,79847288	3,3709208220243456	2	-2,06259847	0,00943343062
2	1	0	1	0	4760,34	2,81100988	2,81152081	3,4421628043055533	2	-2,05816126	0,00967771281
2	1	0	1	0	4761,64	2,82401156	2,82455873	3,5171457255880013	2	-2,05363846	0,00993438438
2	1	0	0	0	4762,94	2,83701324	2,83754659	3,5881875927249498	2	-2,04902196	0,0101816496
2	1	0	1	0	4764,24	2,85001516	2,85064483	3,6402588685353549	2	-2,04432511	0,0103770848
2	1	0	0	0	4765,54	2,86301684	2,86360288	3,706745445728295	2	-2,03954792	0,0106146466
2	1	0	1	0	4766,84	2,87601852	2,87649059	3,7686051055788851	2	-2,03468919	0,0108403573
2	1	0	0	0	4768,14	2,88902044	2,88960838	3,8209351177016941	2	-2,02974987	0,0110410061
2	1	0	1	0	4769,45	2,90202212	2,90268636	3,8884800958136621	2	-2,02473831	0,0112870382
2	1	0	0	0	4770,75	2,9150238	2,91562414	3,9587541197737152	2	-2,01962996	0,0115422392
2	1	0	1	0	4772,05	2,92802572	2,92853212	4,032650028665849	2	-2,01443076	0,0118097449
2	1	0	0	0	4773,35	2,94102836	2,94154143	4,1014662777900525	2	-2,00914574	0,012064633
2	1	0	0	0	4774,65	2,95402932	2,95460796	4,1679073683917664	2	-2,00376701	0,012314532
2	1	0	1	0	4775,95	2,967031	2,96741557	4,2398234220842566	2	-1,99830079	0,0125813177
2	1	0	0	0	4777,25	2,98003292	2,98036337	4,3125873617828032	2	-1,99273896	0,0128530776
2	1	0	1	0	4778,55	2,9930346	2,99360156	4,3882154027620858	2	-1,98708129	0,0131365685
2	1	0	0	0	4779,85	3,00603652	3,0065496	4,4537186225255322	2	-1,98133421	0,0133903259
2	1	0	1	0	4781,15	3,0190382	3,01941729	4,5295853540301395	2	-1,97550344	0,0136767086
2	1	0	0	0	4782,45	3,03204012	3,03238511	4,5930171869695187	2	-1,9695735	0,0139277969
2	1	0	1	0	4783,75	3,0450418	3,04552317	4,6674780088166374	2	-1,96355283	0,0142149124
2	1	0	0	0	4785,05	3,0580442	3,05853081	4,7497190367086118	2	-1,9574306	0,0145271616
2	1	0	0	0	4786,35	3,0710454	3,07131863	4,8018303389350445	2	-1,95121491	0,0147479512
2	1	0	1	0	4787,65	3,08404708	3,08453703	4,8927173962195597	2	-1,94490433	0,0150917675
2	1	0	0	0	4788,95	3,09704876	3,09772515	4,9720116766790598	2	-1,93849218	0,0154019259
2	1	0	1	0	4790,25	3,11005092	3,11049271	5,0562925847868064	2	-1,93198621	0,015727561
2	1	0	0	0	4791,55	3,1230526	3,12343049	5,1385471063355366	2	-1,92535985	0,0160498954
2	1	0	1	0	4792,85	3,13605428	3,13647866	5,2197746808330195	2	-1,91861808	0,0163717121
2	1	0	0	0	4794,15	3,14905596	3,14952636	5,3595832077165395	2	-1,91172194	0,016880149
2	1	0	1	0	4795,45	3,16205788	3,16247439	5,4245556431511942	2	-1,90471721	0,0171550177
2	1	0	1	0	4796,75	3,17505813	3,17543101	5,4931268392956838	2	-1,89762545	0,017443046
2	1	0	0	0	4798,05	3,18806124	3,18845987	5,5438361093401811	2	-1,89044285	0,0176762994
2	1	0	1	0	4799,35	3,20106316	3,2016983	5,622561839719609	2	-1,88317394	0,0180017464
2	1	0	0	0	4800,65	3,21406484	3,21456599	5,7053354593614643	2	-1,87581551	0,0183401778
2	1	0	1	0	4801,95	3,22706652	3,22749376	5,7775664863486925	2	-1,86834097	0,0186470598
2	1	0	0	0	4803,25	3,24006844	3,24069214	5,8409514675537715	2	-1,8607955	0,0189287253
2	1	0	1	0	4804,55	3,25307012	3,25362968	5,9072749043504307	2	-1,85315371	0,0192200858
2	1	0	0	0	4805,85	3,2660718	3,26659751	5,9897516667842726	2	-1,84542191	0,0195661075
2	1	0	1	0	4807,15	3,27907372	3,27966571	6,0722136000792192	2	-1,83757496	0,0199148301
2	1	0	0	0	4808,45	3,2920754	3,29250312	6,1417236179113421	2	-1,82961702	0,020221645
2	1	0	0	0	4809,75	3,30507708	3,30572152	6,2076464854180813	2	-1,82158136	0,0205207504
2	1	0	1	0	4811,05	3,31807899	3,31874967	6,3102078860004659	2	-1,81343675	0,0209420007
2	1	0	0	0	4812,35	3,33108068	3,3317275	6,4045326759417664	2	-1,80517602	0,0213381574
2	1	0	1	0	4813,65	3,34408283	3,34471536	6,4928545082608909	2	-1,79679859	0,0217167493
2	1	0	0	0	4814,95	3,35708427	3,35756278	6,5689779669046259	2	-1,78830504	0,0220557563
2	1	0	1	0	4816,25	3,37008595	3,37045074	6,745962383846432	2	-1,77963626	0,0227369331
2	1	0	0	0	4817,55	3,38308811	3,38362885	6,8407585769891738	2	-1,77082062	0,0231465884
2	1	0	1	0	4818,85	3,39608955	3,39648676	6,9375997011860019	2	-1,76190054	0,0235634651
2	1	0	0	0	4820,15	3,40909171	3,40966463	7,0570448438326426	2	-1,75277531	0,0240621567
2	1	0	0	0	4821,45	3,42209339	3,42243433	7,2267654491723904	2	-1,74348199	0,0247331299
2	1	0	1	0	4822,75	3,43509531	3,43563032	7,4831077804168013	2	-1,7338829	0,0257091913
2	1	0	0	0	4824,05	3,44809699	3,44872832	7,5628064374128883	2	-1,72410345	0,026082065
2	1	0	1	0	4825,35	3,46109867	3,46160626	7,6389661232630285	2	-1,71420908	0,0264430922
2	1	0	0	0	4826,65	3,47410059	3,4745841	7,7334414670864934	2	-1,70421386	0,0268704928
2	1	0	1	0	4827,95	3,48710227	3,48776221	7,9074069882432666	2	-1,69401586	0,0275791548
2	1	0	0	0	4829,25	3,50010419	3,50072002	7,9958009148637427	2	-1,6836642	0,0279910602
2	1	0	1	0	4830,55	3,51310587	3,51361799	8,1392623583475648	2	-1,67317438	0,0285982583
2	1	0	0	0	4831,85	3,52610779	3,52663612	8,2674341276287859	2	-1,66252792	0,0291562323
2	1	0	1	0	4833,15	3,53910995	3,5396142	8,3741305684816896	2	-1,65168071	0,0296411924
2	1	0	1	0	4834,45	3,55211115	3,55252171	8,5452993412812506	2	-1,64068282	0,0303573608
2	1	0	0	0	4835,75	3,56511307	3,56557965	8,7232840160529011	2	-1,62943554	0,0311035644
2	1	0	1	0	4837,05	3,57811475	3,57883787	8,8454972431063578	2	-1,6179992	0,0316566005
2	1	0	0	0	4838,35	3,59111643	3,59157538	8,9747734939058291	2	-1,6063987	0,0322335772
2	1	0	1	0	4839,65	3,60411835	3,60461354	8,9085639193654054	2	-1,5947504	0,0321119316
2	1	0	0	0	4840,95	3,61712003	3,6175313	9,0228725721438541	2	-1,5831213	0,0326405242
2	1	0	1	0	4842,26	3,63012171	3,63049912	9,1302235300342426	2	-1,57130432	0,033147268
2	1	0	0	0	4843,56	3,64312363	3,64364719	9,3630172858635354	2	-1,55924177	0,0341155306
2	1	0	1	0	4844,86	3,65612531	3,65662479	9,6608505323529178	2	-1,54697907	0,0353261046
2	1	0	1	0	4846,16	3,66912651	3,66972375	9,7270967006899418	2	-1,53437078	0,0356957577
2	1	0	0	0	4847,50	3,68252897	3,68300152	9,924184692402711	2	-1,5212158	0,0365507863
2	1	0	1	0	4848,80	3,69553065	3,69598937	10,055833004414979	2	-1,50824869	0,0371662527
2	1	0	0	0	4850,10	3,70853281	3,70916724	10,179994935790688	2	-1,49507022	0,037759304
2	1	0	1	0	4851,40	3,72153425	3,72200489	10,333081247905888	2	-1,48170877	0,0384597778
2	1	0	0	0	4852,70	3,73453641	3,7347424	10,435255900025354	2	-1,46820223	0,0389729924
2	1	0	1	0	4854,00	3,74753809	3,7478807	10,666084532936395	2	-1,4544524	0,039975211
2	1	0	0	0	4855,30	3,76053953	3,7611289	10,759499820570141	2	-1,4405278	0,0404678658
2	1	0	1	0	4856,60	3,77354169	3,77390623	11,028117420772701	2	-1,4262985	0,0416190811
2	1	0	1	0	4857,90	3,78654242	3,78689384	11,296807471272302	2	-1,41176403	0,0427798107
2	1	0	0	0	4859,20	3,79954529	3,79995251	11,403982130189742	2	-1,39702427	0,0433345921
2	1	0	1	0	4860,50	3,81254697	3,81315041	11,529239927728952	2	-1,38209093	0,0439627245
2	1	0	0	0	4861,80	3,82554889	3,82597852	12,07931010425088	2	-1,36679542	0,0462151803
2	1	0	1	0	4863,10	3,83855057	3,83890605	12,230275504291029	2	-1,35094905	0,0469508804
2	1	0	0	0	4864,40	3,85155225	3,85222435	12,278129627307251	2	-1,33505559	0,047298111
2	1	0	1	0	4865,70	3,86455417	3,8648417	12,39209773639837	2	-1,31901836	0,0478934944
2	1	0	0	0	4867,00	3,87755585	3,87812996	12,452520377934016	2	-1,30287397	0,0482924916
2	1	0	1	0	4868,30	3,89055753	3,89089751	12,599285612503677	2	-1,28659546	0,0490225293
2	1	0	0	0	4869,60	3,90356016	3,90401769	12,723799142679411	2	-1,27011216	0,0496739373
2	1	0	0	0	4870,90	3,91656113	3,91707373	12,899848644932091	2	-1,25340235	0,0505296588
2	1	0	1	0	4872,20	3,92956281	3,93013191	13,175217981139837	2	-1,23640919	0,0517803431
2	1	0	0	0	4873,50	3,94256473	3,9429996	13,328192030390085	2	-1,21922159	0,0525530577
2	1	0	1	0	4874,80	3,95556641	3,95611739	13,404508928457886	2	-1,20181	0,0530298091
2	1	0	0	0	4876,10	3,96856809	3,96910524	13,730181818207086	2	-1,18408763	0,0544965379
2	1	0	1	0	4877,40	3,98157001	3,9821434	13,838215500116318	2	-1,16614974	0,055105757
2	1	0	0	0	4878,70	3,99457169	3,99497104	14,169453059633554	2	-1,14801157	0,0566065535
2	1	0	1	0	4880,00	4,0075736	4,00806952	14,229699527223915	2	-1,12955308	0,0570336245
2	1	0	0	0	4881,30	4,02057552	4,02110672	14,309307035207744	2	-1,11100531	0,0575392507
2	1	0	1	0	4882,60	4,03357792	4,03403568	14,399343048095347	2	-1,09234178	0,0580874644
2	1	0	1	0	4883,90	4,04657936	4,04718351	14,691564352101152	2	-1,07335746	0,0594594553
2	1	0	0	0	4885,20	4,0595808	4,06012058	14,735858221848787	2	-1,0542177	0,0598293617
2	1	0	1	0	4886,50	4,07258272	4,07301855	14,908497263987869	2	-1,03492868	0,0607225858
2	1	0	0	0	4887,80	4,08558416	4,08602619	15,065173685550688	2	-1,01543713	0,0615566932
2	1	0	1	0	4889,10	4,09858608	4,09948492	15,236662586529974	2	-0,995720148	0,0624624677
2	1	0	0	0	4890,40	4,111588	4,11211252	15,283463145295741	2	-0,975871086	0,0628473237
2	1	0	1	0	4891,70	4,12458944	4,12516069	15,353559821844102	2	-0,955975354	0,063335903
2	1	0	0	0	4893,00	4,13759136	4,13833904	15,378876045346259	2	-0,935989916	0,063643001
2	1	0	1	0	4894,30	4,15059328	4,15110588	15,56843259930608	2	-0,915873945	0,0646262094
2	1	0	1	0	4895,60	4,16359377	4,16421223	15,874437553667322	2	-0,895494938	0,0661045238
2	1	0	0	0	4896,90	4,17659664	4,17711163	16,148489122589453	2	-0,874616027	0,0674540401
2	1	0	1	0	4898,20	4,18959856	4,18998957	16,512790779272707	2	-0,853336811	0,0691884235
2	0	0	0	1	4899,42	4,19819975	4,19879103	16,442489415407152	2	-0,833289027	0,0690385774
2	0	0	1	1	4900,72	4,18519783	4,18583393	16,177390858530998	2	-0,812068403	0,0677158684
2	0	0	0	1	4902,02	4,17219591	4,17275572	15,85141880810255	2	-0,791260362	0,0661441013
2	0	0	1	1	4903,32	4,15919447	4,15959835	15,809989154338835	2	-0,770634055	0,0657632053
2	0	0	0	1	4904,62	4,14619255	4,14678001	15,510435804724637	2	-0,750291049	0,0643183663
2	0	0	1	1	4905,92	4,13319063	4,13360167	15,08396382133168	2	-0,730390966	0,0623510964
2	0	0	0	1	4907,22	4,12018871	4,12090492	14,756129115017046	2	-0,710995436	0,0608086064
2	0	0	0	1	4908,52	4,10718775	4,10770464	14,473415321664506	2	-0,692000389	0,0594525151
2	0	0	1	1	4909,82	4,09418535	4,09472847	14,316622823476834	2	-0,673390627	0,0586226843
2	0	0	0	1	4911,12	4,08118391	4,08173084	14,002283836404501	2	-0,655007839	0,0571535528
2	0	0	1	1	4912,43	4,06818199	4,06861258	13,579255253076554	2	-0,637058556	0,0552487299
2	0	0	0	1	4913,73	4,05518007	4,0555644	13,545226390163067	2	-0,619459927	0,0549335368
2	0	0	1	1	4915,03	4,04217863	4,04268646	13,286678671836854	2	-0,602004051	0,0537138768
2	0	0	0	1	4916,33	4,02917671	4,02962875	13,021403665343939	2	-0,584888697	0,0524714217
2	0	0	1	1	4917,63	4,01617479	4,01673126	12,696172485748946	2	-0,568194687	0,0509971119
2	0	0	0	1	4918,93	4,00317335	4,00364351	12,423927617669051	2	-0,551840901	0,0497409776
2	0	0	1	1	4920,23	3,99017072	3,99073505	12,245344921129672	2	-0,535818636	0,048867926
2	0	0	1	1	4921,53	3,97716928	3,97760701	11,968816769619771	2	-0,520071864	0,0476072505
2	0	0	0	1	4922,83	3,96416783	3,96457934	11,772391681869834	2	-0,504644096	0,0466725826
2	0	0	1	1	4924,13	3,95116568	3,95151138	11,497069368759781	2	-0,489526182	0,0454308018
2	0	0	0	1	4925,43	3,938164	3,93849349	11,282655440270901	2	-0,474716187	0,0444366634
2	0	0	1	1	4926,73	3,92516255	3,92553568	11,000140103201048	2	-0,460208565	0,0431814417
2	0	0	0	1	4928,03	3,9121604	3,91260743	10,858417448898123	2	-0,44596824	0,042484723
2	0	0	1	1	4929,33	3,89915872	3,89985013	10,626664323111398	2	-0,431996197	0,041442398
2	0	0	0	1	4930,63	3,8861568	3,8863914	10,431279259423398	2	-0,418315083	0,0405400358
2	0	0	1	1	4931,93	3,87315512	3,87366414	10,13579954226816	2	-0,40494597	0,0392626822
2	0	0	1	1	4933,23	3,8601532	3,8605659	9,9829108739892403	2	-0,391851962	0,0385396853
2	0	0	0	1	4934,53	3,84715152	3,84738779	9,7599904735883034	2	-0,379023433	0,037550468
2	0	0	1	1	4935,83	3,83414984	3,83452988	9,5532099604606349	2	-0,366470993	0,0366320685
2	0	0	0	1	4937,13	3,82114792	3,82150221	9,3062513346473421	2	-0,354243338	0,0355638601
2	0	0	1	1	4938,43	3,80814624	3,80865431	9,0824632073442112	2	-0,342293799	0,0345919617
2	0	0	0	1	4939,73	3,79514456	3,79550624	8,9011580770214208	2	-0,330628335	0,0337844007
2	0	0	1	1	4941,03	3,78214264	3,78247833	8,679917109509248	2	-0,319191158	0,0328315981
2	0	0	0	1	4942,33	3,76914096	3,76954031	8,4428168460726733	2	-0,308058292	0,0318255387
2	0	0	1	1	4943,63	3,75613928	3,75641227	8,2492379421989094	2	-0,297216564	0,0309875384
2	0	0	1	1	4944,93	3,7431376	3,74332356	8,0623868496607821	2	-0,286621779	0,0301801227
2	0	0	0	1	4946,23	3,73013568	3,73066688	7,8820079664388915	2	-0,276259303	0,0294051468
2	0	0	1	1	4947,53	3,717134	3,71753907	7,8460806210835584	2	-0,265998721	0,0291681103
2	0	0	0	1	4948,83	3,70413208	3,7046814	7,6488045950730522	2	-0,255922467	0,0283363834
2	0	0	1	1	4950,13	3,6911304	3,69171333	7,4273179744680538	2	-0,246109664	0,027419528
2	0	0	0	1	4951,43	3,67812848	3,67843509	7,2225586300094733	2	-0,236587524	0,0265677124
2	0	0	1	1	4952,73	3,6651268	3,66554737	7,0183123101790554	2	-0,227340192	0,025725957
2	0	0	0	1	4954,03	3,65212464	3,65260935	6,8942366739114074	2	-0,218275502	0,0251819529
2	0	0	1	1	4955,33	3,6391232	3,63941145	6,6928328250845363	2	-0,209437549	0,0243579727
2	0	0	1	1	4956,63	3,62612152	3,62649465	6,5179332016569446	2	-0,200846761	0,0236372501
2	0	0	0	1	4957,93	3,61311936	3,61389613	6,2497019457320243	2	-0,192554548	0,0225857738
2	0	0	1	1	4959,23	3,60011792	3,6004076	6,0486458552380288	2	-0,184576958	0,0217775907
2	0	0	0	1	4960,53	3,58711576	3,58731961	5,8871184500555238	2	-0,176825732	0,0211189762
2	0	0	1	1	4961,83	3,57411408	3,57437158	5,7604260668158528	2	-0,169252723	0,020589903
2	0	0	0	1	4963,13	3,56111217	3,56154394	5,6249011543889792	2	-0,161846116	0,0200333335
2	0	0	1	1	4964,43	3,54811049	3,54837584	5,468869719654311	2	-0,154630214	0,0194056053
2	0	0	0	1	4965,73	3,5351088	3,53544784	5,3193978493412288	2	-0,147613287	0,0188064538
2	0	0	1	1	4967,03	3,52210689	3,52268052	5,1957531881829126	2	-0,14077729	0,0183029789
2	0	0	0	1	4968,33	3,50910521	3,50966215	5,054702361424752	2	-0,134116516	0,0177402981
2	0	0	0	1	4969,67	3,49570346	3,49593329	4,8849391105274406	2	-0,127457991	0,0170774218
2	0	0	1	1	4970,97	3,48270154	3,4832561	4,788817511250585	2	-0,121176787	0,0166806784
2	0	0	0	1	4972,27	3,46969986	3,47027802	4,6759415306150771	2	-0,115008697	0,0162268169
2	0	0	1	1	4973,57	3,45669818	3,45715022	4,5682380956908019	2	-0,109003037	0,0157930851
2	0	0	0	1	4974,87	3,44369626	3,44429255	4,4632891130943904	2	-0,103135608	0,0153728733
2	0	0	1	1	4976,17	3,43069458	3,43123436	4,3625482544302726	2	-0,0973950252	0,0149689252
2	0	0	0	1	4977,47	3,4176929	3,41811657	4,2577236245075622	2	-0,091789946	0,014553396
2	0	0	1	1	4978,77	3,40469098	3,40512872	4,1528773965934816	2	-0,0863280743	0,0141410818
2	0	0	0	1	4980,07	3,3916893	3,39206028	4,0419267403582637	2	-0,0810020193	0,0137104588
2	0	0	0	1	4981,37	3,37868762	3,37940264	3,9556348460513184	2	-0,0758009851	0,0133676827
2	0	0	1	1	4982,67	3,3656857	3,36629486	3,870620362460599	2	-0,0707117543	0,0130296499
2	0	0	0	1	4983,97	3,35268402	3,35333753	3,7738660797476768	2	-0,0657448545	0,0126550468
2	0	0	1	1	4985,28	3,3396821	3,34008884	3,6749328610797677	2	-0,0608986504	0,0122746024
2	0	0	0	1	4986,58	3,32668042	3,32713127	3,5975451556344858	2	-0,0561701059	0,0119695049
2	0	0	1	1	4987,88	3,3136785	3,31414294	3,5109986340006003	2	-0,0515490547	0,0116359517
2	0	0	0	1	4989,18	3,30067682	3,30130529	3,4263199207683213	2	-0,0470394641	0,011311328
2	0	0	1	1	4990,48	3,28767467	3,28820753	3,3370835048456941	2	-0,0426369235	0,0109730233
2	0	0	0	1	4991,78	3,27467322	3,27501965	3,2662853486835955	2	-0,0383450463	0,0106971487
2	0	0	0	1	4993,08	3,26167226	3,26221228	3,1904442192938048	2	-0,0341498852	0,010407906
2	0	0	1	1	4994,38	3,24866939	3,24919367	3,1201658993959424	2	-0,030047603	0,0101380236
2	0	0	0	1	4995,68	3,23566794	3,23618555	3,0419010246793478	2	-0,026043769	0,00984415598
2	0	0	1	1	4996,98	3,22266579	3,22351813	2,9838991171369946	2	-0,0221222751	0,00961865298
2	0	0	0	1	4998,28	3,20966411	3,21025014	2,9184662780413894	2	-0,0182757229	0,00936900638
2	0	0	1	1	4999,58	3,19666219	3,19703174	2,8573119646559165	2	-0,0145168658	0,00913491659
2	0	0	0	1	5000,88	3,18366051	3,18413448	2,8069129201273082	2	-0,0108357854	0,00893758796
2	0	0	1	1	5002,18	3,17065859	3,17120624	2,7301805385698829	2	-0,00724631548	0,00865796581
2	0	0	0	1	5003,48	3,15765691	3,15823841	2,6733016489694384	2	-0,00373933674	0,00844292436
2	0	0	0	1	5004,78	3,14465594	3,14523244	2,612755320555273	2	-0,000307180802	0,00821772311
2	0	0	1	1	5006,08	3,13165331	3,13213229	2,5559841779371056	2	0,00305208005	0,00800568052
2	0	0	0	1	5007,38	3,11865187	3,11910462	2,4973203949630243	2	0,00633782102	0,00778940367
2	0	0	1	1	5008,68	3,10565019	3,10610676	2,4443554158011978	2	0,00955057237	0,00759242894
2	0	0	0	1	5009,98	3,09264827	3,0931685	2,3920600290099782	2	0,0126926368	0,00739904493
2	0	0	1	1	5011,28	3,07964659	3,08020115	2,3391743227839469	2	0,0157665666	0,00720512727
2	0	0	0	1	5012,58	3,06664491	3,06700277	2,2938534915447165	2	0,0187786501	0,00703525497
2	0	0	1	1	5013,88	3,05364299	3,05413508	2,2432522767533866	2	0,0217296109	0,00685119536
2	0	0	0	1	5015,18	3,04064131	3,04078698	2,1927490842839107	2	0,0246129539	0,0066676829
2	0	0	1	1	5016,48	3,02763963	3,0282495	2,1456188367058858	2	0,0274313241	0,00649746927
2	0	0	1	1	5017,78	3,01463723	3,01535058	2,0972126371498659	2	0,0301901717	0,00632383116
2	0	0	0	1	5019,08	3,00163579	3,00214338	2,0493589360266781	2	0,0328825824	0,0061524692
2	0	0	1	1	5020,38	2,98863387	2,98904538	2,0120424460619616	2	0,0355220735	0,00601408631
2	0	0	0	1	5021,68	2,97563243	2,97639799	1,9651101293663162	2	0,0381064899	0,00584894978
2	0	0	1	1	5022,98	2,96263051	2,96311975	1,9203006960451584	2	0,0406323262	0,00569008105
2	0	0	0	1	5024,28	2,94962859	2,95027184	1,8719578081121018	2	0,0430976264	0,00552278431
2	0	0	1	1	5025,58	2,93662715	2,93701363	1,8286285512149325	2	0,0455036797	0,00537070679
2	0	0	0	1	5026,88	2,92362523	2,92398572	1,7861019050081488	2	0,0478517711	0,00522253662
2	0	0	1	1	5028,18	2,91062331	2,91115808	1,746570662905775	2	0,0501478612	0,00508454349
2	0	0	0	1	5029,48	2,89762092	2,89821029	1,7045822676776582	2	0,0523903519	0,00494023785
2	0	0	0	1	5030,78	2,88461971	2,88521266	1,6637091841548627	2	0,0545785725	0,00480015483
2	0	0	1	1	5032,08	2,87161803	2,87202406	1,6205931094785485	2	0,0567127615	0,00465438236
2	0	0	0	1	5033,38	2,85861635	2,858886	1,5787737425416682	2	0,0587914921	0,00451353425
2	0	0	1	1	5034,68	2,84561443	2,84620857	1,5410542276998314	2	0,0608202033	0,00438616192
2	0	0	0	1	5035,98	2,83261275	2,83311057	1,5007852225874832	2	0,0627990067	0,00425189035
2	0	0	1	1	5037,28	2,81961083	2,82017303	1,4607532999167798	2	0,0647235364	0,00411957689
2	0	0	0	1	5038,58	2,80660892	2,80719471	1,4227100421364102	2	0,0665965751	0,00399382412
2	0	0	1	1	5039,88	2,79360747	2,79420686	1,3830830762162787	2	0,068419002	0,00386462011
2	0	0	0	1	5041,18	2,78060532	2,78116894	1,3456317375724502	2	0,0701919571	0,00374242919
2	0	0	0	1	5042,48	2,76760364	2,7681911	1,3074244263892382	2	0,0719160885	0,00361920055
2	0	0	1	1	5043,78	2,75460219	2,75496292	1,2683834722265602	2	0,0735896006	0,00349434954
2	0	0	0	1	5045,08	2,74160004	2,74191499	1,2305127683406062	2	0,0752144381	0,00337396143
2	0	0	1	1	5046,38	2,72859836	2,7291677	1,1953620957210669	2	0,0767910928	0,00326234358
2	0	0	0	1	5047,68	2,71559668	2,71611929	1,1565377311781013	2	0,0783186406	0,00314129447
2	0	0	1	1	5048,98	2,70259476	2,70312142	1,1196152071158085	2	0,0797972456	0,00302645587
2	0	0	0	1	5050,28	2,68959308	2,68999338	1,0790003997584136	2	0,0812258124	0,00290250382
2	0	0	1	1	5051,58	2,6765914	2,6771059	1,0436084012811406	2	0,0826049	0,00279385014
2	0	0	0	1	5052,88	2,66358948	2,66400766	1,0047429505114725	2	0,0839357078	0,00267664297
2	0	0	0	1	5054,18	2,65058875	2,65130997	0,96543087213421683	2	0,085216172	0,00255965651
2	0	0	1	1	5055,48	2,63758612	2,63802171	0,92746738127122086	2	0,0864460394	0,00244667917
2	0	0	0	1	5056,78	2,6245842	2,62507391	0,88752762197206182	2	0,0876249224	0,00232982566
2	0	0	1	1	5058,09	2,61158228	2,61197591	0,84690756040314688	2	0,0887524411	0,00221210206
2	0	0	0	1	5059,39	2,59858036	2,59903836	0,80805435900886912	2	0,089828223	0,0021001643
2	0	0	1	1	5060,69	2,58557868	2,58612037	0,7663358305580896	2	0,0908514336	0,00198183674
2	0	0	0	1	5061,99	2,572577	2,57309246	0,72408213171487117	2	0,0918209925	0,00186313025
2	0	0	1	1	5063,29	2,55957508	2,56017447	0,68225644482299328	2	0,0927350894	0,00174669549
2	0	0	0	1	5064,59	2,5465734	2,54707646	0,63772093240792576	2	0,0935926586	0,00162432401
2	0	0	0	1	5065,89	2,53357196	2,53398871	0,59017813524706368	2	0,094390139	0,00149550475
2	0	0	1	1	5067,19	2,5205698	2,52101064	0,54385083261877254	2	0,0951270908	0,00137105375
2	0	0	0	1	5068,53	2,50716805	2,50778246	0,49068899157767731	2	0,0958210975	0,00123054127
2	0	0	1	1	5069,83	2,49416614	2,49469447	0,44040699955075802	2	0,0964262038	0,00109868089
2	0	0	0	1	5071,13	2,48116446	2,4817965	0,38791180580543917	2	0,0969645008	0,000962718157
2	0	0	1	1	5072,43	2,46816278	2,46867871	0,33224054379388602	2	0,0974327326	0,000820195186
2	0	0	0	1	5073,73	2,45516086	2,45572066	0,27305355280016874	2	0,0978259221	0,000670543232
2	0	0	1	1	5075,03	2,44215894	2,4427228	0,21150990629879107	2	0,0981403887	0,000516660046
2	0	0	0	1	5076,33	2,42915726	2,42970467	0,14609625780334045	2	0,0983724147	0,000354970747
2	0	0	1	1	5077,63	2,41615558	2,41672683	0,077764896142762163	2	0,0985175297	0,000187936515
2	0	0	1	1	5078,97	2,40275431	2,40347862	0,0030324997664834266	2	0,0985714346	7,2885482E-006
2	0	0	1	1	5080,16	2,39075255	2,39150262	-0,06732798164541065	2	0,0985334292	0,00016101505