File: Experimentelles/Rohdaten/Batterietests/AlteZelle/Studenten_Batterietests/Sonstige/ECLab-Export/S vs Li_05_GCPL_C02_loop8.mpt
EC-Lab ASCII FILE
Nb header lines : 3
mode	ox/red	error	control changes	Ns changes	counter inc.	Ns	time/s	control/V/mA	Ewe/V	dq/mA.h	<I>/mA	P/W	(Q-Qo)/mA.h	x	Capacity/mA.h
1	0	0	1	1	0	1	534002,30	-0,100000001	2,60411215	0	0	0	0	0	0
1	0	0	1	0	0	1	534222,30	-0,100000001	2,21963096	-0,00027771369433444406	-0,099975052621782746	0,000221907729	-0,0061083323162558131	0,00022791009145965014	0,0061083323162558131
1	0	0	1	0	0	1	534442,31	-0,100000001	2,20893073	-0,00027771395815039677	-0,099975147589086963	0,000220838177	-0,012218016132375011	0,00045587060919631418	0,012218016132375011
1	0	0	1	0	0	1	534662,31	-0,100000001	2,20154929	-0,00027771397944498397	-0,099975155257322086	0,000220100235	-0,01832771911315247	0,0006838318419921449	0,01832771911315247
1	0	0	1	0	0	1	534882,31	-0,100000001	2,19720078	-0,0002777130040137304	-0,099974804107500864	0,000219664711	-0,024437422146086883	0,00091179307673402189	0,024437422146086883
1	0	0	1	0	0	1	535102,32	-0,100000001	2,19321442	-0,00027771396700830922	-0,099975150777875571	0,000219266949	-0,030547124254540845	0,0011397542769822902	0,030547124254540845
1	0	0	1	0	0	1	535322,32	-0,100000001	2,18844604	-0,00027771345418194928	-0,099974966168508058	0,000218789821	-0,036656822999965798	0,0013677153517514245	0,036656822999965798
1	0	0	1	0	0	1	535542,33	-0,100000001	2,1843071	-0,00027771491052541469	-0,099975490442310758	0,000218377172	-0,042766529338449222	0,0015956767098277795	0,042766529338449222
1	0	0	1	0	0	1	535762,33	-0,100000001	2,18133163	-0,00027771394018456342	-0,099975141126163776	0,000218078945	-0,048876240837623654	0,0018236382604564541	0,048876240837623654
1	0	0	1	0	0	1	535982,34	-0,100000001	2,17728806	-0,00027771476166322829	-0,099975436852929946	0,000217675319	-0,05498595915406567	0,0020516000654465491	0,05498595915406567
1	0	0	1	0	0	1	536202,34	-0,100000001	2,17425537	-0,00027771458753488128	-0,099975374167902144	0,000217371999	-0,061095680396441344	0,0022795619796071622	0,061095680396441344
1	0	0	1	0	0	1	536422,34	-0,100000001	2,17032623	-0,00027771472293097114	-0,099975422909579213	0,000216979286	-0,067205393249993114	0,0025075235807694765	0,067205393249993114
1	0	0	1	0	0	1	536642,35	-0,100000001	2,16740799	-0,00027771448148124749	-0,099975335989310886	0,000216687346	-0,073315117675774643	0,0027354856137072422	0,073315117675774643
1	0	0	1	0	0	1	536862,35	-0,100000001	2,16420364	-0,00027771453169360758	-0,099975354065421082	0,000216367029	-0,079424841440262515	0,0029634476219712531	0,079424841440262515
1	0	0	1	0	0	1	537082,36	-0,100000001	2,16117096	-0,00027771531800263459	-0,099975637131355379	0,000216064451	-0,085534563566529114	0,0031914095691110246	0,085534563566529114
1	0	0	1	0	0	1	537302,36	-0,100000001	2,15876794	-0,00027771410768768854	-0,099975201426156493	0,000215823253	-0,091644288816777408	0,0034193716328107546	0,091644288816777408
1	0	0	1	0	0	1	537522,36	-0,100000001	2,15638375	-0,00027771440605612269	-0,099975308836775834	0,000215585125	-0,097754011552785446	0,0036473336027007987	0,097754011552785446
1	0	0	1	0	0	1	537742,37	-0,100000001	2,153332	-0,00027771424951155978	-0,099975252477136038	0,000215279913	-0,10386372757561258	0,0038752953221130381	0,10386372757561258
1	0	0	1	0	0	1	537962,37	-0,100000001	2,1492312	-0,00027771568212658166	-0,099975768211187162	0,000214871034	-0,10997346104532523	0,0041032576924920339	0,10997346104532523
1	0	0	1	0	0	1	538182,38	-0,100000001	2,14617944	-0,00027771508421624704	-0,099975552966344704	0,000214565473	-0,11608319309101338	0,0043312200097387603	0,11608319309101338
1	0	0	1	0	0	1	538402,38	-0,100000001	2,14184976	-0,0002777153052373065	-0,09997563253126816	0,000214132786	-0,12219291985242813	0,0045591821298221427	0,12219291985242813
1	0	0	1	0	0	1	538622,38	-0,100000001	2,13803506	-0,00027771468382121789	-0,099975408830332416	0,000213750929	-0,12830264224877003	0,0047871440870387872	0,12830264224877003
1	0	0	1	0	0	1	538842,39	-0,100000001	2,13509774	-0,00027771471619026528	-0,099975420482970675	0,000213457301	-0,13441236603542128	0,0050151060961297434	0,13441236603542128
1	0	0	1	0	0	1	539062,39	-0,100000001	2,13198876	-0,00027771409130096438	-0,099975195527046579	0,000213145991	-0,14052208392190349	0,0052430678850774592	0,14052208392190349
1	0	0	1	0	0	1	539282,40	-0,100000001	2,12683892	-0,00027771386501731142	-0,099975114066461197	0,00021263097	-0,14663179059219555	0,0054710292555340397	0,14663179059219555
1	0	0	1	0	0	1	539502,40	-0,100000001	2,12172723	-0,00027771356758889226	-0,099975006994240883	0,000212119689	-0,15274149322202966	0,0056989904752357024	0,15274149322202966
1	0	0	1	0	0	1	539722,41	-0,100000001	2,11777925	-0,00027771481536991069	-0,099975456186972557	0,000211725943	-0,15885120360943382	0,0059269519843827354	0,15885120360943382
1	0	0	1	0	0	1	539942,41	-0,100000001	2,11346865	-0,00027771428433184826	-0,099975265016859878	0,000211294595	-0,1649609176939328	0,0061549136314733453	0,1649609176939328
1	0	0	1	0	0	1	540162,41	-0,100000001	2,11112261	-0,00027771379342095722	-0,099975088292257651	0,000211059669	-0,17107062462962752	0,0063828750118324544	0,17107062462962752
1	0	0	1	0	0	1	540382,42	-0,100000001	2,10547686	-0,00027771445350183382	-0,099975325916911104	0,000210495738	-0,17718033089471318	0,0066108363671702413	0,17718033089471318
1	0	0	1	0	0	1	540602,42	-0,100000001	2,09986925	-0,0002777140592638817	-0,099975183993913382	0,00020993482	-0,18329004892483344	0,0068387981614772851	0,18329004892483344
1	0	0	1	0	0	1	540822,43	-0,100000001	2,09618807	-0,00027771461098144451	-0,099975382608506394	0,00020956721	-0,18939976838024576	0,0070667600089638925	0,18939976838024576
1	0	0	1	0	0	1	541042,43	-0,100000001	2,09237337	-0,0002777143362408711	-0,09997528369910185	0,000209185615	-0,1955094845370592	0,0072947217333753421	0,1955094845370592
1	0	0	1	0	0	1	541262,43	-0,100000001	2,08703279	-0,00027771451365368234	-0,099975347568842266	0,000208651836	-0,20161919990062093	0,007522683428189504	0,20161919990062093
1	0	0	1	0	0	1	541482,44	-0,100000001	2,08173037	-0,00027771341569431952	-0,09997495230856617	0,000208120895	-0,20772890329434675	0,0077506446763929933	0,20772890329434675
1	0	0	1	0	0	1	541702,44	-0,100000001	2,07305217	-0,00027771369423965613	-0,099975052583004378	0,000207253499	-0,21383859905841242	0,0079786056399236032	0,21383859905841242
1	0	0	1	0	0	1	541922,45	-0,100000001	2,0644691	-0,00027771401161410739	-0,099975166840316736	0,000206395649	-0,21994830363296723	0,0082065669321854106	0,21994830363296723
1	0	0	1	0	0	1	542142,45	-0,100000001	2,05712581	-0,00027771379042665168	-0,09997508721432791	0,00020566133	-0,2260580154578016	0,008434528494964896	0,2260580154578016
1	0	0	1	0	0	1	542362,45	-0,100000001	2,04743648	-0,0002777134127480288	-0,099974951252576768	0,000204692362	-0,23216772206310438	0,0086624898629966387	0,23216772206310438
1	0	0	1	0	0	1	542582,46	-0,100000001	2,03831935	-0,00027771420475964749	-0,099975236371405517	0,000203781456	-0,23827742682049014	0,0088904511620801139	0,23827742682049014
1	0	0	1	0	0	1	542802,46	-0,100000001	2,02878284	-0,00027771327650836774	-0,099974902207219776	0,000202827359	-0,24438713313613712	0,0091184125193044096	0,24438713313613712
1	0	0	1	0	0	1	543022,47	-0,100000001	2,02006626	-0,00027771403328743248	-0,099975174642567258	0,000201956471	-0,2504968385655743	0,0093463738434630285	0,2504968385655743
1	0	0	1	0	0	1	543242,47	-0,100000001	2,00988102	-0,00027771320521252022	-0,099974876541196634	0,000200937604	-0,25660653986272826	0,0095743350134406003	0,25660653986272826
1	0	0	1	0	0	1	543462,48	-0,100000001	2,0028429	-0,00027771429220131699	-0,099975267849815437	0,000200234761	-0,26271623399938589	0,0098022959162504307	0,26271623399938589
1	0	0	1	0	0	1	543682,48	-0,100000001	1,99794102	-0,00027771397525486016	-0,099975153751233549	0,000199744463	-0,26882593942450144	0,010030257240247803	0,26882593942450144
1	0	0	1	0	0	1	543902,48	-0,100000001	1,99162781	-0,00027771292021705046	-0,099974773944754074	0,000199112546	-0,27493563424397165	0,010258218168534288	0,27493563424397165
1	0	0	1	0	0	1	544122,49	-0,100000001	1,98752701	-0,00027771342383573453	-0,099974955244075891	0,000198702925	-0,28104532769078051	0,01048617904560493	0,28104532769078051
1	0	0	1	0	0	1	544342,49	-0,100000001	1,98460877	-0,0002777130907840199	-0,099974835347710054	0,00019841094	-0,28715501377276282	0,010714139647883994	0,28715501377276282
1	0	0	1	0	0	1	544562,50	-0,100000001	1,98287308	-0,00027771280457741683	-0,099974732312940019	0,000198237205	-0,29326470733219667	0,010942100529156827	0,29326470733219667
1	0	0	1	0	0	1	544782,50	-0,100000001	1,98157609	-0,00027771375993432272	-0,099975076233804096	0,000198108217	-0,29937440290432947	0,011170061485526166	0,29937440290432947
1	0	0	1	0	0	1	545002,50	-0,100000001	1,98001206	-0,00027771310388793549	-0,099974840060375718	0,000197951391	-0,30548410477603955	0,0113980226769412	0,30548410477603955
1	0	0	1	0	0	1	545222,51	-0,100000001	1,97699845	-0,0002777132306827439	-0,099974885710304973	0,000197650195	-0,31159379172653286	0,011625983311625578	0,31159379172653286
1	0	0	1	0	0	1	545442,51	-0,100000001	1,98024094	-0,00027771308615927894	-0,09997483368283456	0,000197974252	-0,31770348353746272	0,011853944127659374	0,31770348353746272
1	0	0	1	0	0	1	545662,52	-0,100000001	1,97551072	-0,00027771309819279446	-0,099974838014818803	0,000197501358	-0,32381317328228691	0,012081904866603994	0,32381317328228691
1	0	0	1	0	0	1	545882,52	-0,100000001	1,97110486	-0,00027771407717838883	-0,099975190443014848	0,000197061585	-0,32992287065374502	0,012309865890108578	0,32992287065374502
1	0	0	1	0	0	1	546102,53	-0,100000001	1,97043729	-0,00027771335925203232	-0,099974931994379674	0,000196994341	-0,33603256790710816	0,012537826909206882	0,33603256790710816
1	0	0	1	0	0	1	546322,53	-0,100000001	1,96847272	-0,00027771241968580416	-0,099974593756888998	0,000196797264	-0,34214225297369709	0,012765787473600251	0,34214225297369709
1	0	0	1	0	0	1	546542,53	-0,100000001	1,96778607	-0,00027771276857124435	-0,099974719353288998	0,000196728855	-0,34825193821727846	0,012993748044597448	0,34825193821727846
1	0	0	1	0	0	1	546762,54	-0,100000001	1,96749997	-0,00027771371103988752	-0,099975058635629466	0,00019670093	-0,35436163996247149	0,013221709231291963	0,35436163996247149
1	0	0	1	0	0	1	546982,54	-0,100000001	1,96702313	-0,00027771325445920227	-0,099974894269669235	0,000196652923	-0,36047134474750061	0,013449670531406848	0,36047134474750061
1	0	0	1	0	0	1	547202,55	-0,100000001	1,96225476	-0,00027771311070066362	-0,099974842517567142	0,000196176115	-0,36658102994890304	0,01367763110083029	0,36658102994890304
1	0	0	1	0	0	1	547422,55	-0,100000001	1,96055722	-0,00027771426304222806	-0,099975257352740531	0,000196007211	-0,37269072316700435	0,013905591969367552	0,37269072316700435
1	0	0	1	0	0	1	547642,55	-0,100000001	1,95714307	-0,00027771317964502506	-0,099974867337071194	0,000195665125	-0,37880040958385421	0,014133552584140971	0,37880040958385421
1	0	0	1	0	0	1	547862,56	-0,100000001	1,95943189	-0,00027771267981289165	-0,099974687396226688	0,00019589359	-0,38491010476215475	0,014361513525815898	0,38491010476215475
1	0	0	1	0	0	1	548082,56	-0,100000001	1,96019483	-0,00027771299175628355	-0,099974799694902861	0,000195970089	-0,39101979785982771	0,014589474389859811	0,39101979785982771
1	0	0	1	0	0	1	548302,57	-0,100000001	1,95918393	-0,00027771400261794528	-0,099975163599431526	0,000195869739	-0,39712949310006694	0,014817435333845754	0,39712949310006694
1	0	0	1	0	0	1	548522,57	-0,100000001	1,95531201	-0,0002777130249792503	-0,099974811658437811	0,000195481945	-0,40323918885306138	0,015045396296963283	0,40323918885306138
1	0	0	1	0	0	1	548742,57	-0,100000001	1,95515943	-0,00027771346758140454	-0,099974970992221376	0,000195467001	-0,40934888354773568	0,015273357220593466	0,40934888354773568
1	0	0	1	0	0	1	548962,58	-0,100000001	1,95535016	-0,00027771345902482669	-0,099974967911911181	0,000195486064	-0,41545857590709869	0,015501318057090042	0,41545857590709869
1	0	0	1	0	0	1	549182,58	-0,100000001	1,95266092	-0,00027771187763247226	-0,099974398621353779	0,000195216096	-0,42156826514784224	0,015729278777226733	0,42156826514784224
1	0	0	1	0	0	1	549402,59	-0,100000001	1,95267999	-0,00027771213249655232	-0,099974490370699712	0,000195218192	-0,42767793582272749	0,015957238804646291	0,42767793582272749
1	0	0	1	0	0	1	549622,59	-0,100000001	1,95090616	-0,00027771215440457069	-0,099974498257438221	0,000195040862	-0,43378760840401325	0,016185198903196214	0,43378760840401325
1	0	0	1	0	0	1	549842,60	-0,100000001	1,95012414	-0,00027771268753583235	-0,099974690181088486	0,000194963053	-0,4398972827009673	0,016413159065760026	0,4398972827009673
1	0	0	1	0	0	1	550062,60	-0,100000001	1,94951379	-0,0002777113350973361	-0,099974203312372275	0,000194901091	-0,44600694708801709	0,016641118858571987	0,44600694708801709
1	0	0	1	0	0	1	550282,60	-0,100000001	1,94953287	-0,00027771236237014333	-0,099974573123638541	0,000194903711	-0,45211660344046912	0,016869078351602304	0,45211660344046912
1	0	0	1	0	0	1	550502,61	-0,100000001	1,94712961	-0,00027771272932779456	-0,099974705225912358	0,000194663706	-0,45822628442518886	0,017097038763695651	0,45822628442518886
1	0	0	1	0	0	1	550722,61	-0,100000001	1,94674814	-0,00027771308742587763	-0,099974834138801523	0,000194625827	-0,46433596283660307	0,017324999079775504	0,46433596283660307
1	0	0	1	0	0	1	550942,62	-0,100000001	1,94669092	-0,00027771265314478013	-0,099974677800542157	0,000194619803	-0,47044564476615622	0,017552959527121853	0,47044564476615622
1	0	0	1	0	0	1	551162,62	-0,100000001	1,94369638	-0,00027771296148623027	-0,099974788796724467	0,00019432063	-0,47655532107929773	0,01778091976491233	0,47655532107929773
1	0	0	1	0	0	1	551382,62	-0,100000001	1,9446882	-0,00027771271994420224	-0,09997470184439104	0,000194419626	-0,48266499289919898	0,018008879835053971	0,48266499289919898
1	0	0	1	0	0	1	551602,63	-0,100000001	1,9418844	-0,00027771224844248762	-0,099974532108124954	0,000194138978	-0,48877467460984454	0,018236840274232586	0,48877467460984454
1	0	0	1	0	0	1	551822,63	-0,100000001	1,94568002	-0,00027771219323616886	-0,099974512231895744	0,000194518405	-0,49488434827387763	0,018464800413181267	0,49488434827387763
1	0	0	1	0	0	1	552042,64	-0,100000001	1,94556558	-0,00027771318204618163	-0,099974868201471334	0,000194507666	-0,50099402822663629	0,018692760786770755	0,50099402822663629
1	0	0	1	0	0	1	552262,64	-0,100000001	1,94405878	-0,00027771308654381168	-0,099974833821263731	0,000194356951	-0,50710370978057837	0,018920721220102547	0,50710370978057837
1	0	0	1	0	0	1	552482,64	-0,100000001	1,94367731	-0,0002777123091518879	-0,099974553965426342	0,000194318272	-0,51321338703356301	0,019148681492959837	0,51321338703356301
1	0	0	1	0	0	1	552702,65	-0,100000001	1,94379175	-0,00027771295478070778	-0,099974786387437069	0,000194330161	-0,51932307027732902	0,019376641989341235	0,51932307027732902
1	0	0	1	0	0	1	552922,65	-0,100000001	1,94285715	-0,00027771234537785251	-0,099974567006528704	0,000194236301	-0,52543275054871373	0,019604602374819088	0,52543275054871373
1	0	0	1	0	0	1	553142,66	-0,100000001	1,94230402	-0,00027771335488433638	-0,099974930422038669	0,000194181703	-0,53154242903750906	0,019832562693786134	0,53154242903750906
1	0	0	1	0	0	1	553362,66	-0,100000001	1,94207513	-0,00027771274419542816	-0,099974710578159949	0,000194158405	-0,53765211639655085	0,020060523343714006	0,53765211639655085
1	0	0	1	0	0	1	553582,67	-0,100000001	1,94108331	-0,00027771225273071066	-0,099974533654183936	0,000194058899	-0,54376179120529402	0,02028848352537336	0,54376179120529402
1	0	0	1	0	0	1	553802,67	-0,100000001	1,94108331	-0,00027771239192411302	-0,099974583762867827	0,000194059001	-0,54987147401375213	0,020516444005512835	0,54987147401375213
1	0	0	1	0	0	1	554022,67	-0,100000001	1,94047296	-0,00027771248176197213	-0,099974616103889818	0,000193998043	-0,55598115424875571	0,020744404389633261	0,55598115424875571
1	0	0	1	0	0	1	554242,68	-0,100000001	1,93543756	-0,00027771212521195414	-0,099974487748293606	0,000193494372	-0,56209082915491091	0,020972364574927187	0,56209082915491091
1	0	0	1	0	0	1	554462,68	-0,100000001	1,93864191	-0,00027771214003281462	-0,099974493079047859	0,000193814747	-0,56820049550112774	0,021200324440838304	0,56820049550112774
1	0	0	1	0	0	1	554682,69	-0,100000001	1,93780267	-0,00027771270129995213	-0,099974695132587046	0,000193731234	-0,5743101634698937	0,021428284367288912	0,5743101634698937
1	0	0	1	0	0	1	554902,69	-0,100000001	1,93671548	-0,0002777120377326177	-0,099974456253996186	0,00019362208	-0,58041983431815296	0,021656244401177283	0,58041983431815296
1	0	0	1	0	0	1	555122,69	-0,100000001	1,93440759	-0,00027771220219549206	-0,099974515457191526	0,000193391461	-0,58652950397847194	0,021884204390742013	0,58652950397847194
1	0	0	1	0	0	1	555342,70	-0,100000001	1,93322515	-0,00027771177359173693	-0,099974361167392358	0,00019327295	-0,5926391734614848	0,022112164373691206	0,5926391734614848
1	0	0	1	0	0	1	555562,70	-0,100000001	1,92784643	-0,00027771207230827872	-0,099974468703328102	0,000192735417	-0,59874884345475443	0,022340124375678768	0,59874884345475443
1	0	0	1	0	0	1	555782,71	-0,100000001	1,93131781	-0,0002777122630054752	-0,099974537353029722	0,000193082611	-0,60485851979125133	0,022568084614340672	0,60485851979125133
1	0	0	1	0	0	1	556002,71	-0,100000001	1,92565298	-0,00027771244584975971	-0,099974603175736115	0,000192516396	-0,61096818687287693	0,022796044507690877	0,61096818687287693
1	0	0	1	0	0	1	556222,72	-0,100000001	1,92799902	-0,0002777114590621657	-0,099974247938872934	0,000192750245	-0,61707784725255206	0,023024004150982304	0,61707784725255206
1	0	0	1	0	0	1	556442,72	-0,100000001	1,92611074	-0,00027771144358234272	-0,099974242366241306	0,000192561463	-0,62318750452229837	0,023251963678238099	0,62318750452229837
1	0	0	1	0	0	1	556662,72	-0,100000001	1,92410803	-0,00027771265964334211	-0,099974680139980557	0,000192362088	-0,62929716824129715	0,023479923446124179	0,62929716824129715
1	0	0	1	0	0	1	556882,73	-0,100000001	1,92216253	-0,00027771217276155952	-0,099974504865830106	0,000192167252	-0,6354068302243049	0,023707883149238099	0,6354068302243049
1	0	0	1	0	0	1	557102,73	-0,100000001	1,91995001	-0,00027771296298876403	-0,099974789342281818	0,000191946601	-0,64151651165555942	0,023935843577992259	0,64151651165555942
1	0	0	1	0	0	1	557322,74	-0,100000001	1,91756582	-0,00027771277353829808	-0,099974721141394765	0,00019170811	-0,64762619758674701	0,02416380417464497	0,64762619758674701
1	0	0	1	0	0	1	557542,74	-0,100000001	1,91474295	-0,00027771209517452451	-0,099974476935022003	0,000191425424	-0,65373586886466867	0,024391764224564627	0,65373586886466867
1	0	0	1	0	0	1	557762,74	-0,100000001	1,91167223	-0,00027771219529335696	-0,099974512972469542	0,000191118495	-0,65984553449731392	0,024619724063851427	0,65984553449731392
1	0	0	1	0	0	1	557982,75	-0,100000001	1,9086777	-0,00027771245072575078	-0,099974604927568435	0,000190819293	-0,66595521369498253	0,024847684409267491	0,66595521369498253
1	0	0	1	0	0	1	558202,75	-0,100000001	1,90484393	-0,00027771263800644211	-0,099974672348515136	0,000190436142	-0,67206488987505459	0,02507564464209297	0,67206488987505459
1	0	0	1	0	0	1	558422,76	-0,100000001	1,90057147	-0,00027771222496612208	-0,099974523654464397	0,000190008723	-0,67817456164989005	0,025303604710553149	0,67817456164989005
1	0	0	1	0	0	1	558642,76	-0,100000001	1,896299	-0,00027771165805558365	-0,099974319575158195	0,000189581202	-0,6842842322076608	0,025531564733603002	0,6842842322076608
1	0	0	1	0	0	1	558862,76	-0,100000001	1,89164519	-0,0002777124638143513	-0,099974609642867635	0,000189116487	-0,69039390026436736	0,025759524663334797	0,69039390026436736
1	0	0	1	0	0	1	559082,77	-0,100000001	1,8814218	-0,00027771228782294528	-0,099974546287151181	0,000188094287	-0,69650356663631078	0,025987484530205805	0,69650356663631078
1	0	0	1	0	0	1	559302,77	-0,100000001	1,87466979	-0,00027771242239781552	-0,099974594733194739	0,000187419355	-0,70261324103886016	0,02621544469670952	0,70261324103886016
1	0	0	1	0	0	1	559522,78	-0,100000001	1,86637294	-0,0002777124616242945	-0,099974608854462003	0,00018658991	-0,70872291046066381	0,026443404677374922	0,70872291046066381
1	0	0	1	0	0	1	559742,78	-0,100000001	1,85750377	-0,00027771307815735539	-0,099974830802196173	0,000185703626	-0,71483258616078694	0,026671364892292858	0,71483258616078694
1	0	0	1	0	0	1	559962,79	-0,100000001	1,84422874	-0,00027771259767769114	-0,099974657832765069	0,000184376142	-0,72094226322945254	0,026899325158272957	0,72094226322945254
1	0	0	1	0	0	1	560182,79	-0,100000001	1,8270818	-0,0002777129796114233	-0,099974795326326784	0,00018266213	-0,72705194411431386	0,027127285566640448	0,72705194411431386
1	0	0	1	0	0	1	560402,79	-0,100000001	1,80064607	-0,00027771221627170838	-0,099974520529189594	0,000180018731	-0,73316162431399091	0,027355245949442794	0,73316162431399091
1	0	0	1	0	0	1	560622,80	-0,100000001	1,73724616	-0,00027771307719830006	-0,099974830456942733	0,000173680892	-0,73927130556092083	0,027583206371319552	0,73927130556092083
1	0	0	1	0	0	1	560842,80	-0,100000001	1,66251671	-0,0002777122640129593	-0,099974537715717184	0,000166209342	-0,74538098746979034	0,027811166817894163	0,74538098746979034
1	0	0	1	0	0	1	561062,81	-0,100000001	1,56365943	-0,00027771318303793667	-0,099974868553841075	0,000156326641	-0,75149066700349901	0,028039127175848333	0,75149066700349901
1	0	0	1	0	0	1	561282,81	-0,100000001	1,45335805	-0,00027771321683252851	-0,099974880721993382	0,000145299302	-0,75760034791679245	0,028267087585276662	0,75760034791679245
1	0	0	1	0	0	1	561502,81	-0,100000001	1,37853324	-0,00027771218773432899	-0,099974510252434406	0,000137818191	-0,76371002580957222	0,028495047882005571	0,76371002580957222
1	0	0	1	0	0	1	561722,82	-0,100000001	1,31356931	-0,00027771287385953795	-0,099974757251707597	0,000131323774	-0,76981969992191053	0,028723008037681126	0,76981969992191053
1	0	0	1	0	0	1	561942,82	-0,100000001	1,24339831	-0,00027771155811473725	-0,099974283597129101	0,000124307859	-0,77592937139350336	0,028950968094826912	0,77592937139350336
1	0	0	1	0	0	1	562162,83	-0,100000001	1,16422474	-0,00027771210679370496	-0,09997448111784841	0,000116392766	-0,78203904609695872	0,029178928272557837	0,78203904609695872
1	0	0	1	0	0	1	562382,83	-0,100000001	1,07101321	-0,00027771194840884874	-0,099974424100370854	0,000107073931	-0,78814871560354099	0,029406888256386438	0,78814871560354099
1	1	0	0	0	0	2	562590,58	0,100000001	2,27742338	0,00027781269891311728	0,10001069360083626	0,000227766694	-0,7905849335831264	0,029497786824734682	0,001666880771321969
1	1	0	0	0	0	2	562810,59	0,100000001	2,47561479	0,00027781195856796365	0,1000104270815857	0,000247587304	-0,78447306476007322	0,029269744781451539	0,0077787495943750771
1	1	0	0	0	0	2	563030,59	0,100000001	2,48528504	0,00027781231995382243	0,10001055717805189	0,000248554745	-0,7783611911440457	0,02904170255933607	0,013890623210402824
1	1	0	0	0	0	2	563250,59	0,100000001	2,473593	0,00027781173103302717	0,10001034517054669	0,000247384887	-0,77224932854929805	0,028813660748439386	0,020002485805150541
1	1	0	0	0	0	2	563470,60	0,100000001	2,46399903	0,00027781084877542323	0,10001002756377331	0,000246424606	-0,76613746973631718	0,028585619078645501	0,026114344618131309
1	1	0	0	0	0	2	563690,60	0,100000001	2,45572114	0,00027781093765381312	0,10001005955939285	0,000245596806	-0,76002562095759258	0,028357577783243203	0,032226193396855974
1	1	0	0	0	0	2	563910,61	0,100000001	2,44948411	0,00027781287348270419	0,10001075644470749	0,00024497477	-0,75391376647188186	0,028129536274905581	0,038338047882566854
1	1	0	0	0	0	2	564130,61	0,100000001	2,44526911	0,00027781187897920602	0,10001039843017098	0,000244552328	-0,74780191054227494	0,027901494712694253	0,044449903812173766
1	1	0	0	0	0	2	564350,62	0,100000001	2,43416834	0,00027781270051540598	0,10001069417764938	0,000243442861	-0,74169003934196032	0,027673452580712288	0,050561775012488186
1	1	0	0	0	0	2	564570,62	0,100000001	2,43205118	0,00027781261622740163	0,10001066382988058	0,000243231058	-0,73557817122233088	0,027445410563674829	0,056673643132117498
1	1	0	0	0	0	2	564790,62	0,100000001	2,43056345	0,00027781179836764931	0,10001036940706272	0,000243081551	-0,72946629956437786	0,027217368414617763	0,062785514790070592
1	1	0	0	0	0	2	565010,63	0,100000001	2,43016291	0,0002778124365996983	0,10001059916512166	0,000243042043	-0,7233544291446967	0,026989326311762285	0,068897385209751232
1	1	0	0	0	0	2	565230,63	0,100000001	2,43075418	0,00027781296602636573	0,10001078975514301	0,000243101647	-0,71724254309369011	0,02676128362568103	0,07500927126075785
1	1	0	0	0	0	2	565450,64	0,100000001	2,43044901	0,00027781172241560285	0,10001034206833219	0,000243070041	-0,71113067558275469	0,026533241631354765	0,081121138771692954
1	1	0	0	0	0	2	565670,64	0,100000001	2,43140268	0,00027781188194081187	0,10001039949632906	0,000243165559	-0,70501880419556262	0,026305199492400154	0,087233010158885312
1	1	0	0	0	0	2	565890,64	0,100000001	2,43073511	0,000277813701842808	0,10001105464874517	0,000243100381	-0,69890690995251942	0,026077156500663002	0,093344904401928653
1	1	0	0	0	0	2	566110,65	0,100000001	2,43639994	0,00027781288272556333	0,10001075977207427	0,000243666203	-0,69279501055088691	0,025849113316451952	0,099456803803561088
1	1	0	0	0	0	2	566330,65	0,100000001	2,43414927	0,00027781283214439952	0,10001074156319723	0,000243441071	-0,68668312908624986	0,025621070801494317	0,10556868526819806
1	1	0	0	0	0	2	566550,66	0,100000001	2,43817377	0,00027781341446149683	0,10001095119341582	0,000243844072	-0,68057124624194842	0,025393028235059549	0,11168056811249966
1	1	0	0	0	0	2	566770,66	0,100000001	2,43912745	0,00027781264068765773	0,10001067264006446	0,000243938775	-0,67445936659950694	0,02516498578809048	0,11779244775494115
1	1	0	0	0	0	2	566990,66	0,100000001	2,43882227	0,00027781199626955718	0,10001044065390451	0,000243907692	-0,66834749130341581	0,02493694350328959	0,12390432305103222
1	1	0	0	0	0	2	567210,67	0,100000001	2,43771601	0,00027781265524112518	0,10001067787921435	0,000243797636	-0,66223562334552794	0,024708901492286925	0,13001619100892021
1	1	0	0	0	0	2	567430,67	0,100000001	2,43935633	0,00027781289217579696	0,1000107631740945	0,000243961884	-0,65612374331838106	0,024480859030963981	0,13612807103606702
1	1	0	0	0	0	2	567650,68	0,100000001	2,44086313	0,00027781272744966877	0,1000107038738019	0,000244112438	-0,65001187065805056	0,024252816844506861	0,1422399436963977
1	1	0	0	0	0	2	567870,68	0,100000001	2,44275141	0,00027781325609071386	0,1000108941763475	0,000244301744	-0,64389999107402419	0,024024774399717341	0,1483518232804241
1	1	0	0	0	0	2	568090,69	0,100000001	2,44359064	0,00027781259185779427	0,10001065505931517	0,000244385097	-0,6377881098404073	0,023796731893379379	0,1544637045140409
1	1	0	0	0	0	2	568310,69	0,100000001	2,44502115	0,00027781305674173763	0,10001082241439216	0,000244528579	-0,6316762238191479	0,023568689208408038	0,16057559053530022
1	1	0	0	0	0	2	568530,69	0,100000001	2,4421792	0,00027781288341598378	0,10001076001596395	0,000244244206	-0,6255643311289152	0,023340646274608336	0,1666874832255328
1	1	0	0	0	0	2	568750,70	0,100000001	2,44454432	0,00027781287454689546	0,10001075682780915	0,000244480732	-0,61945244776229773	0,023112603688685254	0,17279936659215072
1	1	0	0	0	0	2	568970,70	0,100000001	2,44401026	0,00027781251787518458	0,10001062842840432	0,000244427007	-0,61334055683685069	0,022884560820732074	0,17891125751759786
1	1	0	0	0	0	2	569190,71	0,100000001	2,44448709	0,00027781268072211078	0,10001068705219691	0,000244474824	-0,6072286802722359	0,022656518488600861	0,18502313408221277
1	1	0	0	0	0	2	569410,71	0,100000001	2,44471598	0,00027781258336578806	0,10001065200457886	0,000244497642	-0,60111680274020314	0,022428476120373981	0,19113501161424541
1	1	0	0	0	0	2	569630,71	0,100000001	2,44780564	0,00027781251090019942	0,10001062591745682	0,000244806579	-0,59500492465181965	0,022200433731388906	0,19724688970262902
1	1	0	0	0	0	2	569850,72	0,100000001	2,45263124	0,00027781245009601114	0,10001060402836006	0,00024528912	-0,58889304838367347	0,021972391410319331	0,20335876597077491
1	1	0	0	0	0	2	570070,72	0,100000001	2,45219254	0,00027781258464563219	0,1000106524653141	0,000245245377	-0,58278116555884966	0,021744348844611299	0,20947064879559901
1	1	0	0	0	0	2	570290,73	0,100000001	2,45036149	0,00027781271410236752	0,10001069906886371	0,000245062372	-0,57666928630537638	0,021516306412155158	0,21558252804907258
1	1	0	0	0	0	2	570510,73	0,100000001	2,4508574	0,00027781214972419869	0,1000104958965381	0,000245111471	-0,57055740250173901	0,021288263809926278	0,22169441185271005
1	1	0	0	0	0	2	570730,73	0,100000001	2,45305085	0,00027781254917010669	0,10001063969436472	0,000245331175	-0,5644455216754041	0,02106022131878455	0,22780629267904461
1	1	0	0	0	0	2	570950,74	0,100000001	2,44458246	0,00027781239274930624	0,10001058338393397	0,000244484108	-0,55833363689958867	0,020832178680282403	0,23391817745485994
1	1	0	0	0	0	2	571170,74	0,100000001	2,4444108	0,00027781294195436771	0,10001078108938645	0,000244467432	-0,55222175206993504	0,020604136039771472	0,24003006228451357
1	1	0	0	0	0	2	571390,75	0,100000001	2,44504023	0,00027781348976948198	0,10001097830145288	0,000244530878	-0,54610986731601926	0,020376093402086429	0,24614194703842922
1	1	0	0	0	0	2	571610,75	0,100000001	2,44666123	0,00027781216339477232	0,10001050081435942	0,000244691822	-0,53999798609446317	0,020148050896198467	0,25225382825998566
1	1	0	0	0	0	2	571830,76	0,100000001	2,44629884	0,0002778121612278952	0,10001050003313405	0,000244655559	-0,53388611798603494	0,019920008879578941	0,25836569636841395
1	1	0	0	0	0	2	572050,76	0,100000001	2,44988465	0,00027781214521163037	0,100010494272044	0,000245014176	-0,52777424323390054	0,019691966615073805	0,26447757112054848
1	1	0	0	0	0	2	572270,76	0,100000001	2,44900727	0,00027781213433171309	0,10001049035534733	0,000244926428	-0,52166236825902925	0,019463924342258054	0,27058944609541984
1	1	0	0	0	0	2	572490,77	0,100000001	2,450495	0,00027781264940028394	0,10001067577655098	0,000245075673	-0,51555048846157779	0,019235881889505357	0,2767013258928711
1	1	0	0	0	0	2	572710,77	0,100000001	2,45194459	0,00027781243386243786	0,10001059818438341	0,000245220435	-0,50943860337581523	0,019007839239438662	0,2828132109786335
1	1	0	0	0	0	2	572930,78	0,100000001	2,45287919	0,00027781298137828707	0,10001079528638795	0,000245314412	-0,50332672185002125	0,018779796722199181	0,28892509250442739
1	1	0	0	0	0	2	573150,78	0,100000001	2,45375657	0,00027781316633481117	0,10001086186948634	0,000245402305	-0,49721483877075981	0,018551754146997741	0,29503697558368864
1	1	0	0	0	0	2	573370,78	0,100000001	2,45305085	0,00027781323356346954	0,10001088607134886	0,000245331787	-0,49110296176893421	0,018323711798553597	0,30114885258551424
1	1	0	0	0	0	2	573590,79	0,100000001	2,45434785	0,00027781273328471517	0,10001070597437917	0,000245461066	-0,48499108839874918	0,018095669585610854	0,30726072595569926
1	1	0	0	0	0	2	573810,79	0,100000001	2,45636964	0,00027781236290848918	0,10001057264144155	0,00024566293	-0,47887920592295488	0,017867627032925581	0,31337260843149363
1	1	0	0	0	0	2	574030,80	0,100000001	2,45497727	0,0002778135611994399	0,10001100401808339	0,000245524745	-0,4727673225238889	0,017639584445791802	0,31948449183055955
1	1	0	0	0	0	2	574250,80	0,100000001	2,45585465	0,00027781259851612979	0,10001065745859946	0,000245611649	-0,46665543998022285	0,017411541890574144	0,3255963743742256
1	1	0	0	0	0	2	574470,81	0,100000001	2,45726609	0,00027781214017255434	0,1000104924533537	0,000245752395	-0,46054355760466835	0,017183499341628957	0,3317082567497801
1	1	0	0	0	0	2	574690,81	0,100000001	2,45661759	0,00027781367965787648	0,10001104665999126	0,000245688891	-0,45443167188031085	0,016955456667735424	0,3378201424741376
1	1	0	0	0	0	2	574910,81	0,100000001	2,45696092	0,00027781337167281245	0,10001093578745019	0,000245722971	-0,44831978033420179	0,016727413776624512	0,34393203402024672
1	1	0	0	0	0	2	575130,82	0,100000001	2,45871568	0,00027781284168362618	0,10001074499259734	0,000245897972	-0,44220788941244813	0,016499370908809139	0,35004392494200038
1	1	0	0	0	0	2	575350,82	0,100000001	2,45310807	0,00027781344804416099	0,1000109632829479	0,000245337695	-0,43609599632676589	0,016271327960254685	0,35615581802768256
1	1	0	0	0	0	2	575570,83	0,100000001	2,45568299	0,00027781315311251418	0,10001085710954878	0,000245594973	-0,42998410034559226	0,016043284903665552	0,36226771400885619
1	1	0	0	0	0	2	575790,83	0,100000001	2,46109986	0,00027781390284126006	0,10001112700682915	0,000246137381	-0,42387220487852448	0,0158152418662584	0,36837960947592403
1	1	0	0	0	0	2	576010,83	0,100000001	2,45844865	0,00027781344591288102	0,10001096251570154	0,000245871808	-0,41776030955947194	0,015587198834373894	0,37449150479497658
1	1	0	0	0	0	2	576230,84	0,100000001	2,46006989	0,0002778139493941433	0,10001114376555242	0,000246034411	-0,41164841293883117	0,015359155753925386	0,38060340141561734
1	1	0	0	0	0	2	576450,84	0,100000001	2,46184373	0,00027781340783254966	0,10001094880703965	0,000246211333	-0,4055365183281529	0,015131112748471277	0,38671529602629555
1	1	0	0	0	0	2	576670,85	0,100000001	2,45871568	0,00027781385578380694	0,10001111006646414	0,000245898875	-0,39942461417443462	0,014903069386953517	0,39282720018001382
1	1	0	0	0	0	2	576890,85	0,100000001	2,45884919	0,00027781293914301526	0,1000107800819756	0,000245911418	-0,39331271494570368	0,014675026209193654	0,39893909940874477
1	1	0	0	0	0	2	577110,85	0,100000001	2,46014619	0,00027781406727598771	0,10001118620221955	0,000246042153	-0,38720081324288531	0,014446982939122262	0,4050510011115632
1	1	0	0	0	0	2	577330,86	0,100000001	2,46033692	0,00027781401424151328	0,10001116711016725	0,000246061158	-0,38108890957236448	0,01421893959563325	0,41116290478208403
1	1	0	0	0	0	2	577550,86	0,100000001	2,45852494	0,00027781385694071648	0,10001111048294376	0,000245879812	-0,37497701205504544	0,013990896481728466	0,41727480229940301
1	1	0	0	0	0	2	577770,87	0,100000001	2,45854402	0,00027781352960732246	0,10001099264513467	0,000245881442	-0,36886511774977293	0,013762853487669458	0,42338669660467552
1	1	0	0	0	0	2	577990,87	0,100000001	2,46201539	0,00027781404454509414	0,10001117801459446	0,000246229058	-0,36275321837321914	0,013534810304394128	0,42949859598122931
1	1	0	0	0	0	2	578210,88	0,100000001	2,4643805	0,00027781407494801613	0,1000111889606051	0,000246465614	-0,35664131785087021	0,013306767078367638	0,43561049650357824
1	1	0	0	0	0	2	578430,88	0,100000001	2,4662497	0,00027781339822585386	0,10001094534403709	0,000246651965	-0,35052941377074458	0,01307872371959572	0,44172240058370387
1	1	0	0	0	0	2	578650,88	0,100000001	2,46693635	0,00027781368872067994	0,10001104992486778	0,000246720883	-0,34441750868081267	0,012850680323146568	0,44783430567363578
1	1	0	0	0	0	2	578870,89	0,100000001	2,46714616	0,00027781371531469952	0,10001105949853504	0,000246741896	-0,33830560400338886	0,01262263694208865	0,45394621035105958
1	1	0	0	0	0	2	579090,89	0,100000001	2,46710801	0,00027781331093650723	0,10001091392511939	0,000246737734	-0,3321937058913472	0,012394593805993963	0,46005810846310131
1	1	0	0	0	0	2	579310,90	0,100000001	2,46701264	0,00027781425270852112	0,10001125295667805	0,000246729032	-0,3260818026173161	0,012166550477298514	0,46617001173713235
1	1	0	0	0	0	2	579530,90	0,100000001	2,46428514	0,00027781397431467968	0,10001115273677706	0,000246456009	-0,31996988854918054	0,011938506745860514	0,47228192580526797
1	1	0	0	0	0	2	579750,90	0,100000001	2,45917344	0,00027781342869045008	0,10001095631574282	0,000245944277	-0,31385798549812717	0,011710463425484664	0,47839382885632134
1	1	0	0	0	0	2	579970,91	0,100000001	2,4594214	0,00027781344578125411	0,10001096246831672	0,000245969102	-0,30774608550085517	0,011482420219049502	0,48450572885359328
1	1	0	0	0	0	2	580190,91	0,100000001	2,4581244	0,00027781283507537507	0,10001074261832864	0,000245838834	-0,30163419471451034	0,011254377356286416	0,49061761963993811
1	1	0	0	0	0	2	580410,92	0,100000001	2,46016526	0,00027781341373340954	0,10001095093130933	0,000246043463	-0,29552230064756026	0,011026334371119538	0,49672951370688826
1	1	0	0	0	0	2	580630,92	0,100000001	2,45984101	0,0002778130742501881	0,10001082871964451	0,00024601075	-0,28941039704307846	0,01079829103009453	0,50284141731137011
1	1	0	0	0	0	2	580850,92	0,100000001	2,46159577	0,00027781304903328419	0,10001081964172957	0,000246186217	-0,28329849751939978	0,01057024784132977	0,50895331683504883
1	1	0	0	0	0	2	581070,93	0,100000001	2,46491456	0,00027781218233249254	0,10001050763530346	0,00024651736	-0,27718661262819773	0,010342205198522389	0,51506520172625101
1	1	0	0	0	0	2	581290,93	0,100000001	2,46676469	0,0002778131431150767	0,10001085350588186	0,000246703246	-0,27107473425307693	0,010114162798838758	0,52117708010137184
1	1	0	0	0	0	2	581510,94	0,100000001	2,46684098	0,00027781302614510064	0,10001081139631691	0,000246710755	-0,26496284697558141	0,0098861200669955584	0,52728896737886765
1	1	0	0	0	0	2	581730,94	0,100000001	2,47159028	0,00027781379315877955	0,10001108751722058	0,000247186428	-0,25885095362494998	0,0096580771085554918	0,53340086072949888
1	1	0	0	0	0	2	581950,95	0,100000001	2,46974015	0,00027781273274372019	0,10001070577962464	0,000247000455	-0,2527390625320249	0,0094300342343534848	0,53951275182242387
1	1	0	0	0	0	2	582170,95	0,100000001	2,4720099	0,00027781265763979821	0,10001067874272042	0,000247227377	-0,24662717627677677	0,0092019915406517107	0,54562463807767213
1	1	0	0	0	0	2	582390,95	0,100000001	2,47191453	0,00027781239597747722	0,1000105845460537	0,000247217627	-0,24051529539122912	0,0089739490473006797	0,55173651896321997
1	1	0	0	0	0	2	582610,96	0,100000001	2,47448945	0,00027781272534901898	0,10001070311758218	0,000247475429	-0,23440341774912576	0,0087459066749669146	0,55784839660532346
1	1	0	0	0	0	2	582830,96	0,100000001	2,47679734	0,00027781249986878698	0,10001062194622291	0,000247706048	-0,22829153425680134	0,0085178640843535398	0,563960280097648
1	1	0	0	0	0	2	583050,97	0,100000001	2,47872376	0,00027781298862770202	0,1000107978961283	0,000247899152	-0,2221796497626065	0,0082898214563590298	0,57007216459184282
1	1	0	0	0	0	2	583270,97	0,100000001	2,47996354	0,00027781339744726816	0,10001094506840853	0,000248023483	-0,21606776243849309	0,0080617787227764531	0,57618405191595648
1	1	0	0	0	0	2	583490,97	0,100000001	2,48059297	0,00027781323500267331	0,10001088658945251	0,00024808629	-0,20995588295442246	0,0078337362817164147	0,58229593140002714
1	1	0	0	0	0	2	583710,98	0,100000001	2,48316789	0,00027781243851532541	0,10001059985939149	0,000248343102	-0,20384400689761184	0,007605693968532055	0,58840780745683776
1	1	0	0	0	0	2	583930,98	0,100000001	2,48566651	0,00027781296825450333	0,10001079056191451	0,000248593482	-0,19773213056356016	0,0073776516450034573	0,59451968379088934
1	1	0	0	0	0	2	584150,99	0,100000001	2,48822212	0,00027781423615581462	0,10001124699781558	0,000248850207	-0,19162024508858653	0,0071496089804147738	0,60063156926586304
1	1	0	0	0	0	2	584370,99	0,100000001	2,48921394	0,00027781354717289405	0,1000109989686217	0,000248948782	-0,18550835538111638	0,0069215661579059533	0,60674345897333286
1	1	0	0	0	0	2	584591,00	0,100000001	2,49073982	0,00027781322294101117	0,10001088224267862	0,000249101082	-0,17939645544813709	0,0066935229538696384	0,61285535890631194
1	1	0	0	0	0	2	584811,00	0,100000001	2,48641038	0,00027781308163040218	0,10001083137297891	0,000248667959	-0,17328455907460483	0,0064654798826410778	0,6189672552798441
1	1	0	0	0	0	2	585031,00	0,100000001	2,48461747	0,00027781285803847843	0,10001075088023357	0,000248488446	-0,16717267700450973	0,0062374373450929894	0,6250791373499392
1	1	0	0	0	0	2	585251,01	0,100000001	2,48635316	0,00027781310795495907	0,10001084084847718	0,000248662283	-0,1610607924280409	0,0060093947140287258	0,63119102192640819
1	1	0	0	0	0	2	585471,01	0,100000001	2,48999596	0,00027781296436447235	0,10001078916152966	0,00024902646	-0,15494890943819677	0,0057813521421635661	0,63730290491625229
1	1	0	0	0	0	2	585691,02	0,100000001	2,48993874	0,00027781327193809878	0,100010899885956	0,000249021017	-0,14883702470778038	0,0055533095053553126	0,6434147896466688
1	1	0	0	0	0	2	585911,02	0,100000001	2,48980522	0,0002778132710200217	0,10001089955545445	0,000249007659	-0,14272514065409347	0,0053252668937967462	0,64952667370035571
1	1	0	0	0	0	2	586131,02	0,100000001	2,49529839	0,00027781296753841968	0,10001079030412925	0,000249556761	-0,1366132558851236	0,0050972242555500109	0,6556385584693257
1	1	0	0	0	0	2	586351,03	0,100000001	2,49644279	0,00027781270103611882	0,10001069436510248	0,000249670964	-0,13050136980811941	0,0048691815684987571	0,66175044454632986
1	1	0	0	0	0	2	586571,03	0,100000001	2,49484062	0,0002778132018558681	0,10001087465682669	0,000249511184	-0,12438948477245099	0,0046411389203011405	0,66786232958199834
1	1	0	0	0	0	2	586791,04	0,100000001	2,49278069	0,0002778135676305327	0,10001100633323333	0,000249305507	-0,11827758965549226	0,0044130958959570272	0,67397422469895706
1	1	0	0	0	0	2	587011,04	0,100000001	2,49875069	0,00027781336523178554	0,10001093347105256	0,000249902398	-0,11216569749618259	0,0041850529819667789	0,68008611685826675
1	1	0	0	0	0	2	587231,04	0,100000001	2,49835014	0,00027781264002703955	0,10001067240224637	0,000249861681	-0,10605379956625838	0,0039570098526671418	0,6861980147881911
1	1	0	0	0	0	2	587451,05	0,100000001	2,49491692	0,0002778127620518208	0,10001071633034272	0,000249518431	-0,099941916327579392	0,0037289672715176166	0,69230989802687002
1	1	0	0	0	0	2	587671,05	0,100000001	2,49606133	0,00027781366542602576	0,10001104153894974	0,000249633682	-0,093830030036290714	0,00350092457647112	0,69842178431815872
1	1	0	0	0	0	2	587891,06	0,100000001	2,49394417	0,00027781257587505718	0,10001064930330934	0,000249420962	-0,087718149542813734	0,0032728820977487738	0,70453366481163558
1	1	0	0	0	0	2	588111,06	0,100000001	2,49276161	0,00027781355777548422	0,10001100278198971	0,000249303586	-0,081606267193705536	0,0030448395497903309	0,71064554716074381
1	1	0	0	0	0	2	588331,07	0,100000001	2,49577522	0,00027781300020797386	0,10001080206029086	0,000249604491	-0,075494372395994189	0,002816796537357767	0,7167574419584553
1	1	0	0	0	0	2	588551,07	0,100000001	2,49260902	0,00027781288603196541	0,10001076095769966	0,000249287725	-0,069382482147669824	0,0025887536946689491	0,72286933220677926
1	1	0	0	0	0	2	588771,07	0,100000001	2,49312401	0,00027781248442373338	0,10001061638610803	0,00024933886	-0,06327060106899401	0,002360711194112047	0,72898121328545523
1	1	0	0	0	0	2	588991,08	0,100000001	2,49407768	0,00027781330958174333	0,10001091343741355	0,00024943499	-0,057158716326882208	0,0021326685568674224	0,73509309802756723
1	1	0	0	0	0	2	589211,08	0,100000001	2,50079155	0,00027781300418120294	0,10001080349528352	0,000250106183	-0,051046828917047814	0,001904625820086481	0,74120498543740147
1	1	0	0	0	0	2	589431,09	0,100000001	2,49518394	0,00027781228322287398	0,10001054395515875	0,000249544712	-0,044934948625722886	0,0016765833489066989	0,74731686572872666
1	1	0	0	0	0	2	589651,09	0,100000001	2,50191689	0,0002778133049992224	0,10001091178773699	0,000250218989	-0,038823057745517741	0,001448540482641559	0,75342875660893184
1	1	0	0	0	0	2	589871,09	0,100000001	2,50515938	0,00027781261111464765	0,10001066199398074	0,000250542653	-0,032711173298780896	0,0012204978564177715	0,75954064105566886
1	1	0	0	0	0	2	590091,10	0,100000001	2,51246452	0,00027781260183908877	0,10001065865484222	0,000251273246	-0,026599285918016589	0,00099245512072147443	0,76565252843643315
1	1	0	0	0	0	2	590311,10	0,100000001	2,50927925	0,00027781329185225901	0,10001090705491904	0,000250955287	-0,02048740249351679	0,00076441253263872525	0,77176441186093274
1	1	0	0	0	0	2	590531,11	0,100000001	2,50926018	0,00027781326269110045	0,10001089655709909	0,000250953366	-0,014375504338741077	0,00053636939494957658	0,77787631001570829
1	1	0	0	0	0	2	590751,11	0,100000001	2,51173973	0,0002778131533687313	0,10001085720178522	0,000251201243	-0,0082636098494676416	0,00030832639402524646	0,78398820450498202
1	1	0	0	0	0	2	590971,12	0,100000001	2,51503944	0,00027781447855879862	0,1000113342612512	0,000251532445	-0,0021517080916106058	8,0283121900289382E-005	0,79010010626283904
1	1	0	0	0	0	2	591191,12	0,100000001	2,51852989	0,00027781327246088125	0,1000109000694971	0,000251880439	0,0039601950272535098	-0,00014776020100567171	0,79621200938170317
1	1	0	0	0	0	2	591411,12	0,100000001	2,52179146	0,00027781266685119933	0,10001068205294128	0,000252206082	0,010072082728900248	-0,00037580294867452384	0,80232389708334989
1	1	0	0	0	0	2	591631,13	0,100000001	2,52686501	0,00027781257388161293	0,10001064858801141	0,00025271342	0,016183974554120899	-0,00060384585019946278	0,80843578890857062
1	1	0	0	0	0	2	591851,13	0,100000001	2,52991652	0,00027781293051607078	0,1000107769716769	0,000253018923	0,022295861432942483	-0,00083188856716760205	0,814547675787392
1	1	0	0	0	0	2	592071,14	0,100000001	2,53041244	0,0002778141925868889	0,10001123131329686	0,000253069651	0,028407757659341965	-0,0010599316329064406	0,82065957201379123
1	1	0	0	0	0	2	592291,14	0,100000001	2,53296828	0,00027781326555957398	0,10001089758973019	0,000253324426	0,034519652666932013	-0,0012879746531698606	0,82677146702138163
1	1	0	0	0	0	2	592511,14	0,100000001	2,52791381	0,00027781369549201594	0,10001105236250294	0,000252819329	0,040631551758363258	-0,0015160178258068864	0,83288336611281306
1	1	0	0	0	0	2	592731,15	0,100000001	2,53323531	0,00027781290698837904	0,10001076850652392	0,000253350823	0,046743442664493126	-0,0017440606930393123	0,83899525701894298
1	1	0	0	0	0	2	592951,15	0,100000001	2,5377748	0,00027781387371569872	0,10001111652182397	0,000253805687	0,052855334401376794	-0,0019721035912682797	0,84510714875582669
1	1	0	0	0	0	2	593171,16	0,100000001	2,53802276	0,00027781342151057386	0,10001095373103592	0,000253830076	0,058967225663184947	-0,0022001464717715408	0,85121904001763482
1	1	0	0	0	0	2	593391,16	0,100000001	2,53903365	0,00027781312131881709	0,10001084566403277	0,000253930892	0,065079110850694515	-0,0024281891256345546	0,85733092520514458
1	1	0	0	0	0	2	593611,16	0,100000001	2,54012084	0,00027781332551563779	0,10001091917350786	0,000254039827	0,071191007793160179	-0,0026562322180907856	0,86344282214761037
1	1	0	0	0	0	2	593831,17	0,100000001	2,54300094	0,00027781300287072858	0,1000108030235216	0,000254327577	0,077302897675375002	-0,0028842750471195648	0,86955471202982515
1	1	0	0	0	0	2	594051,17	0,100000001	2,54319167	0,00027781320470405949	0,10001087568215632	0,000254346814	0,083414786148526413	-0,0031123178235742938	0,8756666005029769
1	1	0	0	0	0	2	594271,18	0,100000001	2,55326247	0,00027781282655273875	0,10001073955023715	0,000255353661	0,089526675835955699	-0,0033403606453353619	0,88177849019040602
1	1	0	0	0	0	2	594491,18	0,100000001	2,55457854	0,00027781301123897238	0,10001080603137578	0,000255485473	0,095638561645903296	-0,0035684033224223763	0,88789037600035366
1	1	0	0	0	0	2	594711,19	0,100000001	2,55337691	0,00027781403424715008	0,10001117430973272	0,000255366234	0,10175045154967717	-0,0037964461522555526	0,89400226590412762
1	1	0	0	0	0	2	594931,19	0,100000001	2,5576303	0,0002778140211018423	0,10001116957401802	0,000255791587	0,10786234943182827	-0,0040244892797727104	0,90011416378627878
1	1	0	0	0	0	2	595151,19	0,100000001	2,55999541	0,00027781343509960509	0,10001095861833826	0,00025602759	0,11397423806521402	-0,0042525320622059974	0,90622605241966451
1	1	0	0	0	0	2	595371,20	0,100000001	2,56377196	0,00027781298989761206	0,10001079835328738	0,000256404892	0,12008614099653046	-0,0044805753781143014	0,91233795535098099
1	1	0	0	0	0	2	595591,20	0,100000001	2,56751037	0,0002778136772434745	0,10001104579315139	0,0002567794	0,12619803763018034	-0,004708618459048201	0,91844985198463078
1	1	0	0	0	0	2	595811,21	0,100000001	2,57300329	0,00027781246506215802	0,10001060941607176	0,000257327629	0,1323099323599461	-0,004936661468945623	0,9245617467143968
1	1	0	0	0	0	2	596031,21	0,100000001	2,57548285	0,00027781254811957478	0,10001063931618034	0,000257575681	0,13842181373785248	-0,0051647039806672198	0,9306736280923031
1	1	0	0	0	0	2	596251,21	0,100000001	2,58324575	0,00027781312713606493	0,10001084775820266	0,000258352607	0,14453369425518701	-0,0053927464602797242	0,93678550860963789
1	1	0	0	0	0	2	596471,22	0,100000001	2,58822393	0,00027781251045895949	0,10001062575861341	0,000258849905	0,15064557914116912	-0,0056207891028923443	0,94289739349561971
1	1	0	0	0	0	2	596691,22	0,100000001	2,59858084	0,00027781381792326765	0,10001109643692594	0,000259886932	0,15675748217559619	-0,0058488324226478451	0,94900929653004672
1	1	0	0	0	0	2	596911,23	0,100000001	2,6130383	0,00027781375225881738	0,10001107279816771	0,000261332752	0,16286938164256694	-0,0060768756092967552	0,95512119599701734
1	1	0	0	0	0	2	597131,23	0,100000001	2,63579297	0,00027781344338423674	0,10001096160540669	0,000263608177	0,16898127324047866	-0,0063049185023404915	0,96123308759492915
1	1	0	0	0	0	2	597351,23	0,100000001	2,67744923	0,00027781295296135875	0,10001078505648586	0,000267773808	0,17509316300160621	-0,0065329613268513421	0,96734497735605658
1	1	0	0	0	0	2	597571,24	0,100000001	2,7267158	0,00027781274665022896	0,10001071078587376	0,000272700796	0,18120504237456602	-0,006761003763765687	0,97345685672901619
1	1	0	0	0	0	2	597791,24	0,100000001	2,76177263	0,00027781361260223718	0,10001102251808589	0,000276207691	0,18731693209127645	-0,0069890465866192742	0,97956874644572672
1	1	0	0	0	0	2	598011,25	0,100000001	2,78738809	0,00027781376292722093	0,10001107663639235	0,000278769672	0,19342883104993709	-0,0072170897543024499	0,98568064540438733
1	1	0	0	0	0	2	598231,25	0,100000001	2,8120501	0,00027781302563473584	0,10001081121491755	0,000281235407	0,19954073001402339	-0,0074451329221880653	0,99179254436847373
1	1	0	0	0	0	2	598451,26	0,100000001	2,83707428	0,0002778142691614727	0,10001125887497235	0,000283739384	0,20565263163389245	-0,0076731761891645043	0,99790444598834291
1	1	0	0	0	0	2	598530,54	0,100000001	2,8453331	0,00025781144539308214	0,10001102763848771	0,000284564681	0,20785513899146365	-0,0077553546999781235	1,0001069533459141