File: Experimentelles/Rohdaten/Batterietests/AlteZelle/Studenten_Batterietests/Sonstige/ECLab-Export/S vs Li_02_CV_C02_loop0.mpt
EC-Lab ASCII FILE
Nb header lines : 3
mode	ox/red	error	control changes	counter inc.	time/s	control/V	Ewe/V	<I>/mA	cycle number	(Q-Qo)/C	P/W
2	0	0	1	0	3600,06	2,39015245	2,39054132	0,00037633447209373114	1	0	8,99643112E-007
2	0	0	0	0	3601,42	2,37654996	2,37709212	-0,13623109731512838	1	-9,5189338E-005	0,000323833869
2	0	0	1	0	3602,72	2,36354804	2,36420441	-0,26251324755139738	1	-0,000355583354	0,000620634994
2	0	0	0	0	3604,02	2,35054636	2,35084581	-0,38908397080376832	1	-0,000780108792	0,000914676406
2	0	0	1	0	3605,32	2,33754444	2,33799815	-0,51798729986573555	1	-0,00137066911	0,00121105334
2	0	0	0	0	3606,62	2,32454276	2,32503057	-0,64872944882760435	1	-0,00212964509	0,00150831579
2	0	0	1	0	3607,92	2,31154084	2,3120625	-0,78419147307674214	1	-0,0030617842	0,00181309972
2	0	0	0	0	3609,22	2,29853916	2,29917502	-0,92437562656899712	1	-0,00417283969	0,0021253014
2	0	0	0	0	3610,56	2,28513765	2,28571606	-1,0723812595695512	1	-0,00551111437	0,00245115906
2	0	0	1	0	3611,86	2,2721355	2,27271819	-1,2222341224551227	1	-0,00700335018	0,00277779368
2	0	0	0	0	3613,16	2,25913382	2,25960016	-1,3765636396904846	1	-0,00869363546	0,00311048352
2	0	0	1	0	3614,46	2,2461319	2,24658227	-1,536668995084865	1	-0,0105880387	0,0034522533
2	0	0	0	0	3615,76	2,23313022	2,23359466	-1,7024337121595958	1	-0,0126936408	0,00380254677
2	0	0	1	0	3617,06	2,22012854	2,22038627	-1,8739306138207574	1	-0,0150186773	0,00416084984
2	0	0	0	0	3618,36	2,20712662	2,20778871	-2,0503576627622096	1	-0,0175703987	0,0045267567
2	0	0	1	0	3619,66	2,19412494	2,1945107	-2,2304399106651402	1	-0,0203540325	0,00489472412
2	0	0	0	0	3620,96	2,18112326	2,18155265	-2,4158131455381805	1	-0,0233742986	0,0052702236
2	0	0	1	0	3622,26	2,16812086	2,16873527	-2,6043550801200758	1	-0,0266383439	0,00564815663
2	0	0	1	0	3623,56	2,15511942	2,15563726	-2,8015424329787491	1	-0,0301528368	0,00603910908
2	0	0	0	0	3624,86	2,1421175	2,14252877	-3,0056061986833862	1	-0,0339288339	0,00643959781
2	0	0	1	0	3626,16	2,12911606	2,1297214	-3,2192996852099968	1	-0,0379763842	0,00685621146
2	0	0	0	0	3627,46	2,11611414	2,11660337	-3,4393507105608736	1	-0,0423047245	0,00727974111
2	0	0	1	0	3628,76	2,10311222	2,10339499	-3,6641430358091968	1	-0,0469207279	0,00770713994
2	0	0	0	0	3630,06	2,09011078	2,09061742	-3,9037278691927712	1	-0,0518409908	0,00816120114
2	0	0	1	0	3631,37	2,07710886	2,07764983	-4,1508876271545888	1	-0,0570757203	0,00862409081
2	0	0	0	0	3632,67	2,06410694	2,06467199	-4,3892012834548947	1	-0,0626385063	0,00906226132
2	0	0	1	0	3633,97	2,05110526	2,0516839	-4,6255443734924032	1	-0,068494916	0,00949015468
2	0	0	1	0	3635,27	2,03810334	2,03844571	-4,8948016415039693	1	-0,0746839941	0,00997778773
2	0	0	0	0	3636,57	2,02510166	2,02559805	-5,1708503228922886	1	-0,0812309235	0,0104740644
2	0	0	1	0	3637,87	2,01209998	2,01262999	-5,471069971720368	1	-0,0881466195	0,0110112391
2	0	0	0	0	3639,17	1,99909818	1,99951208	-5,7568751722574515	1	-0,0954463407	0,0115109412
2	0	0	1	0	3640,47	1,98609638	1,98651421	-6,0399541060130061	1	-0,103117026	0,011998455
2	0	0	0	0	3641,77	1,9730947	1,97367644	-6,3093819941083597	1	-0,111145094	0,0124526788
2	0	0	1	0	3643,07	1,9600929	1,96063852	-6,591859492162825	1	-0,119534612	0,0129242539
2	0	0	0	0	3644,37	1,9470911	1,9477607	-6,9185395513971712	1	-0,128322423	0,0134756593
2	0	0	1	0	3645,67	1,9340893	1,93448246	-7,1985286449392448	1	-0,137503833	0,0139254276
2	0	0	1	0	3646,97	1,92108786	1,9218055	-7,4553352196813875	1	-0,147032931	0,014327704
2	0	0	0	0	3648,27	1,90808582	1,90871692	-7,7079997509717978	1	-0,156893462	0,0147123896
2	0	0	1	0	3649,57	1,89508402	1,89556885	-7,9686563685536384	1	-0,167087406	0,0151051367
2	0	0	0	0	3650,87	1,88208222	1,88282132	-8,2056276450554867	1	-0,177608475	0,0154497307
2	0	0	1	0	3652,17	1,86908031	1,86952293	-8,4150059123833933	1	-0,188425496	0,0157320462
2	0	0	0	0	3653,47	1,85607851	1,8566252	-8,5226629202564224	1	-0,199447051	0,0158233903
2	0	0	1	0	3654,77	1,84307671	1,84337699	-8,7412196422616832	1	-0,21066089	0,0161133632
2	0	0	0	0	3656,07	1,83007503	1,83070946	-8,971259288489847	1	-0,222176284	0,0164237693
2	0	0	1	0	3657,37	1,81707323	1,81763148	-9,2067699432373261	1	-0,233995572	0,0167345144
2	0	0	0	0	3658,67	1,80407143	1,80487406	-9,4411232545971866	1	-0,2461216	0,0170400385
2	0	0	0	0	3659,97	1,79106975	1,79158556	-9,6623729070027482	1	-0,258543104	0,0173109677
2	0	0	1	0	3661,27	1,77806795	1,77840734	-9,8713588714599603	1	-0,27124694	0,0175552964
2	0	0	0	0	3662,60	1,7647661	1,76522934	-10,078997261822195	1	-0,284529984	0,0177917425
2	0	0	1	0	3663,90	1,7517643	1,75236142	-10,250234728058174	1	-0,29774648	0,0179621167
2	0	0	0	0	3665,20	1,73876262	1,73921335	-10,440179650982202	1	-0,311200857	0,0181577001
2	0	0	1	0	3666,50	1,72576082	1,72627568	-10,627109780907659	1	-0,32489273	0,0183453206
2	0	0	0	0	3667,80	1,71275902	1,71328759	-10,818386204540744	1	-0,338831753	0,0185350068
2	0	0	1	0	3669,10	1,6997571	1,70013952	-11,044175888101293	1	-0,353048921	0,0187766403
2	0	0	0	0	3670,40	1,6867553	1,68728173	-11,231758110225219	1	-0,367537379	0,0189511403
2	0	0	0	0	3671,70	1,67375374	1,67436409	-11,368402498463818	1	-0,382222593	0,0190348458
2	0	0	1	0	3673,00	1,66075182	1,66130614	-11,485756769776381	1	-0,397080898	0,0190813579
2	0	0	0	0	3674,30	1,64775002	1,64828813	-11,605717557171994	1	-0,412084073	0,0191295668
2	0	0	1	0	3675,60	1,63474846	1,63520014	-11,768655796845757	1	-0,427286595	0,0192441083
2	0	0	0	0	3676,90	1,62174654	1,62226236	-11,900231376290334	1	-0,442680508	0,0193052981
2	0	0	1	0	3678,20	1,60874474	1,60908413	-11,994657307863293	1	-0,458222657	0,0193004124
2	0	0	0	0	3679,50	1,59574294	1,59610629	-12,047812181214538	1	-0,473839998	0,019229589
2	0	0	1	0	3680,80	1,58274114	1,58326864	-12,171579261620848	1	-0,489584953	0,0192708801
2	0	0	0	0	3682,10	1,56973934	1,57015061	-12,359833742181456	1	-0,505526841	0,0194068011
2	0	0	0	0	3683,40	1,55673683	1,55727196	-12,626510288667901	1	-0,521771669	0,0196629111
2	0	0	1	0	3684,70	1,54373598	1,54428518	-12,720592096447888	1	-0,538272917	0,0196442213
2	0	0	0	0	3686,00	1,53073406	1,53123701	-12,810138588150366	1	-0,554836869	0,0196153577
2	0	0	1	0	3687,30	1,51773226	1,51837933	-12,906531979640363	1	-0,571564913	0,0195970107
2	0	0	0	0	3688,60	1,50473058	1,505041	-12,944530084729224	1	-0,588373423	0,0194820482
2	0	0	1	0	3689,90	1,49172878	1,49222326	-13,063570395112038	1	-0,605278194	0,0194937643
2	0	0	0	0	3691,20	1,47872698	1,47908533	-13,128934790690757	1	-0,622288823	0,0194188152
2	0	0	1	0	3692,50	1,46572506	1,46610737	-13,179015244046802	1	-0,63937515	0,0193218514
2	0	0	0	0	3693,80	1,4527235	1,45330977	-13,27658598124981	1	-0,656576812	0,0192949921
2	0	0	1	0	3695,10	1,4397217	1,43998134	-13,341728394230243	1	-0,673876643	0,0192118399
2	0	0	1	0	3696,40	1,42671978	1,42734385	-13,441567401091344	1	-0,691285789	0,0191857386
2	0	0	0	0	3697,70	1,4137181	1,41419578	-13,505929380655288	1	-0,708798885	0,019100029
2	0	0	1	0	3699,00	1,4007163	1,40131807	-13,586854532360973	1	-0,726417065	0,0190395042
2	0	0	0	0	3700,30	1,38771439	1,38838017	-13,73924292127296	1	-0,744189203	0,0190752931
2	0	0	1	0	3701,60	1,37471259	1,37516212	-13,672923112909	1	-0,761996031	0,0188024864
2	0	0	0	0	3702,90	1,36171091	1,3621943	-13,714452261726024	1	-0,779804766	0,0186817478
2	0	0	1	0	3704,21	1,34870911	1,34904599	-13,652276938160248	1	-0,797595382	0,0184175503
2	0	0	0	0	3705,51	1,33570731	1,33619821	-13,703893969456374	1	-0,815366089	0,0183111187
2	0	0	1	0	3706,81	1,32270563	1,32329059	-13,744569192330061	1	-0,833217621	0,0181880593
2	0	0	1	0	3708,11	1,30970383	1,31021249	-13,867266466220202	1	-0,851169407	0,0181690659
2	0	0	0	0	3709,41	1,29670203	1,29728472	-13,906219174464581	1	-0,869215608	0,0180403255
2	0	0	1	0	3710,71	1,28370023	1,28397644	-14,03049402932328	1	-0,887396872	0,018014824
2	0	0	0	0	3712,01	1,27069831	1,27124882	-14,119854097565053	1	-0,905738235	0,0179498475
2	0	0	1	0	3713,31	1,25769675	1,25822103	-14,113476514816227	1	-0,92409575	0,0177578721
2	0	0	0	0	3714,61	1,24469495	1,24531317	-14,128122851252557	1	-0,942507386	0,017593937
2	0	0	1	0	3715,91	1,23169315	1,23224509	-14,005040481686563	1	-0,960755229	0,017257642
2	0	0	0	0	3717,21	1,21869135	1,21918714	-13,999199365576146	1	-0,978946567	0,0170676447
2	0	0	1	0	3718,51	1,20568955	1,20614922	-14,071867153048502	1	-0,997161627	0,0169727709
2	0	0	1	0	3719,81	1,19268799	1,19330156	-14,054845549119278	1	-1,01549816	0,0167716686
2	0	0	0	0	3721,11	1,17968607	1,18051386	-14,048336580395643	1	-1,03380811	0,0165842567
2	0	0	1	0	3722,41	1,16668415	1,16721559	-13,943951914707837	1	-1,0519985	0,0162755977
2	0	0	0	0	3723,71	1,15368247	1,15424776	-13,940092692772566	1	-1,07013571	0,0160903204
2	0	0	1	0	3725,01	1,14068079	1,14139009	-13,938247064749419	1	-1,08826673	0,015908977
2	0	0	0	0	3726,31	1,12767887	1,12824178	-14,153342684110045	1	-1,10647607	0,0159683917
2	0	0	1	0	3727,61	1,11467707	1,11530399	-14,193014735976874	1	-1,1249063	0,0158295259
2	0	0	0	0	3728,91	1,10167515	1,10209584	-14,129729489485443	1	-1,1433363	0,015572316
2	0	0	1	0	3730,21	1,08867347	1,08883762	-14,06375476717949	1	-1,16168308	0,0153131457
2	0	0	1	0	3731,51	1,07567096	1,07617915	-13,988109263760976	1	-1,17994118	0,0150537118
2	0	0	0	0	3732,81	1,06266987	1,06320238	-13,884553437431662	1	-1,19805896	0,0147620905
2	0	0	1	0	3734,11	1,04966819	1,05011415	-13,695320953925445	1	-1,21602845	0,0143816508
2	0	0	0	0	3735,41	1,03666639	1,03716636	-13,673826615015798	1	-1,23379469	0,014182033
2	0	0	1	0	3736,71	1,02366459	1,02439892	-13,642649764815914	1	-1,25154614	0,013975516
2	0	0	0	0	3738,01	1,01066279	1,01122069	-13,80344175795713	1	-1,26928043	0,0139583256
2	0	0	1	0	3739,31	0,997661114	0,998132646	-13,612532387177198	1	-1,28703737	0,0135871125
2	0	0	0	0	3740,61	0,984659314	0,985184848	-13,52770472566283	1	-1,30467451	0,0133272894
2	0	0	1	0	3741,91	0,971657574	0,972056746	-13,42818700770539	1	-1,32219672	0,0130529599
2	0	0	0	0	3743,21	0,958655834	0,959199011	-13,369496345520021	1	-1,33961451	0,0128240073
2	0	0	0	0	3744,51	0,945654035	0,946311235	-13,44332628448808	1	-1,35705042	0,0127215711
2	0	0	1	0	3745,81	0,932652175	0,933153152	-13,410601923863112	1	-1,37451911	0,0125141451
2	0	0	0	0	3747,11	0,919650376	0,920155227	-13,398444424072978	1	-1,39194131	0,0123286489
2	0	0	1	0	3748,41	0,906648636	0,907307565	-13,357580319046989	1	-1,40934289	0,0121194338
2	0	0	0	0	3749,71	0,893646896	0,893999219	-13,382601812481878	1	-1,42673111	0,0119640352
2	0	0	1	0	3751,01	0,880645096	0,881161511	-13,095058028896688	1	-1,44397151	0,0115388613
2	0	0	0	0	3752,31	0,867643297	0,868193686	-13,140682935714778	1	-1,46105063	0,0114086578
2	0	0	1	0	3753,61	0,854641438	0,854855299	-13,093501602609933	1	-1,47809565	0,0111930491
2	0	0	0	0	3754,91	0,841639698	0,842197835	-12,99522934357327	1	-1,49502838	0,0109445537
2	0	0	0	0	3756,21	0,828637242	0,82934922	-12,910962014605525	1	-1,51186669	0,010707696
2	0	0	1	0	3757,51	0,815636158	0,816182017	-12,799921765923555	1	-1,52858722	0,0104470663
2	0	0	0	0	3758,81	0,802634358	0,803114057	-12,71180315812427	1	-1,54517305	0,0102090277
2	0	0	1	0	3760,11	0,789632499	0,790176153	-12,627488523721694	1	-1,56163681	0,00997794047
2	0	0	0	0	3761,41	0,776630819	0,777098238	-12,577981144189834	1	-1,57801914	0,00977432728
2	0	0	1	0	3762,71	0,763629079	0,764170408	-12,522551005085291	1	-1,59433174	0,00956936274
2	0	0	0	0	3764,01	0,750627279	0,751022279	-12,499639704823536	1	-1,6106236	0,00938750803
2	0	0	1	0	3765,31	0,73762548	0,738124549	-12,573193828264947	1	-1,62694371	0,00928058289
2	0	0	0	0	3766,61	0,72462374	0,72511667	-12,487490899860886	1	-1,64325583	0,00905488804
2	0	0	1	0	3767,91	0,71162194	0,712138712	-12,282993386189125	1	-1,659325	0,00874719489
2	0	0	1	0	3769,21	0,698620141	0,699010611	-12,268549563984123	1	-1,67528677	0,00857584644
2	0	0	0	0	3770,51	0,685618341	0,68594265	-12,222076455752054	1	-1,69121706	0,00838364381
2	0	0	1	0	3771,81	0,672616601	0,673205078	-12,234629360338061	1	-1,70715189	0,00823641475
2	0	0	0	0	3773,11	0,659614801	0,660076916	-12,277050172289208	1	-1,72309756	0,00810379721
2	0	0	1	0	3774,41	0,646613061	0,647069097	-12,271696808437512	1	-1,73908055	0,00794063602
2	0	0	0	0	3775,71	0,633611202	0,634171307	-12,059861004352528	1	-1,75490582	0,00764801772
2	0	0	1	0	3777,02	0,620609462	0,621263504	-11,842942451437296	1	-1,77041507	0,00735758804
2	0	0	0	0	3778,32	0,607607663	0,608145535	-11,757849648594885	1	-1,78577352	0,00715048378
2	0	0	1	0	3779,62	0,594605923	0,595087469	-11,657390957077354	1	-1,8009932	0,00693716714
2	0	0	1	0	3780,92	0,581604123	0,582029462	-11,579171811540958	1	-1,81609988	0,00673941895
2	0	0	0	0	3782,22	0,568602324	0,568781257	-11,508893681069226	1	-1,83110571	0,00654604286
2	0	0	1	0	3783,52	0,555600524	0,556093812	-11,521475799381706	1	-1,8460834	0,00640702154
2	0	0	0	0	3784,82	0,542598724	0,543155909	-11,321821120878064	1	-1,86093676	0,00614951411
2	0	0	1	0	3786,12	0,529597044	0,530288219	-11,20889306316775	1	-1,87558937	0,00594394375
2	0	0	0	0	3787,42	0,516595185	0,517160118	-11,120516749719794	1	-1,89011073	0,0057510878
2	0	0	1	0	3788,72	0,503593445	0,50410217	-11,042956193288149	1	-1,90452075	0,00556677813
2	1	0	1	0	3789,96	0,508794188	0,509269297	-10,775825706620992	1	-1,91808546	0,00548779732
2	1	0	1	0	3791,26	0,521795869	0,522317231	-10,479843951761738	1	-1,93188918	0,00547380326
2	1	0	0	0	3792,56	0,534797728	0,53507477	-10,23507859806223	1	-1,94535446	0,0054765325
2	1	0	1	0	3793,86	0,547799528	0,548303068	-10,035096118847534	1	-1,95852709	0,00550227379
2	1	0	0	0	3795,16	0,560801268	0,561300933	-9,8571502740184371	1	-1,97145426	0,00553282769
2	1	0	1	0	3796,46	0,573803008	0,574248791	-9,704037631551369	1	-1,98416793	0,00557253184
2	1	0	0	0	3797,76	0,586804807	0,587326825	-9,5600512698292736	1	-1,99668944	0,00561487442
2	1	0	1	0	3799,06	0,599806607	0,600264609	-9,4305070713162701	1	-2,00903058	0,0056607998
2	1	0	0	0	3800,36	0,612808347	0,61336261	-9,2968871518969818	1	-2,02120495	0,00570236286
2	1	0	1	0	3801,66	0,625810146	0,626340508	-9,1608983253439718	1	-2,03320503	0,00573784159
2	1	0	1	0	3802,96	0,638811231	0,639287949	-9,0420752918186765	1	-2,04503298	0,00578048965
2	1	0	0	0	3804,26	0,651813745	0,652346432	-8,9289663831393536	1	-2,05671263	0,00582477916
2	1	0	1	0	3805,56	0,664815485	0,665073931	-8,8251058782140749	1	-2,06825328	0,00586934807
2	1	0	0	0	3806,86	0,677817285	0,678322136	-8,722326253851273	1	-2,07965708	0,00591654703
2	1	0	1	0	3808,16	0,690819085	0,691560388	-8,6247655202945306	1	-2,09093404	0,005964546
2	1	0	0	0	3809,46	0,703820884	0,704347968	-8,5331630955139891	1	-2,10208726	0,00601031631
2	1	0	1	0	3810,76	0,716822684	0,717365921	-8,4483673771222528	1	-2,11312938	0,00606057094
2	1	0	0	0	3812,06	0,729824424	0,730193675	-8,3609049965938022	1	-2,12405777	0,00610507978
2	1	0	1	0	3813,36	0,742826223	0,743391752	-8,2680371776222899	1	-2,13486862	0,00614639046
2	1	0	0	0	3814,66	0,755827963	0,7564798	-8,1809757525722381	1	-2,14555955	0,00618874282
2	1	0	0	0	3815,96	0,768829763	0,769277453	-8,0989531551798208	1	-2,15614033	0,0062303422
2	1	0	1	0	3817,26	0,781831563	0,782535672	-8,0157575458288333	1	-2,16661525	0,00627261633
2	1	0	0	0	3818,56	0,794833422	0,795333266	-7,9350436230500634	1	-2,17698407	0,00631100405
2	1	0	1	0	3819,86	0,807835042	0,808281124	-7,8525937721133517	1	-2,1872468	0,00634710351
2	1	0	0	0	3821,16	0,820836842	0,821228921	-7,7754942526420058	1	-2,19740582	0,00638546096
2	1	0	1	0	3822,46	0,833838701	0,834517241	-7,6960558220744269	1	-2,20746207	0,00642249128
2	1	0	0	0	3823,76	0,846840501	0,84744513	-7,6136057029168	1	-2,21741295	0,00645211292
2	1	0	1	0	3825,06	0,859842122	0,860282838	-7,5349924961726054	1	-2,22725987	0,00648222491
2	1	0	0	0	3826,36	0,872843981	0,873560965	-7,4599696596463334	1	-2,23700833	0,00651673833
2	1	0	0	0	3827,66	0,88584578	0,88655901	-7,3867198104659622	1	-2,24665737	0,00654876279
2	1	0	1	0	3828,96	0,89884758	0,899176359	-7,3093782340486938	1	-2,25620961	0,00657242024
2	1	0	0	0	3830,26	0,91184926	0,912404597	-7,2388482913374835	1	-2,2656672	0,00660475856
2	1	0	1	0	3831,56	0,92485106	0,925762951	-7,1625967323780134	1	-2,27502894	0,00663086679
2	1	0	0	0	3832,86	0,937852859	0,938310266	-7,0833834260702272	1	-2,28429151	0,00664641149
2	1	0	1	0	3834,16	0,950854719	0,951418281	-7,0099547977249011	1	-2,29345059	0,00666939933
2	1	0	0	0	3835,46	0,963856518	0,964546382	-6,931599326431808	1	-2,3025167	0,00668584928
2	1	0	1	0	3836,76	0,976858258	0,977454185	-6,860698021948352	1	-2,31148267	0,006706018
2	1	0	0	0	3838,06	0,989859998	0,990402043	-6,7866097937027802	1	-2,32035208	0,00672147237
2	1	0	0	0	3839,36	1,00286198	1,0031091	-6,7104974859844045	1	-2,32912302	0,00673136115
2	1	0	1	0	3840,66	1,01586366	1,01645792	-6,6342988709608614	1	-2,3377974	0,00674348557
2	1	0	0	0	3841,96	1,02886546	1,02940583	-6,570801985760553	1	-2,34638238	0,0067640217
2	1	0	1	0	3843,26	1,04186714	1,04226339	-6,496422305703168	1	-2,35487509	0,00677098334
2	1	0	0	0	3844,56	1,05486894	1,05556166	-6,423357630769431	1	-2,36327934	0,00678025
2	1	0	1	0	3845,87	1,06787062	1,06871998	-6,3464236979683405	1	-2,37158275	0,0067825499
2	1	0	0	0	3847,17	1,08087242	1,08144748	-6,2719940394163341	1	-2,37978888	0,00678283209
2	1	0	1	0	3848,47	1,09387422	1,09431505	-6,1951431582371584	1	-2,38789034	0,00677943835
2	1	0	0	0	3849,77	1,10687602	1,10732317	-6,1157444094618112	1	-2,395895	0,00677210558
2	1	0	1	0	3851,07	1,11987782	1,12049115	-6,039830581595488	1	-2,40379596	0,00676757656
2	1	0	1	0	3852,37	1,13287961	1,13344908	-5,9641889246801728	1	-2,41160035	0,00676010456
2	1	0	0	0	3853,67	1,1458813	1,14645696	-5,8901434565584051	1	-2,41931176	0,00675279601
2	1	0	1	0	3854,97	1,15888309	1,15938485	-5,819004022826743	1	-2,42692566	0,00674646487
2	1	0	0	0	3856,27	1,17188489	1,17261302	-5,7483012018104634	1	-2,43444562	0,00674053282
2	1	0	1	0	3857,57	1,18488669	1,18547082	-5,6756576610108166	1	-2,44187212	0,00672832644
2	1	0	0	0	3858,87	1,19788849	1,19851863	-5,5894079804420685	1	-2,44919372	0,0066990098
2	1	0	1	0	3860,17	1,21089041	1,21164691	-5,5082432441413542	1	-2,45641065	0,00667404616
2	1	0	0	0	3861,47	1,22389209	1,22441435	-5,4379316394527706	1	-2,4635241	0,00665828167
2	1	0	1	0	3862,77	1,23689377	1,23772275	-5,3527950470646458	1	-2,47053838	0,00662527606
2	1	0	1	0	3864,07	1,24989569	1,25053036	-5,2728265710175251	1	-2,47744584	0,00659382995
2	1	0	0	0	3865,37	1,26289725	1,26374853	-5,1932390617827622	1	-2,48424816	0,00656294823
2	1	0	1	0	3866,67	1,27589905	1,276456	-5,1097258614997402	1	-2,49094319	0,00652234023
2	1	0	0	0	3867,97	1,28890097	1,28958416	-5,0199446280797382	1	-2,49752927	0,00647364091
2	1	0	1	0	3869,31	1,30230272	1,30273223	-4,9389968775212838	1	-2,50420189	0,00643419055
2	1	0	0	0	3870,61	1,31530464	1,31595039	-4,8541852844258246	1	-2,51056719	0,00638786703
2	1	0	1	0	3871,91	1,32830644	1,32862794	-4,7713374234735968	1	-2,51682425	0,00633933209
2	1	0	0	0	3873,21	1,341308	1,34179604	-4,6788949904342656	1	-2,52296448	0,00627812278
2	1	0	1	0	3874,51	1,35430992	1,3547138	-4,5890749307970394	1	-2,52898622	0,00621688319
2	1	0	1	0	3875,81	1,36731243	1,36778224	-4,5007482208165824	1	-2,53489423	0,00615604362
2	1	0	0	0	3877,11	1,3803134	1,38067961	-4,4084276730815654	1	-2,54068542	0,00608662609
2	1	0	1	0	3878,41	1,3933152	1,39386773	-4,3219560347497606	1	-2,54635811	0,00602423493
2	1	0	0	0	3879,71	1,406317	1,40674555	-4,2311595318218022	1	-2,55191803	0,005952165
2	1	0	1	0	3881,01	1,41931891	1,41990364	-4,1427660609284941	1	-2,55736017	0,00588232838
2	1	0	0	0	3882,31	1,43232048	1,43283141	-4,0605583290259091	1	-2,56269002	0,00581809552
2	1	0	1	0	3883,61	1,44532228	1,44573927	-3,9712531541784627	1	-2,56791186	0,00574139645
2	1	0	0	0	3884,91	1,45832419	1,45884728	-3,8854471743106982	1	-2,57301998	0,00566827413
2	1	0	1	0	3886,21	1,47132587	1,47191536	-3,7941437624395034	1	-2,57801247	0,00558465859
2	1	0	0	0	3887,51	1,48432779	1,48466289	-3,7032894665996243	1	-2,58288479	0,00549813639
2	1	0	0	0	3888,81	1,49732947	1,49782097	-3,6154462757209843	1	-2,58764029	0,00541529106
2	1	0	1	0	3890,11	1,51033139	1,51093912	-3,5310931975642886	1	-2,59228301	0,0053352667
2	1	0	0	0	3891,41	1,52333307	1,52370667	-3,4472452526291309	1	-2,5968194	0,0052525904
2	1	0	1	0	3892,71	1,53633475	1,53687477	-3,360201664268985	1	-2,60124516	0,00516420929
2	1	0	0	0	3894,01	1,54933667	1,5496726	-3,2539187421401363	1	-2,60554886	0,00504250871
2	1	0	1	0	3895,31	1,56233835	1,56288052	-3,1614758893847482	1	-2,60971999	0,00494100899
2	1	0	0	0	3896,61	1,57534003	1,57586837	-3,0726664115985299	1	-2,61377144	0,00484211789
2	1	0	1	0	3897,91	1,58834195	1,58880651	-2,9857916583617606	1	-2,61770892	0,0047438452
2	1	0	0	0	3899,21	1,60134375	1,60193443	-2,8983025470127686	1	-2,62153411	0,00464289077
2	1	0	0	0	3900,51	1,61434555	1,61477208	-2,814871072769176	1	-2,62524724	0,00454537524
2	1	0	1	0	3901,81	1,62734723	1,62793016	-2,7278033954401763	1	-2,62884879	0,00444067363
2	1	0	0	0	3903,11	1,64034903	1,64092815	-2,640749871730808	1	-2,63234043	0,00433328096
2	1	0	1	0	3904,41	1,65335083	1,65391576	-2,5565617394944019	1	-2,63571715	0,00422833767
2	1	0	0	0	3905,71	1,66635263	1,66693377	-2,4704277745137622	1	-2,63898396	0,00411803927
2	1	0	1	0	3907,01	1,67935443	1,6798116	-2,3859250893195565	1	-2,64214063	0,00400790479
2	1	0	0	0	3908,31	1,69235611	1,69276941	-2,3021909867723843	1	-2,64518785	0,00389707857
2	1	0	1	0	3909,61	1,70535791	1,70570731	-2,2230680380016531	1	-2,64812756	0,00379190338
2	1	0	0	0	3910,91	1,71835971	1,71884537	-2,1402920950204205	1	-2,65096378	0,00367883104
2	1	0	0	0	3912,21	1,73136127	1,73167264	-2,0603072321780758	1	-2,65369368	0,00356777757
2	1	0	1	0	3913,51	1,74436319	1,74485123	-1,9748032515247651	1	-2,65631485	0,003445738
2	1	0	0	0	3914,81	1,75736499	1,7579993	-1,8954426087439072	1	-2,65883064	0,00333218672
2	1	0	1	0	3916,11	1,77036691	1,77075684	-1,8141166598846538	1	-2,66124129	0,0032123595
2	1	0	0	0	3917,41	1,78336871	1,78404522	-1,7348811371872816	1	-2,66354752	0,00309510645
2	1	0	1	0	3918,72	1,79637051	1,79680264	-1,6567311479399613	1	-2,66575122	0,00297681894
2	1	0	0	0	3920,02	1,80937231	1,80994081	-1,576947749902807	1	-2,66785192	0,00285418215
2	1	0	1	0	3921,32	1,82237399	1,82299888	-1,4951731814071571	1	-2,66984868	0,00272569899
2	1	0	0	0	3922,62	1,83537579	1,83602679	-1,4141466176758186	1	-2,6717391	0,00259641116
2	1	0	1	0	3923,92	1,84837794	1,84909463	-1,3371894814095242	1	-2,67352605	0,00247258996
2	1	0	1	0	3925,22	1,86137938	1,86181235	-1,2561697966108755	1	-2,67521071	0,00233875238
2	1	0	0	0	3926,52	1,87438107	1,8750906	-1,1770927617326379	1	-2,67679143	0,00220715557
2	1	0	1	0	3927,82	1,88738286	1,88793838	-1,097456099465489	1	-2,67826962	0,0020719294
2	1	0	0	0	3929,12	1,90038466	1,90080607	-1,018961887496216	1	-2,67964411	0,00193684897
2	1	0	1	0	3930,42	1,91338634	1,91391408	-0,93973486218601459	1	-2,68091726	0,00179857179
2	1	0	0	0	3931,72	1,92638814	1,92705238	-0,86104405919710822	1	-2,68208694	0,00165927701
2	1	0	1	0	3933,02	1,93938994	1,94005013	-0,78227535542101018	1	-2,68315411	0,00151765335
2	1	0	0	0	3934,32	1,95239186	1,95287776	-0,70477886296187725	1	-2,68412018	0,00137634692
2	1	0	1	0	3935,62	1,96539366	1,9658457	-0,62741725167880435	1	-2,68498588	0,00123340555
2	1	0	1	0	3936,92	1,97839546	1,97882354	-0,54984623643880237	1	-2,68575048	0,00108804868
2	1	0	0	0	3938,26	1,99179721	1,9924525	-0,47010832807670176	1	-2,68643284	0,000936668541
2	1	0	1	0	3939,56	2,00479889	2,00527	-0,39247636450454592	1	-2,68699288	0,000787021068
2	1	0	0	0	3940,86	2,01780081	2,01824784	-0,31585487544847136	1	-2,68745279	0,000637473422
2	1	0	1	0	3942,16	2,03080249	2,03150606	-0,23979548597708346	1	-2,68781328	0,000487145997
2	1	0	0	0	3943,46	2,04380417	2,04417348	-0,16419622073105254	1	-2,6880753	0,000335645571
2	1	0	1	0	3944,76	2,05680609	2,05739164	-0,088670394519189005	1	-2,6882391	0,000182429721
2	1	0	0	0	3946,10	2,07020807	2,07075024	-0,011194370398394965	1	-2,68830538	2,31807444E-005
2	1	0	1	0	3947,40	2,08320951	2,0836978	0,06344914676931968	1	-2,68827081	0,00013220885
2	1	0	0	0	3948,74	2,0966115	2,09711623	0,13931495409148376	1	-2,68813396	0,000292159646
2	1	0	0	0	3950,04	2,10961246	2,11009383	0,2134113350907425	1	-2,68790388	0,000450317952
2	1	0	1	0	3951,34	2,12261486	2,12313247	0,28707235384111661	1	-2,68757796	0,00060949265
2	1	0	0	0	3952,64	2,13561702	2,13594007	0,360358737331504	1	-2,68715644	0,000769704697
2	1	0	1	0	3953,94	2,1486187	2,14920807	0,43351440752546112	1	-2,68663979	0,000931712682
2	1	0	0	0	3955,24	2,16162038	2,16218591	0,50542742945253581	1	-2,6860292	0,00109282811
2	1	0	1	0	3956,54	2,1746223	2,175174	0,57942648945997274	1	-2,68532348	0,00126035349
2	1	0	0	0	3957,84	2,18762398	2,18820214	0,65316148055717709	1	-2,68452144	0,0014292493
2	1	0	1	0	3959,14	2,20062566	2,20117974	0,72597414534538867	1	-2,68362427	0,0015979996
2	1	0	0	0	3960,44	2,21362758	2,21416759	0,7990424971406647	1	-2,68263221	0,00176921405
2	1	0	0	0	3961,74	2,22663021	2,22712612	0,87280883550742234	1	-2,68154526	0,00194385531
2	1	0	1	0	3963,04	2,23963094	2,24016333	0,94464410344759744	1	-2,68036366	0,00211615697
2	1	0	0	0	3964,37	2,25293303	2,25346208	1,020732518906392	1	-2,67905545	0,00230018212
2	1	0	1	0	3965,67	2,26593471	2,26655984	1,0934326210990549	1	-2,67768025	0,0024783304
2	1	0	0	0	3966,97	2,27893639	2,27957773	1,1661661096538083	1	-2,67621064	0,00265836623
2	1	0	1	0	3968,27	2,2919383	2,29237533	1,2376348950589662	1	-2,67464733	0,00283712358
2	1	0	0	0	3969,57	2,30493999	2,30538321	1,307694774431484	1	-2,67299199	0,00301473751
2	1	0	1	0	3970,87	2,3179419	2,31829095	1,3790352158248424	1	-2,67124414	0,00319700479
2	1	0	0	0	3972,17	2,33094358	2,33140922	1,4491122864807594	1	-2,66940475	0,00337847369
2	1	0	0	0	3973,47	2,34394479	2,34439707	1,5182451063983734	1	-2,6674757	0,00355936936
2	1	0	1	0	3974,77	2,35694718	2,35735488	1,587582830960553	1	-2,66545558	0,00374249602
2	1	0	0	0	3976,07	2,36994886	2,37038279	1,6579647666464298	1	-2,66334558	0,0039300113
2	1	0	1	0	3977,37	2,38295078	2,38343072	1,7280488715817555	1	-2,66114378	0,00411868468
2	1	0	0	0	3978,67	2,39595246	2,3963387	1,7941677427540243	1	-2,65885234	0,00429943344
2	1	0	1	0	3979,97	2,40895414	2,4092865	1,8636374082416298	1	-2,65647364	0,00449003652
2	1	0	0	0	3981,27	2,4219563	2,42262483	1,9340145650009283	1	-2,65400267	0,00468539167
2	1	0	1	0	3982,57	2,43495798	2,43532228	2,0062429563452787	1	-2,65143943	0,00488584815
2	1	0	0	0	3983,87	2,44795966	2,4483304	2,0774617418646723	1	-2,64878201	0,00508631254
2	1	0	1	0	3985,17	2,46096158	2,46129799	2,1532942422975978	1	-2,64603043	0,0052998988
2	1	0	1	0	3986,47	2,47396398	2,47444701	2,2265138026315725	1	-2,64318371	0,0055093905
2	1	0	0	0	3987,77	2,48696494	2,4875443	2,3002256924907309	1	-2,64024091	0,00572191318
2	1	0	1	0	3989,07	2,49996686	2,50033212	2,3731985023866051	1	-2,63720345	0,00593378441
2	1	0	0	0	3990,37	2,51296878	2,51348996	2,4477120103935376	1	-2,63406873	0,0061522997
2	1	0	1	0	3991,68	2,5259707	2,52648783	2,5203413963317923	1	-2,63083839	0,0063676117
2	1	0	0	0	3992,98	2,53897214	2,53959584	2,5937538420160563	1	-2,62751293	0,00658708625
2	1	0	1	0	3994,28	2,55197406	2,55252385	2,6656609059621878	1	-2,62409306	0,0068041631
2	1	0	0	0	3995,58	2,56497598	2,56568193	2,7412137407809354	1	-2,62057757	0,00703308266
2	1	0	1	0	3996,88	2,57797742	2,57850957	2,8121293218185456	1	-2,61696315	0,00725110248
2	1	0	0	0	3998,18	2,59098029	2,59144902	2,8839860205844691	1	-2,61326003	0,00747370254
2	1	0	0	0	3999,48	2,60398102	2,60440516	2,9555903027455021	1	-2,60946202	0,00769755477
2	1	0	1	0	4000,78	2,6169827	2,61739302	3,0362281861404627	1	-2,60556626	0,00794700254
2	1	0	0	0	4002,08	2,62998462	2,63061166	3,1085405635337011	1	-2,60157013	0,00817736331
2	1	0	1	0	4003,38	2,64298654	2,64337897	3,1822649352252486	1	-2,59747839	0,00841193181
2	1	0	0	0	4004,68	2,65598798	2,65646696	3,2627597476045408	1	-2,59328747	0,00866741315
2	1	0	1	0	4005,98	2,6689899	2,66964507	3,3402222283184602	1	-2,58899736	0,00891720783
2	1	0	0	0	4007,28	2,68199182	2,68257284	3,4068744902809344	1	-2,58461261	0,00913918857
2	1	0	1	0	4008,58	2,6949935	2,69561076	3,4898559960226227	1	-2,58012486	0,00940729305
2	1	0	0	0	4009,88	2,70799541	2,70864892	3,5704377137124512	1	-2,57553267	0,00967106223
2	1	0	0	0	4011,18	2,7209971	2,72145677	3,6525045099357741	1	-2,57083654	0,00994013343
2	1	0	1	0	4012,48	2,73399901	2,73445439	3,7268931244810374	1	-2,56604195	0,0101910196
2	1	0	0	0	4013,78	2,74700069	2,7474823	3,8014539244274349	1	-2,56114697	0,0104444269
2	1	0	1	0	4015,08	2,76000237	2,76047015	3,8740173230568474	1	-2,55615854	0,0106941089
2	1	0	0	0	4016,38	2,77300429	2,77363849	3,9521807779868397	1	-2,55107069	0,010961921
2	1	0	1	0	4017,68	2,78600597	2,78653622	4,0252360180020122	1	-2,54588628	0,0112164663
2	1	0	0	0	4018,98	2,79900765	2,79961419	4,1022766257325715	1	-2,5406003	0,0114847915
2	1	0	1	0	4020,28	2,81200981	2,812572	4,1838043667376038	1	-2,53521323	0,0117672514
2	1	0	0	0	4021,58	2,82501221	2,82555914	4,2598090379227712	1	-2,52972484	0,0120363422
2	1	0	0	0	4022,88	2,83801317	2,83847761	4,3343252800404774	1	-2,52414083	0,0123028848
2	1	0	1	0	4024,18	2,85101509	2,85159588	4,4172252193093299	1	-2,51844954	0,0125961415
2	1	0	0	0	4025,48	2,86401677	2,86461377	4,4980989247560499	1	-2,51265025	0,0128853163
2	1	0	1	0	4026,78	2,87701845	2,87757158	4,5722452575961798	1	-2,50675297	0,0131569626
2	1	0	0	0	4028,08	2,89002037	2,89073992	4,6496812303861075	1	-2,50076079	0,0134410188
2	1	0	1	0	4029,38	2,90302205	2,90357733	4,7358964346349242	1	-2,49465942	0,0137510411
2	1	0	0	0	4030,68	2,91602373	2,91658521	4,8128201067447661	1	-2,48845148	0,014037
2	1	0	1	0	4031,98	2,92902565	2,9295435	4,8925299880405254	1	-2,48214006	0,0143328793
2	1	0	0	0	4033,28	2,94202733	2,94248104	4,98216156909864	1	-2,47572327	0,0146599161
2	1	0	0	0	4034,58	2,95502996	2,95560956	5,0673251018714157	1	-2,4691968	0,0149770342
2	1	0	1	0	4035,88	2,96803093	2,96840668	5,1518815209468301	1	-2,46255994	0,0152928792
2	1	0	0	0	4037,18	2,98103261	2,98154473	5,2348216846585414	1	-2,45580673	0,0156078553
2	1	0	1	0	4038,48	2,99403453	2,99449277	5,3189053957661229	1	-2,44894338	0,0159274247
2	1	0	0	0	4039,78	3,00703645	3,00741053	5,4100354462862016	1	-2,44197345	0,0162701979
2	1	0	1	0	4041,08	3,02003813	3,02057862	5,492454684028999	1	-2,43488264	0,0165903904
2	1	0	0	0	4042,38	3,03304005	3,03347635	5,5871180258691309	1	-2,42767406	0,0169483908
2	1	0	1	0	4043,68	3,04604173	3,04662442	5,6859493131438842	1	-2,42034721	0,0173229519
2	1	0	0	0	4044,98	3,05904341	3,05959225	5,7675913733740454	1	-2,4129045	0,0176464785
2	1	0	1	0	4046,28	3,07204628	3,07250166	5,8433342940099776	1	-2,40534735	0,0179536548
2	1	0	1	0	4047,58	3,08504701	3,08553815	5,9301919887463194	1	-2,3976872	0,0182978343
2	1	0	0	0	4048,88	3,09804869	3,09847593	6,020369562009961	1	-2,38991952	0,0186539702
2	1	0	1	0	4050,18	3,11105061	3,11152411	6,1131905677418176	1	-2,38202763	0,0190213397
2	1	0	0	0	4051,48	3,12405252	3,12449169	6,2043475372095859	1	-2,37401748	0,0193854328
2	1	0	1	0	4052,78	3,1370542	3,13770938	6,3066670795281677	1	-2,36588573	0,0197884887
2	1	0	0	0	4054,08	3,15005589	3,15056777	6,4013804694016794	1	-2,35762143	0,0201679822
2	1	0	1	0	4055,38	3,16305757	3,16375566	6,4951894034941798	1	-2,34923148	0,020549193
2	1	0	0	0	4056,68	3,17605948	3,17662358	6,5970386018355494	1	-2,34071898	0,0209563076
2	1	0	1	0	4057,98	3,18906116	3,18969131	6,6928174677491366	1	-2,33207846	0,0213480219
2	1	0	1	0	4059,28	3,20206308	3,20265913	6,7874533856908672	1	-2,32331514	0,0217378996
2	1	0	0	0	4060,58	3,21506476	3,21572709	6,8867977932095526	1	-2,31443095	0,0221460629
2	1	0	1	0	4061,88	3,22806644	3,22826457	6,9855723505218816	1	-2,30540919	0,0225512758
2	1	0	0	0	4063,18	3,24106812	3,24145293	7,09913860509792	1	-2,29624414	0,0230115242
2	1	0	1	0	4064,49	3,25407004	3,25466084	7,2124720538655821	1	-2,28694248	0,0234741513
2	1	0	0	0	4065,79	3,26707172	3,26765871	7,2940601408481664	1	-2,27752352	0,0238344986
2	1	0	1	0	4067,09	3,2800734	3,28069687	7,3966051240761882	1	-2,26797128	0,0242660195
2	1	0	0	0	4068,39	3,29307532	3,29371452	7,4999806632598054	1	-2,25828147	0,0247027948
2	1	0	1	0	4069,69	3,306077	3,30667257	7,5696754331390067	1	-2,24849415	0,0250304379
2	1	0	1	0	4070,99	3,31907821	3,31961012	7,644264651744247	1	-2,23861337	0,025375979
2	1	0	0	0	4072,29	3,3320806	3,33242822	7,7578115488091968	1	-2,22860503	0,0258523505
2	1	0	1	0	4073,59	3,34508228	3,34563613	7,8426602408289907	1	-2,21846652	0,0262386873
2	1	0	0	0	4074,89	3,3580842	3,358634	7,9544470931092941	1	-2,20820856	0,0267160758
2	1	0	1	0	4076,19	3,37108588	3,37157202	8,0504245584209894	1	-2,1978066	0,0271425862
2	1	0	0	0	4077,49	3,3840878	3,38471007	8,1536849662661274	1	-2,18727922	0,0275978595
2	1	0	1	0	4078,79	3,39708948	3,39752793	8,2553285410006938	1	-2,17660904	0,0280477088
2	1	0	0	0	4080,09	3,4100914	3,41050577	8,3732097273071706	1	-2,16580319	0,0285568796
2	1	0	1	0	4081,39	3,42309308	3,42378378	8,4873837307096102	1	-2,15483522	0,0290589668
2	1	0	1	0	4082,69	3,43609452	3,43666172	8,6013128406044506	1	-2,14371872	0,0295598023
2	1	0	0	0	4083,99	3,44909668	3,44966936	8,7060852199792614	1	-2,13247132	0,0300331153
2	1	0	1	0	4085,29	3,46209836	3,46275735	8,8368835548559885	1	-2,12108183	0,0305999834
2	1	0	0	0	4086,59	3,47510052	3,47546506	8,9506005520621914	1	-2,10952783	0,0311075002
2	1	0	1	0	4087,89	3,48810196	3,48877335	9,0155915915966093	1	-2,097821	0,0314533561
2	1	0	0	0	4089,19	3,50110412	3,50174117	9,1529547522465856	1	-2,08600473	0,0320512801
2	1	0	1	0	4090,49	3,5141058	3,5146389	9,3837133795022963	1	-2,07396102	0,0329803638
2	1	0	0	0	4091,79	3,52710724	3,52750707	9,5187073300282138	1	-2,06167579	0,0335773081
2	1	0	1	0	4093,09	3,5401094	3,54048491	9,6981331780552576	1	-2,04917979	0,0343360938
2	1	0	0	0	4094,39	3,55311108	3,55373263	9,8357877085606592	1	-2,03646183	0,0349537581
2	1	0	0	0	4095,69	3,56611347	3,5667417	9,9762974144451558	1	-2,02356386	0,0355828777
2	1	0	1	0	4097,03	3,57951474	3,57993937	10,012561139961066	1	-2,01013684	0,0358443633
2	1	0	0	0	4098,33	3,59251666	3,59315777	10,146558058758557	1	-1,99703395	0,0364581831
2	1	0	1	0	4099,63	3,60551834	3,60604525	10,542889359096662	1	-1,98342335	0,0380181372
2	1	0	0	0	4100,93	3,61852002	3,61888289	10,67427667727071	1	-1,96962166	0,0386289582
2	1	0	1	0	4102,23	3,63152194	3,63197088	10,762278586626045	1	-1,95569205	0,0390882827
2	1	0	0	0	4103,53	3,64452362	3,64512897	10,724465621014446	1	-1,94171727	0,0390920602
2	1	0	1	0	4104,83	3,65752578	3,65808702	10,823583687345155	1	-1,92769027	0,0395936109
2	1	0	0	0	4106,13	3,67052722	3,67098522	11,022734314203262	1	-1,91349137	0,0404642932
2	1	0	0	0	4107,43	3,68352866	3,68404222	11,126824218764682	1	-1,89908993	0,04099169
2	1	0	1	0	4108,73	3,69653106	3,69712067	11,25151822964349	1	-1,88451874	0,0415982194
2	1	0	0	0	4110,03	3,70953298	3,7099185	11,461704594393581	1	-1,86978912	0,0425219908
2	1	0	1	0	4111,33	3,72253466	3,72285604	11,531800962984533	1	-1,85487831	0,0429312363
2	1	0	0	0	4112,63	3,73553634	3,73600411	11,500865864256987	1	-1,83999598	0,0429672822
2	1	0	1	0	4113,93	3,74853826	3,74895215	11,788989131649296	1	-1,82481015	0,0441963561
2	1	0	0	0	4115,23	3,76153994	3,76196003	11,917527052263395	1	-1,80936682	0,0448332615
2	1	0	1	0	4116,53	3,77454185	3,7749579	12,037028263012616	1	-1,79381835	0,0454392731
2	1	0	0	0	4117,83	3,78754354	3,7879858	12,187320987383485	1	-1,77802062	0,0461653993
2	1	0	0	0	4119,13	3,80054402	3,80110288	12,292937113098475	1	-1,76211989	0,0467267185
2	1	0	1	0	4120,43	3,81354713	3,81426215	12,400014986594499	1	-1,74608111	0,0472969078
2	1	0	0	0	4121,73	3,82654881	3,82729006	12,579879194498032	1	-1,72973478	0,0481468476
2	1	0	1	0	4123,03	3,83955073	3,83992743	12,734366153677286	1	-1,71327877	0,0488990434
2	1	0	0	0	4124,33	3,85255241	3,85295558	12,886492063601792	1	-1,69661701	0,0496510826
2	1	0	1	0	4125,63	3,86555409	3,86611366	13,052368824680627	1	-1,67976677	0,0504619405
2	1	0	0	0	4126,93	3,87855601	3,87908125	13,229227523008944	1	-1,66264451	0,0513172485
2	1	0	1	0	4128,23	3,89155769	3,89205956	13,326780642072294	1	-1,64535511	0,051868625
2	1	0	0	0	4129,53	3,90455937	3,90501714	13,337030291557333	1	-1,62806511	0,0520813316
2	1	0	1	0	4130,83	3,91756129	3,91807508	13,57766857246557	1	-1,61056161	0,0531983264
2	1	0	1	0	4132,13	3,93056297	3,93108296	13,420835008223834	1	-1,59307814	0,0527584143
2	1	0	0	0	4133,43	3,94356465	3,94405079	13,694326226909981	1	-1,57538772	0,0540111177
2	1	0	1	0	4134,73	3,95656657	3,95696855	13,828211163481058	1	-1,55749667	0,0547177978
2	1	0	0	0	4136,03	3,96956825	3,9699769	14,050698315103826	1	-1,53940845	0,0557809472
2	1	0	1	0	4137,34	3,98257017	3,98306489	14,19133704900736	1	-1,52104342	0,0565250181
2	1	0	0	0	4138,64	3,99557185	3,99598241	14,161383156975091	1	-1,50260878	0,0565886386
2	1	0	1	0	4139,94	4,00857401	4,00894022	14,244852478305462	1	-1,48413754	0,0571067631
2	1	0	0	0	4141,24	4,02157545	4,02201796	14,252648040652275	1	-1,46560109	0,0573244058
2	1	0	1	0	4142,54	4,03457737	4,03518677	14,317973742882373	1	-1,44707847	0,0577756986
2	1	0	1	0	4143,84	4,04757881	4,04803419	14,401546893812906	1	-1,42841303	0,0582979545
2	1	0	0	0	4145,14	4,06058025	4,06108141	14,419365917470128	1	-1,40968025	0,0585582182
2	1	0	1	0	4146,44	4,07358265	4,07414055	14,57370472947751	1	-1,39079714	0,0593753196
2	1	0	0	0	4147,74	4,08658457	4,08732843	14,666553462545053	1	-1,37176538	0,0599470213
2	1	0	1	0	4149,04	4,09958649	4,09996557	14,807203511397005	1	-1,35258114	0,0607090257
2	1	0	0	0	4150,34	4,11258793	4,11317348	15,366717795530947	1	-1,33283746	0,0632059798
2	1	0	1	0	4151,64	4,12558985	4,12621164	15,321603283286096	1	-1,31287372	0,0632201806
2	1	0	0	0	4152,94	4,13859177	4,13915014	15,278609851996038	1	-1,29298103	0,0632404611
2	1	0	1	0	4154,24	4,15159321	4,15210724	15,449429164330157	1	-1,27302253	0,0641476884
2	1	0	0	0	4155,54	4,1645956	4,1651063	15,646757795463885	1	-1,25290668	0,0651704073
2	1	0	0	0	4156,84	4,17759562	4,17834044	15,561750801199965	1	-1,23266721	0,0650222898
2	1	0	1	0	4158,14	4,19059896	4,19126129	15,473342289527296	1	-1,21246457	0,0648528188
2	0	0	0	1	4159,36	4,19719934	4,19769001	15,312238509456307	1	-1,19367421	0,0642760321
2	0	0	1	1	4160,66	4,1841979	4,18476248	14,940607691804589	1	-1,17400885	0,0625228956
2	0	0	0	1	4161,96	4,17119598	4,17165422	14,771431316932051	1	-1,1547507	0,0616213046
2	0	0	1	1	4163,26	4,15819407	4,15853691	14,420337632298461	1	-1,13577735	0,0599675067
2	0	0	0	1	4164,56	4,14519262	4,14577866	14,087234954039275	1	-1,11725414	0,0584025569
2	0	0	1	1	4165,86	4,1321907	4,13262081	13,951683605710685	1	-1,09906399	0,0576570183
2	0	0	0	1	4167,16	4,11918879	4,11971283	13,757601474920875	1	-1,0810504	0,0566773675
2	0	0	1	1	4168,46	4,10618591	4,1069541	13,486949954583837	1	-1,06334341	0,0553902835
2	0	0	1	1	4169,76	4,09318542	4,09356689	13,282914727926254	1	-1,04594278	0,0543745011
2	0	0	0	1	4171,06	4,08018351	4,08076906	12,977349465092019	1	-1,02886748	0,0529575646
2	0	0	1	1	4172,36	4,06718206	4,06748056	12,664739971359552	1	-1,01219499	0,0515135825
2	0	0	0	1	4173,66	4,05418015	4,05447292	12,286984473466867	1	-0,995997667	0,0498172455
2	0	0	1	1	4174,96	4,04117823	4,04186583	12,008169534305723	1	-0,980217874	0,0485354103
2	0	0	0	1	4176,26	4,02817678	4,02857733	11,765759535133824	1	-0,964797378	0,0473992713
2	0	0	1	1	4177,56	4,01517487	4,01560926	11,489933066070072	1	-0,94967252	0,0461390801
2	0	0	1	1	4178,86	4,00217342	4,00266123	11,29637846737225	1	-0,934872925	0,0452155769
2	0	0	1	1	4180,16	3,98917031	3,98968339	11,04481064718837	1	-0,920335889	0,0440652966
2	0	0	1	1	4181,46	3,97616911	3,97676587	10,694167082508379	1	-0,906234324	0,0425281972
2	0	0	0	1	4182,76	3,96316743	3,96357799	10,445932169755294	1	-0,892506659	0,0414032675
2	0	0	1	1	4184,06	3,95016575	3,95060992	10,218177936971173	1	-0,879048705	0,0403680354
2	0	0	0	1	4185,36	3,93716383	3,93760204	10,089392376442731	1	-0,865873098	0,0397280119
2	0	0	1	1	4186,66	3,92416215	3,92464399	9,8022252370913638	1	-0,852946281	0,0384702459
2	0	0	0	1	4187,96	3,91116023	3,91172647	9,5624163796504154	1	-0,840353549	0,0374055579
2	0	0	1	1	4189,26	3,89815855	3,89846802	9,363272046049417	1	-0,828049242	0,0365024172
2	0	0	0	1	4190,56	3,88515687	3,88554072	9,1535922065377382	1	-0,815998435	0,0355666541
2	0	0	1	1	4191,86	3,87215495	3,87274265	9,0039489592114995	1	-0,804192364	0,0348699763
2	0	0	1	1	4193,16	3,85915375	3,85970569	8,8289403934193805	1	-0,792609274	0,0340771116
2	0	0	0	1	4194,46	3,84615159	3,84649658	8,6582834348082406	1	-0,781247377	0,033304058
2	0	0	1	1	4195,76	3,83314967	3,83359885	8,6151573931177549	1	-0,770066619	0,0330270566
2	0	0	0	1	4197,06	3,82014799	3,82051086	8,4391040578484518	1	-0,758983672	0,0322416872
2	0	0	1	1	4198,36	3,80714631	3,80770302	8,2505038380622861	1	-0,748137236	0,0314154699
2	0	0	0	1	4199,66	3,79414439	3,79464507	8,0870085805654387	1	-0,737516522	0,0306873266
2	0	0	1	1	4200,96	3,78114271	3,78155732	7,9487552791833882	1	-0,727103591	0,0300586745
2	0	0	0	1	4202,26	3,76814079	3,76851916	7,7670297274986701	1	-0,71688503	0,0292702001
2	0	0	1	1	4203,56	3,75513911	3,75557113	7,586860845486313	1	-0,706884027	0,0284929946
2	0	0	1	1	4204,86	3,74213815	3,74276447	7,362143625461527	1	-0,697214246	0,0275547691
2	0	0	0	1	4206,16	3,72913551	3,72942519	7,1687185466289664	1	-0,687769771	0,0267351996
2	0	0	1	1	4207,47	3,71613383	3,71653771	7,0305630415678029	1	-0,678538978	0,0261293519
2	0	0	0	1	4208,77	3,70313168	3,70357966	6,8799920777479923	1	-0,669501245	0,0254805982
2	0	0	1	1	4210,07	3,69013023	3,69056153	6,7196240151921933	1	-0,660673082	0,0247991867
2	0	0	0	1	4211,37	3,67712808	3,67763376	6,60911067823568	1	-0,652007103	0,0243058894
2	0	0	1	1	4212,67	3,6641264	3,66455555	6,4642937059203827	1	-0,643508017	0,0236887634
2	0	0	0	1	4213,97	3,65112495	3,65162826	6,3511207972963456	1	-0,635181129	0,0231919326
2	0	0	1	1	4215,27	3,6381228	3,63851023	6,2279396466910835	1	-0,627003849	0,0226604212
2	0	0	0	1	4216,57	3,62512112	3,62590289	6,1046890070040832	1	-0,618987501	0,02213501
2	0	0	0	1	4217,87	3,6121192	3,61284447	5,9851218362649229	1	-0,611135602	0,0216233134
2	0	0	1	1	4219,17	3,59911752	3,59938622	5,8579426432649126	1	-0,603436291	0,0210849978
2	0	0	0	1	4220,47	3,5861156	3,58661842	5,7528329653044493	1	-0,595887601	0,0206332169
2	0	0	1	1	4221,77	3,57311392	3,57357073	5,6346575307349267	1	-0,58848846	0,0201358479
2	0	0	0	1	4223,07	3,56011224	3,5604825	5,5214644086857587	1	-0,581238627	0,0196590777
2	0	0	1	1	4224,37	3,54711032	3,54758501	5,4046671949326848	1	-0,574130058	0,019173516
2	0	0	0	1	4225,67	3,53410864	3,53465676	5,3042189230521472	1	-0,567162812	0,0187485926
2	0	0	1	1	4226,97	3,52110696	3,52163911	5,2007785451908928	1	-0,560335338	0,018315265
2	0	0	0	1	4228,27	3,50810456	3,50855017	5,1004307795335251	1	-0,553635657	0,0178951174
2	0	0	0	1	4229,57	3,49510336	3,4956336	5,0010876295467098	1	-0,547068775	0,0174819697
2	0	0	1	1	4230,90	3,48180151	3,48221469	4,891403074065849	1	-0,540495455	0,0170329157
2	0	0	0	1	4232,20	3,46879983	3,46922684	4,8019748950998035	1	-0,534195304	0,0166591406
2	0	0	1	1	4233,50	3,45579815	3,45630884	4,7049700332184582	1	-0,528014719	0,0162618291
2	0	0	0	1	4234,80	3,44279623	3,44312072	4,6129408528407437	1	-0,521957159	0,015882913
2	0	0	1	1	4236,10	3,42979455	3,43014288	4,5318783521652077	1	-0,516014934	0,0155449901
2	0	0	0	1	4237,40	3,41679263	3,41722512	4,4459140971302989	1	-0,510184228	0,0151926894
2	0	0	1	1	4238,70	3,40379095	3,40417719	4,3570694600542304	1	-0,504460633	0,0148322368
2	0	0	0	1	4240,00	3,39078903	3,39113903	4,2703571766614912	1	-0,498849541	0,014481375
2	0	0	1	1	4241,30	3,37778616	3,37813997	4,182932746385504	1	-0,493353128	0,0141305327
2	0	0	1	1	4242,60	3,36478567	3,36522365	4,1015778084595846	1	-0,48797065	0,0138027268
2	0	0	0	1	4243,90	3,35178375	3,35231566	4,0499429355064966	1	-0,482673496	0,0135766873
2	0	0	1	1	4245,20	3,33878207	3,3390975	3,9695047376056467	1	-0,477460533	0,0132545633
2	0	0	0	1	4246,50	3,32577991	3,32641006	3,8626740761101101	1	-0,472357035	0,0128488382
2	0	0	1	1	4247,80	3,31277847	3,31329179	3,7996912387510131	1	-0,467379957	0,0125894854
2	0	0	0	1	4249,10	3,29977632	3,30012393	3,7189470355709344	1	-0,462499112	0,0122729857
2	0	0	1	1	4250,40	3,28677464	3,2872963	3,6431835467616621	1	-0,457711339	0,0119762234
2	0	0	0	1	4251,70	3,27377319	3,27429843	3,5855351537465907	1	-0,453007132	0,0117401117
2	0	0	1	1	4253,00	3,2607708	3,26130891	3,5121118284005062	1	-0,448394179	0,0114540812
2	0	0	1	1	4254,30	3,24776936	3,24843264	3,4405002022782938	1	-0,443878502	0,0111762332
2	0	0	0	1	4255,60	3,23476744	3,23514438	3,371402961512407	1	-0,439451933	0,0109069757
2	0	0	1	1	4256,90	3,22176576	3,22229671	3,3088889730473171	1	-0,435109645	0,0106622223
2	0	0	0	1	4258,20	3,20876384	3,20929885	3,2630095742642842	1	-0,430833429	0,0104719726
2	0	0	1	1	4259,50	3,19576216	3,19639087	3,1963831409811974	1	-0,426635981	0,0102168899
2	0	0	0	1	4260,80	3,18276048	3,18337297	3,1292627540727411	1	-0,422521383	0,00996161066
2	0	0	1	1	4262,10	3,16975856	3,17018461	3,0694994957496749	1	-0,418490916	0,00973088015
2	0	0	0	1	4263,40	3,15675688	3,15737724	3,0066817458719014	1	-0,414543658	0,00949322898
2	0	0	1	1	4264,70	3,1437552	3,14420891	2,9445445860425747	1	-0,410675794	0,00925826374
2	0	0	1	1	4266,00	3,13075352	3,13121176	2,8799113605398147	1	-0,406891495	0,00901761185
2	0	0	0	1	4267,30	3,11775184	3,11819339	2,8062321661661008	1	-0,403194755	0,00875037443
2	0	0	1	1	4268,60	3,10475016	3,10521531	2,7467115695277683	1	-0,399583369	0,00852913037
2	0	0	0	1	4269,90	3,09174824	3,09244776	2,6841165826966371	1	-0,396051645	0,00830049068
2	0	0	1	1	4271,20	3,07874656	3,07917953	2,615476675952472	1	-0,392612576	0,00805352256
2	0	0	0	1	4272,50	3,06574488	3,06632185	2,5818669529010877	1	-0,389226496	0,00791683514
2	0	0	1	1	4273,80	3,05274296	3,05328417	2,5114652328193117	1	-0,385905355	0,00766821718
2	0	0	0	1	4275,10	3,03974104	3,04013586	2,4509969310214038	1	-0,382676154	0,00745136384
2	0	0	1	1	4276,40	3,02673912	3,02704763	2,3889786719034128	1	-0,379532456	0,00723155215
2	0	0	1	1	4277,70	3,01373839	3,01413012	2,3403072501524579	1	-0,376458377	0,00705399038
2	0	0	0	1	4279,00	3,00073576	3,00104189	2,2922972769786938	1	-0,373446375	0,00687928032
2	0	0	1	1	4280,31	2,98773384	2,98806429	2,2929602023214067	1	-0,370443344	0,00685151247
2	0	0	0	1	4281,61	2,9747324	2,97537661	2,24181750789284	1	-0,367497832	0,00667025149
2	0	0	1	1	4282,91	2,96173048	2,9621985	2,1970203009744454	1	-0,364616692	0,00650801044
2	0	0	0	1	4284,21	2,94872856	2,94918036	2,1456899289041757	1	-0,361795843	0,00632802676
2	0	0	1	1	4285,51	2,93572688	2,9360323	2,0981902908533776	1	-0,359038204	0,00616035424
2	0	0	0	1	4286,81	2,92272496	2,92331481	2,0495095116396733	1	-0,356342465	0,00599136157
2	0	0	1	1	4288,11	2,90972328	2,91017675	2,0046761184930819	1	-0,353708446	0,005833962
2	0	0	0	1	4289,41	2,89672136	2,89730906	1,9562175205598282	1	-0,351133704	0,00566776656
2	0	0	0	1	4290,71	2,88371968	2,8843112	1,909862365573641	1	-0,348621458	0,00550863752
2	0	0	1	1	4292,01	2,870718	2,87129307	1,8806081997851517	1	-0,346164227	0,00539977709
2	0	0	0	1	4293,31	2,85771608	2,85825515	1,828581446160872	1	-0,34375602	0,00522655249
2	0	0	1	1	4294,61	2,84471416	2,84521747	1,7812375842283165	1	-0,341409564	0,00506800832
2	0	0	0	1	4295,91	2,83171272	2,83215952	1,7370127011090518	1	-0,339121491	0,00491949683
2	0	0	1	1	4297,21	2,81871057	2,8191514	1,6883718166500259	1	-0,33689481	0,00475977594
2	0	0	0	1	4298,51	2,80570889	2,80636358	1,6445100909719805	1	-0,33472839	0,00461509312
2	0	0	1	1	4299,81	2,7927072	2,79317546	1,5982758502165418	1	-0,332621545	0,00446426496
2	0	0	0	1	4301,11	2,77970529	2,78020763	1,5542791960760934	1	-0,330572784	0,00432121893
2	0	0	0	1	4302,41	2,76670361	2,76728988	1,5081654392803686	1	-0,328582585	0,00417353073
2	0	0	1	1	4303,71	2,75370193	2,75416183	1,4637853819876854	1	-0,32665053	0,00403150171
2	0	0	0	1	4305,01	2,74070001	2,74100375	1,4188688891008496	1	-0,324777812	0,00388912484
2	0	0	1	1	4306,31	2,72769833	2,72813606	1,3747005506108203	1	-0,322962105	0,00375037012
2	0	0	0	1	4307,61	2,71469665	2,71508789	1,3322458319986827	1	-0,321202397	0,00361716445
2	0	0	1	1	4308,91	2,70169473	2,70210004	1,2879178812727296	1	-0,319499522	0,00348008284
2	0	0	0	1	4310,21	2,68869305	2,68903208	1,2439200871934472	1	-0,317852974	0,00334494095
2	0	0	1	1	4311,51	2,67569137	2,67618442	1,2002101217706986	1	-0,316264242	0,00321198371
2	0	0	0	1	4312,81	2,66268945	2,66299629	1,1573509778827394	1	-0,314731807	0,00308202137
2	0	0	0	1	4314,11	2,64968801	2,65032864	1,113037309556443	1	-0,313258111	0,00294991466
2	0	0	1	1	4315,41	2,63668561	2,63714075	1,0688197581718339	1	-0,311841488	0,00281862821
2	0	0	0	1	4316,71	2,62368393	2,62419271	1,0224941826115046	1	-0,310483545	0,00268322183
2	0	0	1	1	4318,01	2,61068225	2,61126494	0,97794549322376589	1	-0,309183538	0,00255367486
2	0	0	0	1	4319,31	2,59768033	2,59815693	0,93202930781990195	1	-0,307942271	0,00242155837
2	0	0	1	1	4320,61	2,58467865	2,5852294	0,8850300026436599	1	-0,306761265	0,00228800555
2	0	0	0	1	4321,91	2,57167697	2,5720911	0,83796657963345395	1	-0,305641741	0,00215532631
2	0	0	1	1	4323,21	2,55867505	2,55905294	0,79051800568898406	1	-0,304583877	0,00202297745
2	0	0	0	1	4324,51	2,54567337	2,54634547	0,7411741457569097	1	-0,303588837	0,00188728538
2	0	0	0	1	4325,81	2,53267241	2,53313684	0,69019962250457651	1	-0,302659124	0,00174837012
2	0	0	1	1	4327,11	2,51966953	2,52011943	0,63713102415203955	1	-0,301796377	0,00160564622
2	0	0	0	1	4328,41	2,50666785	2,50711131	0,58314530272036787	1	-0,301003367	0,0014620102
2	0	0	1	1	4329,71	2,49366617	2,4943037	0,52569507124523085	1	-0,300282836	0,00131124316
2	0	0	0	1	4331,05	2,48026419	2,48081517	0,46216203831136141	1	-0,299621344	0,00114653865
2	0	0	1	1	4332,35	2,46726251	2,46760702	0,39796352898702067	1	-0,299062759	0,000982017606
2	0	0	0	1	4333,65	2,45426083	2,45448899	0,32955207667934336	1	-0,298590243	0,000808881945
2	0	0	1	1	4334,95	2,44125891	2,44180155	0,25680900722121258	1	-0,29820931	0,000627076603
2	0	0	0	1	4336,25	2,42825723	2,42884374	0,1795771742860479	1	-0,29792577	0,000436164904
2	0	0	1	1	4337,55	2,41525555	2,41560531	0,09766600471145193	1	-0,297745585	0,000235922518
2	0	0	0	1	4338,89	2,40185261	2,40223598	0,0076720421639569843	1	-0,297675103	1,84300552E-005
2	0	0	1	1	4340,06	2,39015245	2,39078164	-0,075554885798030438	1	-0,297714144	0,000180635237