File: Experimentelles/Rohdaten/Batterietests/AlteZelle/Studenten_Batterietests/Sonstige/ECLab-Export/S vs Li_02_CV_C02_loop10.mpt
EC-Lab ASCII FILE
Nb header lines : 3
mode	ox/red	error	control changes	counter inc.	time/s	control/V	Ewe/V	<I>/mA	cycle number	(Q-Qo)/C	P/W
2	0	0	1	0	11001,19	2,39555311	2,39630914	-0,014168250374495982	11	0	3,39515063E-005
2	0	0	0	0	11002,52	2,38225102	2,38279009	-0,077220087657527309	11	-6,08605915E-005	0,000183999262
2	0	0	1	0	11003,91	2,36834908	2,36872077	-0,14577958919108003	11	-0,000215898734	0,000345311128
2	0	0	0	0	11005,26	2,35484719	2,35560274	-0,21517411378833139	11	-0,000459726289	0,000506864744
2	0	0	1	0	11006,61	2,34134531	2,34192419	-0,28613853640854403	11	-0,000798394205	0,000670114765
2	0	0	0	0	11007,96	2,32784343	2,32813478	-0,36081307862574931	11	-0,00123544142	0,000840021472
2	0	0	1	0	11009,31	2,31434155	2,31462622	-0,43931190778191008	11	-0,00177601329	0,0010168429
2	0	0	0	0	11010,66	2,30083966	2,30131817	-0,52023448313896915	11	-0,0024238436	0,00119722506
2	0	0	1	0	11012,01	2,28733802	2,28780937	-0,60312748188153114	11	-0,00318266125	0,00137984066
2	0	0	0	0	11013,36	2,27383614	2,27419043	-0,6889739513086752	11	-0,0040550516	0,00156685791
2	0	0	1	0	11014,71	2,26033425	2,26093221	-0,77790017162139507	11	-0,00504587777	0,00175877952
2	0	0	1	0	11016,06	2,24683166	2,24729323	-0,8715790215022121	11	-0,00615969673	0,00195869361
2	0	0	0	0	11017,41	2,23333049	2,23385501	-0,96302870909373082	11	-0,00739854248	0,00215126644
2	0	0	1	0	11018,80	2,21942854	2,22008634	-1,0590515490621328	11	-0,00880530663	0,00235118577
2	0	0	0	0	11020,15	2,20592666	2,20626688	-1,1542874348039458	11	-0,0103000496	0,00254666619
2	0	0	1	0	11021,50	2,19242477	2,19278836	-1,2489282976215099	11	-0,0119240005	0,00273863552
2	0	0	0	0	11022,85	2,17892313	2,17945004	-1,3422304261475792	11	-0,0136741204	0,00292532425
2	0	0	1	0	11024,20	2,16542125	2,16589141	-1,4431720059365053	11	-0,0155542251	0,00312575395
2	0	0	0	0	11025,56	2,15191936	2,15248275	-1,532443045948943	11	-0,0175661631	0,00329855713
2	0	0	1	0	11026,91	2,13841748	2,13899422	-1,622263388087351	11	-0,0196945462	0,00347001199
2	0	0	0	0	11028,26	2,1249156	2,12541556	-1,7215233215441258	11	-0,0219497476	0,00365895242
2	0	0	1	0	11029,61	2,11141372	2,1119473	-1,8254934785266723	11	-0,0243437029	0,003855346
2	0	0	0	0	11030,96	2,09791183	2,09841847	-1,9198214436570781	11	-0,0268769152	0,004028589
2	0	0	1	0	11032,31	2,08440995	2,08518004	-2,0324600307891744	11	-0,0295478161	0,00423804531
2	0	0	0	0	11033,66	2,07090831	2,07119083	-2,1351749673485757	11	-0,0323604383	0,00442235498
2	0	0	0	0	11035,01	2,05740738	2,05807471	-2,2483010071224515	11	-0,0353182219	0,00462717144
2	0	0	1	0	11036,36	2,04390454	2,04449439	-2,357596105585504	11	-0,0384292193	0,00482009212
2	0	0	0	0	11037,71	2,03040266	2,03110576	-2,4620694778859616	11	-0,0416861698	0,00500072353
2	0	0	1	0	11039,06	2,01690102	2,01725674	-2,5830099452286976	11	-0,0450954624	0,00521059427
2	0	0	0	0	11040,41	2,0033989	2,00394821	-2,6901688221842086	11	-0,0486576259	0,00539095886
2	0	0	1	0	11041,76	1,98989713	1,99034953	-2,8104633955905846	11	-0,0523714647	0,00559380464
2	0	0	0	0	11043,11	1,97639537	1,9769311	-2,9238571692258157	11	-0,0562402196	0,00578026427
2	0	0	1	0	11044,46	1,96289361	1,96334231	-3,0429756442705818	11	-0,0602635145	0,00597440265
2	0	0	0	0	11045,81	1,9493916	1,95001411	-3,1638059020042419	11	-0,0644510984	0,0061694663
2	0	0	1	0	11047,16	1,93588972	1,93623507	-3,2560572102666042	11	-0,0687929541	0,00630449224
2	0	0	0	0	11048,51	1,92238772	1,92299688	-3,3558324736853466	11	-0,073256515	0,00645325519
2	0	0	1	0	11049,86	1,90888596	1,90946829	-3,4389255978167059	11	-0,077846624	0,00656651938
2	0	0	0	0	11051,21	1,89538419	1,89591956	-3,5378613459567238	11	-0,0825580135	0,00670750067
2	0	0	1	0	11052,56	1,88188231	1,88243103	-3,6318033486604832	11	-0,0874018073	0,00683661923
2	0	0	1	0	11053,91	1,86838031	1,86879206	-3,7324327553311891	11	-0,0923684165	0,00697514089
2	0	0	0	0	11055,26	1,85487866	1,85562408	-3,8182460578779424	11	-0,0974644348	0,00708522927
2	0	0	1	0	11056,61	1,8413769	1,84178495	-3,9242094407478874	11	-0,102704465	0,0072275498
2	0	0	0	0	11057,96	1,8278749	1,82832646	-4,0263004824519194	11	-0,108070463	0,00736139156
2	0	0	1	0	11059,31	1,81437302	1,81477773	-4,1236537247896339	11	-0,113573469	0,00748351496
2	0	0	0	0	11060,66	1,80087125	1,80148923	-4,207439991335079	11	-0,119201086	0,00757965771
2	0	0	1	0	11062,01	1,78736949	1,78781068	-4,2926370327671603	11	-0,124939486	0,00767442212
2	0	0	0	0	11063,36	1,77386749	1,77426183	-4,3752078078687264	11	-0,130790457	0,00776276411
2	0	0	1	0	11064,71	1,76036561	1,76085353	-4,4518227279186266	11	-0,136751547	0,0078390073
2	0	0	0	0	11066,06	1,74686384	1,74740493	-4,5344219716886656	11	-0,142815262	0,00792347174
2	0	0	1	0	11067,41	1,73336208	1,73405647	-4,606733193000167	11	-0,148990318	0,00798833556
2	0	0	0	0	11068,76	1,71986008	1,72042763	-4,6763013551632467	11	-0,155259207	0,00804523844
2	0	0	1	0	11070,11	1,70635819	1,70686913	-4,7014252195755827	11	-0,161604032	0,00802471768
2	0	0	0	0	11071,46	1,69285643	1,69347072	-4,7676297488311974	11	-0,16799435	0,00807384122
2	0	0	0	0	11072,81	1,67935443	1,67988181	-4,8540232926607277	11	-0,174490288	0,00815418549
2	0	0	1	0	11074,16	1,66585267	1,66631317	-4,9228324058155194	11	-0,181098655	0,00820298027
2	0	0	0	0	11075,51	1,65235078	1,65276444	-5,017348443468407	11	-0,187810272	0,00829249527
2	0	0	1	0	11076,86	1,63884902	1,63941598	-5,0861941737433229	11	-0,194634825	0,00833838806
2	0	0	0	0	11078,21	1,62534714	1,62576735	-5,1286280825734278	11	-0,20152472	0,00833795592
2	0	0	1	0	11079,56	1,61184537	1,61230898	-5,2159707012275904	11	-0,208507717	0,00840975624
2	0	0	0	0	11080,91	1,59834337	1,59875989	-5,2891221269965242	11	-0,215606362	0,00845603645
2	0	0	1	0	11082,26	1,58484161	1,58532166	-5,3478279324869344	11	-0,222792581	0,00847802777
2	0	0	0	0	11083,61	1,57133973	1,57176304	-5,4434431294600499	11	-0,23006776	0,00855580252
2	0	0	1	0	11084,96	1,55783796	1,55838454	-5,4862128011882374	11	-0,237447947	0,00854962878
2	0	0	0	0	11086,31	1,54433608	1,54472589	-5,5577122271061088	11	-0,244892389	0,00858514197
2	0	0	1	0	11087,66	1,5308342	1,53140736	-5,6280044727027558	11	-0,252444118	0,00861876737
2	0	0	0	0	11089,01	1,51733243	1,5178889	-5,675809971988208	11	-0,260078847	0,00861524884
2	0	0	1	0	11090,36	1,50383091	1,50457013	-5,7450146426203885	11	-0,267786533	0,00864377711
2	0	0	1	0	11091,71	1,49032867	1,49067128	-5,7893262977401536	11	-0,275566727	0,00862998236
2	0	0	0	0	11093,06	1,47682679	1,47757339	-5,8439240691562496	11	-0,283412337	0,0086348271
2	0	0	1	0	11094,41	1,46332502	1,46387434	-5,9085630724827494	11	-0,291349024	0,00864939392
2	0	0	0	0	11095,76	1,44982314	1,45029581	-5,978892167409271	11	-0,299374372	0,00867116265
2	0	0	1	0	11097,11	1,43632126	1,43693721	-6,0110647057493619	11	-0,307468742	0,00863752235
2	0	0	0	0	11098,47	1,4228195	1,42304814	-6,0495103796323021	11	-0,315619349	0,00860874448
2	0	0	1	0	11099,82	1,40931761	1,40982985	-6,1210432214041677	11	-0,323836237	0,00862962939
2	0	0	0	0	11101,17	1,39581561	1,39630127	-6,178715771685056	11	-0,332142204	0,00862734858
2	0	0	1	0	11102,52	1,38231385	1,3826524	-6,2175887823104717	11	-0,340515405	0,00859676395
2	0	0	0	0	11103,87	1,36881208	1,36923397	-6,2507150818904333	11	-0,348943114	0,00855869148
2	0	0	1	0	11105,22	1,35531008	1,35560536	-6,3222452973326144	11	-0,357430279	0,00857046992
2	0	0	0	0	11106,57	1,3418082	1,34234691	-6,3600971947113856	11	-0,365989596	0,00853745639
2	0	0	1	0	11107,92	1,32830644	1,32866812	-6,4479683216412979	11	-0,374624103	0,00856721029
2	0	0	1	0	11109,27	1,31480467	1,31530964	-6,4867332031329856	11	-0,383354217	0,0085320631
2	0	0	0	0	11110,62	1,30130267	1,30173099	-6,5339806998769626	11	-0,392139822	0,00850548502
2	0	0	1	0	11111,97	1,28780091	1,28824234	-6,5595185806354125	11	-0,400973976	0,00845024921
2	0	0	0	0	11113,32	1,27429914	1,27493405	-6,7482573191324915	11	-0,410002053	0,00860358309
2	0	0	1	0	11114,67	1,26079726	1,26134539	-6,7811183234056	11	-0,419143856	0,00855333265
2	0	0	0	0	11116,02	1,24729526	1,24779677	-6,7934125463168154	11	-0,428318858	0,00847679842
2	0	0	1	0	11117,37	1,2337935	1,234218	-6,8391076972087603	11	-0,437525749	0,00844094995
2	0	0	0	0	11118,72	1,22029173	1,2208395	-6,9176521971821926	11	-0,446813464	0,008445343
2	0	0	1	0	11120,07	1,20678985	1,20728099	-6,9366322979331021	11	-0,456163347	0,0083744647
2	0	0	0	0	11121,42	1,19328797	1,19374216	-6,987151779234423	11	-0,465543151	0,00834085792
2	0	0	1	0	11122,77	1,17978609	1,18022358	-7,0191427394747738	11	-0,475003123	0,00828415807
2	0	0	0	0	11124,12	1,16628432	1,166785	-7,0585125436385562	11	-0,484507322	0,00823576655
2	0	0	1	0	11125,47	1,15278232	1,15335655	-7,084323778748512	11	-0,494043618	0,00817075092
2	0	0	0	0	11126,82	1,13928056	1,13956749	-7,1133625765641574	11	-0,503626823	0,00810615718
2	0	0	0	0	11128,17	1,12577868	1,12625921	-7,1499011317888806	11	-0,513264239	0,00805264153
2	0	0	1	0	11129,52	1,11227691	1,11283088	-7,1678577934702336	11	-0,522925913	0,00797661394
2	0	0	0	0	11130,87	1,09877491	1,09925199	-7,2043373833100186	11	-0,532635689	0,0079193823
2	0	0	1	0	11132,22	1,08527315	1,08575344	-7,2347026616334912	11	-0,542401493	0,00785510335
2	0	0	0	0	11133,57	1,07177114	1,07215464	-7,2750674063960755	11	-0,552190244	0,00779999746
2	0	0	1	0	11134,92	1,0582695	1,05883646	-7,3157204414407885	11	-0,562037766	0,00774615165
2	0	0	0	0	11136,27	1,04476762	1,04532778	-7,3316842317581747	11	-0,57192409	0,00766401319
2	0	0	1	0	11137,62	1,03126585	1,03165901	-7,4082751100261965	11	-0,581873357	0,00764281396
2	0	0	0	0	11138,97	1,01776385	1,01818049	-7,4212719872594163	11	-0,591885865	0,00755619444
2	0	0	1	0	11140,32	1,00426209	1,00477195	-7,4693973834316403	11	-0,601943016	0,00750504108
2	0	0	0	0	11141,67	0,990760207	0,99123323	-7,5066133712728909	11	-0,612059712	0,0074408045
2	0	0	1	0	11143,02	0,977258444	0,977774799	-7,5801380698879654	11	-0,62224108	0,00741166808
2	0	0	0	0	11144,37	0,963756502	0,964246094	-7,6034485151370176	11	-0,632489443	0,00733159576
2	0	0	0	0	11145,72	0,95025444	0,950787544	-7,637437819422391	11	-0,642777026	0,00726158079
2	0	0	1	0	11147,07	0,936752796	0,937128663	-7,6456754157940736	11	-0,653101027	0,00716498168
2	0	0	0	0	11148,42	0,923251033	0,923760414	-7,6823628072937562	11	-0,663447261	0,00709666265
2	0	0	1	0	11149,77	0,909749091	0,910191596	-7,6759930352370061	11	-0,673816144	0,00698662456
2	0	0	0	0	11151,12	0,896247327	0,896602869	-7,6990201249718669	11	-0,684221685	0,00690296339
2	0	0	1	0	11152,47	0,882745385	0,883234441	-7,6897762467464051	11	-0,694606423	0,00679187523
2	0	0	0	0	11153,82	0,869243681	0,869645715	-7,7305033827821466	11	-0,705031395	0,00672279904
2	0	0	1	0	11155,17	0,855741739	0,856087029	-7,7661157995462413	11	-0,715514839	0,00664847111
2	0	0	0	0	11156,52	0,842239976	0,842648506	-7,8016677821676122	11	-0,72603029	0,00657406356
2	0	0	1	0	11157,87	0,828738034	0,829360306	-7,8475159183144563	11	-0,736587763	0,00650841836
2	0	0	0	0	11159,22	0,81523627	0,815781534	-7,8892931168278221	11	-0,747207284	0,00643593958
2	0	0	1	0	11160,57	0,801734328	0,802162826	-7,9097669050097613	11	-0,757856965	0,00634492096
2	0	0	0	0	11161,92	0,788232565	0,788634121	-7,9641003708044685	11	-0,768573701	0,00628076121
2	0	0	1	0	11163,27	0,774730623	0,775165617	-7,9883821383118771	11	-0,779339612	0,0061923191
2	0	0	1	0	11164,62	0,761228085	0,761696458	-8,0248736448667366	11	-0,790168226	0,00611251779
2	0	0	0	0	11165,97	0,747726917	0,748238504	-8,0613195175925939	11	-0,801032484	0,00603178982
2	0	0	1	0	11167,32	0,734225094	0,734699845	-8,0791426971554752	11	-0,811917841	0,00593574485
2	0	0	0	0	11168,67	0,720723212	0,720930874	-8,1013133252660902	11	-0,822840333	0,00584048685
2	0	0	1	0	11170,02	0,707221448	0,707732737	-8,0982061599691802	11	-0,833793163	0,00573136564
2	0	0	0	0	11171,38	0,693719506	0,694063902	-8,150372244417696	11	-0,844768763	0,00565687893
2	0	0	1	0	11172,73	0,680217683	0,680505216	-8,1758574222525056	11	-0,855798185	0,00556371361
2	0	0	0	0	11174,08	0,666715801	0,667046666	-8,1932514533400819	11	-0,866859257	0,0054652812
2	0	0	1	0	11175,43	0,653213978	0,653678298	-8,2278009876608563	11	-0,877963364	0,00537833478
2	0	0	0	0	11176,78	0,639712155	0,640149593	-8,247834488749504	11	-0,889099538	0,00527984789
2	0	0	1	0	11178,13	0,626210272	0,626691103	-8,2593992079297754	11	-0,900240123	0,00517609203
2	0	0	0	0	11179,48	0,612708449	0,613242567	-8,2813558727502784	11	-0,911394596	0,00507848011
2	0	0	1	0	11180,83	0,599206567	0,599673867	-8,2644116580486298	11	-0,922551095	0,00495595159
2	0	0	1	0	11182,18	0,585703969	0,58587414	-8,3198076791786944	11	-0,933754385	0,00487436028
2	0	0	0	0	11183,53	0,572202861	0,572696745	-8,3026821836829184	11	-0,944982111	0,00475491909
2	0	0	1	0	11184,88	0,558701038	0,559508562	-8,3446954141060698	11	-0,956221998	0,00466892868
2	0	0	0	0	11186,23	0,545199156	0,545529246	-8,3736304988463744	11	-0,967512906	0,00456806039
2	0	0	1	0	11187,58	0,531697333	0,532200933	-8,4133898094296742	11	-0,978854179	0,00447761407
2	0	0	0	0	11188,93	0,51819551	0,518782437	-8,4444731101393702	11	-0,990250111	0,00438084453
2	0	0	1	0	11190,28	0,504693627	0,505383968	-8,4580237244566656	11	-1,00167489	0,00427454943
2	1	0	0	0	11191,58	0,508294106	0,509008944	-8,3238496805230643	11	-1,01260996	0,00423691375
2	1	0	1	0	11192,93	0,521795928	0,522187114	-8,1862953230738637	11	-1,02375782	0,00427477807
2	1	0	0	0	11194,28	0,535297811	0,535805881	-8,028047800064073	11	-1,03471041	0,00430147536
2	1	0	1	0	11195,63	0,548799634	0,549164236	-7,9033610771099917	11	-1,04548311	0,00434024306
2	1	0	0	0	11196,98	0,562301517	0,56280303	-7,7888401970267366	11	-1,05608284	0,00438358309
2	1	0	1	0	11198,33	0,575803339	0,576501906	-7,6558456569910144	11	-1,06650782	0,00441360939
2	1	0	0	0	11199,68	0,589305222	0,589890361	-7,5348543425401152	11	-1,07676268	0,00444473792
2	1	0	1	0	11201,03	0,602807105	0,603278816	-7,3607548599441651	11	-1,08682156	0,00444058748
2	1	0	0	0	11202,38	0,616308928	0,616547108	-7,2494403123855872	11	-1,09667432	0,00446962146
2	1	0	1	0	11203,73	0,62981075	0,630125821	-7,134535458485303	11	-1,10641956	0,00449565519
2	1	0	1	0	11205,08	0,643312633	0,643924832	-7,0471357976396979	11	-1,11598015	0,00453782594
2	1	0	0	0	11206,43	0,656814456	0,657423437	-6,9557160958647872	11	-1,12543213	0,00457285065
2	1	0	1	0	11207,78	0,670316339	0,670871913	-6,8487694164116992	11	-1,13474	0,00459464686
2	1	0	0	0	11209,13	0,683818161	0,684040129	-6,7161545132597453	11	-1,14389706	0,00459411927
2	1	0	1	0	11210,48	0,697320044	0,697758973	-6,6438288763165453	11	-1,15290725	0,00463579129
2	1	0	0	0	11211,83	0,710821867	0,711367726	-6,5378950834274291	11	-1,16179836	0,00465084752
2	1	0	1	0	11213,18	0,72432375	0,724796236	-6,4668258428573325	11	-1,17058003	0,00468713092
2	1	0	0	0	11214,53	0,737825572	0,738445044	-6,3317428429921638	11	-1,17921066	0,00467564398
2	1	0	1	0	11215,88	0,751327455	0,751703322	-6,2590452209115034	11	-1,18770945	0,00470494526
2	1	0	0	0	11217,23	0,764829278	0,76521188	-6,1301270760595802	11	-1,1960696	0,00469084596
2	1	0	1	0	11218,58	0,778331161	0,778780639	-6,0384482530256205	11	-1,20429361	0,00470262673
2	1	0	0	0	11219,93	0,791832983	0,792389333	-5,9738945638140134	11	-1,21239233	0,00473365048
2	1	0	1	0	11221,28	0,805334806	0,805877864	-5,8782635641594752	11	-1,22039568	0,0047371625
2	1	0	1	0	11222,63	0,818836689	0,819306314	-5,7833117755750861	11	-1,22827113	0,00473830383
2	1	0	0	0	11223,98	0,832338512	0,832774937	-5,7190345575412141	11	-1,23604155	0,00476266863
2	1	0	1	0	11225,33	0,845840454	0,846193433	-5,6294604092836378	11	-1,24370766	0,00476361252
2	1	0	0	0	11226,68	0,859342217	0,859752059	-5,5404343381524141	11	-1,25125241	0,00476339972
2	1	0	1	0	11228,03	0,87284416	0,873390913	-5,4739156067371315	11	-1,25869751	0,00478086807
2	1	0	0	0	11229,38	0,886345923	0,886799395	-5,3770143141349254	11	-1,26603246	0,00476833293
2	1	0	1	0	11230,73	0,899847865	0,900137782	-5,2895259869595411	11	-1,27325869	0,00476130238
2	1	0	0	0	11232,08	0,913349628	0,913886726	-5,213103679319225	11	-1,28034675	0,00476418622
2	1	0	1	0	11233,43	0,926851571	0,927375317	-5,1494790253539693	11	-1,28732216	0,00477549993
2	1	0	0	0	11234,78	0,940353274	0,940843821	-5,0682236142456813	11	-1,29421616	0,00476840697
2	1	0	1	0	11236,13	0,953855217	0,954262316	-4,9926420412957741	11	-1,30100846	0,00476429006
2	1	0	0	0	11237,48	0,96735698	0,967961133	-4,9242563173174874	11	-1,30770195	0,00476648891
2	1	0	1	0	11238,83	0,980858922	0,981599987	-4,8479953110218048	11	-1,31429422	0,004758792
2	1	0	0	0	11240,19	0,994360685	0,994708002	-4,7607124616702381	11	-1,32077968	0,00473551871
2	1	0	0	0	11241,54	1,00786328	1,0083673	-4,6785013012407718	11	-1,32715571	0,00471764756
2	1	0	1	0	11242,89	1,02136433	1,02194548	-4,6134443009893146	11	-1,33342731	0,00471468875
2	1	0	0	0	11244,24	1,03486621	1,03525388	-4,5348186530172877	11	-1,33959651	0,0046946886
2	1	0	1	0	11245,59	1,0483681	1,04898274	-4,4531168776253888	11	-1,34566188	0,00467124255
2	1	0	0	0	11246,94	1,06186986	1,06271172	-4,3855133454004794	11	-1,35163057	0,00466053654
2	1	0	1	0	11248,29	1,07537186	1,07583988	-4,3772608215610234	11	-1,35754061	0,00470923167
2	1	0	0	0	11249,64	1,08887374	1,08950853	-4,3138727260132582	11	-1,36340225	0,00470000133
2	1	0	1	0	11250,99	1,10237551	1,1029973	-4,2431452833116339	11	-1,36918056	0,00468017766
2	1	0	0	0	11252,34	1,11587727	1,11637557	-4,1619218066334867	11	-1,37485552	0,00464626774
2	1	0	1	0	11253,69	1,12937915	1,12998438	-4,0805583310624058	11	-1,38041961	0,00461096736
2	1	0	0	0	11255,04	1,14288116	1,14343286	-3,9984156203766758	11	-1,38587368	0,0045719198
2	1	0	1	0	11256,39	1,1563828	1,1567713	-3,8991799578070656	11	-1,3912133	0,00451045949
2	1	0	0	0	11257,74	1,1698848	1,17043018	-3,8469043585161344	11	-1,39645052	0,004502533
2	1	0	1	0	11259,09	1,18338656	1,18401897	-3,7736994437873504	11	-1,40158999	0,00446813181
2	1	0	1	0	11260,44	1,19688845	1,19724703	-3,69692203029992	11	-1,4066335	0,0044261287
2	1	0	0	0	11261,79	1,21039021	1,21094584	-3,6318722913662784	11	-1,41157925	0,00439800089
2	1	0	1	0	11263,14	1,22389221	1,22450459	-3,5436045962075475	11	-1,41642416	0,00433915993
2	1	0	0	0	11264,49	1,23739398	1,23784292	-3,4785765421887264	11	-1,42115784	0,00430593127
2	1	0	1	0	11265,84	1,25089586	1,25156188	-3,4098192900419309	11	-1,42580342	0,0042675999
2	1	0	0	0	11267,19	1,26439762	1,26491034	-3,3168242437144147	11	-1,43034446	0,00419548526
2	1	0	1	0	11268,54	1,27789962	1,27833879	-3,2601228567461152	11	-1,43478203	0,0041675414
2	1	0	0	0	11269,89	1,29140139	1,29200768	-3,1928895078599597	11	-1,43914747	0,00412523793
2	1	0	1	0	11271,24	1,30490327	1,30528581	-3,1400025996069229	11	-1,44341969	0,00409860071
2	1	0	0	0	11272,59	1,31840527	1,3188647	-3,0721944868564749	11	-1,44761193	0,00405180873
2	1	0	1	0	11273,94	1,33190703	1,33238316	-3,010992581024759	11	-1,4517144	0,00401179586
2	1	0	0	0	11275,29	1,3454088	1,34587181	-2,9464846191306861	11	-1,45573747	0,00396559061
2	1	0	1	0	11276,64	1,35891068	1,35942042	-2,8766894166668352	11	-1,4596628	0,00391063048
2	1	0	1	0	11277,99	1,37241328	1,37303054	-2,8070659452479152	11	-1,463498	0,00385418721
2	1	0	0	0	11279,34	1,38591433	1,38634753	-2,7453035768121517	11	-1,46724343	0,00380594493
2	1	0	1	0	11280,69	1,39941609	1,39979601	-2,6719639959434717	11	-1,47089779	0,0037402045
2	1	0	0	0	11282,04	1,41291809	1,41356492	-2,5858022266378029	11	-1,47444618	0,00365519943
2	1	0	1	0	11283,39	1,42641997	1,42685342	-2,5425149860481398	11	-1,47790062	0,00362779619
2	1	0	0	0	11284,74	1,43992174	1,44047213	-2,4726698603481126	11	-1,48128295	0,00356181199
2	1	0	1	0	11286,09	1,4534235	1,45385051	-2,4146199679623059	11	-1,48457885	0,00351049658
2	1	0	0	0	11287,44	1,4669255	1,46731925	-2,3513944000005651	11	-1,48779583	0,00345024629
2	1	0	1	0	11288,79	1,48042738	1,4811281	-2,2978815380483866	11	-1,49093509	0,00340345688
2	1	0	0	0	11290,14	1,49392915	1,49441659	-2,2432539730022275	11	-1,49400163	0,00335235591
2	1	0	1	0	11291,49	1,50743103	1,50789499	-2,1900678550203594	11	-1,49699426	0,00330239232
2	1	0	0	0	11292,84	1,52093291	1,52142358	-2,127370888367288	11	-1,49990988	0,00323663233
2	1	0	1	0	11294,19	1,5344348	1,53485227	-2,0746273851643037	11	-1,50274491	0,0031842466
2	1	0	0	0	11295,54	1,54793668	1,54844081	-2,0219481413563187	11	-1,50551021	0,00313086691
2	1	0	0	0	11296,89	1,56143904	1,56195962	-1,9574891942942189	11	-1,50819814	0,00305751897
2	1	0	1	0	11298,24	1,5749402	1,5754379	-1,9034793761869296	11	-1,51080811	0,00299881352
2	1	0	0	0	11299,59	1,58844209	1,58890665	-1,8472930875917229	11	-1,51334047	0,00293517625
2	1	0	1	0	11300,94	1,60194409	1,60241508	-1,7895639004806675	11	-1,51579475	0,00286762416
2	1	0	0	0	11302,29	1,61544585	1,61581373	-1,7415278038630896	11	-1,51817632	0,00281398464
2	1	0	1	0	11303,64	1,62894762	1,62965262	-1,682252946620185	11	-1,52048326	0,00274148793
2	1	0	0	0	11304,99	1,6424495	1,6428107	-1,628986815611521	11	-1,52271986	0,002676117
2	1	0	1	0	11306,34	1,6559515	1,65648961	-1,5745004055400643	11	-1,52488196	0,00260814349
2	1	0	0	0	11307,69	1,66945326	1,66999817	-1,5163402982677034	11	-1,52697086	0,00253228541
2	1	0	1	0	11309,04	1,68295503	1,68355703	-1,4561616610735654	11	-1,52897704	0,00245153112
2	1	0	0	0	11310,39	1,69645691	1,69701529	-1,4056235936780794	11	-1,53090799	0,00238536461
2	1	0	1	0	11311,74	1,70995867	1,71045399	-1,3520655461276582	11	-1,53276706	0,00231264601
2	1	0	0	0	11313,10	1,72346056	1,7240026	-1,2995201777666843	11	-1,53455877	0,00224037608
2	1	0	0	0	11314,45	1,73696303	1,73751271	-1,246023771857247	11	-1,53627789	0,00216498203
2	1	0	1	0	11315,80	1,75046432	1,75095975	-1,1948809465393424	11	-1,53792441	0,00209218846
2	1	0	0	0	11317,15	1,76396608	1,76434827	-1,1428952484081219	11	-1,53950346	0,00201646518
2	1	0	1	0	11318,50	1,77746797	1,77801716	-1,0885915377487798	11	-1,54100966	0,00193553441
2	1	0	0	0	11319,85	1,79096997	1,79139543	-1,0369227938354016	11	-1,54244375	0,00185753871
2	1	0	1	0	11321,20	1,80447173	1,80496442	-0,98595483166475968	11	-1,54380894	0,00177961343
2	1	0	0	0	11322,55	1,81797349	1,81845272	-0,93452806894977766	11	-1,54510391	0,00169939513
2	1	0	1	0	11323,90	1,83147538	1,83193135	-0,88472432022293606	11	-1,54633141	0,00162075425
2	1	0	0	0	11325,25	1,84497738	1,8455801	-0,8329849742973856	11	-1,54749095	0,00153734046
2	1	0	1	0	11326,60	1,85847914	1,85906863	-0,78833079275985574	11	-1,54858589	0,0014655611
2	1	0	0	0	11327,95	1,87198091	1,87250721	-0,73365445652355994	11	-1,54961288	0,00137377321
2	1	0	1	0	11329,30	1,88548279	1,88606596	-0,68538650001088717	11	-1,55057096	0,00129268412
2	1	0	0	0	11330,65	1,89898479	1,89920402	-0,63891595369204838	11	-1,5514667	0,00121343171
2	1	0	1	0	11332,00	1,91248655	1,91326344	-0,59311855010067533	11	-1,55229759	0,00113479199
2	1	0	1	0	11333,35	1,92598891	1,92651176	-0,54623042655055085	11	-1,55306649	0,00105231931
2	1	0	0	0	11334,70	1,9394902	1,93995023	-0,4997892097259561	11	-1,553774	0,000969566172
2	1	0	1	0	11336,08	1,95329225	1,95385933	-0,45230528976147341	11	-1,55443013	0,000883740897
2	1	0	0	0	11337,43	1,96679401	1,96748817	-0,40606357421105165	11	-1,55500865	0,000798925292
2	1	0	1	0	11338,78	1,98029578	1,98089647	-0,35929355312449318	11	-1,55552518	0,000711723347
2	1	0	0	0	11340,13	1,99379766	1,99441528	-0,31265376011530586	11	-1,55597901	0,000623561442
2	1	0	1	0	11341,48	2,00729966	2,00787354	-0,26476391272929866	11	-1,55636775	0,00053161243
2	1	0	0	0	11342,83	2,02080131	2,02123213	-0,21917115695153731	11	-1,55669451	0,000442995777
2	1	0	1	0	11344,18	2,03430295	2,034971	-0,17209516097015443	11	-1,55695808	0,000350208662
2	1	0	0	0	11345,53	2,04780507	2,04838967	-0,12658712811147144	11	-1,55715942	0,000259299763
2	1	0	1	0	11346,88	2,06130695	2,06168771	-0,082025461073499354	11	-1,55730033	0,000169110892
2	1	0	0	0	11348,27	2,0752089	2,0757072	-0,036100524370946573	11	-1,55738223	7,49341198E-005
2	1	0	1	0	11349,68	2,08931065	2,08946109	0,010286638325245194	11	-1,55739987	2,14935299E-005
2	1	0	0	0	11351,05	2,10301256	2,10332513	0,054277968980992576	11	-1,55735528	0,000114164213
2	1	0	1	0	11352,40	2,11651444	2,1166234	0,098188106513892314	11	-1,55725205	0,000207827237
2	1	0	0	0	11353,79	2,13041639	2,1308732	0,14319241006548216	11	-1,55708373	0,000305124879
2	1	0	0	0	11355,14	2,14391828	2,14439201	0,18649771320633546	11	-1,55686104	0,000399924204
2	1	0	1	0	11356,49	2,15742016	2,1579504	0,23002282242911587	11	-1,55657911	0,000496377819
2	1	0	0	0	11357,84	2,1709218	2,17159915	0,27187070731694573	11	-1,55623937	0,000590394193
2	1	0	1	0	11359,19	2,18442369	2,18500781	0,31560632454541824	11	-1,55584157	0,000689602282
2	1	0	0	0	11360,54	2,19792557	2,19853663	0,35761847455675302	11	-1,55538678	0,000786237302
2	1	0	1	0	11361,89	2,21142745	2,21209526	0,39979901878784064	11	-1,55487585	0,000884393521
2	1	0	0	0	11363,24	2,22492933	2,22548342	0,44147903596361446	11	-1,55430758	0,000982504222
2	1	0	1	0	11364,59	2,23843098	2,2390821	0,48646136559545952	11	-1,55368137	0,00108922692
2	1	0	0	0	11365,94	2,2519331	2,25236034	0,52669701647634246	11	-1,55299592	0,00118631148
2	1	0	1	0	11367,29	2,26543498	2,26584911	0,56897164586310554	11	-1,55225575	0,00128920388
2	1	0	0	0	11368,64	2,27893662	2,27918768	0,61108857346698688	11	-1,55145717	0,00139278558
2	1	0	1	0	11369,99	2,29243851	2,29300666	0,65436900174245286	11	-1,55060148	0,00150047243
2	1	0	0	0	11371,34	2,30594039	2,30644512	0,69848282057791782	11	-1,54968703	0,00161101227
2	1	0	1	0	11372,69	2,31944323	2,31993318	0,7434191228770368	11	-1,54871166	0,00172468263
2	1	0	1	0	11374,04	2,33294415	2,33359241	0,78667698148637837	11	-1,54767776	0,00183578348
2	1	0	0	0	11375,39	2,34644604	2,34691072	0,8329516040782135	11	-1,54658568	0,00195486308
2	1	0	1	0	11376,74	2,35994792	2,36034918	0,8731469729294368	11	-1,54543412	0,00206093164
2	1	0	0	0	11378,09	2,3734498	2,37401795	0,91688279403993894	11	-1,54422486	0,0021766962
2	1	0	1	0	11379,44	2,38695145	2,38738656	0,96054562646895642	11	-1,54295659	0,00229319371
2	1	0	0	0	11380,83	2,4008534	2,40143585	1,0080539844930136	11	-1,54159081	0,00242077699
2	1	0	1	0	11382,18	2,41435528	2,41492462	1,051439845624067	11	-1,54020298	0,00253914786
2	1	0	0	0	11383,53	2,42785716	2,42832303	1,0924157869691645	11	-1,53875828	0,00265273848
2	1	0	1	0	11384,88	2,44135904	2,44187164	1,1380561199039186	11	-1,53725195	0,00277898693
2	1	0	0	0	11386,24	2,45486093	2,45535016	1,1797699499875307	11	-1,53568578	0,00289674825
2	1	0	1	0	11387,59	2,46836281	2,46882868	1,2175757950171806	11	-1,53406096	0,0030059861
2	1	0	0	0	11388,94	2,48186445	2,48242736	1,2677030668904416	11	-1,53237975	0,00314698089
2	1	0	1	0	11390,29	2,49536633	2,49588585	1,3099541760360198	11	-1,53063929	0,00326949614
2	1	0	1	0	11391,64	2,50886893	2,50933528	1,3541199431149486	11	-1,52884126	0,00339794089
2	1	0	0	0	11392,99	2,5223701	2,52301335	1,3992573209106904	11	-1,52698064	0,00353034493
2	1	0	1	0	11394,34	2,53587174	2,53630185	1,4450936332965904	11	-1,52505922	0,00366519368
2	1	0	0	0	11395,69	2,54937387	2,54985023	1,4908767864108099	11	-1,52307618	0,00380151253
2	1	0	1	0	11397,04	2,56287575	2,56331897	1,540954390540719	11	-1,52103269	0,00394995743
2	1	0	0	0	11398,39	2,57637739	2,57674742	1,5707515769948586	11	-1,51893389	0,00404743012
2	1	0	1	0	11399,74	2,58987927	2,59029603	1,6166742760688067	11	-1,51678121	0,00418766495
2	1	0	0	0	11401,09	2,60338116	2,60365438	1,6700224764645046	11	-1,5145669	0,00434816116
2	1	0	1	0	11402,44	2,61688304	2,61736321	1,7191613906373587	11	-1,51227963	0,00449966965
2	1	0	0	0	11403,79	2,63038492	2,63094211	1,765488295505449	11	-1,50992095	0,0046448973
2	1	0	1	0	11405,14	2,64388657	2,64442062	1,812559737513463	11	-1,50750613	0,00479317037
2	1	0	0	0	11406,49	2,65738869	2,6577692	1,8507732668270621	11	-1,5050317	0,00491892826
2	1	0	1	0	11407,84	2,67089057	2,67145777	1,8964486457407405	11	-1,50250149	0,00506628258
2	1	0	1	0	11409,19	2,68439198	2,68496609	1,9526935071819728	11	-1,49990261	0,00524291582
2	1	0	0	0	11410,54	2,69789338	2,69852471	2,0110306876930163	11	-1,49722767	0,00542681618
2	1	0	1	0	11411,89	2,71139598	2,71204376	2,0565338364491802	11	-1,49448431	0,00557740964
2	1	0	0	0	11413,24	2,72489786	2,72547221	2,0992242755989174	11	-1,49167502	0,00572137721
2	1	0	1	0	11414,59	2,73839974	2,73898077	2,1636974637707062	11	-1,48879778	0,00592632592
2	1	0	0	0	11415,94	2,75190139	2,75245976	2,2063775155693309	11	-1,48584771	0,00607296545
2	1	0	1	0	11417,29	2,76540327	2,76604819	2,2593232703705581	11	-1,48283219	0,00624939706
2	1	0	0	0	11418,64	2,77890539	2,77945662	2,3103096100191251	11	-1,47974908	0,00642140536
2	1	0	1	0	11419,99	2,79240727	2,79287505	2,3575522353251763	11	-1,47659719	0,00658434862
2	1	0	0	0	11421,34	2,80590892	2,80626369	2,4064919874072147	11	-1,4733752	0,00675325096
2	1	0	1	0	11422,69	2,8194108	2,81995249	2,4547278104970758	11	-1,47009003	0,00692221569
2	1	0	0	0	11424,04	2,83291268	2,8336215	2,5207044531901667	11	-1,4667381	0,00714272214
2	1	0	1	0	11425,39	2,84641457	2,84687948	2,5642346677680762	11	-1,46330619	0,00730006723
2	1	0	0	0	11426,74	2,85991621	2,86039805	2,5979180267701526	11	-1,45981753	0,00743107963
2	1	0	1	0	11428,09	2,87341881	2,87395668	2,6633399374512621	11	-1,45626259	0,00765432371
2	1	0	1	0	11429,44	2,88692093	2,88737559	2,710549274708697	11	-1,45263338	0,00782637391
2	1	0	0	0	11430,79	2,9004221	2,90098429	2,752866695945457	11	-1,44894624	0,00798602309
2	1	0	1	0	11432,14	2,91392374	2,91458273	2,8166143881777933	11	-1,44518173	0,00820925552
2	1	0	0	0	11433,49	2,92742562	2,92792106	2,8601273732880726	11	-1,44134867	0,00837422721
2	1	0	1	0	11434,84	2,94092751	2,94141984	2,9089872005085126	11	-1,43744862	0,00855655223
2	1	0	0	0	11436,19	2,95442939	2,95477843	2,9610683998713894	11	-1,43348777	0,00874930061
2	1	0	1	0	11437,54	2,96793127	2,96823692	3,0166778160880058	11	-1,42944908	0,00895421486
2	1	0	0	0	11438,89	2,98143291	2,98184538	3,0854481967786925	11	-1,42533028	0,00920032989
2	1	0	1	0	11440,24	2,9949348	2,99540424	3,1444114322463648	11	-1,42112851	0,00941878371
2	1	0	0	0	11441,59	3,00843692	3,00878286	3,1949845403432845	11	-1,41684842	0,00961301476
2	1	0	1	0	11442,94	3,0219388	3,02246118	3,2544340329865517	11	-1,41249049	0,00983640086
2	1	0	0	0	11444,29	3,03544044	3,03599024	3,3106741247077875	11	-1,40806174	0,0100511741
2	1	0	1	0	11445,64	3,04894233	3,0495286	3,3592971985538752	11	-1,4035542	0,0102442726
2	1	0	1	0	11446,99	3,06244421	3,06280851	3,4272940978734707	11	-1,39897215	0,0104971454
2	1	0	0	0	11448,34	3,07594609	3,07639575	3,4669941042860301	11	-1,39432216	0,0106658461
2	1	0	1	0	11449,69	3,08944774	3,08979392	3,5354603690405638	11	-1,38959885	0,0109238438
2	1	0	0	0	11451,04	3,10294962	3,10343289	3,5848685689270355	11	-1,38479376	0,0111253988
2	1	0	1	0	11452,39	3,11645174	3,11678147	3,6252823707958016	11	-1,37992442	0,0112992125
2	1	0	0	0	11453,74	3,12995338	3,13041019	3,6782511832813325	11	-1,37499893	0,0115144346
2	1	0	1	0	11455,09	3,14345527	3,14387846	3,7394266786674637	11	-1,36998713	0,0117563028
2	1	0	0	0	11456,44	3,15695691	3,15749717	3,7926620282232691	11	-1,36489964	0,0119753201
2	1	0	1	0	11457,79	3,17045879	3,17093563	3,8813334194322381	11	-1,35973203	0,0123074586
2	1	0	0	0	11459,15	3,18396044	3,18462467	3,9438800451656275	11	-1,35444343	0,0125597781
2	1	0	1	0	11460,50	3,19746232	3,19797301	4,0107521153986528	11	-1,3490696	0,0128262769
2	1	0	0	0	11461,85	3,2109642	3,21148181	4,085121496270105	11	-1,34360325	0,0131192934
2	1	0	1	0	11463,20	3,22446632	3,22512031	4,1550620719790458	11	-1,33803403	0,0134005751
2	1	0	1	0	11464,55	3,23796773	3,2383287	4,2267772203356768	11	-1,3323791	0,0136876935
2	1	0	0	0	11465,90	3,25146937	3,25198603	4,3494819309983514	11	-1,32660723	0,0141444542
2	1	0	1	0	11467,25	3,26497173	3,2657063	4,4359675248463904	11	-1,32068276	0,0144865671
2	1	0	0	0	11468,60	3,27847362	3,27890468	4,4670583618183744	11	-1,31466365	0,0146470582
2	1	0	1	0	11469,95	3,29197526	3,29236293	4,5587361802657395	11	-1,30856407	0,0150090139
2	1	0	0	0	11471,30	3,30547714	3,30604219	4,6045064193506848	11	-1,30239236	0,0152226929
2	1	0	1	0	11472,65	3,31897902	3,31956053	4,6464563844104704	11	-1,29614079	0,0154241929
2	1	0	0	0	11474,00	3,33248115	3,33298922	4,8756136496861696	11	-1,28977275	0,0162503682
2	1	0	1	0	11475,35	3,34598303	3,34640765	4,9244914862016954	11	-1,28315008	0,0164793562
2	1	0	0	0	11476,70	3,35948491	3,36022663	4,9633448881407245	11	-1,27648807	0,0166779645
2	1	0	1	0	11478,05	3,37298656	3,37348485	5,0687766683598381	11	-1,26971531	0,017099442
2	1	0	0	0	11479,40	3,38648844	3,38706374	5,1641086451709274	11	-1,26279747	0,0174911655
2	1	0	1	0	11480,75	3,39999032	3,40070224	5,2609190468987034	11	-1,2557863	0,0178908184
2	1	0	0	0	11482,10	3,41349196	3,41424084	5,3377589670320269	11	-1,24863601	0,0182243939
2	1	0	1	0	11483,45	3,42699504	3,42756009	5,4225629022271706	11	-1,24136615	0,0185861606
2	1	0	1	0	11484,80	3,44049668	3,44111872	5,522978780166807	11	-1,23396111	0,019005226
2	1	0	0	0	11486,15	3,45399785	3,45446634	5,5756360304852282	11	-1,22648454	0,0192608461
2	1	0	1	0	11487,50	3,46749973	3,46786475	5,6585353029270778	11	-1,21889317	0,0196230356
2	1	0	0	0	11488,85	3,48100162	3,48153353	5,8025840955475802	11	-1,21117008	0,0202018917
2	1	0	1	0	11490,20	3,49450326	3,49514246	5,8534860958655552	11	-1,20329499	0,0204587672
2	1	0	0	0	11491,55	3,50800514	3,50869107	5,9398396747807424	11	-1,19532847	0,0208410621
2	1	0	1	0	11492,90	3,52150679	3,52211952	5,9968329655627238	11	-1,18727291	0,0211215634
2	1	0	0	0	11494,25	3,53500867	3,5353477	6,0791397641102592	11	-1,17911553	0,0214918721
2	1	0	1	0	11495,60	3,54851055	3,54913688	6,1934112372497626	11	-1,17082834	0,0219812635
2	1	0	0	0	11496,95	3,56201267	3,56241536	6,217524352173001	11	-1,16242933	0,0221494045
2	1	0	1	0	11498,30	3,57551455	3,57597375	6,2882846320668621	11	-1,15398562	0,0224867407
2	1	0	0	0	11499,65	3,58901644	3,58948255	6,3691610073049958	11	-1,14544773	0,0228619929
2	1	0	1	0	11501,00	3,60251808	3,60313129	6,4931319827834957	11	-1,1367625	0,0233956072
2	1	0	1	0	11502,35	3,61601949	3,61637926	6,635696484906944	11	-1,12790847	0,0239971951
2	1	0	0	0	11503,70	3,62952185	3,63004827	6,6915348470210739	11	-1,11891973	0,0242905952
2	1	0	1	0	11505,05	3,64302349	3,6433866	6,7497121915221504	11	-1,10983789	0,024591811
2	1	0	0	0	11506,40	3,65652537	3,65686512	6,9520850131909094	11	-1,10056865	0,0254228376
2	1	0	1	0	11507,75	3,67002726	3,67071438	6,977837758759648	11	-1,0911293	0,0256136488
2	1	0	0	0	11509,10	3,68352938	3,68401241	7,1731243630250253	11	-1,08157921	0,0264258794
2	1	0	1	0	11510,45	3,69703126	3,69735122	7,261250197887392	11	-1,07181191	0,0268473923
2	1	0	0	0	11511,80	3,7105329	3,71110988	7,3284247691432538	11	-1,06196463	0,0271965899
2	1	0	1	0	11513,15	3,72403479	3,72448802	7,4843053370713869	11	-1,0519371	0,0278752055
2	1	0	0	0	11514,50	3,73753667	3,73808742	7,5572218348582541	11	-1,04179144	0,0282495562
2	1	0	1	0	11515,85	3,75103831	3,75141573	7,5827126478155379	11	-1,0315181	0,0284459069
2	1	0	0	0	11517,20	3,7645402	3,76505423	7,654602100451776	11	-1,02122033	0,0288199913
2	1	0	1	0	11518,55	3,77804208	3,77868295	7,7972510804732595	11	-1,01076853	0,0294633396
2	1	0	1	0	11519,90	3,79154372	3,7921412	7,9421510174520333	11	-1,00015056	0,0301177576
2	1	0	0	0	11521,25	3,80504608	3,80526996	8,010457808772713	11	-0,989391208	0,030481955
2	1	0	1	0	11522,60	3,81854773	3,81915903	8,1086947694420813	11	-0,978527367	0,0309683941
2	1	0	0	0	11523,95	3,83204961	3,83267736	8,2599214240908621	11	-0,967526436	0,0316576138
2	1	0	1	0	11525,30	3,84555149	3,84608603	8,3799397846063078	11	-0,956287801	0,0322299711
2	1	0	0	0	11526,65	3,85905337	3,85956454	8,5217456792791757	11	-0,944971383	0,0328902267
2	1	0	1	0	11528,00	3,87255502	3,87309289	8,5907567789157325	11	-0,933417261	0,0332727991
2	1	0	0	0	11529,35	3,8860569	3,88642168	8,6718521614869389	11	-0,921752036	0,0337024741
2	1	0	1	0	11530,70	3,89955878	3,90005016	8,8591402495900838	11	-0,909887373	0,0345510915
2	1	0	0	0	11532,06	3,91306043	3,91363907	9,0444623356064115	11	-0,897809029	0,0353967622
2	1	0	1	0	11533,41	3,92656231	3,92699742	9,0912106980880486	11	-0,885557234	0,0357011594
2	1	0	0	0	11534,76	3,94006443	3,94059634	9,1651913424332749	11	-0,873246372	0,0361163206
2	1	0	1	0	11536,11	3,95356631	3,95398474	9,2401396508018368	11	-0,860815585	0,0365353711
2	1	0	0	0	11537,46	3,9670682	3,96763325	9,3424612730741222	11	-0,848277271	0,0370674618
2	1	0	1	0	11538,81	3,98057103	3,98100376	9,4326522369975552	11	-0,835594833	0,0375514254
2	1	0	1	0	11540,16	3,99407268	3,99467134	9,7481441475028467	11	-0,822688758	0,0389406309
2	1	0	0	0	11541,51	4,0075736	4,00805902	9,822436474263639	11	-0,809474349	0,0393689051
2	1	0	1	0	11542,90	4,02147579	4,02206802	10,006819491585062	11	-0,795673788	0,0402481072
2	1	0	0	0	11544,25	4,03497744	4,03571701	10,073782113691152	11	-0,782069802	0,0406549349
2	1	0	1	0	11545,60	4,04847908	4,04895544	10,041186605890573	11	-0,768504024	0,040656317
2	1	0	0	0	11546,95	4,0619812	4,06229353	10,168340521554115	11	-0,754892766	0,0413067825
2	1	0	1	0	11548,30	4,07548285	4,07592249	10,212540522217738	11	-0,741133511	0,0416255221
2	1	0	0	0	11549,65	4,08898497	4,08936071	10,661051588753835	11	-0,727045238	0,0435968861
2	1	0	1	0	11551,00	4,10248661	4,1030798	10,777074481050165	11	-0,712563396	0,0442191958
2	1	0	0	0	11552,35	4,11598825	4,11656904	10,928288705646963	11	-0,697949708	0,0449870564
2	1	0	1	0	11553,70	4,12949038	4,12994719	11,347239519158997	11	-0,682730198	0,0468635
2	1	0	0	0	11555,05	4,1429925	4,14375639	11,474306061863875	11	-0,667315125	0,0475467294
2	1	0	1	0	11556,40	4,15649414	4,15697432	11,607380037506432	11	-0,651768744	0,0482515804
2	1	0	0	0	11557,75	4,16999531	4,17063332	11,947693732877568	11	-0,635724843	0,0498294495
2	1	0	0	0	11559,10	4,183496	4,1841507	12,059928900158886	11	-0,619501173	0,0504605584
2	1	0	0	0	11560,45	4,19700003	4,19739103	12,082647185453965	11	-0,603203416	0,0507155955
2	0	0	1	1	11561,73	4,19019842	4,19060087	11,992383964359774	11	-0,587735474	0,0502552949
2	0	0	0	1	11563,08	4,17669678	4,17726183	11,874852006634058	11	-0,571600556	0,0496043675
2	0	0	1	1	11564,43	4,16319513	4,163764	11,664317913353429	11	-0,555728555	0,0485674664
2	0	0	0	1	11565,78	4,14969301	4,15006495	11,471007004380227	11	-0,540114641	0,0476054251
2	0	0	1	1	11567,13	4,13619137	4,13661671	11,346295205255331	11	-0,524659574	0,0469352752
2	0	0	0	1	11568,48	4,12268972	4,123528	11,116988134880842	11	-0,509502232	0,0458412133
2	0	0	1	1	11569,83	4,1091876	4,10961866	10,892410976191344	11	-0,494640291	0,0447636545
2	0	0	0	1	11571,18	4,09568548	4,09627104	10,690371830224962	11	-0,480079025	0,0437906608
2	0	0	0	1	11572,53	4,08218479	4,08264256	10,446272584037872	11	-0,465821385	0,0426483974
2	0	0	1	1	11573,88	4,06868219	4,0692234	10,324620117743834	11	-0,451723188	0,042013187
2	0	0	0	1	11575,23	4,05518007	4,05590534	10,324096543093488	11	-0,437793612	0,0418735594
2	0	0	1	1	11576,58	4,04167843	4,04202557	10,12694322069484	11	-0,423962623	0,0409333631
2	0	0	0	1	11577,93	4,02817678	4,02858734	9,894839502871008	11	-0,410439044	0,0398622267
2	0	0	1	1	11579,28	4,01467466	4,01500893	9,557364277541609	11	-0,397322774	0,0383729041
2	0	0	0	1	11580,63	4,00117254	4,00132942	9,3704077874620288	11	-0,384559572	0,0374940895
2	0	0	1	1	11581,98	3,9876709	3,98818159	9,1821987057726067	11	-0,372043282	0,0366202742
2	0	0	0	1	11583,33	3,97416902	3,97460294	8,9474280104041101	11	-0,359782338	0,0355624743
2	0	0	1	1	11584,68	3,96066737	3,96120453	8,8167533253629888	11	-0,347787946	0,0349249616
2	0	0	0	1	11586,03	3,94716549	3,94767594	8,5385848656297011	11	-0,336074203	0,0337075666
2	0	0	1	1	11587,38	3,93366361	3,93414712	8,2960918396711347	11	-0,324691445	0,0326380469
2	0	0	0	1	11588,73	3,92016172	3,92056847	8,0319765582680563	11	-0,313684553	0,0314899124
2	0	0	1	1	11590,08	3,9066596	3,90689993	7,761987507343264	11	-0,303052694	0,0303253084
2	0	0	1	1	11591,43	3,89315891	3,89346099	7,5642459105927168	11	-0,292697489	0,0294510964
2	0	0	0	1	11592,78	3,87965584	3,88010287	7,3401740094025741	11	-0,282637745	0,0284806304
2	0	0	1	1	11594,13	3,86615419	3,86644363	7,1408904840548928	11	-0,272860825	0,0276098512
2	0	0	0	1	11595,48	3,85265231	3,8529954	6,9234096209208077	11	-0,263367206	0,0266758651
2	0	0	1	1	11596,83	3,83915067	3,83974743	6,7581885581215322	11	-0,254146934	0,0259497371
2	0	0	0	1	11598,18	3,82564878	3,8259685	6,4346208622058266	11	-0,245194167	0,0246186573
2	0	0	1	1	11599,53	3,8121469	3,81260991	6,2200518113871475	11	-0,236680537	0,0237146318
2	0	0	0	1	11600,89	3,79864478	3,79904127	6,0613902360200742	11	-0,228390649	0,0230274722
2	0	0	1	1	11602,24	3,7851429	3,78555274	5,8529734847446272	11	-0,220343009	0,0221567396
2	0	0	0	1	11603,59	3,77164125	3,77192378	5,7099186430374688	11	-0,212543577	0,0215373784
2	0	0	1	1	11604,94	3,75813937	3,75841498	5,6165624521672723	11	-0,204888403	0,0211093724
2	0	0	0	1	11606,29	3,74463749	3,74491644	5,3145714377363405	11	-0,197413981	0,0199026261
2	0	0	1	1	11607,64	3,73113585	3,73152828	5,2028193473815814	11	-0,190316007	0,0194144677
2	0	0	0	1	11608,99	3,71763396	3,71801949	5,0756541088720083	11	-0,183379069	0,01887138
2	0	0	1	1	11610,38	3,70373154	3,70419073	4,9419582722014323	11	-0,176418021	0,0183059555
2	0	0	1	1	11611,73	3,69022989	3,69078159	4,8271804861724378	11	-0,169828996	0,0178160686
2	0	0	0	1	11613,08	3,67672801	3,67712331	4,7072919545074112	11	-0,163391873	0,0173092932
2	0	0	1	1	11614,43	3,66322637	3,66379499	4,5843140495320115	11	-0,157119498	0,0167959873
2	0	0	0	1	11615,78	3,64972448	3,65000582	4,459480803459879	11	-0,151015371	0,0162771307
2	0	0	1	1	11617,13	3,6362226	3,63656712	4,3464573485155712	11	-0,14507252	0,0158061832
2	0	0	0	1	11618,48	3,62272096	3,62304854	4,2333472296595571	11	-0,139287189	0,0153376227
2	0	0	1	1	11619,83	3,60921907	3,60984039	4,1328399951259341	11	-0,133644819	0,0149188926
2	0	0	0	1	11621,18	3,59571719	3,59610152	4,0261966362595558	11	-0,128140286	0,0144786118
2	0	0	1	1	11622,53	3,58221531	3,5828433	3,9340348802506784	11	-0,122765586	0,0140950307
2	0	0	0	1	11623,88	3,56871319	3,56924438	3,8506957367062566	11	-0,117510557	0,0137440739
2	0	0	1	1	11625,23	3,55521178	3,55562568	3,7525900850693293	11	-0,112378746	0,0133428052
2	0	0	0	1	11626,58	3,54170966	3,54209709	3,6606939695775507	11	-0,107381746	0,0129665332
2	0	0	1	1	11627,93	3,52820659	3,52869725	3,5717212094558451	11	-0,102497466	0,0126035232
2	0	0	1	1	11629,28	3,51470518	3,5153594	3,4720877200108051	11	-0,097740978	0,0122056361
2	0	0	0	1	11630,63	3,50120425	3,50177169	3,3878341714541165	11	-0,093110092	0,0118634216
2	0	0	1	1	11631,98	3,48770237	3,48820305	3,3072096755107482	11	-0,088585116	0,0115362192
2	0	0	0	1	11633,33	3,47420049	3,47474432	3,2307846248149926	11	-0,0841680542	0,0112261502
2	0	0	1	1	11634,68	3,46069837	3,46135592	3,151805261770889	11	-0,0798627287	0,0109095201
2	0	0	0	1	11636,03	3,44719696	3,44764686	3,063747972870864	11	-0,0756717026	0,0105627207
2	0	0	1	1	11637,38	3,43369484	3,4341886	2,9712157988299738	11	-0,0715987161	0,0102037154
2	0	0	0	1	11638,73	3,42019296	3,42097044	2,8977775915215354	11	-0,0676283091	0,00991321169
2	0	0	1	1	11640,08	3,40669107	3,40726137	2,8238416208575146	11	-0,0637774095	0,00962156616
2	0	0	0	1	11641,43	3,39318943	3,3936727	2,7548941752562896	11	-0,0600054376	0,00934920926
2	0	0	1	1	11642,78	3,37968755	3,38025379	2,6877436563372624	11	-0,0563338362	0,00908525568
2	0	0	0	1	11644,13	3,36618567	3,36666536	2,6299580006549661	11	-0,0527432412	0,00885418896
2	0	0	1	1	11645,48	3,35268402	3,3530767	2,5791745806733814	11	-0,0492328741	0,00864817016
2	0	0	1	1	11646,83	3,33918214	3,33975887	2,5315432211749603	11	-0,045786351	0,00845474377
2	0	0	0	1	11648,18	3,32568026	3,32614946	2,5125988144427466	11	-0,0423773825	0,008357279
2	0	0	1	1	11649,53	3,31217813	3,31275105	2,473604869097464	11	-0,0390086025	0,00819443725
2	0	0	0	1	11650,88	3,29867625	3,29922271	2,3055255189538003	11	-0,0357672237	0,00760644209
2	0	0	1	1	11652,23	3,28517437	3,28562403	2,2180267162621021	11	-0,032708101	0,00728760194
2	0	0	0	1	11653,58	3,27167273	3,27209568	2,1775401545067651	11	-0,0297416393	0,00712511968
2	0	0	1	1	11654,93	3,25817084	3,25870681	2,1392264949778586	11	-0,0268288273	0,00697111199
2	0	0	0	1	11656,28	3,2446692	3,24514794	2,0902966621021334	11	-0,0239731539	0,00678332197
2	0	0	1	1	11657,63	3,23116732	3,23158932	2,0477611521879843	11	-0,0211793799	0,00661752326
2	0	0	0	1	11658,98	3,21766543	3,21827102	2,0036910232156445	11	-0,0184470732	0,0064484207
2	0	0	1	1	11660,33	3,20416331	3,20464206	1,9640099518001152	11	-0,0157694221	0,00629394874
2	0	0	0	1	11661,68	3,19066143	3,1910336	1,9289352303991693	11	-0,0131447138	0,00615529716
2	0	0	1	1	11663,03	3,17715955	3,17788529	1,8819962007303984	11	-0,0105723441	0,00598076824
2	0	0	0	1	11664,38	3,1636579	3,16389632	1,8411712199449504	11	-0,0080596311	0,00582527462
2	0	0	1	1	11665,73	3,15015483	3,15059757	1,7943379592672669	11	-0,0056050811	0,00565323699
2	0	0	1	1	11667,08	3,13665414	3,13721967	1,7421641722321475	11	-0,00321471621	0,00546555175
2	0	0	0	1	11668,43	3,12315249	3,12356067	1,6940041091293024	11	-0,000894743484	0,00529132457
2	0	0	1	1	11669,78	3,10965061	3,11015224	1,6652184172222989	11	0,00137234153	0,00517908297
2	0	0	0	1	11671,13	3,09614873	3,09666371	1,640240109836057	11	0,00359689211	0,0050792722
2	0	0	1	1	11672,48	3,08264685	3,08329535	1,6067825853824544	11	0,00578283751	0,00495418534
2	0	0	0	1	11673,84	3,0691452	3,06957603	1,5729047041386355	11	0,00793025829	0,00482815038
2	0	0	1	1	11675,19	3,05564308	3,0561378	1,5451343854268381	11	0,0100343088	0,00472214352
2	0	0	0	1	11676,54	3,04214144	3,04262924	1,5182751125345622	11	0,0121008595	0,0046195481
2	0	0	1	1	11677,89	3,02863955	3,02913094	1,4850558430577331	11	0,0141290529	0,00449842867
2	0	0	0	1	11679,24	3,01513767	3,01553178	1,452661247613527	11	0,0161140151	0,00438054604
2	0	0	1	1	11680,59	3,00163579	3,00211334	1,4245011595388224	11	0,0180616714	0,00427651405
2	0	0	0	1	11681,94	2,98813391	2,98865485	1,3965530572459083	11	0,0199663006	0,00417381525
2	0	0	1	1	11683,29	2,97463107	2,97513604	1,3750043793481942	11	0,021834109	0,0040908251
2	0	0	1	1	11684,64	2,96112943	2,9613266	1,3370048860822576	11	0,023665173	0,00395930791
2	0	0	0	1	11685,99	2,9476285	2,94806886	1,3132101716473662	11	0,0254536457	0,0038714339
2	0	0	1	1	11687,34	2,93412662	2,93473053	1,2825273200869542	11	0,0272070225	0,00376387197
2	0	0	0	1	11688,69	2,92062497	2,92092156	1,2522598529855387	11	0,028917579	0,00365775288
2	0	0	1	1	11690,04	2,90712285	2,9077034	1,223834958858788	11	0,0305880066	0,0035585491
2	0	0	0	1	11691,39	2,89362097	2,89415455	1,1926446376989261	11	0,0322214253	0,00345169799
2	0	0	1	1	11692,74	2,88011909	2,88060594	1,163976324101288	11	0,0338130817	0,00335295708
2	0	0	0	1	11694,09	2,8666172	2,86715746	1,1356791521733029	11	0,0353637114	0,00325617101
2	0	0	1	1	11695,44	2,85311532	2,85358858	1,1096295130749531	11	0,036878787	0,00316642621
2	0	0	0	1	11696,79	2,83961368	2,84008026	1,0783015225703512	11	0,0383539647	0,0030624629
2	0	0	1	1	11698,14	2,82611156	2,82660151	1,0516816635305712	11	0,0397895798	0,00297268503
2	0	0	0	1	11699,49	2,81260991	2,81308293	1,0201818061371669	11	0,0411876179	0,00286985608
2	0	0	1	1	11700,84	2,79910803	2,7995944	0,99238499253988262	11	0,0425469801	0,0027782754
2	0	0	1	1	11702,19	2,78560615	2,78628635	0,9625239139923351	11	0,043865148	0,00268186722
2	0	0	0	1	11703,54	2,77210426	2,77269721	0,93525345778713741	11	0,0451455042	0,00259317458
2	0	0	1	1	11704,89	2,75860238	2,7590785	0,9065255410969248	11	0,0463901423	0,00250117504
2	0	0	0	1	11706,24	2,7451005	2,74552011	0,87945572938770061	11	0,0475966036	0,00241456344
2	0	0	1	1	11707,59	2,73159885	2,73209143	0,84991513347873843	11	0,0487638004	0,00232204585
2	0	0	0	1	11708,94	2,71809697	2,718683	0,82597599861522573	11	0,049894888	0,00224556681
2	0	0	1	1	11710,29	2,70459509	2,70527434	0,79923143951842944	11	0,050991714	0,00216214033
2	0	0	0	1	11711,64	2,69109344	2,69151545	0,76880960057799898	11	0,0520505309	0,00206926302
2	0	0	1	1	11712,99	2,67759132	2,6781671	0,74046629061922304	11	0,0530690029	0,0019830924
2	0	0	0	1	11714,34	2,66408968	2,66458845	0,71380298988272922	11	0,0540506989	0,0019019912
2	0	0	1	1	11715,69	2,6505878	2,65096951	0,70212400533879654	11	0,0550120324	0,00186130928
2	0	0	0	1	11717,04	2,63708568	2,63768125	0,67084669026856499	11	0,0559392981	0,00176947971
2	0	0	1	1	11718,39	2,62358379	2,62424278	0,64069305748368243	11	0,0568243526	0,00168133411
2	0	0	0	1	11719,74	2,61008215	2,61062407	0,60897537010411366	11	0,0576669089	0,00158980582
2	0	0	1	1	11721,09	2,59657907	2,5971148	0,57509147656485606	11	0,0584688559	0,00149357854
2	0	0	1	1	11722,44	2,58307838	2,58368683	0,54320591005186227	11	0,0592224151	0,0014034739
2	0	0	0	1	11723,79	2,5695765	2,56994796	0,50784073583781542	11	0,0599317625	0,00130512426
2	0	0	1	1	11725,18	2,55567479	2,55625916	0,47233024581024986	11	0,0606120564	0,00120739848
2	0	0	0	1	11726,53	2,54217291	2,54257059	0,4363321837348231	11	0,0612248331	0,00110940542
2	0	0	1	1	11727,88	2,52867079	2,52919173	0,40270093254124026	11	0,0617908426	0,00101850787
2	0	0	0	1	11729,23	2,51516891	2,51566315	0,36206222356607488	11	0,062306717	0,000910826609
2	0	0	1	1	11730,58	2,50166726	2,50215459	0,32436578666480819	11	0,0627699494	0,000811613339
2	0	0	0	1	11731,93	2,48816538	2,48878646	0,28690270644923021	11	0,063182205	0,000714039546
2	0	0	1	1	11733,28	2,4746635	2,4750874	0,24758997838944109	11	0,0635424778	0,00061280682
2	0	0	0	1	11734,63	2,46116161	2,46169877	0,20755885968295206	11	0,0638493299	0,000510947371
2	0	0	1	1	11735,98	2,44765973	2,44809031	0,16605210874695286	11	0,0641012043	0,000406510546
2	0	0	0	1	11737,33	2,43415809	2,4344914	0,1228456359434249	11	0,0642961189	0,000299066654
2	0	0	1	1	11738,68	2,42065597	2,42099285	0,078248198078169075	11	0,0644316375	0,000189438331
2	0	0	0	1	11740,07	2,40675378	2,4073441	0,03064481002003072	11	0,0645072162	7,37726004E-005
2	0	0	0	1	11741,15	2,39595318	2,39638925	-0,0071681684348732237	11	0,0645197034	1,7177721E-005