File: Experimentelles/Rohdaten/Batterietests/AlteZelle/Studenten_Batterietests/Sonstige/ECLab-Export/S vs Li_02_CV_C02_loop8.mpt
EC-Lab ASCII FILE
Nb header lines : 3
mode	ox/red	error	control changes	counter inc.	time/s	control/V	Ewe/V	<I>/mA	cycle number	(Q-Qo)/C	P/W
2	0	0	1	0	9520,93	2,39515305	2,39550805	-0,004158166702836752	9	0	9,96092149E-006
2	0	0	0	0	9522,30	2,38145089	2,38182878	-0,059007087955251341	9	-4,32288507E-005	0,000140544784
2	0	0	1	0	9523,69	2,36754894	2,36794972	-0,11637961115532864	9	-0,00016526485	0,000275581056
2	0	0	0	0	9525,04	2,35404706	2,35465145	-0,17441771726589651	9	-0,000361662242	0,000410692941
2	0	0	1	0	9526,39	2,34054494	2,34118271	-0,23513236696211021	9	-0,00063818699	0,000550487835
2	0	0	0	0	9527,74	2,32704329	2,32752395	-0,29783174504215494	9	-0,000998162082	0,000693210517
2	0	0	1	0	9529,09	2,31354141	2,31404543	-0,36279815707045261	9	-0,00144420541	0,000839531422
2	0	0	0	0	9530,44	2,30003977	2,30049682	-0,43033953228344666	9	-0,00198035315	0,000989994733
2	0	0	1	0	9531,79	2,28653789	2,28708839	-0,4995509766352679	9	-0,00260922825	0,0011425172
2	0	0	0	0	9533,14	2,273036	2,27352977	-0,57218564534559936	9	-0,00333428988	0,00130088115
2	0	0	1	0	9534,49	2,25953412	2,26012111	-0,64694995790099162	9	-0,00415621977	0,00146218529
2	0	0	1	0	9535,84	2,24603128	2,24648142	-0,72172190952038835	9	-0,00508147385	0,00162133481
2	0	0	0	0	9537,19	2,23253036	2,23310399	-0,79793664564689062	9	-0,00610871194	0,0017818755
2	0	0	1	0	9538,54	2,21902847	2,2194953	-0,88058515265584346	9	-0,00724267401	0,0019544547
2	0	0	0	0	9539,89	2,20552659	2,20593643	-0,96265866793692467	9	-0,00848719943	0,00212356378
2	0	0	1	0	9541,27	2,19172478	2,19211745	-1,0398859716951846	9	-0,0098706549	0,00227955217
2	0	0	0	0	9542,62	2,17822289	2,17876935	-1,1180011220276302	9	-0,0113285007	0,00243586651
2	0	0	1	0	9543,97	2,16472101	2,16535068	-1,1993239205330629	9	-0,012894555	0,00259695691
2	0	0	0	0	9545,32	2,15121913	2,15168166	-1,2814619246249403	9	-0,0145708248	0,00275729806
2	0	0	1	0	9546,67	2,13771725	2,13825345	-1,3618553007642475	9	-0,0163523164	0,00291199191
2	0	0	0	0	9548,02	2,1242156	2,12478471	-1,4441057235623376	9	-0,0182465427	0,00306841382
2	0	0	1	0	9549,37	2,11071372	2,1110158	-1,5249384390190262	9	-0,0202515479	0,0032191691
2	0	0	0	0	9550,72	2,09721184	2,09764719	-1,6065936367958784	9	-0,0223665666	0,00337006664
2	0	0	1	0	9552,07	2,08371019	2,08410859	-1,7017217203974794	9	-0,0246000569	0,00354657276
2	0	0	0	0	9553,42	2,07020831	2,0708406	-1,7885432692617264	9	-0,0269542597	0,00370378792
2	0	0	1	0	9554,77	2,05670524	2,05717087	-1,8698820255039834	9	-0,0294221062	0,00384666678
2	0	0	1	0	9556,12	2,04320455	2,04382324	-1,9609797174731955	9	-0,0320097655	0,00400789594
2	0	0	0	0	9557,47	2,02970243	2,03020453	-2,0547414689014333	9	-0,0347209387	0,00417154562
2	0	0	1	0	9558,82	2,01620078	2,01673579	-2,1565294656902624	9	-0,0375660248	0,00434915023
2	0	0	0	0	9560,17	2,0026989	2,00325751	-2,2553943768143795	9	-0,0405508541	0,00451813592
2	0	0	1	0	9561,52	1,98919713	1,98974884	-2,3788001965731382	9	-0,0436761081	0,00473321509
2	0	0	0	0	9562,87	1,97569513	1,97614014	-2,4685316216200627	9	-0,0469464883	0,00487816427
2	0	0	1	0	9564,22	1,96219337	1,96266127	-2,5627317223697882	9	-0,0503424294	0,00502977427
2	0	0	0	0	9565,57	1,94869149	1,94905269	-2,6625294635693283	9	-0,0538759381	0,00518941041
2	0	0	1	0	9566,92	1,93518949	1,93584442	-2,7594499451418723	9	-0,0575416945	0,00534186559
2	0	0	0	0	9568,28	1,92168772	1,92229593	-2,8549816403538006	9	-0,0613324158	0,00548811955
2	0	0	1	0	9569,63	1,90818608	1,90868711	-2,9266075255970208	9	-0,0652345344	0,00558597827
2	0	0	0	0	9570,98	1,89468408	1,89510834	-3,0349814419945107	9	-0,0692687258	0,00575161865
2	0	0	1	0	9572,33	1,88118219	1,88172996	-3,112192814995847	9	-0,073415488	0,00585630629
2	0	0	1	0	9573,68	1,86768043	1,86832154	-3,1925552611549792	9	-0,077663511	0,00596471969
2	0	0	0	0	9575,03	1,85417867	1,85450256	-3,2798679706951078	9	-0,0820337608	0,00608252361
2	0	0	1	0	9576,38	1,84067667	1,84140444	-3,353906447688743	9	-0,086509943	0,00617589802
2	0	0	0	0	9577,73	1,82717478	1,82781565	-3,4260179027915142	9	-0,0910835117	0,00626212917
2	0	0	1	0	9579,08	1,81367302	1,81411684	-3,5140951015055251	9	-0,0957684815	0,00637497893
2	0	0	0	0	9580,43	1,80017126	1,80088878	-3,5922039287785734	9	-0,100560002	0,00646915985
2	0	0	1	0	9581,78	1,78666925	1,78722978	-3,6775625584026131	9	-0,105468988	0,00657264935
2	0	0	0	0	9583,13	1,77316737	1,77363098	-3,7353087998926566	9	-0,110476889	0,00662505953
2	0	0	1	0	9584,48	1,75966561	1,76015246	-3,807532011220857	9	-0,115574107	0,00670183683
2	0	0	0	0	9585,83	1,74616361	1,74670386	-3,8804074848691667	9	-0,120767035	0,00677792262
2	0	0	1	0	9587,18	1,73266184	1,7333256	-3,9363321475684717	9	-0,12603952	0,00682294508
2	0	0	0	0	9588,53	1,71915996	1,71974671	-3,9979375501473696	9	-0,13139993	0,00687544001
2	0	0	1	0	9589,88	1,7056582	1,70627832	-4,0697488784789952	9	-0,136850476	0,00694412412
2	0	0	0	0	9591,23	1,6921562	1,6924994	-4,1248711567123738	9	-0,142385364	0,0069813421
2	0	0	0	0	9592,58	1,67865455	1,67899048	-4,1674570851028038	9	-0,147992477	0,00699712057
2	0	0	1	0	9593,93	1,66515255	1,66568244	-4,2234387211501562	9	-0,153670117	0,00703490758
2	0	0	0	0	9595,28	1,65165079	1,65200341	-4,2696119671066694	9	-0,159415692	0,00705341343
2	0	0	1	0	9596,63	1,6381489	1,63849497	-4,3034892814854758	9	-0,165191576	0,00705124531
2	0	0	0	0	9597,98	1,62464714	1,62514651	-4,360682874917984	9	-0,171050817	0,00708674872
2	0	0	1	0	9599,33	1,61114514	1,61176801	-4,4221640626589574	9	-0,176982611	0,00712750247
2	0	0	0	0	9600,68	1,59764338	1,59810925	-4,4803941994905613	9	-0,182995275	0,00716015929
2	0	0	1	0	9602,03	1,58414149	1,58479083	-4,5351419101158752	9	-0,18908973	0,00718725147
2	0	0	0	0	9603,38	1,57063973	1,571172	-4,5865968354046342	9	-0,195240334	0,0072063324
2	0	0	1	0	9604,73	1,55713773	1,55765367	-4,6424766567846234	9	-0,201467276	0,00723137101
2	0	0	0	0	9606,08	1,54363608	1,54404497	-4,759358100593104	9	-0,207816735	0,00734866317
2	0	0	1	0	9607,43	1,5301342	1,53072643	-4,8180564120412013	9	-0,214292169	0,00737512624
2	0	0	0	0	9608,78	1,51663232	1,5170877	-4,8673895883063597	9	-0,22083877	0,00738425693
2	0	0	0	0	9610,13	1,50313032	1,50372934	-4,9334392423430976	9	-0,227457583	0,00741855754
2	0	0	1	0	9611,48	1,48962867	1,49016058	-4,9965227742990093	9	-0,234171167	0,0074456213
2	0	0	0	0	9612,83	1,47612679	1,47663176	-5,0335254259407558	9	-0,240955994	0,00743266335
2	0	0	1	0	9614,18	1,46262479	1,46315336	-5,0858796536922458	9	-0,247792274	0,00744142197
2	0	0	0	0	9615,53	1,44912302	1,44978499	-5,1358108085890387	9	-0,254691988	0,00744582154
2	0	0	1	0	9616,88	1,43562126	1,43605602	-5,2076272790630771	9	-0,261660725	0,00747844437
2	0	0	0	0	9618,23	1,42211938	1,42262769	-5,269872043281808	9	-0,268724948	0,0074970657
2	0	0	1	0	9619,58	1,40861738	1,40895867	-5,3135200825830394	9	-0,275868475	0,00748653011
2	0	0	0	0	9620,93	1,39511561	1,39561033	-5,3623030794163501	9	-0,283078521	0,00748368539
2	0	0	1	0	9622,28	1,38161385	1,38210166	-5,4034820596377242	9	-0,290348738	0,00746816164
2	0	0	0	0	9623,63	1,36811197	1,36834288	-5,4677944555878854	9	-0,297694296	0,00748181762
2	0	0	1	0	9624,98	1,35460997	1,3552047	-5,5213966319958387	9	-0,305113554	0,00748262275
2	0	0	0	0	9626,33	1,3411082	1,34154582	-5,5626450305183821	9	-0,312603235	0,00746254297
2	0	0	0	0	9627,68	1,32760727	1,3280772	-5,6042051208236774	9	-0,320144862	0,00744281709
2	0	0	1	0	9629,03	1,31410456	1,31463873	-5,6801753689845357	9	-0,32775861	0,0074673784
2	0	0	0	0	9630,38	1,30060267	1,30105019	-5,7121153200666195	9	-0,335450053	0,00743174879
2	0	0	1	0	9631,73	1,28710079	1,28741133	-5,7007251704732627	9	-0,343147874	0,00733917812
2	0	0	0	0	9633,08	1,27359903	1,27418303	-5,7433772372702874	9	-0,350862324	0,00731811393
2	0	0	1	0	9634,43	1,26009715	1,26084459	-5,7603220952053856	9	-0,358628809	0,00726287114
2	0	0	0	0	9635,78	1,24659526	1,24722588	-5,7868953881164493	9	-0,366412342	0,00721756555
2	0	0	1	0	9637,13	1,23309338	1,23343694	-5,8465174448986867	9	-0,37425223	0,00721131079
2	0	0	0	0	9638,48	1,21959162	1,22021866	-5,8439487045010022	9	-0,382137597	0,00713089528
2	0	0	1	0	9639,83	1,20608974	1,20664012	-5,8818916206558502	9	-0,390050739	0,00709732622
2	0	0	0	0	9641,19	1,19258785	1,19325149	-5,8997178301215296	9	-0,398017198	0,00703984732
2	0	0	1	0	9642,54	1,17908597	1,17965281	-5,9352251427869043	9	-0,406013697	0,00700150523
2	0	0	0	0	9643,89	1,16558409	1,16623437	-5,980776954442263	9	-0,414070159	0,00697498769
2	0	0	1	0	9645,24	1,15208232	1,15275586	-5,9613297854860582	9	-0,422127366	0,0068719578
2	0	0	1	0	9646,59	1,13858187	1,1390177	-6,0110200311601434	9	-0,430204004	0,00684665842
2	0	0	0	0	9647,94	1,12507856	1,12572861	-6,0172532697518758	9	-0,438333958	0,00677379407
2	0	0	1	0	9649,29	1,1115768	1,11206973	-6,0560159782568742	9	-0,446489483	0,00673471205
2	0	0	0	0	9650,64	1,09807503	1,09869123	-6,0953279261787686	9	-0,45470494	0,00669688312
2	0	0	1	0	9651,99	1,08457303	1,08504248	-6,0972711220383642	9	-0,462970853	0,00661579799
2	0	0	0	0	9653,34	1,07107115	1,07181418	-6,1171400013069504	9	-0,471216768	0,00655643735
2	0	0	1	0	9654,69	1,05756938	1,05817544	-6,153394651909664	9	-0,479500532	0,00651137112
2	0	0	0	0	9656,04	1,0440675	1,0445466	-6,2495106011629248	9	-0,487828434	0,00652790489
2	0	0	1	0	9657,39	1,03056562	1,0311482	-6,303228586912183	9	-0,496359378	0,00649956288
2	0	0	0	0	9658,74	1,01706386	1,01765966	-6,2971928392847475	9	-0,504862845	0,00640839897
2	0	0	1	0	9660,09	1,00356197	1,00422108	-6,3313483074307507	9	-0,513386786	0,00635807356
2	0	0	0	0	9661,44	0,99006021	0,990482211	-6,3586543425917773	9	-0,521947443	0,0062981341
2	0	0	1	0	9662,79	0,976558268	0,977013707	-6,4092840651671142	9	-0,530569732	0,00626195827
2	0	0	0	0	9664,14	0,963056505	0,963735342	-6,4189094031850406	9	-0,539231181	0,00618612999
2	0	0	0	0	9665,49	0,949553847	0,950096428	-6,4698876012834893	9	-0,547948062	0,00614701724
2	0	0	1	0	9666,84	0,936052799	0,936517835	-6,5264050314823834	9	-0,556714714	0,0061120945
2	0	0	0	0	9668,19	0,922550857	0,923059285	-6,5202070275942605	9	-0,565533161	0,00601853756
2	0	0	1	0	9669,54	0,909049153	0,909370422	-6,5681282281875546	9	-0,574377537	0,00597286131
2	0	0	0	0	9670,89	0,895547211	0,89610225	-6,6034518505136077	9	-0,583278835	0,00591736799
2	0	0	1	0	9672,24	0,882045448	0,88250345	-6,6164391512671731	9	-0,592210352	0,00583903026
2	0	0	0	0	9673,59	0,868543506	0,869034946	-6,6354484930634496	9	-0,601164341	0,00576643646
2	0	0	1	0	9674,94	0,855041742	0,855506301	-6,7309333508213594	9	-0,610191822	0,00575835584
2	0	0	0	0	9676,29	0,8415398	0,842047632	-6,7243560453255923	9	-0,619276464	0,00566222798
2	0	0	1	0	9677,64	0,828038037	0,828489006	-6,740265220403671	9	-0,628368735	0,00558423577
2	0	0	0	0	9678,99	0,814536095	0,814910293	-6,8213847056031514	9	-0,637545824	0,00555881672
2	0	0	1	0	9680,34	0,801034272	0,801341593	-6,8408740411202304	9	-0,646768749	0,0054818769
2	0	0	0	0	9681,69	0,787532389	0,787923157	-6,9361173734068877	9	-0,65609026	0,00546512753
2	0	0	1	0	9683,04	0,774030566	0,774374545	-6,9714704478780403	9	-0,665503204	0,00539852912
2	0	0	1	0	9684,39	0,760528684	0,760865927	-6,9990481709440717	9	-0,674926221	0,00532533741
2	0	0	0	0	9685,74	0,74702692	0,747517526	-7,0298681085308237	9	-0,684402406	0,00525494944
2	0	0	1	0	9687,09	0,733524978	0,733898759	-7,0706681733330227	9	-0,693905354	0,00518915476
2	0	0	0	0	9688,44	0,720023155	0,720520318	-7,0941202864050726	9	-0,703484178	0,00511145778
2	0	0	1	0	9689,79	0,706521273	0,706911564	-7,1284164016445568	9	-0,713082314	0,00503916014
2	0	0	0	0	9691,14	0,69301945	0,693533182	-7,1591889734069696	9	-0,722725511	0,0049651349
2	0	0	1	0	9692,49	0,679517627	0,679974496	-7,1711364562312742	9	-0,732372403	0,00487618987
2	0	0	0	0	9693,84	0,666015744	0,666475892	-7,2518041729927066	9	-0,742101729	0,00483315252
2	0	0	1	0	9695,19	0,652513921	0,653017342	-7,2643184587359539	9	-0,751894176	0,00474372599
2	0	0	0	0	9696,54	0,639012039	0,639769077	-7,2709196284413197	9	-0,761713445	0,00465170946
2	0	0	1	0	9697,89	0,625510216	0,625950098	-7,3006629571318656	9	-0,771570683	0,00456985086
2	0	0	0	0	9699,24	0,612008333	0,612521589	-7,3482230106989734	9	-0,781464517	0,0045009451
2	0	0	1	0	9700,59	0,59850651	0,599083006	-7,3716247553626739	9	-0,791398942	0,00441621523
2	0	0	1	0	9701,94	0,585004628	0,585404217	-7,4010079776247437	9	-0,801363707	0,00433258107
2	0	0	0	0	9703,29	0,571502805	0,572115898	-7,4057393372058867	9	-0,811359346	0,00423694123
2	0	0	1	0	9704,64	0,558000922	0,5583269	-7,4202702219287462	9	-0,821378767	0,00414293632
2	0	0	0	0	9705,99	0,54449904	0,544888377	-7,4709438011050227	9	-0,831437349	0,00407083053
2	0	0	1	0	9707,34	0,530997217	0,531469882	-7,522147215902816	9	-0,841549754	0,00399779482
2	0	0	0	0	9708,69	0,517495394	0,518061399	-7,5326235070824627	9	-0,851716638	0,0039023615
2	0	0	1	0	9710,04	0,503993571	0,504592896	-7,5613348409533504	9	-0,861890674	0,00381539576
2	1	0	0	0	9711,33	0,508794248	0,50913918	-7,449219497541591	9	-0,871520281	0,00379268941
2	1	0	1	0	9712,68	0,522296011	0,522617698	-7,3045660356680742	9	-0,881475806	0,00381749542
2	1	0	0	0	9714,03	0,535797954	0,536276519	-7,1731501097480678	9	-0,891251683	0,00384679204
2	1	0	1	0	9715,38	0,549299717	0,549805164	-7,0590493281682291	9	-0,900851727	0,00388110173
2	1	0	0	0	9716,73	0,5628016	0,563163579	-6,9122389207283699	9	-0,910264611	0,00389272114
2	1	0	1	0	9718,08	0,576303422	0,576732218	-6,7790511151154931	9	-0,919509768	0,00390969729
2	1	0	0	0	9719,43	0,589805305	0,590421081	-6,6470793982347021	9	-0,928568125	0,00392457563
2	1	0	1	0	9720,78	0,603307128	0,603619277	-6,5709273293614387	9	-0,937484205	0,00396633847
2	1	0	0	0	9722,13	0,616809011	0,617338181	-6,4412946179509235	9	-0,946266651	0,00397645729
2	1	0	1	0	9723,48	0,630310833	0,630636513	-6,3261978651086541	9	-0,954886973	0,00398953119
2	1	0	0	0	9724,83	0,643812716	0,644295335	-6,2542566284537382	9	-0,963385999	0,00402958831
2	1	0	0	0	9726,18	0,657314539	0,657833993	-6,1696920829514739	9	-0,971764565	0,004058633
2	1	0	1	0	9727,53	0,670816422	0,671352565	-6,0829047982891354	9	-0,980026245	0,00408377359
2	1	0	0	0	9728,88	0,684318244	0,684660912	-5,9865407918890342	9	-0,988183498	0,00409875065
2	1	0	1	0	9730,23	0,697820067	0,698489964	-5,912549525499351	9	-0,996216774	0,00412985636
2	1	0	0	0	9731,58	0,71132195	0,711678147	-5,8052830112477171	9	-1,00412893	0,00413149316
2	1	0	1	0	9732,93	0,724823773	0,725326955	-5,7339946428934778	9	-1,01190543	0,00415902073
2	1	0	0	0	9734,28	0,738325715	0,73910594	-5,6359819297989235	9	-1,01958168	0,00416558795
2	1	0	1	0	9735,63	0,751827538	0,752294123	-5,5681198748449677	9	-1,02714598	0,00418886403
2	1	0	0	0	9736,98	0,765329361	0,765792727	-5,4667300718526131	9	-1,0345912	0,00418638205
2	1	0	1	0	9738,33	0,778831244	0,779401422	-5,4049250123401581	9	-1,0419389	0,00421260623
2	1	0	0	0	9739,68	0,792333007	0,792819858	-5,3241845058898176	9	-1,04918253	0,00422111899
2	1	0	1	0	9741,03	0,805834949	0,806368589	-5,2518957431117741	9	-1,05632114	0,00423496356
2	1	0	0	0	9742,38	0,819336712	0,819656849	-5,166327847788736	9	-1,06334758	0,00423461618
2	1	0	0	0	9743,73	0,83283782	0,833295166	-5,1005932476113286	9	-1,07028341	0,00425029965
2	1	0	1	0	9745,08	0,846340358	0,846874416	-5,0361904179056582	9	-1,07712805	0,0042650206
2	1	0	0	0	9746,43	0,8598423	0,860282838	-4,9294246969123706	9	-1,08387148	0,00424069958
2	1	0	1	0	9747,78	0,873344064	0,873541176	-4,8646950932840538	9	-1,09049058	0,00424951129
2	1	0	0	0	9749,13	0,886846006	0,887350142	-4,7771865266064992	9	-1,0970037	0,00423903717
2	1	0	1	0	9750,48	0,900347769	0,900948882	-4,6816196491320934	9	-1,10341299	0,00421789987
2	1	0	0	0	9751,83	0,913849711	0,914387405	-4,6172756018737926	9	-1,10968828	0,0042219786
2	1	0	1	0	9753,18	0,927351594	0,927976012	-4,5472498039404544	9	-1,1158787	0,00421973877
2	1	0	0	0	9754,53	0,940853417	0,941274464	-4,4538602990408832	9	-1,12196779	0,0041923048
2	1	0	1	0	9755,88	0,954355299	0,954823077	-4,4049978430072531	9	-1,12794697	0,00420599338
2	1	0	0	0	9757,23	0,967857122	0,968351722	-4,3283276098469907	9	-1,1338377	0,00419134367
2	1	0	1	0	9758,58	0,981359065	0,981980562	-4,266933960219223	9	-1,13963687	0,00419004634
2	1	0	0	0	9759,93	0,994860828	0,995308876	-4,1876918648680006	9	-1,1453464	0,0041680471
2	1	0	1	0	9761,28	1,00836277	1,00902784	-4,1033744538823776	9	-1,15093935	0,00414041895
2	1	0	0	0	9762,63	1,0218637	1,02227628	-4,0368916363980531	9	-1,15644634	0,00412681838
2	1	0	0	0	9763,98	1,0353663	1,03578472	-3,9666266391674586	9	-1,16184211	0,00410857145
2	1	0	1	0	9765,33	1,04886818	1,04942334	-3,9089971346159872	9	-1,16715097	0,00410219282
2	1	0	0	0	9766,68	1,06237018	1,06308234	-3,8379348516464378	9	-1,17237556	0,00408004085
2	1	0	1	0	9768,03	1,07587183	1,07627034	-3,7751249435047354	9	-1,17750776	0,00406305492
2	1	0	0	0	9769,38	1,08937359	1,08992922	-3,7008286366860051	9	-1,18255413	0,00403364142
2	1	0	1	0	9770,73	1,10287559	1,10346794	-3,6229194154342042	9	-1,18750417	0,00399777526
2	1	0	0	0	9772,08	1,11637747	1,1169064	-3,5528293835620205	9	-1,19234538	0,00396817783
2	1	0	1	0	9773,43	1,12987924	1,13047504	-3,505916390568025	9	-1,19711149	0,00396335078
2	1	0	0	0	9774,78	1,143381	1,14390349	-3,4559765855471411	9	-1,20180607	0,00395330368
2	1	0	1	0	9776,13	1,156883	1,15762258	-3,3882118662198477	9	-1,20642495	0,00392227061
2	1	0	0	0	9777,48	1,17038488	1,17077053	-3,3271495923399923	9	-1,2109592	0,00389532861
2	1	0	1	0	9778,83	1,18388653	1,18445957	-3,2704426373044698	9	-1,21541429	0,00387370703
2	1	0	0	0	9780,18	1,19738853	1,19785786	-3,2191108961900173	9	-1,21980631	0,00385603728
2	1	0	0	0	9781,53	1,21089041	1,21159685	-3,1621037734051642	9	-1,22411335	0,00383119495
2	1	0	1	0	9782,88	1,22439229	1,22509539	-3,0912349447608013	9	-1,22833467	0,00378705771
2	1	0	0	0	9784,24	1,23789394	1,23846376	-3,0319130426893696	9	-1,23246908	0,00375491451
2	1	0	1	0	9785,59	1,25139594	1,25195253	-2,9743889936556442	9	-1,23652804	0,0037237939
2	1	0	0	0	9786,94	1,26489782	1,26555109	-2,9213506566981523	9	-1,24050605	0,00369711849
2	1	0	1	0	9788,29	1,27839971	1,27886951	-2,8660998549312442	9	-1,2444154	0,00366536761
2	1	0	0	0	9789,64	1,29190147	1,29236817	-2,8085198315481376	9	-1,24824679	0,00362964161
2	1	0	1	0	9790,99	1,30540335	1,30580676	-2,7465383658806496	9	-1,2519995	0,00358644826
2	1	0	0	0	9792,34	1,31890512	1,31934524	-2,6839677946021184	9	-1,2556721	0,00354108005
2	1	0	1	0	9793,69	1,33240712	1,33283377	-2,6347293456395526	9	-1,25925767	0,00351165631
2	1	0	0	0	9795,04	1,34590888	1,34642255	-2,5786175653338422	9	-1,26278532	0,00347190886
2	1	0	1	0	9796,39	1,35941076	1,35974085	-2,5206542598704509	9	-1,26622987	0,00342743658
2	1	0	0	0	9797,74	1,37291253	1,37339985	-2,4715319033712186	9	-1,26959825	0,00339440163
2	1	0	1	0	9799,09	1,38641441	1,38693833	-2,419215494145945	9	-1,27290142	0,00335530262
2	1	0	1	0	9800,44	1,39991629	1,40055716	-2,3528999841461555	9	-1,27612865	0,00329537084
2	1	0	0	0	9801,79	1,41341805	1,4141258	-2,3069170980403869	9	-1,2792753	0,00326227094
2	1	0	1	0	9803,14	1,42692006	1,42729402	-2,262618009621903	9	-1,28235757	0,0032294211
2	1	0	0	0	9804,49	1,44042182	1,44101286	-2,2072817385196829	9	-1,28537226	0,00318072131
2	1	0	1	0	9805,84	1,4539237	1,45441127	-2,1634439919143952	9	-1,28832388	0,00314653735
2	1	0	0	0	9807,19	1,46742547	1,46782994	-2,107040423899889	9	-1,2912035	0,00309277698
2	1	0	1	0	9808,54	1,48092747	1,48159873	-2,0576672516763219	9	-1,29401255	0,00304863718
2	1	0	0	0	9809,89	1,49442935	1,49483705	-2,0011961311101894	9	-1,29674876	0,00299146213
2	1	0	1	0	9811,24	1,50793099	1,50835562	-1,9505426778147648	9	-1,2994163	0,00294211204
2	1	0	0	0	9812,59	1,52143288	1,52196455	-1,9030549967040643	9	-1,30201304	0,00289638224
2	1	0	1	0	9813,94	1,53493488	1,53528273	-1,8494747156898227	9	-1,304546	0,00283946656
2	1	0	0	0	9815,29	1,54843664	1,54908168	-1,7981160500397309	9	-1,30701292	0,00278542866
2	1	0	1	0	9816,64	1,56193841	1,56246018	-1,7527502359201498	9	-1,30940962	0,00273860246
2	1	0	1	0	9817,99	1,57544029	1,57582843	-1,7054225821048022	9	-1,31174207	0,00268745329
2	1	0	0	0	9819,34	1,58894229	1,58939731	-1,653235880037151	9	-1,31400919	0,00262764865
2	1	0	1	0	9820,69	1,60244405	1,60307598	-1,605775487298767	9	-1,31620681	0,00257418002
2	1	0	0	0	9822,04	1,6159457	1,61646473	-1,5601798389106989	9	-1,31834173	0,00252197566
2	1	0	1	0	9823,39	1,6294477	1,62998307	-1,5028003618742058	9	-1,3204087	0,00244953926
2	1	0	0	0	9824,74	1,64294958	1,643682	-1,4564842730760573	9	-1,32240748	0,00239399704
2	1	0	1	0	9826,09	1,65645134	1,6569804	-1,4080685451626795	9	-1,32433724	0,00233314186
2	1	0	0	0	9827,44	1,66995311	1,67033875	-1,3613722423712434	9	-1,32620537	0,00227395282
2	1	0	1	0	9828,79	1,68345511	1,68399763	-1,3150207077463438	9	-1,32800925	0,00221449183
2	1	0	0	0	9830,14	1,69695699	1,69737589	-1,2662617126479763	9	-1,32975113	0,00214932207
2	1	0	1	0	9831,49	1,71045876	1,71091473	-1,2170243104919792	9	-1,33142555	0,00208222494
2	1	0	0	0	9832,84	1,72396076	1,72445321	-1,1673946560670902	9	-1,3330344	0,00201311754
2	1	0	1	0	9834,19	1,73746252	1,73800206	-1,1228514940788374	9	-1,33458245	0,00195151824
2	1	0	0	0	9835,54	1,7509644	1,75145042	-1,0762013966838566	9	-1,33606744	0,00188491342
2	1	0	0	0	9836,89	1,76446617	1,7648989	-1,0324960018818582	9	-1,33749139	0,00182225101
2	1	0	1	0	9838,24	1,77796817	1,77863789	-0,9866507456948384	9	-1,33885336	0,00175489439
2	1	0	0	0	9839,59	1,79146993	1,79197633	-0,94238446963330342	9	-1,34015262	0,00168873067
2	1	0	1	0	9840,94	1,80497181	1,80531478	-0,89363546886791846	9	-1,34139097	0,00161329331
2	1	0	0	0	9842,29	1,81847358	1,81898355	-0,8519437083353623	9	-1,34256959	0,00154967164
2	1	0	1	0	9843,64	1,83197558	1,83250213	-0,80369006221493146	9	-1,34368622	0,00147276372
2	1	0	0	0	9844,99	1,84547722	1,84615076	-0,76021092260877504	9	-1,34474063	0,001403464
2	1	0	1	0	9846,34	1,85897923	1,85954952	-0,71813527882720333	9	-1,34573722	0,00133540807
2	1	0	0	0	9847,69	1,87248099	1,87309802	-0,67218234203755853	9	-1,34667456	0,00125906337
2	1	0	1	0	9849,04	1,88598287	1,8866967	-0,63246077299117914	9	-1,34755695	0,00119326171
2	1	0	0	0	9850,39	1,89948463	1,89983487	-0,58741768170148314	9	-1,34838033	0,00111599662
2	1	0	1	0	9851,74	1,91298664	1,91356361	-0,54798888477186394	9	-1,34914577	0,00104861159
2	1	0	0	0	9853,09	1,9264884	1,92711258	-0,50172818358987661	9	-1,34985471	0,000966886699
2	1	0	0	0	9854,48	1,94038963	1,94099092	-0,45925010331926509	9	-1,35052264	0,000891400268
2	1	0	1	0	9855,83	1,95389211	1,95437014	-0,41961513459682643	9	-1,35111499	0,000820083311
2	1	0	0	0	9857,19	1,96739388	1,96783853	-0,3779480402978761	9	-1,35165322	0,000743740704
2	1	0	1	0	9858,54	1,98089588	1,98139727	-0,33709470407726893	9	-1,35213494	0,000667918532
2	1	0	0	0	9859,89	1,99439776	1,99506593	-0,2956374773445223	9	-1,35256159	0,000589816249
2	1	0	1	0	9861,24	2,00789952	2,00846434	-0,25429228530265478	9	-1,35293341	0,000510737009
2	1	0	0	0	9862,59	2,02140117	2,02203321	-0,21469516369203757	9	-1,35324967	0,000434120739
2	1	0	1	0	9863,94	2,03490329	2,03537154	-0,17246156651526778	9	-1,3535105	0,000351023366
2	1	0	0	0	9865,29	2,04840517	2,04890013	-0,13206334532393805	9	-1,3537153	0,000270584598
2	1	0	1	0	9866,64	2,06190705	2,06243896	-0,093700577873581325	9	-1,35386682	0,000193251719
2	1	0	0	0	9867,99	2,07540894	2,07604766	-0,054249702176700109	9	-1,35396588	0,00011262497
2	1	0	1	0	9869,38	2,08931088	2,08986664	-0,014255973777229315	9	-1,3540132	2,97930837E-005
2	1	0	0	0	9870,81	2,10361266	2,10397625	0,025623558030929427	9	-1,35400462	5,39113571E-005
2	1	0	1	0	9872,16	2,11711431	2,11758471	0,064294658892322381	9	-1,35394359	0,000136149392
2	1	0	0	0	9873,55	2,13101649	2,13142395	0,10266984677097435	9	-1,3538276	0,000218832967
2	1	0	1	0	9874,90	2,14451814	2,14491272	0,14075335705031989	9	-1,35366297	0,000301903667
2	1	0	1	0	9876,25	2,15801907	2,15849996	0,1779415182139641	9	-1,35344744	0,000384086772
2	1	0	0	0	9877,60	2,17152214	2,17204976	0,21699033436986291	9	-1,35318065	0,000471313804
2	1	0	1	0	9878,95	2,18502402	2,18551826	0,25405441682475248	9	-1,35286224	0,000555240549
2	1	0	0	0	9880,30	2,19852567	2,19895697	0,29173874358336115	9	-1,35249329	0,00064152095
2	1	0	1	0	9881,65	2,21202755	2,2126658	0,33140579680912109	9	-1,35207224	0,000733290275
2	1	0	0	0	9883,00	2,22552919	2,22608447	0,3694503232060615	9	-1,35159814	0,000822427624
2	1	0	1	0	9884,35	2,23903131	2,23940253	0,40416287537664	9	-1,35107553	0,000905083376
2	1	0	0	0	9885,70	2,2525332	2,25299168	0,44649176765233101	9	-1,35050166	0,00100594223
2	1	0	1	0	9887,05	2,26603484	2,26648998	0,48320447405179226	9	-1,34987414	0,00109517807
2	1	0	0	0	9888,40	2,27953696	2,27989841	0,52105211823557606	9	-1,34919536	0,00118794595
2	1	0	1	0	9889,75	2,29303885	2,29355717	0,5589106129482375	9	-1,34846497	0,00128189346
2	1	0	0	0	9891,10	2,30654073	2,30686545	0,59500809836511693	9	-1,34768617	0,00137260358
2	1	0	1	0	9892,45	2,32004261	2,32043433	0,63154272207369293	9	-1,34685898	0,00146545342
2	1	0	0	0	9893,80	2,33354402	2,33407331	0,67136180565381978	9	-1,34597933	0,00156700762
2	1	0	0	0	9895,15	2,34704614	2,34761167	0,71470677526667597	9	-1,34504366	0,00167785399
2	1	0	1	0	9896,50	2,36054802	2,36106014	0,75149978091940198	9	-1,34405243	0,00177433621
2	1	0	0	0	9897,85	2,37404966	2,37460899	0,78990932802359386	9	-1,34301329	0,00187572581
2	1	0	1	0	9899,20	2,38755155	2,38805747	0,82801043707877197	9	-1,34191954	0,00197733659
2	1	0	0	0	9900,55	2,40105367	2,40168643	0,86273863725363853	9	-1,34077871	0,00207202765
2	1	0	1	0	9901,90	2,41455555	2,41512465	0,89940842147916198	9	-1,33958924	0,00217218348
2	1	0	0	0	9903,25	2,42805719	2,4288435	0,9392431229352951	9	-1,3383435	0,00228127465
2	1	0	1	0	9904,60	2,44155884	2,44216204	0,97683439652124979	9	-1,33704627	0,0023855879
2	1	0	0	0	9905,99	2,45546103	2,4560411	1,0217699604108859	9	-1,33565426	0,00250950898
2	1	0	1	0	9907,34	2,46896291	2,46923947	1,0617668187866549	9	-1,33424771	0,00262175663
2	1	0	0	0	9908,69	2,48246455	2,482898	1,1025092306857278	9	-1,33278573	0,00273741805
2	1	0	1	0	9910,04	2,49596643	2,49652696	1,1494773843636086	9	-1,33126318	0,00286970125
2	1	0	0	0	9911,39	2,50946856	2,5100956	1,1890712939202792	9	-1,32968473	0,00298468256
2	1	0	1	0	9912,74	2,52297091	2,52365565	1,235987396742015	9	-1,32804513	0,00311920652
2	1	0	1	0	9914,09	2,5364728	2,53703332	1,2763623440789544	9	-1,3263495	0,0032381739
2	1	0	0	0	9915,44	2,54997373	2,55050135	1,3072655635575394	9	-1,32460284	0,00333418255
2	1	0	1	0	9916,79	2,56347561	2,56404018	1,3483850068102221	9	-1,32280922	0,0034573134
2	1	0	0	0	9918,14	2,57697773	2,57753873	1,394646906604363	9	-1,32095754	0,00359475636
2	1	0	1	0	9919,49	2,59047937	2,59091687	1,4411921467011152	9	-1,31904292	0,00373400911
2	1	0	0	0	9920,84	2,60398126	2,60467577	1,4755840736130886	9	-1,31706607	0,00384341809
2	1	0	1	0	9922,19	2,61748338	2,61789393	1,523538361303504	9	-1,31504273	0,00398846203
2	1	0	0	0	9923,54	2,63098502	2,63153291	1,560597701308623	9	-1,31295609	0,00410676422
2	1	0	1	0	9924,89	2,6444869	2,64504147	1,6027145689974275	9	-1,31082284	0,00423924671
2	1	0	0	0	9926,24	2,65798903	2,65854001	1,6475515291094762	9	-1,30862665	0,00438008178
2	1	0	1	0	9927,59	2,67149043	2,67199874	1,6813496674100534	9	-1,30637717	0,00449256413
2	1	0	0	0	9928,95	2,68499231	2,68544722	1,7279497993489059	9	-1,30407619	0,00464031799
2	1	0	1	0	9930,30	2,6984942	2,69885564	1,7768642560889312	9	-1,30171049	0,00479550008
2	1	0	1	0	9931,65	2,71199584	2,71255398	1,8255391696570557	9	-1,29928184	0,00495187333
2	1	0	0	0	9933,00	2,72549796	2,72599292	1,8756746482104064	9	-1,29678416	0,00511307595
2	1	0	1	0	9934,35	2,73899984	2,73947144	1,9256378176311645	9	-1,29422235	0,00527522992
2	1	0	0	0	9935,70	2,75250173	2,75318074	1,9718028989930899	9	-1,29159737	0,00542872958
2	1	0	1	0	9937,05	2,76600361	2,7664988	2,0231528710573875	9	-1,28890288	0,00559704984
2	1	0	0	0	9938,40	2,77950525	2,78012753	2,0731284338980912	9	-1,28613377	0,00576356146
2	1	0	1	0	9939,75	2,79300714	2,7935462	2,1198158214489667	9	-1,28330553	0,00592180341
2	1	0	0	0	9941,10	2,80650902	2,80715489	2,1846176745990816	9	-1,28040326	0,00613256032
2	1	0	1	0	9942,45	2,8200109	2,82067347	2,2232012773553488	9	-1,27742493	0,00627092505
2	1	0	0	0	9943,80	2,83351278	2,83386183	2,2772096724559888	9	-1,27438486	0,00645329757
2	1	0	1	0	9945,15	2,84701467	2,84746027	2,3270520952840653	9	-1,27127874	0,00662618829
2	1	0	0	0	9946,50	2,86051655	2,860919	2,3839496715615168	9	-1,26810169	0,00682028709
2	1	0	1	0	9947,85	2,87401843	2,87480831	2,4411490745842387	9	-1,26485145	0,00701783551
2	1	0	1	0	9949,20	2,88751984	2,88795686	2,4878419910590566	9	-1,26152229	0,0071847802
2	1	0	0	0	9950,55	2,90102148	2,90133405	2,5333785637586886	9	-1,2581327	0,0073501775
2	1	0	1	0	9951,90	2,91452384	2,91510344	2,5721271826575178	9	-1,25469196	0,00749801658
2	1	0	0	0	9953,25	2,92802572	2,92860222	2,6187390591949296	9	-1,25117624	0,00766924489
2	1	0	1	0	9954,60	2,94152761	2,94197059	2,6686229649931136	9	-1,24761319	0,00785101019
2	1	0	0	0	9955,95	2,95502949	2,95565963	2,7094974300513696	9	-1,24398088	0,00800835248
2	1	0	1	0	9957,30	2,96853137	2,96914792	2,7594795736173622	9	-1,24028695	0,0081933029
2	1	0	0	0	9958,65	2,98203325	2,98245621	2,7993174425015894	9	-1,23652303	0,00834884122
2	1	0	1	0	9960,00	2,99553514	2,99616528	2,8577363559355274	9	-1,23270321	0,00856225006
2	1	0	0	0	9961,35	3,00903678	3,00966406	2,9169094711542202	9	-1,2288022	0,0087789176
2	1	0	1	0	9962,70	3,02253866	3,02314234	2,9780411378790886	9	-1,22482979	0,00900304224
2	1	0	0	0	9964,05	3,03604054	3,03672099	3,0027852778633389	9	-1,22079396	0,00911862124
2	1	0	1	0	9965,40	3,04954243	3,0498991	3,0708255786448685	9	-1,21668828	0,00936570857
2	1	0	0	0	9966,75	3,06304431	3,06335807	3,1449082034329568	9	-1,21249139	0,00963397976
2	1	0	1	0	9968,10	3,07654691	3,07701731	3,1841898922512186	9	-1,2082181	0,00979780778
2	1	0	1	0	9969,45	3,09004855	3,0906055	3,238608459704736	9	-1,20387721	0,0100092608
2	1	0	0	0	9970,80	3,10354996	3,10405397	3,2800994155307597	9	-1,19948065	0,0101816058
2	1	0	1	0	9972,15	3,1170516	3,11767268	3,3137841597199334	9	-1,19502079	0,0103312945
2	1	0	0	0	9973,50	3,13055348	3,13100052	3,3529761744042259	9	-1,19050431	0,0104981698
2	1	0	1	0	9974,85	3,14405513	3,14453936	3,4059893451630925	9	-1,18593049	0,0107102674
2	1	0	0	0	9976,20	3,15755701	3,15816808	3,4746736921370029	9	-1,18128526	0,0109736035
2	1	0	1	0	9977,55	3,17105865	3,17164683	3,5249431667228493	9	-1,1765573	0,0111798747
2	1	0	0	0	9978,90	3,18456054	3,18512559	3,5776100195944275	9	-1,17175269	0,0113951368
2	1	0	1	0	9980,25	3,19806242	3,19856405	3,6068779279788288	9	-1,16688967	0,0115368301
2	1	0	0	0	9981,60	3,21156454	3,21219254	3,7209962867200378	9	-1,16197479	0,0119525567
2	1	0	1	0	9982,95	3,22506642	3,22565126	3,8636775674919334	9	-1,15680945	0,0124628767
2	1	0	0	0	9984,30	3,23856831	3,2391398	3,9008280299603795	9	-1,15159047	0,0126353269
2	1	0	1	0	9985,65	3,25206995	3,25263834	3,9714167602360141	9	-1,14626956	0,0129175829
2	1	0	1	0	9987,00	3,26557159	3,26598644	4,0202149714750778	9	-1,14086127	0,0131299673
2	1	0	0	0	9988,35	3,27907372	3,27963567	4,0776041112840173	9	-1,13541412	0,0133730555
2	1	0	1	0	9989,70	3,29257536	3,29303384	4,1617117151617971	9	-1,12985337	0,0137046576
2	1	0	0	0	9991,05	3,30607724	3,30653286	4,1967658487458976	9	-1,12421775	0,0138767445
2	1	0	1	0	9992,40	3,31957936	3,31994128	4,2439328158895149	9	-1,11852038	0,0140896076
2	1	0	0	0	9993,75	3,33308125	3,33338976	4,0941866909464154	9	-1,11301386	0,01364752
2	1	0	1	0	9995,10	3,34658313	3,34697795	4,1671318622926707	9	-1,10743439	0,0139472988
2	1	0	0	0	9996,45	3,36008501	3,36026645	4,2995608722170144	9	-1,10173714	0,0144476704
2	1	0	1	0	9997,80	3,37358665	3,37391567	4,4045499302446842	9	-1,09588897	0,0148605797
2	1	0	0	0	9999,15	3,38708854	3,38757443	4,431458069632441	9	-1,08992028	0,0150118945
2	1	0	1	0	10000,50	3,40059018	3,40087247	4,4362836355964211	9	-1,08392382	0,0150872348
2	1	0	0	0	10001,86	3,41409206	3,4145515	4,5152629179259238	9	-1,07786059	0,0154175982
2	1	0	1	0	10003,21	3,42759395	3,42814016	4,6297140916188512	9	-1,07172835	0,0158713087
2	1	0	0	0	10004,56	3,44109607	3,44162869	4,6806297972798208	9	-1,06547856	0,0161089897
2	1	0	1	0	10005,91	3,45459867	3,45490766	4,7188374028812915	9	-1,05912209	0,0163031481
2	1	0	1	0	10007,26	3,46809983	3,46857548	4,765739269554601	9	-1,05270064	0,0165303256
2	1	0	0	0	10008,61	3,48160148	3,48225474	4,8892342348893581	9	-1,04618049	0,0170255583
2	1	0	1	0	10009,96	3,49510336	3,49552274	4,9313694226245062	9	-1,03954482	0,0172377136
2	1	0	0	0	10011,31	3,508605	3,50909185	5,008534019192048	9	-1,0328542	0,0175754055
2	1	0	1	0	10012,66	3,52210689	3,5228107	5,0964961449305158	9	-1,02604353	0,0179539919
2	1	0	0	0	10014,01	3,53560877	3,53613901	5,2346725637714118	9	-1,01907945	0,0185105298
2	1	0	1	0	10015,36	3,54911089	3,54956746	5,3823742493987437	9	-1,01189506	0,019105101
2	1	0	0	0	10016,71	3,56261277	3,56323624	5,4259676933288506	9	-1,00459278	0,0193340052
2	1	0	1	0	10018,06	3,57611465	3,57669473	5,5977530566354509	9	-0,99712944	0,0200214535
2	1	0	0	0	10019,41	3,5896163	3,59023356	5,7575430832803731	9	-0,989447653	0,0206709243
2	1	0	1	0	10020,76	3,60311818	3,60363197	5,7232416446010176	9	-0,981722534	0,0206244569
2	1	0	0	0	10022,11	3,61662006	3,6170907	5,8288963486750874	9	-0,973914981	0,0210836474
2	1	0	1	0	10023,46	3,6301229	3,63075948	5,9745790169752128	9	-0,965945303	0,0216922592
2	1	0	1	0	10024,81	3,64362431	3,6441493	6,0471358845225856	9	-0,95784229	0,0220366661
2	1	0	0	0	10026,16	3,65712547	3,6573658	6,0923224128782682	9	-0,949647307	0,0222818516
2	1	0	1	0	10027,51	3,67062759	3,67109513	5,8944612666964531	9	-0,941403031	0,0216391273
2	1	0	0	0	10028,86	3,68412948	3,68470359	5,9005733678738035	9	-0,933428407	0,0217418633
2	1	0	1	0	10030,21	3,69763112	3,69827247	6,0874226614832883	9	-0,925414205	0,0225129481
2	1	0	0	0	10031,56	3,711133	3,7118609	6,1147465805212672	9	-0,917220175	0,0226970892
2	1	0	1	0	10032,91	3,72463489	3,72526979	6,2751514861980838	9	-0,908907235	0,0233766325
2	1	0	0	0	10034,26	3,73813653	3,73838758	6,355054053167479	9	-0,900368869	0,0237576552
2	1	0	1	0	10035,61	3,75163841	3,75204635	6,330957857271031	9	-0,89185971	0,0237540472
2	1	0	0	0	10036,96	3,7651403	3,76558518	6,4338420604665882	9	-0,883248806	0,0242271796
2	1	0	1	0	10038,31	3,77864242	3,77916384	6,5822120904922202	9	-0,874457538	0,0248752572
2	1	0	0	0	10039,66	3,7921443	3,79248214	6,6401795148848922	9	-0,865505457	0,0251827631
2	1	0	1	0	10041,01	3,8056457	3,80608082	6,7473099306225779	9	-0,856478453	0,0256808065
2	1	0	1	0	10042,36	3,81914735	3,81974912	6,8598991478119514	9	-0,847311258	0,0262030941
2	1	0	0	0	10043,71	3,83264971	3,83300805	7,0448247293631142	9	-0,837851703	0,0270028692
2	1	0	1	0	10045,06	3,84615159	3,84673691	7,1069231008489907	9	-0,828297675	0,0273384638
2	1	0	0	0	10046,41	3,85965323	3,86016536	7,2780834808945651	9	-0,818568349	0,0280946065
2	1	0	1	0	10047,76	3,87315512	3,87365389	7,3711720705032205	9	-0,808673978	0,0285533685
2	1	0	0	0	10049,11	3,886657	3,88740301	7,4239706595738829	9	-0,798687458	0,0288599655
2	1	0	1	0	10050,46	3,90015912	3,90078115	7,615301944315433	9	-0,788535774	0,0297056269
2	1	0	0	0	10051,81	3,91366053	3,91421986	7,6606895253062246	9	-0,778154433	0,0299856234
2	1	0	1	0	10053,16	3,92716265	3,92758846	7,878671226402112	9	-0,767612398	0,0309441779
2	1	0	0	0	10054,51	3,94066453	3,94120717	7,9832942436138406	9	-0,756909132	0,0314638168
2	1	0	1	0	10055,86	3,95416641	3,9547956	8,0479179943601485	9	-0,746087551	0,0318278708
2	1	0	0	0	10057,21	3,96766806	3,96831441	8,4115430638194086	9	-0,734924138	0,0333796479
2	1	0	1	0	10058,56	3,98116994	3,98173285	8,5192981958388992	9	-0,72347194	0,0339215696
2	1	0	1	0	10059,91	3,99467158	3,99515057	8,5446765603305152	9	-0,712021649	0,0341372676
2	1	0	1	0	10061,26	4,0081749	4,00880241	8,5376092772020518	9	-0,700508833	0,0342255905
2	1	0	1	0	10062,61	4,02167511	4,02197742	8,5911544224749146	9	-0,688955069	0,034553431
2	1	0	0	0	10063,96	4,03517723	4,03582716	8,6715153977274611	9	-0,677310944	0,0349967368
2	1	0	1	0	10065,31	4,04867935	4,04930592	8,9354865575830042	9	-0,66536212	0,036182519
2	1	0	0	0	10066,66	4,062181	4,06276464	9,4599302659432	9	-0,653018832	0,0384334698
2	1	0	1	0	10068,05	4,07608318	4,0765233	10,149695602556051	9	-0,639509737	0,0413754694
2	1	0	0	0	10069,40	4,08958483	4,09019184	10,291167303919838	9	-0,625751138	0,0420928486
2	1	0	1	0	10070,75	4,10308647	4,10380077	10,479402631521226	9	-0,611712992	0,0430053808
2	1	0	0	0	10072,10	4,11658859	4,1173296	10,712957059343637	9	-0,597428739	0,0441087745
2	1	0	1	0	10073,45	4,13009071	4,13058805	11,09645426273343	9	-0,582586348	0,0458348803
2	1	0	0	0	10074,81	4,14359236	4,14412689	11,184622103969246	9	-0,567533851	0,046350494
2	1	0	1	0	10076,16	4,157094	4,15754461	11,534116449455411	9	-0,552312136	0,0479536019
2	1	0	0	0	10077,51	4,17059612	4,17125368	11,611464217305126	9	-0,536664546	0,0484343618
2	1	0	1	0	10078,86	4,18409777	4,18483257	11,642548695206643	9	-0,520972371	0,0487221181
2	1	0	0	0	10080,21	4,19759989	4,1981616	11,695683463316173	9	-0,505215228	0,0491003692
2	0	0	1	1	10081,48	4,1896987	4,1903801	11,633637689054013	9	-0,490339279	0,0487493649
2	0	0	0	1	10082,83	4,17619658	4,17669153	11,715096736947658	9	-0,474478155	0,048930347
2	0	0	1	1	10084,18	4,16269493	4,1631732	11,792494066059562	9	-0,458565801	0,0490941964
2	0	0	0	1	10085,53	4,14919329	4,14963436	11,538088897864016	9	-0,442819536	0,0478788503
2	0	0	1	1	10086,88	4,13569117	4,1360054	11,244597693284362	9	-0,427448243	0,0465077162
2	0	0	0	1	10088,23	4,12218904	4,12262678	11,046636583904422	9	-0,412433326	0,0455411598
2	0	0	1	1	10089,58	4,1086874	4,10910845	10,795333150525834	9	-0,397697359	0,044359196
2	0	0	0	1	10090,93	4,0951848	4,09574842	10,607083553443829	9	-0,383267045	0,0434439443
2	0	0	0	1	10092,28	4,08168411	4,08206272	10,378057410397368	9	-0,369112492	0,0423638821
2	0	0	1	1	10093,63	4,06818199	4,0688529	10,086532627542802	9	-0,355279714	0,041040618
2	0	0	0	1	10094,98	4,05468035	4,05530405	9,8476151252786368	9	-0,341832221	0,0399350747
2	0	0	1	1	10096,33	4,04117823	4,04166555	9,6083452726403776	9	-0,328703046	0,0388337187
2	0	0	0	1	10097,68	4,02767658	4,02828693	9,373336084187031	9	-0,315890819	0,0377584882
2	0	0	1	1	10099,03	4,01417446	4,01479816	9,1365314771731507	9	-0,303382903	0,036681328
2	0	0	0	1	10100,38	4,00067234	4,00112915	8,8603240326046797	9	-0,29122141	0,0354513004
2	0	0	1	1	10101,73	3,9871707	3,9876411	8,6099726582566797	9	-0,279441148	0,0343334824
2	0	0	0	1	10103,08	3,97366905	3,97408223	8,3769976894060109	9	-0,267967492	0,0332908779
2	0	0	1	1	10104,43	3,96016717	3,96070385	8,2347381164629926	9	-0,256763726	0,0326153599
2	0	0	0	1	10105,78	3,94666529	3,94708514	8,0085176154971123	9	-0,245800868	0,0316103026
2	0	0	1	1	10107,13	3,93316364	3,93367648	7,8019304598371098	9	-0,235124588	0,0306902695
2	0	0	0	1	10108,48	3,91966176	3,92009783	7,596348933875575	9	-0,224729463	0,0297784302
2	0	0	1	1	10109,83	3,9061594	3,90651846	7,3867206187493363	9	-0,214621574	0,0288563613
2	0	0	1	1	10111,18	3,8926568	3,89311886	7,1822155769665843	9	-0,204789951	0,0279612187
2	0	0	0	1	10112,53	3,87915587	3,87958193	7,0366590296228531	9	-0,195202425	0,0272992961
2	0	0	1	1	10113,88	3,86565423	3,86612368	6,7984559858838618	9	-0,185863271	0,0262836721
2	0	0	0	1	10115,23	3,85215235	3,85278535	6,6054036592443738	9	-0,176811129	0,0254492033
2	0	0	1	1	10116,58	3,83865047	3,83929682	6,434676883121312	9	-0,168012917	0,0247046351
2	0	0	0	1	10117,93	3,82514882	3,82561779	6,3146964212258611	9	-0,159442559	0,0241576154
2	0	0	1	1	10119,28	3,81164694	3,81218934	6,1168309338390758	9	-0,151046753	0,023318518
2	0	0	0	1	10120,63	3,79814506	3,79853058	5,9435194966693606	9	-0,14290607	0,0225766413
2	0	0	1	1	10121,98	3,78464293	3,78495193	5,7558640427887366	9	-0,13501206	0,021785669
2	0	0	0	1	10123,33	3,77114105	3,77151322	5,5759409169356077	9	-0,127362296	0,021029735
2	0	0	1	1	10124,68	3,75763917	3,75794458	5,4066944333414195	9	-0,119948477	0,0203180574
2	0	0	0	1	10126,03	3,74413753	3,74449587	5,1983470730483392	9	-0,112818331	0,0194651894
2	0	0	1	1	10127,38	3,73063564	3,73111773	5,0414277091622138	9	-0,105910964	0,0188101605
2	0	0	0	1	10128,77	3,71673393	3,71709824	4,8779496600230522	9	-0,0990209505	0,0181318186
2	0	0	0	1	10130,12	3,70323205	3,70369983	4,7406697298089549	9	-0,0925305709	0,0175580177
2	0	0	1	1	10131,47	3,68973017	3,69030118	4,6088524460792397	9	-0,0862125233	0,0170080531
2	0	0	0	1	10132,82	3,67622805	3,67688274	4,4771207720041203	9	-0,0800772682	0,0164618474
2	0	0	1	1	10134,17	3,66272616	3,66303396	4,3639813897510323	9	-0,074110724	0,0159854125
2	0	0	0	1	10135,52	3,64922428	3,6499958	4,2555378054579053	9	-0,068292737	0,0155326948
2	0	0	1	1	10136,87	3,63572264	3,63616681	4,142787574479961	9	-0,0626276806	0,015063867
2	0	0	0	1	10138,22	3,62222075	3,62295866	3,9614296779036448	9	-0,0571373068	0,0143520962
2	0	0	1	1	10139,57	3,60871911	3,60934973	3,8755955087641779	9	-0,0518476628	0,0139883794
2	0	0	0	1	10140,92	3,59521723	3,59563112	3,776946138590567	9	-0,0466851182	0,0135805048
2	0	0	1	1	10142,27	3,58171535	3,58211231	3,6934773847460646	9	-0,0416460745	0,0132304505
2	0	0	0	1	10143,63	3,56821322	3,56863379	3,5901449434459066	9	-0,0367265902	0,0128119122
2	0	0	1	1	10144,98	3,55471134	3,55522513	3,5055968835949882	9	-0,0319347866	0,0124631859
2	0	0	0	1	10146,33	3,54120946	3,54176664	3,4273675742248602	9	-0,0272523649	0,0121389357
2	0	0	0	1	10147,68	3,52770853	3,52810979	3,3550907973880262	9	-0,0226723552	0,0118371285
2	0	0	1	1	10149,03	3,51420593	3,51464915	3,2787989315887315	9	-0,0181941446	0,0115238279
2	0	0	0	1	10150,38	3,50070429	3,50144124	3,2174496563772326	9	-0,0137998499	0,0112657109
2	0	0	1	1	10151,73	3,48720241	3,48784232	3,1629822043081094	9	-0,00948998611	0,0110319834
2	0	0	0	1	10153,08	3,47370052	3,47410345	3,1006819357474598	9	-0,00526733277	0,0107720895
2	0	0	1	1	10154,43	3,46019864	3,46068501	3,0209600236266778	9	-0,00114272162	0,0104545914
2	0	0	0	1	10155,78	3,44669652	3,44711637	2,9572007091095072	9	0,00289388443	0,0101938145
2	0	0	1	1	10157,13	3,43319464	3,43383789	2,8853092690308915	9	0,00684130657	0,00990768429
2	0	0	0	1	10158,48	3,41969275	3,42028952	2,7919921452800339	9	0,0106438193	0,00954942126
2	0	0	1	1	10159,83	3,40619111	3,40665078	2,7216058522462774	9	0,0143639082	0,00927156117
2	0	0	0	1	10161,18	3,39268923	3,3930819	2,6665976780156342	9	0,0180023126	0,00904798415
2	0	0	1	1	10162,53	3,37918758	3,37989354	2,6164863842228954	9	0,0215694755	0,00884344522
2	0	0	0	1	10163,88	3,3656857	3,36646509	2,5651488571117315	9	0,0250623748	0,00863548368
2	0	0	1	1	10165,23	3,35218382	3,35270596	2,5120138938476586	9	0,0284888539	0,00842204411
2	0	0	0	1	10166,58	3,33868074	3,339257	2,4522187916683082	9	0,0318418667	0,00818858854
2	0	0	0	1	10167,93	3,32517982	3,32573891	2,3808942685524528	9	0,0351174548	0,00791823305
2	0	0	1	1	10169,28	3,31167793	3,31222034	2,3358957904080579	9	0,0383037627	0,0077370014
2	0	0	0	1	10170,63	3,29817629	3,2987721	2,2889930841823373	9	0,0414184555	0,00755086634
2	0	0	1	1	10171,98	3,28467441	3,28516364	2,2424811484913008	9	0,0444732979	0,00736691756
2	0	0	0	1	10173,33	3,27117276	3,27171445	2,1996395842482653	9	0,0474717729	0,00719659263
2	0	0	1	1	10174,68	3,25767088	3,25814581	2,1668169014155866	9	0,0504180081	0,00705980556
2	0	0	0	1	10176,03	3,244169	3,24468756	2,124839255586263	9	0,0533140451	0,00689443946
2	0	0	1	1	10177,38	3,23066711	3,23133898	2,0855926536023616	9	0,0561566129	0,0067392569
2	0	0	0	1	10178,73	3,21716499	3,21790051	2,0472566305349318	9	0,0589465648	0,00658786809
2	0	0	1	1	10180,08	3,20366311	3,20418167	2,008025694638487	9	0,061684195	0,00643407926
2	0	0	0	1	10181,43	3,19016147	3,19084334	1,9701531399041379	9	0,0643691942	0,0062864502
2	0	0	1	1	10182,78	3,17665958	3,17716432	1,9371715237697024	9	0,0670081303	0,00615471229
2	0	0	0	1	10184,13	3,1631577	3,1637361	1,9027138135085478	9	0,0695999935	0,00601968449
2	0	0	0	1	10185,48	3,14965606	3,15013742	1,8677048056075981	9	0,0721447319	0,00588352699
2	0	0	1	1	10186,83	3,13615417	3,13661838	1,8315718825906445	9	0,0746416152	0,005744942
2	0	0	0	1	10188,18	3,12265253	3,12313008	1,796869348113745	9	0,0770915151	0,00561185693
2	0	0	1	1	10189,53	3,10915065	3,10977173	1,7644694217791114	9	0,0794953555	0,00548709696
2	0	0	0	1	10190,88	3,09564877	3,09616327	1,7307454769810064	9	0,0818558261	0,00535867037
2	0	0	1	1	10192,23	3,08214688	3,08265424	1,7020309076954893	9	0,084172681	0,0052467729
2	0	0	0	1	10193,58	3,068645	3,06938624	1,6696905338515827	9	0,0864468217	0,00512492517
2	0	0	1	1	10194,93	3,05514312	3,05560708	1,6373353910942896	9	0,0886769295	0,00500305369
2	0	0	0	1	10196,28	3,04164147	3,04220867	1,6035045844813213	9	0,0908651352	0,00487819547
2	0	0	1	1	10197,63	3,02813959	3,02847981	1,5749375664939453	9	0,0930103958	0,00476966659
2	0	0	0	1	10198,98	3,01463771	3,01514125	1,5408707497020515	9	0,0951143205	0,00464594318
2	0	0	1	1	10200,33	3,00113583	3,00155282	1,5127768581733107	9	0,0971765146	0,00454067951
2	0	0	0	1	10201,68	2,98763394	2,98815417	1,481726989460488	9	0,0991978571	0,00442762859
2	0	0	0	1	10203,03	2,97413301	2,97462702	1,4512542780990803	9	0,101178147	0,00431693997
2	0	0	1	1	10204,38	2,96063018	2,96110678	1,420133849295473	9	0,103116937	0,00420516776
2	0	0	0	1	10205,73	2,9471283	2,94769835	1,393519014740983	9	0,105015218	0,00410767365
2	0	0	1	1	10207,08	2,93362641	2,93404961	1,3614439498633146	9	0,106873617	0,00399454404
2	0	0	0	1	10208,43	2,92012477	2,92065144	1,3348738327622378	9	0,108694948	0,00389870116
2	0	0	1	1	10209,78	2,90662289	2,90718269	1,3048156425356866	9	0,110475242	0,00379333738
2	0	0	0	1	10211,13	2,893121	2,89384437	1,2741006702805509	9	0,11221531	0,00368704903
2	0	0	1	1	10212,48	2,87961912	2,88000512	1,2441300014033886	9	0,113914751	0,00358310086
2	0	0	0	1	10213,83	2,86611724	2,86682725	1,2153506055474317	9	0,115574218	0,00348420022
2	0	0	1	1	10215,18	2,85261536	2,85317826	1,1858077862610373	9	0,117194176	0,00338332099
2	0	0	0	1	10216,54	2,83911347	2,83940935	1,1546809993063434	9	0,118773818	0,00327861193
2	0	0	1	1	10217,89	2,82561183	2,82603073	1,123638432162501	9	0,120312065	0,00317543675
2	0	0	0	1	10219,24	2,81210995	2,81264234	1,0928209150830917	9	0,121808	0,00307371444
2	0	0	1	1	10220,59	2,79860806	2,79920387	1,0633514293034843	9	0,123264037	0,00297653745
2	0	0	0	1	10221,94	2,78510523	2,78567481	1,033483303607479	9	0,124680743	0,00287894835
2	0	0	0	1	10223,29	2,7716043	2,77191639	1,0036981369679162	9	0,126056433	0,0027821674
2	0	0	1	1	10224,64	2,75810242	2,75854778	0,97535103807847027	9	0,127391875	0,0026905525
2	0	0	0	1	10225,99	2,74460053	2,74509954	0,94851330357293056	9	0,128689751	0,00260376348
2	0	0	1	1	10227,34	2,73109865	2,7316308	0,91907218750565888	9	0,129950047	0,0025105658
2	0	0	0	1	10228,69	2,71759701	2,71809196	0,89388896400729395	9	0,131171897	0,00242967252
2	0	0	1	1	10230,04	2,70409489	2,70476365	0,86124031773457869	9	0,132355854	0,0023294515
2	0	0	0	1	10231,39	2,69059324	2,69103479	0,83273223880678234	9	0,133499086	0,00224091136
2	0	0	1	1	10232,74	2,67709136	2,67752624	0,80257560716320781	9	0,13460277	0,00214891718
2	0	0	0	1	10234,09	2,66358948	2,66394758	0,77299819110582042	9	0,135665521	0,00205922662
2	0	0	1	1	10235,44	2,65008759	2,65058899	0,74574904749169677	9	0,136689425	0,00197667419
2	0	0	0	1	10236,79	2,63658571	2,63700056	0,72109870674709414	9	0,137675092	0,00190153765
2	0	0	1	1	10238,14	2,62308383	2,62361193	0,6806165473535657	9	0,138615623	0,00178567367
2	0	0	0	1	10239,49	2,60958219	2,61015344	0,64931635434428966	9	0,139512867	0,00169481535
2	0	0	0	1	10240,84	2,59608054	2,59665537	0,61786042107700826	9	0,140366912	0,00160437054
2	0	0	1	1	10242,19	2,58257842	2,58304596	0,58493046478057843	9	0,14117907	0,00151090231
2	0	0	0	1	10243,54	2,56907678	2,56944728	0,55136830623572045	9	0,141945556	0,00141671184
2	0	0	1	1	10244,89	2,55557466	2,55629921	0,51592262648045837	9	0,142665192	0,00131885265
2	0	0	0	1	10246,28	2,54167271	2,54221964	0,47944413311779322	9	0,143356934	0,00121885224
2	0	0	1	1	10247,63	2,52817082	2,52865124	0,44218112016096531	9	0,143978789	0,00111812179
2	0	0	0	1	10248,98	2,51466894	2,51514268	0,40318534973387802	9	0,144548893	0,00101406872
2	0	0	1	1	10250,33	2,5011673	2,5016439	0,36715165556718963	9	0,145068735	0,000918482721
2	0	0	0	1	10251,68	2,48766541	2,48808503	0,32472673353428582	9	0,14553535	0,000807947712
2	0	0	1	1	10253,03	2,47416353	2,47476697	0,28060694613183568	9	0,145944491	0,000694436778
2	0	0	0	1	10254,38	2,46066189	2,46109772	0,23613915250947136	9	0,146293759	0,000581161526
2	0	0	1	1	10255,73	2,44715977	2,44769955	0,18831279400425638	9	0,146580011	0,000460933137
2	0	0	0	1	10257,08	2,43365788	2,43413091	0,14000874350313053	9	0,146801218	0,000340799597
2	0	0	0	1	10258,43	2,42015624	2,4206531	0,088226938175056333	9	0,146955073	0,000213566818
2	0	0	1	1	10259,82	2,40625525	2,4068048	0,033455234104362496	9	0,147039592	8,05202144E-005
2	0	0	0	1	10260,93	2,39515305	2,39542794	-0,011985378085889592	9	0,147051319	2,87101102E-005