File: Experimentelles/Rohdaten/Batterietests/AlteZelle/Studenten_Batterietests/Sonstige/ECLab-Export/S vs Li_02_CV_C02_loop5.mpt
EC-Lab ASCII FILE
Nb header lines : 3
mode	ox/red	error	control changes	counter inc.	time/s	control/V	Ewe/V	<I>/mA	cycle number	(Q-Qo)/C	P/W
2	0	0	1	0	7300,63	2,39305282	2,39350533	-0,039676383137702944	6	0	9,49656314E-005
2	0	0	0	0	7301,93	2,38005066	2,38066721	-0,10091680821885029	6	-9,13129625E-005	0,000240249341
2	0	0	1	0	7303,25	2,36684871	2,36739922	-0,1662561429742103	6	-0,000267829309	0,000393594673
2	0	0	0	0	7304,55	2,35384703	2,35429096	-0,2329029722604905	6	-0,000527671655	0,000548321346
2	0	0	1	0	7305,85	2,34084511	2,34153342	-0,30213266766319738	6	-0,000875837228	0,000707453757
2	0	0	0	0	7307,15	2,32784343	2,32841516	-0,37383512275604058	6	-0,00131541956	0,000870443357
2	0	0	1	0	7308,46	2,31484175	2,31539726	-0,45081595502172966	6	-0,00185185089	0,00104381808
2	0	0	0	0	7309,76	2,30183983	2,30249953	-0,52672673730800576	6	-0,00248830998	0,00121278805
2	0	0	0	0	7311,06	2,28883886	2,28943229	-0,60845544077712256	6	-0,00322591071	0,00139301748
2	0	0	1	0	7312,36	2,27583623	2,27637362	-0,69064191977182963	6	-0,00407026429	0,001572159
2	0	0	0	0	7313,66	2,26283455	2,26340556	-0,77765331634631168	6	-0,00502572441	0,00176014483
2	0	0	1	0	7314,96	2,24983263	2,25031781	-0,86703776009380813	6	-0,00609464245	0,00195111055
2	0	0	0	0	7316,26	2,23683095	2,23718953	-0,95621934781471834	6	-0,00727989478	0,002139244
2	0	0	1	0	7317,60	2,22342944	2,22390127	-1,0503105946506075	6	-0,008625702	0,00233578705
2	0	0	0	0	7318,90	2,21042728	2,21115375	-1,1403534443428149	6	-0,0100507885	0,00252149673
2	0	0	1	0	7320,20	2,1974256	2,19789553	-1,2309082361559085	6	-0,0115943961	0,00270540779
2	0	0	0	0	7321,50	2,18442392	2,18498755	-1,3205349479491509	6	-0,0132506322	0,00288535235
2	0	0	1	0	7322,80	2,171422	2,1718595	-1,4123434937248627	6	-0,0150254099	0,00306741172
2	0	0	1	0	7324,10	2,15842009	2,1591022	-1,5035214805975629	6	-0,0169209354	0,00324625662
2	0	0	0	0	7325,40	2,14541864	2,14591384	-1,5934598830839056	6	-0,0189370047	0,00341942767
2	0	0	1	0	7326,70	2,13241673	2,13291621	-1,6890692977855542	6	-0,0210701115	0,00360264326
2	0	0	0	0	7328,00	2,11941481	2,11979795	-1,7739390873660669	6	-0,0233205594	0,00376039254
2	0	0	1	0	7329,30	2,10641289	2,10682988	-1,865866446246704	6	-0,0256847255	0,00393106323
2	0	0	0	0	7330,60	2,09341121	2,09383202	-1,9572793804109098	6	-0,028173076	0,00409821421
2	0	0	1	0	7331,90	2,08040953	2,08092427	-2,0567044733713082	6	-0,0307871588	0,00427984633
2	0	0	0	0	7333,20	2,06740761	2,06785655	-2,1544969131549152	6	-0,0335253142	0,00445519062
2	0	0	1	0	7334,50	2,05440593	2,05490851	-2,2464305541167702	6	-0,0363893136	0,00461620931
2	0	0	1	0	7335,80	2,0414052	2,04194212	-2,34861295773608	6	-0,0393769965	0,00479573151
2	0	0	0	0	7337,10	2,02840233	2,0289526	-2,449294302612543	6	-0,0424979664	0,00496950187
2	0	0	1	0	7338,40	2,01540065	2,01579452	-2,5616163518279792	6	-0,0457558259	0,0051636924
2	0	0	0	0	7339,70	2,00239873	2,00288701	-2,6560980969419069	6	-0,0491496213	0,00531986449
2	0	0	1	0	7341,00	1,98939693	1,99015939	-2,7523582726717066	6	-0,0526719093	0,00547763146
2	0	0	0	0	7342,30	1,97639537	1,97696126	-2,8548808079212896	6	-0,0563184917	0,00564398896
2	0	0	1	0	7343,60	1,96339357	1,96394324	-2,9462482836097485	6	-0,0600910112	0,00578626432
2	0	0	0	0	7344,90	1,95039165	1,95118558	-3,042677958185479	6	-0,063983351	0,00593682937
2	0	0	1	0	7346,20	1,93739009	1,93795741	-3,1340075023472416	6	-0,0680030212	0,00607357314
2	0	0	0	0	7347,50	1,92438829	1,92503965	-3,2374788100520819	6	-0,0721511617	0,00623227516
2	0	0	0	0	7348,80	1,91138637	1,91186142	-3,3172815827032026	6	-0,0764163509	0,00634218287
2	0	0	1	0	7350,10	1,89838457	1,89884353	-3,413261779894441	6	-0,0807992816	0,00648124982
2	0	0	0	0	7351,40	1,88538277	1,88608587	-3,4914919709165984	6	-0,0852907002	0,00658525387
2	0	0	1	0	7352,70	1,87238097	1,87294793	-3,5889154088993965	6	-0,0898972452	0,00672185188
2	0	0	0	0	7354,00	1,85937917	1,85970962	-3,6830759185055981	6	-0,094622612	0,00684945192
2	0	0	1	0	7355,30	1,84637749	1,84691191	-3,7659702772895328	6	-0,0994649753	0,00695541548
2	0	0	0	0	7356,60	1,83337569	1,83392417	-3,8674960831801216	6	-0,104422502	0,00709269475
2	0	0	1	0	7357,90	1,82037389	1,82094622	-3,9794020069142278	6	-0,109506935	0,00724627683
2	0	0	0	0	7359,20	1,80737197	1,80778801	-4,0572821274399757	6	-0,11473342	0,00733470591
2	0	0	0	0	7360,50	1,79437041	1,7950505	-4,1192210900287021	6	-0,120041505	0,00739420997
2	0	0	1	0	7361,80	1,78136861	1,78191245	-4,1859083796540941	6	-0,125435188	0,00745892245
2	0	0	0	0	7363,10	1,76836669	1,76905465	-4,2582683116197587	6	-0,13093403	0,00753310928
2	0	0	1	0	7364,40	1,75536513	1,75603676	-4,3184432722628045	6	-0,136514649	0,00758334529
2	0	0	0	0	7365,70	1,74236333	1,74275851	-4,3871845304966042	6	-0,142176509	0,00764580304
2	0	0	1	0	7367,00	1,72936141	1,72982061	-4,4270214823385069	6	-0,14790228	0,00765795307
2	0	0	0	0	7368,30	1,71635962	1,71683276	-4,4931076169014118	6	-0,153704271	0,00771391438
2	0	0	1	0	7369,60	1,70335782	1,70375478	-4,5391160845756672	6	-0,159587011	0,00773354061
2	0	0	0	0	7370,90	1,69035602	1,69073677	-4,5676830435792512	6	-0,165509775	0,00772274984
2	0	0	0	0	7372,20	1,67735422	1,67777908	-4,576116744428887	6	-0,171451345	0,00767771294
2	0	0	1	0	7373,50	1,66435254	1,66484118	-4,6374120625356755	6	-0,177446976	0,00772055471
2	0	0	0	0	7374,80	1,65135074	1,65178323	-4,6790894567966534	6	-0,183499396	0,00772884162
2	0	0	1	0	7376,10	1,63834894	1,63902581	-4,730572640895847	6	-0,189623773	0,00775353052
2	0	0	0	0	7377,40	1,62534714	1,62590754	-4,7876600275437082	6	-0,195812941	0,00778429257
2	0	0	1	0	7378,70	1,61234546	1,61300969	-4,8419697818656858	6	-0,202069893	0,00781014422
2	0	0	0	0	7380,00	1,59934366	1,60006189	-4,9023138197759763	6	-0,208404928	0,00784400571
2	0	0	1	0	7381,31	1,58634186	1,58659327	-4,976941041648409	6	-0,214826271	0,00789638143
2	0	0	0	0	7382,61	1,57333994	1,57395601	-5,0232820225258726	6	-0,221328869	0,00790642481
2	0	0	0	0	7383,91	1,56033909	1,56103849	-5,0776552696666893	6	-0,22789745	0,00792641565
2	0	0	1	0	7385,21	1,54733658	1,54776001	-5,1448766514659072	6	-0,234544024	0,00796303432
2	0	0	0	0	7386,51	1,53433478	1,53481209	-5,200105606267847	6	-0,241266921	0,00798118487
2	0	0	1	0	7387,81	1,52133286	1,52187431	-5,255931486686073	6	-0,248065934	0,00799886696
2	0	0	0	0	7389,11	1,50833118	1,50886631	-5,3364230915904186	6	-0,254946887	0,00805194862
2	0	0	1	0	7390,41	1,49532938	1,49552798	-5,3943430098394528	6	-0,26192227	0,00806739088
2	0	0	0	0	7391,71	1,48232746	1,48289073	-5,4407572249571533	6	-0,268971115	0,0080680484
2	0	0	1	0	7393,01	1,4693259	1,46970236	-5,5208891456325946	6	-0,276109606	0,00811406411
2	0	0	0	0	7394,31	1,4563241	1,45697498	-5,5770076153178963	6	-0,283320904	0,00812556036
2	0	0	1	0	7395,61	1,44332218	1,44357634	-5,6349978980918784	6	-0,290611625	0,00813454948
2	0	0	1	0	7396,91	1,4303205	1,43084872	-5,6982627051572096	6	-0,297975391	0,00815335196
2	0	0	0	0	7398,21	1,4173187	1,41788101	-5,7306570373475552	6	-0,305401444	0,00812538993
2	0	0	1	0	7399,51	1,4043169	1,40467286	-5,771437006692096	6	-0,312882841	0,00810698047
2	0	0	0	0	7400,81	1,39131498	1,39188516	-5,8153104732433997	6	-0,320414543	0,00809424464
2	0	0	1	0	7402,11	1,3783133	1,37880719	-5,8588637734453005	6	-0,32801193	0,00807824358
2	0	0	0	0	7403,41	1,36531162	1,36559904	-5,9214911411206208	6	-0,335664362	0,00808638241
2	0	0	1	0	7404,71	1,3523097	1,35278141	-5,9645897100369331	6	-0,343400985	0,008068786
2	0	0	0	0	7406,01	1,33930802	1,3396132	-5,9847074610491622	6	-0,351164967	0,00801719353
2	0	0	1	0	7407,31	1,32630622	1,32697582	-6,0337967264155597	6	-0,3589724	0,00800670218
2	0	0	1	0	7408,61	1,31330419	1,31378698	-6,0852414737412198	6	-0,366824716	0,0079947114
2	0	0	0	0	7409,91	1,30030251	1,30075979	-6,1250196062028518	6	-0,37475875	0,00796717964
2	0	0	1	0	7411,21	1,28730083	1,28771174	-6,1617027993003712	6	-0,382732362	0,00793449674
2	0	0	0	0	7412,51	1,27429914	1,27475381	-6,193929266184576	6	-0,390758574	0,00789573509
2	0	0	1	0	7413,81	1,26129723	1,26203632	-6,2681310897072256	6	-0,398869872	0,00791060925
2	0	0	0	0	7415,11	1,24829555	1,24876809	-6,3257672687371955	6	-0,40704146	0,00789941661
2	0	0	1	0	7416,41	1,23529387	1,23593032	-6,3818992599844787	6	-0,41529873	0,00788758323
2	0	0	0	0	7417,71	1,22229195	1,22277224	-6,4357571924726387	6	-0,423631012	0,00786946528
2	0	0	1	0	7419,01	1,20929015	1,20968425	-6,4760439718763085	6	-0,432017326	0,00783396885
2	0	0	1	0	7420,31	1,19628823	1,19693661	-6,4800077574192934	6	-0,440432996	0,00775615871
2	0	0	0	0	7421,61	1,18328655	1,1837585	-6,5340496848027379	6	-0,448887795	0,00773473689
2	0	0	1	0	7422,91	1,17028487	1,17093074	-6,5855766609311104	6	-0,457416475	0,00771125406
2	0	0	0	0	7424,21	1,15728295	1,15759242	-6,6040493523081242	6	-0,465993553	0,00764479768
2	0	0	1	0	7425,51	1,14428127	1,14501512	-6,6554583807786547	6	-0,474611729	0,00762060052
2	0	0	0	0	7426,81	1,13127947	1,13182688	-6,6799711088339469	6	-0,483270109	0,00756057072
2	0	0	1	0	7428,11	1,11827755	1,11897922	-6,7088415424029222	6	-0,491977453	0,00750705414
2	0	0	0	0	7429,41	1,10527587	1,10586107	-6,7509330511092851	6	-0,500732541	0,00746559398
2	0	0	1	0	7430,71	1,09227407	1,09276307	-6,7648765022556173	6	-0,509532034	0,00739240739
2	0	0	1	0	7432,01	1,0792731	1,07976568	-6,7811508865755878	6	-0,518329263	0,00732205389
2	0	0	0	0	7433,31	1,06627059	1,06668723	-6,8171756813923418	6	-0,527181447	0,00727179414
2	0	0	1	0	7434,61	1,05326879	1,0536691	-6,8824725101391526	6	-0,536066413	0,00725184847
2	0	0	0	0	7435,91	1,04026699	1,04090166	-6,9059523046016691	6	-0,545036912	0,00718841702
2	0	0	1	0	7437,21	1,02726519	1,02788365	-6,950541662673175	6	-0,554043949	0,00714434823
2	0	0	0	0	7438,51	1,01426339	1,01474559	-6,9932960271835328	6	-0,563094199	0,00709641632
2	0	0	1	0	7439,81	1,00126159	1,00198805	-7,0102912584940634	6	-0,572180271	0,00702422811
2	0	0	0	0	7441,11	0,988259912	0,988839984	-7,0311206951737331	6	-0,581308067	0,00695265317
2	0	0	1	0	7442,41	0,975258172	0,975701809	-7,0617004533608845	6	-0,590468884	0,00689011393
2	0	0	0	0	7443,71	0,962256312	0,962804139	-7,0749985203146931	6	-0,599633873	0,00681183767
2	0	0	0	0	7445,01	0,949254513	0,949786127	-7,0594516744216448	6	-0,608822227	0,00670496933
2	0	0	1	0	7446,31	0,936252773	0,936638057	-7,1005432456731942	6	-0,618023336	0,00665063923
2	0	0	0	0	7447,61	0,923251033	0,923860431	-7,098498086134583	6	-0,627239823	0,00655802153
2	0	0	1	0	7448,91	0,910249233	0,91065228	-7,085979690154432	6	-0,636472404	0,00645286357
2	0	0	0	0	7450,21	0,897247434	0,897734404	-7,1038679232200154	6	-0,645703554	0,00637738686
2	0	0	1	0	7451,51	0,884245694	0,884676516	-7,1020756115515942	6	-0,65495491	0,00628303969
2	0	0	0	0	7452,81	0,871243954	0,871638477	-7,155988777677216	6	-0,664232552	0,00623743515
2	0	0	1	0	7454,12	0,858242154	0,858690679	-7,1660514324903309	6	-0,673558354	0,00615342148
2	0	0	0	0	7455,42	0,845240295	0,845662653	-7,2207774221897126	6	-0,682913601	0,00610634172
2	0	0	1	0	7456,72	0,832238495	0,832654774	-7,2374434937039846	6	-0,692311585	0,00602629175
2	0	0	1	0	7458,02	0,819236636	0,819656849	-7,2843123674392704	6	-0,70177269	0,00597063638
2	0	0	0	0	7459,32	0,806234956	0,806668997	-7,2886080121000563	6	-0,711246789	0,0058794939
2	0	0	1	0	7460,62	0,793233216	0,793681145	-7,3321994220217165	6	-0,720745981	0,00581942825
2	0	0	0	0	7461,92	0,780231416	0,78057307	-7,3420372183124186	6	-0,730273128	0,00573099637
2	0	0	1	0	7463,22	0,767229617	0,767805457	-7,3423576479156864	6	-0,739810824	0,0056375023
2	0	0	0	0	7464,52	0,754227757	0,754547238	-7,3611418952544768	6	-0,749383092	0,00555432914
2	0	0	1	0	7465,82	0,741226077	0,741549313	-7,4129126841823168	6	-0,758992672	0,00549704023
2	0	0	0	0	7467,12	0,728224277	0,728661537	-7,4211446866393088	6	-0,768643081	0,00540750287
2	0	0	1	0	7468,42	0,715222478	0,715743721	-7,469561929504096	6	-0,778335035	0,00534629216
2	0	0	1	0	7469,72	0,702220678	0,702785909	-7,4862753575047091	6	-0,788056314	0,00526124891
2	0	0	0	0	7471,02	0,689218938	0,689597726	-7,5361010606090701	6	-0,797815979	0,00519687822
2	0	0	1	0	7472,32	0,676217198	0,676629841	-7,5499066114425664	6	-0,807617426	0,00510849198
2	0	0	0	0	7473,62	0,663215339	0,663712084	-7,6023101285100058	6	-0,817489564	0,00504574506
2	0	0	1	0	7474,92	0,65021354	0,650894403	-7,566564373672009	6	-0,827358544	0,00492503447
2	0	0	0	0	7476,22	0,6372118	0,637776375	-7,5884758308529856	6	-0,837221742	0,00483975047
2	0	0	1	0	7477,52	0,62421006	0,624498069	-7,6363384375969754	6	-0,847125769	0,00476887869
2	0	0	0	0	7478,82	0,61120826	0,611810565	-7,6680302744110426	6	-0,857072949	0,00469138194
2	0	0	1	0	7480,12	0,59820646	0,598602414	-7,6772365669409459	6	-0,867061019	0,00459561218
2	0	0	1	0	7481,42	0,585204661	0,585674584	-7,7294305364290778	6	-0,877078831	0,00452693086
2	0	0	0	0	7482,72	0,572202861	0,572716713	-7,7648260196050099	6	-0,887138784	0,00444704574
2	0	0	1	0	7484,02	0,559201062	0,559678733	-7,793702719112247	6	-0,897253096	0,00436196988
2	0	0	0	0	7485,32	0,546199322	0,546590686	-7,8496492678920614	6	-0,907416403	0,00429054536
2	0	0	1	0	7486,62	0,533197522	0,533763051	-7,9003442376852314	6	-0,917670965	0,00421691174
2	0	0	0	0	7487,92	0,520195782	0,520655036	-7,9697972759604736	6	-0,928007364	0,00414951518
2	0	0	1	0	7489,22	0,507193983	0,507667065	-8,006678732732951	6	-0,938405156	0,00406472711
2	1	0	0	0	7490,47	0,505293667	0,505554199	-7,9477996528148723	6	-0,948403656	0,00401804363
2	1	0	1	0	7491,77	0,518295527	0,518662214	-7,8390568469961293	6	-0,958658814	0,00406582281
2	1	0	0	0	7493,07	0,531297266	0,53169024	-7,6657163227597914	6	-0,968714893	0,00407578656
2	1	0	1	0	7494,37	0,544299066	0,544598043	-7,524156346917152	6	-0,978590012	0,00409764098
2	1	0	0	0	7495,67	0,557300806	0,557836235	-7,4083203275998528	6	-0,988305449	0,00413262937
2	1	0	0	0	7496,97	0,570301831	0,570882738	-7,3235942652095219	6	-0,997858226	0,00418091333
2	1	0	1	0	7498,27	0,583304465	0,583441556	-7,1955467363198694	6	-1,00730383	0,00419818098
2	1	0	0	0	7499,57	0,596306145	0,596870005	-7,0837175200382771	6	-1,01659393	0,00422805874
2	1	0	1	0	7500,87	0,609308004	0,609777749	-6,9640910327434688	6	-1,02573931	0,00424654782
2	1	0	0	0	7502,17	0,622309804	0,622815728	-6,8580161233743053	6	-1,03472757	0,00427128049
2	1	0	1	0	7503,47	0,635311544	0,635683477	-6,7796014547348301	6	-1,04359663	0,00430968078
2	1	0	0	0	7504,77	0,648313284	0,64884156	-6,6907678072651354	6	-1,05234873	0,00434124842
2	1	0	1	0	7506,07	0,661315084	0,661789477	-6,6073748941223014	6	-1,06098986	0,00437269127
2	1	0	0	0	7507,37	0,674316883	0,674717247	-6,5135195453961779	6	-1,06951904	0,0043947841
2	1	0	1	0	7508,67	0,687318683	0,6877352	-6,4145701030890342	6	-1,07792509	0,00441152556
2	1	0	1	0	7509,97	0,700320423	0,700813174	-6,3300345738728934	6	-1,08620167	0,00443617161
2	1	0	0	0	7511,27	0,713322222	0,713781059	-6,2422875575721472	6	-1,09437096	0,00445562648
2	1	0	1	0	7512,57	0,726324022	0,72659868	-6,1500668649872141	6	-1,10242963	0,00446863053
2	1	0	0	0	7513,87	0,739325762	0,739927113	-6,0712514494856218	6	-1,11037731	0,00449228333
2	1	0	1	0	7515,17	0,752327561	0,752945006	-5,999488747368247	6	-1,11822724	0,00451728515
2	1	0	0	0	7516,47	0,765329361	0,765952945	-5,9213473014533658	6	-1,12597668	0,00453547342
2	1	0	1	0	7517,77	0,778331161	0,778840661	-5,8398475038508621	6	-1,13362217	0,00454831077
2	1	0	0	0	7519,07	0,79133296	0,791778505	-5,7705209925770765	6	-1,1411736	0,00456897449
2	1	0	1	0	7520,37	0,80433476	0,804736316	-5,6799931079149421	6	-1,14861834	0,00457089674
2	1	0	1	0	7521,67	0,817336738	0,817814529	-5,6066877265158157	6	-1,15595269	0,00458523072
2	1	0	0	0	7522,97	0,83033824	0,830802202	-5,5218346665302957	6	-1,16319227	0,00458755251
2	1	0	1	0	7524,28	0,843340039	0,843770146	-5,4431352031727552	6	-1,17032123	0,00459275488
2	1	0	0	0	7525,58	0,856341839	0,856687963	-5,357495838155337	6	-1,17734134	0,004589702
2	1	0	1	0	7526,88	0,869343698	0,869645715	-5,2888468429446221	6	-1,18426907	0,00459942315
2	1	0	0	0	7528,18	0,882345438	0,882863998	-5,2010311509172026	6	-1,19108963	0,00459180307
2	1	0	1	0	7529,48	0,895347118	0,895741761	-5,1301015193263738	6	-1,19780779	0,00459524617
2	1	0	0	0	7530,78	0,908348978	0,908769667	-5,0734559906025824	6	-1,20443785	0,00461060274
2	1	0	1	0	7532,08	0,921350777	0,921747506	-5,0066032248238752	6	-1,21099663	0,00461482396
2	1	0	0	0	7533,38	0,934352398	0,934895635	-4,9409446120262182	6	-1,2174629	0,00461926777
2	1	0	0	0	7534,68	0,947354257	0,947943568	-4,8770318875710214	6	-1,22383368	0,00462315092
2	1	0	1	0	7535,98	0,960356057	0,960891485	-4,7865761853754592	6	-1,23012042	0,00459938031
2	1	0	0	0	7537,28	0,973357856	0,973939478	-4,720655468602983	6	-1,2363025	0,00459763268
2	1	0	1	0	7538,58	0,986359715	0,986867249	-4,6473687986532826	6	-1,24239159	0,0045863362
2	1	0	0	0	7539,88	0,999361455	0,999945283	-4,5768813813726048	6	-1,24839187	0,00457663089
2	1	0	1	0	7541,18	1,01236308	1,01267278	-4,5132079633573773	6	-1,25429928	0,00457040267
2	1	0	0	0	7542,48	1,025365	1,02597117	-4,4447534717619418	6	-1,26012671	0,00456018886
2	1	0	1	0	7543,78	1,03836656	1,03876877	-4,366552981237561	6	-1,26584923	0,00453583896
2	1	0	0	0	7545,08	1,05136836	1,05190682	-4,300956706206007	6	-1,27147937	0,00452420581
2	1	0	0	0	7546,38	1,06437027	1,0649848	-4,2361188766856941	6	-1,27702677	0,00451140199
2	1	0	1	0	7547,68	1,07737207	1,07782245	-4,1638272615770547	6	-1,28248692	0,00448786654
2	1	0	0	0	7548,98	1,09037387	1,09082043	-4,0890269105633197	6	-1,28785062	0,00446039392
2	1	0	1	0	7550,28	1,10337555	1,10381842	-4,0170852566758842	6	-1,29311967	0,00443413248
2	1	0	0	0	7551,58	1,11637747	1,11700642	-3,9543822805086963	6	-1,29830039	0,00441707019
2	1	0	1	0	7552,88	1,12937915	1,12982428	-3,8908457954724691	6	-1,3034023	0,00439597201
2	1	0	0	0	7554,18	1,14238083	1,14303231	-3,8179018273949677	6	-1,30841339	0,00436398527
2	1	0	1	0	7555,48	1,15538275	1,15598011	-3,755717892199769	6	-1,31333685	0,00434153527
2	1	0	0	0	7556,78	1,16838455	1,16887796	-3,6884009515245741	6	-1,31818271	0,00431129057
2	1	0	0	0	7558,08	1,18138623	1,18197596	-3,6331091634929325	6	-1,32294679	0,00429424783
2	1	0	1	0	7559,38	1,19438803	1,19483376	-3,5765775802234925	6	-1,32763374	0,00427341554
2	1	0	0	0	7560,68	1,20738995	1,20808196	-3,4990011863410618	6	-1,33222401	0,00422708038
2	1	0	1	0	7561,98	1,22039175	1,2209897	-3,4420725641151366	6	-1,33673167	0,00420273514
2	1	0	0	0	7563,28	1,23339331	1,2340678	-3,3939763146142214	6	-1,34117544	0,00418839697
2	1	0	1	0	7564,58	1,24639523	1,24697554	-3,3318137327829901	6	-1,34554708	0,00415469008
2	1	0	0	0	7565,88	1,25939703	1,26000345	-3,2749170536796442	6	-1,34983706	0,00412640674
2	1	0	1	0	7567,18	1,27239883	1,27306151	-3,2006818217535763	6	-1,35404277	0,00407466479
2	1	0	0	0	7568,48	1,28540063	1,2857089	-3,1448279656469824	6	-1,35816085	0,00404333323
2	1	0	1	0	7569,78	1,29840243	1,29880691	-3,0905938338736582	6	-1,36221099	0,00401408458
2	1	0	1	0	7571,08	1,31140435	1,31198514	-3,0208623123665709	6	-1,36618185	0,00396332657
2	1	0	0	0	7572,38	1,32440591	1,32496309	-2,9626097511500154	6	-1,37006974	0,00392534863
2	1	0	1	0	7573,68	1,33740771	1,33789086	-2,9019586909562368	6	-1,37388253	0,00388250407
2	1	0	0	0	7574,98	1,35040963	1,35098886	-2,8479714530209766	6	-1,37762046	0,00384757761
2	1	0	1	0	7576,28	1,36341131	1,36379647	-2,7890293473998746	6	-1,38128567	0,00380366831
2	1	0	0	0	7577,58	1,37641299	1,3769145	-2,724787796537079	6	-1,38486552	0,00375179993
2	1	0	1	0	7578,88	1,38941491	1,39004266	-2,6647062456856202	6	-1,38836884	0,00370405545
2	1	0	0	0	7580,18	1,40241671	1,40290034	-2,6102552941689901	6	-1,39179862	0,003661928
2	1	0	1	0	7581,48	1,41541839	1,41578817	-2,5500106519708989	6	-1,39515054	0,00361027499
2	1	0	1	0	7582,78	1,42842019	1,42870593	-2,4890865739434922	6	-1,39842892	0,00355617283
2	1	0	0	0	7584,08	1,44142199	1,44180393	-2,4334989376366138	6	-1,40163243	0,00350862835
2	1	0	1	0	7585,38	1,45442379	1,45488191	-2,3799879588186762	6	-1,40476465	0,00346260145
2	1	0	0	0	7586,68	1,46742547	1,46820033	-2,3135879095643782	6	-1,40782166	0,0033968105
2	1	0	1	0	7587,98	1,48042738	1,48127842	-2,264544041827321	6	-1,41079891	0,00335442019
2	1	0	0	0	7589,28	1,49342918	1,49409592	-2,2105712313204896	6	-1,41370976	0,00330280536
2	1	0	1	0	7590,58	1,50643098	1,50681353	-2,1563193487624374	6	-1,41655064	0,00324917119
2	1	0	0	0	7591,88	1,51943266	1,52004182	-2,1040217746049069	6	-1,41931963	0,00319820107
2	1	0	1	0	7593,18	1,53243446	1,53291953	-2,0510126811762746	6	-1,42202199	0,00314403744
2	1	0	1	0	7594,48	1,54543626	1,54593742	-2,0026188020904909	6	-1,42465746	0,00309592346
2	1	0	0	0	7595,78	1,55843794	1,55901539	-1,9504664751390627	6	-1,42722738	0,00304080732
2	1	0	1	0	7597,09	1,57143974	1,57224357	-1,8948620203882419	6	-1,42972469	0,00297918473
2	1	0	0	0	7598,39	1,58444154	1,58490109	-1,8408391177654266	6	-1,43215382	0,00291754794
2	1	0	1	0	7599,69	1,59744334	1,5980891	-1,7918959334492646	6	-1,43451774	0,00286360946
2	1	0	0	0	7600,99	1,61044502	1,61101699	-1,7440457263340621	6	-1,43681765	0,00280968728
2	1	0	1	0	7602,29	1,62344682	1,62411511	-1,6970490260670598	6	-1,43905437	0,00275620306
2	1	0	0	0	7603,59	1,63644862	1,63698268	-1,6580556333065034	6	-1,441239	0,00271420833
2	1	0	1	0	7604,89	1,64945042	1,64991057	-1,6088967795173302	6	-1,44335926	0,0026545357
2	1	0	1	0	7606,19	1,66245222	1,66303861	-1,5624016746878678	6	-1,44542038	0,00259833434
2	1	0	0	0	7607,49	1,67545414	1,67576611	-1,5018647095809427	6	-1,44741344	0,002516774
2	1	0	1	0	7608,79	1,68845594	1,68883419	-1,4530158064638595	6	-1,44933331	0,00245390274
2	1	0	0	0	7610,09	1,7014575	1,70204246	-1,3983802491178139	6	-1,45118558	0,00238010264
2	1	0	1	0	7611,39	1,71445942	1,7151804	-1,3569305182124154	6	-1,45297682	0,0023273807
2	1	0	0	0	7612,69	1,72746122	1,72793818	-1,3017041357234155	6	-1,45470583	0,00224926416
2	1	0	1	0	7613,99	1,74046278	1,74092591	-1,2524166886384301	6	-1,45636392	0,00218036468
2	1	0	0	0	7615,29	1,7534647	1,75391376	-1,203190173022449	6	-1,4579618	0,00211029174
2	1	0	1	0	7616,59	1,7664665	1,76694179	-1,154964065179227	6	-1,45949638	0,00204075431
2	1	0	1	0	7617,89	1,77946746	1,77982879	-1,1020895205875494	6	-1,46096599	0,00196153065
2	1	0	0	0	7619,19	1,7924701	1,7926271	-1,0562618598341942	6	-1,4623692	0,00189348368
2	1	0	1	0	7620,49	1,80547178	1,80580533	-1,0104912162447981	6	-1,46371186	0,00182475045
2	1	0	0	0	7621,79	1,81847358	1,81892335	-0,96476995665580032	6	-1,46499336	0,00175484258
2	1	0	1	0	7623,09	1,83147538	1,83200157	-0,91486339643597786	6	-1,4662149	0,00167603116
2	1	0	0	0	7624,39	1,84447718	1,84481919	-0,86623544866840166	6	-1,46737218	0,00159804779
2	1	0	1	0	7625,69	1,8574791	1,85784709	-0,81894228079666573	6	-1,46846759	0,00152146956
2	1	0	0	0	7626,99	1,8704809	1,87117541	-0,77171550303076941	6	-1,46950173	0,00144401507
2	1	0	1	0	7628,29	1,88348246	1,88415325	-0,72790014945591514	6	-1,4704771	0,0013714754
2	1	0	0	0	7629,59	1,89648438	1,89698088	-0,6814090413972736	6	-1,47139144	0,00129261997
2	1	0	0	0	7630,89	1,90948617	1,9101193	-0,6337727719607465	6	-1,47224581	0,00121058163
2	1	0	1	0	7632,19	1,92248774	1,92295682	-0,5881397887133079	6	-1,47303939	0,0011309674
2	1	0	0	0	7633,49	1,93548965	1,93610489	-0,54699248634278816	6	-1,47377598	0,00105903484
2	1	0	1	0	7634,79	1,94849145	1,94915283	-0,50211180808643616	6	-1,47445536	0,000978692668
2	1	0	0	0	7636,13	1,96189332	1,96250129	-0,45229440244535635	6	-1,47509515	0,000887628354
2	1	0	1	0	7637,43	1,97489512	1,97549927	-0,40565585267419648	6	-1,47565341	0,000801372866
2	1	0	0	0	7638,73	1,98789704	1,98853695	-0,36204875578793504	6	-1,47615182	0,000719947333
2	1	0	1	0	7640,03	2,0008986	2,00131488	-0,31895637760559725	6	-1,47659421	0,00063833216
2	1	0	0	0	7641,33	2,01390028	2,01444268	-0,2760968257983527	6	-1,47698057	0,000556181243
2	1	0	1	0	7642,63	2,02690196	2,02754021	-0,23227777145599581	6	-1,47731066	0,000470952509
2	1	0	1	0	7643,93	2,03990388	2,04042864	-0,19066529907286211	6	-1,47758532	0,000389038934
2	1	0	0	0	7645,23	2,05290556	2,05360675	-0,14669701616124518	6	-1,47780347	0,000301257969
2	1	0	1	0	7646,53	2,06590748	2,06648445	-0,10453905471755843	6	-1,47796631	0,000216028333
2	1	0	0	0	7647,83	2,0789094	2,07960248	-0,062278063560370138	6	-1,47807431	0,000129513617
2	1	0	1	0	7649,17	2,09231114	2,09294081	-0,019103829249312726	6	-1,47812819	3,99831843E-005
2	1	0	0	0	7650,55	2,10611296	2,1067698	0,02443851085748361	6	-1,47812414	5,14863168E-005
2	1	0	1	0	7651,85	2,11911464	2,11952734	0,066604689112864435	6	-1,47806478	0,000141170458
2	1	0	0	0	7653,19	2,13251686	2,13308644	0,10946190958687408	6	-1,4779464	0,000233491723
2	1	0	1	0	7654,49	2,14551854	2,14619446	0,15089899266604368	6	-1,47777665	0,000323858578
2	1	0	0	0	7655,79	2,15851998	2,1590519	0,19232705029814179	6	-1,47755301	0,000415244082
2	1	0	0	0	7657,09	2,17152143	2,17188859	0,23397078453043462	6	-1,47727573	0,000508158468
2	1	0	1	0	7658,39	2,18452382	2,18491745	0,2754165572114289	6	-1,47694445	0,00060176244
2	1	0	0	0	7659,69	2,1975255	2,1980257	0,31608242300959821	6	-1,47655916	0,000694757269
2	1	0	1	0	7660,99	2,21052742	2,21096349	0,35903390590101389	6	-1,47611988	0,000793810876
2	1	0	0	0	7662,29	2,22352934	2,22386122	0,40045808178062093	6	-1,47562563	0,000890563184
2	1	0	1	0	7663,59	2,23653078	2,23705935	0,44165240290264051	6	-1,47507715	0,000988002634
2	1	0	0	0	7664,89	2,2495327	2,25009727	0,48335715864474541	6	-1,47447491	0,0010876006
2	1	0	1	0	7666,19	2,26253462	2,26280475	0,52274801116436365	6	-1,47381997	0,00118287664
2	1	0	0	0	7667,49	2,27553606	2,27607322	0,56402277123803834	6	-1,47311425	0,00128375716
2	1	0	0	0	7668,79	2,28853726	2,28921056	0,60495902630352026	6	-1,47235441	0,00138487865
2	1	0	1	0	7670,10	2,3015399	2,30216908	0,64744653475160525	6	-1,47153938	0,00149053137
2	1	0	0	0	7671,40	2,31454158	2,3149066	0,69057809266572083	6	-1,47066927	0,00159862381
2	1	0	1	0	7672,70	2,3275435	2,32816482	0,73157956280435072	6	-1,46974325	0,00170323777
2	1	0	0	0	7674,00	2,34054518	2,34103251	0,77299963310360819	6	-1,46876287	0,00180961727
2	1	0	1	0	7675,30	2,35354686	2,35416079	0,81772247919191795	6	-1,4677279	0,00192505016
2	1	0	0	0	7676,60	2,36654878	2,36688852	0,85934611192593907	6	-1,46663666	0,00203397637
2	1	0	1	0	7677,90	2,37955046	2,38009644	0,8974991322805463	6	-1,46549475	0,00213613454
2	1	0	0	0	7679,20	2,39255238	2,3932147	0,94342171431829363	6	-1,46429515	0,00225781067
2	1	0	0	0	7680,50	2,40555429	2,40622234	0,98929588555876442	6	-1,46303844	0,00238046586
2	1	0	1	0	7681,83	2,41885591	2,41951084	1,034250409342345	6	-1,46169269	0,00250238017
2	1	0	0	0	7683,13	2,43185759	2,43254876	1,0772660812362976	6	-1,46032155	0,00262050238
2	1	0	1	0	7684,43	2,44485927	2,4453063	1,1203764962653349	6	-1,45889163	0,0027396637
2	1	0	0	0	7685,73	2,45786119	2,45823431	1,1691961617519446	6	-1,45740294	0,00287415809
2	1	0	1	0	7687,03	2,4708631	2,47137237	1,2147289616987118	6	-1,45585334	0,00300204754
2	1	0	0	0	7688,33	2,48386478	2,48432994	1,2631024370590875	6	-1,45424271	0,00313796313
2	1	0	1	0	7689,63	2,49686646	2,49739814	1,3109159804880654	6	-1,45256996	0,00327387918
2	1	0	0	0	7690,93	2,50986862	2,5100956	1,3558341671402267	6	-1,4508357	0,00340327341
2	1	0	0	0	7692,23	2,52286959	2,52337289	1,4007016380736266	6	-1,44904232	0,00353449257
2	1	0	1	0	7693,53	2,53587174	2,53632164	1,4462059869741405	6	-1,44719124	0,00366804353
2	1	0	0	0	7694,83	2,5488739	2,54943991	1,4969404162839021	6	-1,44527543	0,00381635968
2	1	0	1	0	7696,13	2,56187558	2,56231761	1,5430803233757594	6	-1,44330084	0,003953862
2	1	0	0	0	7697,43	2,57487726	2,5753355	1,5936684943735565	6	-1,4412595	0,00410423102
2	1	0	1	0	7698,73	2,58787918	2,58826327	1,6366718256225178	6	-1,43915927	0,00423613749
2	1	0	0	0	7700,03	2,60088086	2,60134125	1,6798430470128826	6	-1,43699813	0,00436984515
2	1	0	1	0	7701,33	2,61388254	2,61424923	1,7334069907665181	6	-1,43477201	0,00453155767
2	1	0	0	0	7702,63	2,62688446	2,62735724	1,7861119012037926	6	-1,43248188	0,00469275424
2	1	0	1	0	7703,93	2,63988614	2,64044523	1,8363088630139827	6	-1,43013	0,00484867301
2	1	0	1	0	7705,23	2,65288806	2,65349293	1,8830846119326666	6	-1,42771292	0,0049967519
2	1	0	0	0	7706,53	2,66588974	2,66635084	1,9359772652387584	6	-1,42522871	0,0051619946
2	1	0	1	0	7707,83	2,67889142	2,67957902	1,984907655045385	6	-1,42268288	0,0053187171
2	1	0	0	0	7709,13	2,69189334	2,69251704	2,031568278868991	6	-1,42006934	0,00547003234
2	1	0	1	0	7710,43	2,70489526	2,70531416	2,0862347980340355	6	-1,41739345	0,00564392051
2	1	0	0	0	7711,73	2,71789694	2,71845269	2,1353499336788992	6	-1,41465259	0,00580484793
2	1	0	1	0	7713,03	2,73089862	2,73128033	2,1795965023338794	6	-1,41184926	0,00595308887
2	1	0	0	0	7714,33	2,74390054	2,74448848	2,2359703058997661	6	-1,40897858	0,00613659481
2	1	0	1	0	7715,63	2,75690222	2,75722599	2,2772493890176266	6	-1,40603638	0,00627889112
2	1	0	0	0	7716,93	2,76990438	2,77025437	2,3324403807600307	6	-1,40303659	0,00646145316
2	1	0	0	0	7718,23	2,78290582	2,78349209	2,3854127327601126	6	-1,39996827	0,00663977768
2	1	0	1	0	7719,53	2,7959075	2,79649019	2,447051377967	6	-1,39683259	0,00684315525
2	1	0	0	0	7720,83	2,80890965	2,80937791	2,505131275703512	6	-1,39361691	0,00703786034
2	1	0	1	0	7722,13	2,8219111	2,82238579	2,570556182414288	6	-1,39031029	0,00725510111
2	1	0	0	0	7723,43	2,83491278	2,8354938	2,6249934751540422	6	-1,38693464	0,00744315283
2	1	0	1	0	7724,73	2,84791493	2,84843183	2,680364351719616	6	-1,38348639	0,00763483532
2	1	0	0	0	7726,03	2,86091661	2,86140943	2,7390970916797651	6	-1,37996113	0,00783767831
2	1	0	1	0	7727,33	2,87391829	2,87445784	2,801519960785903	6	-1,37635863	0,00805285107
2	1	0	0	0	7728,63	2,88692021	2,88737535	2,8608197259406224	6	-1,37268758	0,00826026034
2	1	0	0	0	7729,93	2,89992213	2,90064383	2,9132339538385421	6	-1,36892998	0,00845025387
2	1	0	1	0	7731,23	2,91292381	2,91344118	2,9748216097553562	6	-1,36510575	0,00866696797
2	1	0	0	0	7732,53	2,92592549	2,92644906	3,0151715036481568	6	-1,36121738	0,00882374588
2	1	0	1	0	7733,83	2,93892741	2,93916678	3,0625786011417587	6	-1,35726643	0,00900142919
2	1	0	0	0	7735,13	2,95192909	2,95245504	3,1268122171362214	6	-1,35324728	0,00923177227
2	1	0	1	0	7736,43	2,96493077	2,965523	3,1664975285530054	6	-1,34915662	0,00939032156
2	1	0	0	0	7737,73	2,97793269	2,97830081	3,2451463329295366	6	-1,34498787	0,00966502167
2	1	0	1	0	7739,03	2,99093437	2,99133825	3,2561589777469491	6	-1,3407501	0,00974027254
2	1	0	0	0	7740,33	3,00393605	3,00438643	3,306252659608919	6	-1,33647692	0,00993326027
2	1	0	0	0	7741,63	3,01693797	3,01745462	3,3575344829671462	6	-1,33214366	0,0101312082
2	1	0	1	0	7742,94	3,02993965	3,03031206	3,4135881910721363	6	-1,32774317	0,0103442371
2	1	0	0	0	7744,24	3,04294133	3,04330015	3,4619545042514656	6	-1,32326293	0,0105357664
2	1	0	1	0	7745,54	3,05594325	3,05654836	3,5334117611249222	6	-1,31870461	0,0108000441
2	1	0	0	0	7746,84	3,06894517	3,06947613	3,567677881568656	6	-1,31409156	0,0109509025
2	1	0	1	0	7748,14	3,08194685	3,08251405	3,6363716237247034	6	-1,30940378	0,0112091666
2	1	0	0	0	7749,44	3,09494877	3,0952518	3,7204928025603258	6	-1,30461276	0,0115158623
2	1	0	1	0	7750,74	3,10795045	3,10837984	3,7730769068002701	6	-1,29974031	0,0117281564
2	1	0	0	0	7752,04	3,12095213	3,12147784	3,8269522140423507	6	-1,29479766	0,0119457468
2	1	0	0	0	7753,34	3,13395381	3,13472676	3,8739630203784403	6	-1,28979158	0,0121438159
2	1	0	1	0	7754,64	3,14695573	3,14743352	3,9077105323473696	6	-1,2847259	0,0122992592
2	1	0	0	0	7755,94	3,15995717	3,16055155	3,9940306109686643	6	-1,27957344	0,0126233399
2	1	0	1	0	7757,24	3,17295933	3,17348933	4,019952138264969	6	-1,2743665	0,0127572753
2	1	0	0	0	7758,54	3,18596101	3,18652749	4,0942012270291597	6	-1,26908278	0,0130462851
2	1	0	1	0	7759,84	3,19896293	3,1994853	4,1538881448407994	6	-1,26372313	0,0132903038
2	1	0	0	0	7761,14	3,21196461	3,212533	4,2023639467855213	6	-1,2583065	0,0135002332
2	1	0	1	0	7762,44	3,22496629	3,22535062	4,2534059261282093	6	-1,25281584	0,0137187252
2	1	0	0	0	7763,74	3,23796821	3,23839879	4,3017000568409747	6	-1,24725056	0,0139306206
2	1	0	1	0	7765,04	3,2509706	3,25143838	4,3627275045234054	6	-1,2416141	0,0141851399
2	1	0	1	0	7766,34	3,26397181	3,26447487	4,4527242742478707	6	-1,23588526	0,0145358061
2	1	0	0	0	7767,64	3,27697349	3,27748227	4,4861645785470605	6	-1,23008621	0,014703325
2	1	0	1	0	7768,94	3,2899754	3,29058051	4,5578599994381152	6	-1,22422326	0,0149980057
2	1	0	0	0	7770,24	3,30297709	3,30367851	4,6556791414817056	6	-1,21822655	0,0153808668
2	1	0	1	0	7771,54	3,31597877	3,31630611	4,6687107694645747	6	-1,21216428	0,0154828737
2	1	0	0	0	7772,84	3,32898068	3,32938433	4,7650014720857146	6	-1,20602119	0,0158645213
2	1	0	1	0	7774,14	3,34198236	3,3423121	4,8471852255364211	6	-1,19977891	0,0162008051
2	1	0	0	0	7775,44	3,35498405	3,35538983	4,6267471735676154	6	-1,19365227	0,0155245401
2	1	0	1	0	7776,74	3,36798573	3,36837769	4,7325714739660326	6	-1,18756473	0,015941089
2	1	0	1	0	7778,04	3,38098764	3,38150597	4,7989370189607002	6	-1,18137741	0,0162276346
2	1	0	0	0	7779,34	3,39398932	3,39445376	4,8832078501582182	6	-1,17507565	0,0165758226
2	1	0	1	0	7780,64	3,406991	3,40763164	5,0445970619718208	6	-1,16860771	0,0171901286
2	1	0	0	0	7781,94	3,41999292	3,42053986	5,2119456777970042	6	-1,16194332	0,0178276673
2	1	0	1	0	7783,24	3,4329946	3,43339729	5,2673732452094272	6	-1,15514016	0,0180849843
2	1	0	0	0	7784,54	3,44599652	3,4466455	5,3719700065751821	6	-1,14825284	0,0185152758
2	1	0	1	0	7785,84	3,4589982	3,45947313	5,4538054044048038	6	-1,1412245	0,0188672934
2	1	0	0	0	7787,14	3,47200036	3,47235107	5,5235980277259955	6	-1,13408017	0,0191798713
2	1	0	1	0	7788,44	3,4850018	3,48537922	5,493342785785593	6	-1,12691033	0,0191463828
2	1	0	1	0	7789,74	3,49800229	3,49865556	5,5579595492715443	6	-1,1197176	0,0194453858
2	1	0	0	0	7791,04	3,51100564	3,51147485	5,5881005090971667	6	-1,11245179	0,0196224749
2	1	0	1	0	7792,34	3,52400708	3,52477312	5,8133531647423808	6	-1,10503328	0,0204907507
2	1	0	0	0	7793,64	3,53700924	3,53762078	5,9009694221118848	6	-1,09742844	0,0208753925
2	1	0	1	0	7794,94	3,55001092	3,55064893	5,9029726100464397	6	-1,08975255	0,0209593829
2	1	0	0	0	7796,24	3,56301284	3,56334662	6,0085958080986893	6	-1,08200872	0,0214107092
2	1	0	1	0	7797,54	3,57601452	3,57661462	6,0934500098228454	6	-1,0741421	0,0217939224
2	1	0	0	0	7798,84	3,58901644	3,58958244	6,1774731104572634	6	-1,06617165	0,0221745484
2	1	0	1	0	7800,14	3,60201812	3,60252023	6,2423650200168192	6	-1,05809295	0,0224882457
2	1	0	1	0	7801,44	3,61501908	3,61556792	6,3039351942805837	6	-1,0499326	0,0227923058
2	1	0	0	0	7802,74	3,62802172	3,62857652	6,3709995796283187	6	-1,04166853	0,0231176596
2	1	0	1	0	7804,04	3,6410234	3,64147425	6,4717588300506394	6	-1,0333128	0,0235667434
2	1	0	0	0	7805,34	3,65402532	3,65462208	6,5746444861094131	6	-1,02483487	0,0240278412
2	1	0	1	0	7806,64	3,667027	3,66748977	6,6329392467935475	6	-1,01624918	0,0243262369
2	1	0	0	0	7807,94	3,68002868	3,68056774	6,7224418943127091	6	-1,00755715	0,0247424021
2	1	0	1	0	7809,24	3,6930306	3,69365621	6,7619628856579533	6	-0,998789191	0,0249763653
2	1	0	0	0	7810,54	3,70603228	3,7066741	6,8598170926173414	6	-0,989974022	0,0254271068
2	1	0	1	0	7811,84	3,71903396	3,71973205	6,8998157978057574	6	-0,981030643	0,0256654657
2	1	0	0	0	7813,14	3,73203588	3,73256946	7,0081445102890138	6	-0,972012997	0,0261583868
2	1	0	0	0	7814,44	3,74503732	3,74553823	7,14735775784304	6	-0,962812006	0,0267707016
2	1	0	1	0	7815,75	3,75803924	3,75843477	7,1761491075157978	6	-0,953500688	0,0269710887
2	1	0	0	0	7817,05	3,77104115	3,77161336	7,2999893253048499	6	-0,944112957	0,0275327377
2	1	0	1	0	7818,35	3,78404284	3,78454137	7,4344799593090726	6	-0,934546888	0,0281360969
2	1	0	0	0	7819,65	3,79704452	3,79735899	7,4816207016507686	6	-0,9248299	0,0284103993
2	1	0	1	0	7820,95	3,81004643	3,81050706	7,6151038929820058	6	-0,914978921	0,0290174074
2	1	0	0	0	7822,25	3,82304811	3,8234148	7,6788542717695232	6	-0,90506357	0,029359445
2	1	0	1	0	7823,55	3,83605003	3,83668303	7,7556813880801062	6	-0,895021558	0,0297560915
2	1	0	0	0	7824,85	3,84905171	3,84947085	7,8444089318315277	6	-0,884886682	0,0301968232
2	1	0	0	0	7826,15	3,86205387	3,86226845	8,057867782811328	6	-0,874606967	0,0311216488
2	1	0	1	0	7827,45	3,87505531	3,87558675	8,1351744259396813	6	-0,864079833	0,0315285735
2	1	0	0	0	7828,75	3,88805699	3,88853455	8,3281547725200794	6	-0,853370607	0,0323843174
2	1	0	1	0	7830,05	3,90105915	3,90158248	8,4174291665355264	6	-0,842488766	0,032841295
2	1	0	0	0	7831,35	3,91406059	3,91455054	8,7066374098261376	6	-0,831207514	0,0340825729
2	1	0	1	0	7832,65	3,92706275	3,92754841	8,960197592775017	6	-0,819673836	0,0351916105
2	1	0	0	0	7833,95	3,94006443	3,94077635	9,2869995782772749	6	-0,807842672	0,0365979895
2	1	0	1	0	7835,25	3,95306635	3,95376444	9,4125673299034394	6	-0,795675218	0,0372150727
2	1	0	0	0	7836,55	3,96606803	3,96649194	9,7238329599300646	6	-0,783281684	0,0385695063
2	1	0	0	0	7837,85	3,97906852	3,9796977	9,8307094213366387	6	-0,770590603	0,039123252
2	1	0	1	0	7839,15	3,99207163	3,99249792	9,9197109490633152	6	-0,757756233	0,0396044254
2	1	0	0	0	7840,49	4,00547314	4,00584602	10,03148378431797	6	-0,744397461	0,0401845798
2	1	0	1	0	7841,79	4,01847506	4,01879358	10,196966769794586	6	-0,73128444	0,0409795046
2	1	0	0	0	7843,09	4,03147697	4,03220224	10,531595925490024	6	-0,717865229	0,0424655229
2	1	0	1	0	7844,39	4,04447842	4,04493952	10,616424453755208	6	-0,704103112	0,0429427959
2	1	0	0	0	7845,69	4,05748034	4,05800819	10,7979151805242	6	-0,690191209	0,0438180268
2	1	0	1	0	7846,99	4,07048225	4,07094574	10,936444272597629	6	-0,676100075	0,0445216708
2	1	0	0	0	7848,29	4,0834837	4,08402395	10,98009514560303	6	-0,661847293	0,0448429734
2	1	0	1	0	7849,59	4,09648561	4,09701204	11,381301509837301	6	-0,647319496	0,0466293283
2	1	0	0	0	7850,89	4,10948849	4,11013126	11,394563845487568	6	-0,632513881	0,0468331538
2	1	0	0	0	7852,19	4,1224885	4,12303686	11,516143203865795	6	-0,617626429	0,0474814847
2	1	0	1	0	7853,49	4,13549089	4,13598537	11,620724439620971	6	-0,602619767	0,0480631478
2	1	0	0	0	7854,79	4,14849329	4,14899302	12,040058736999838	6	-0,587082744	0,0499541201
2	1	0	1	0	7856,09	4,16149473	4,16188097	12,45717840145025	6	-0,57120043	0,0518452935
2	1	0	0	0	7857,39	4,17449617	4,17496872	12,604065542419733	6	-0,554834843	0,0526215807
2	1	0	1	0	7858,69	4,18749809	4,18807697	12,565435290336645	6	-0,538424194	0,0526250117
2	0	0	0	1	7859,94	4,20000076	4,20071507	12,67017129751349	6	-0,52264148	0,0532237813
2	0	0	1	1	7861,22	4,18719816	4,18771648	12,322700386246026	6	-0,506650567	0,0516039766
2	0	0	0	1	7862,52	4,17419672	4,17471886	12,02863623450196	6	-0,490812033	0,0502161756
2	0	0	1	1	7863,82	4,1611948	4,16175127	11,875703108807414	6	-0,475268126	0,0494237207
2	0	0	0	1	7865,12	4,14819288	4,14870262	11,731508110960277	6	-0,459846884	0,0486705378
2	0	0	1	1	7866,42	4,13519144	4,13564491	11,485414209465176	6	-0,444734216	0,0474995933
2	0	0	0	1	7867,72	4,12218904	4,12266684	11,365622267127008	6	-0,429903209	0,0468566753
2	0	0	0	1	7869,02	4,10918856	4,10965061	11,138211946950918	6	-0,415264457	0,0457741581
2	0	0	1	1	7870,32	4,09618616	4,0967021	10,873535301698298	6	-0,400957525	0,0445456356
2	0	0	0	1	7871,62	4,08318377	4,08365345	10,431353320678056	6	-0,387133181	0,0425980315
2	0	0	1	1	7872,92	4,07018232	4,0704751	10,19577053685984	6	-0,373719782	0,0415016301
2	0	0	0	1	7874,22	4,0571804	4,05775785	9,9652367730935219	6	-0,360594928	0,0404365174
2	0	0	1	1	7875,52	4,04417849	4,04469967	9,7247845331827994	6	-0,347811222	0,0393338315
2	0	0	0	1	7876,82	4,03117657	4,03178215	9,5441528807083674	6	-0,335310876	0,0384799466
2	0	0	1	1	7878,12	4,01817513	4,01846313	9,2177658875783027	6	-0,323143929	0,0370412506
2	0	0	0	1	7879,42	4,00517321	4,00555611	8,9397055804729178	6	-0,311334461	0,0358084925
2	0	0	1	1	7880,72	3,99217153	3,99269819	8,6779788608351962	6	-0,299885184	0,0346485488
2	0	0	0	1	7882,02	3,97916842	3,97951841	8,4844427273957606	6	-0,288676083	0,0337639973
2	0	0	0	1	7883,32	3,96616817	3,96655202	8,2130787049730573	6	-0,277806222	0,0325776041
2	0	0	1	1	7884,63	3,95316625	3,95337367	8,0311936487754074	6	-0,267232358	0,0317503102
2	0	0	0	1	7885,93	3,94016457	3,94053626	7,8413795754313536	6	-0,256998926	0,0308992397
2	0	0	1	1	7887,23	3,92716265	3,92758846	7,5938179939984986	6	-0,246966332	0,0298253912
2	0	0	0	1	7888,53	3,91416097	3,91462064	7,379901866118112	6	-0,237224638	0,0288895164
2	0	0	1	1	7889,83	3,90115881	3,90150189	7,1570735325415706	6	-0,227777407	0,0279233363
2	0	0	0	1	7891,13	3,88815737	3,8885448	6,9875030939777818	6	-0,21856986	0,0271712188
2	0	0	1	1	7892,43	3,87515569	3,87579679	6,7658280804753229	6	-0,209633723	0,0262229741
2	0	0	0	1	7893,73	3,86215353	3,86243868	6,5641989648342234	6	-0,200964868	0,0253538154
2	0	0	0	1	7895,03	3,84915209	3,84947062	6,3691327894727296	6	-0,192565799	0,0245177895
2	0	0	1	1	7896,33	3,83614993	3,83648276	6,1691537052393037	6	-0,184417859	0,0236678515
2	0	0	0	1	7897,63	3,82314825	3,82345462	5,9881106677154611	6	-0,176514953	0,0228952691
2	0	0	1	1	7898,93	3,81014633	3,81061721	5,8291708305477952	6	-0,168836057	0,0222127382
2	0	0	0	1	7900,23	3,79714465	3,79742885	5,6064885780215123	6	-0,16140461	0,0212902408
2	0	0	1	1	7901,53	3,78414297	3,78463149	5,4598427005111994	6	-0,154208362	0,0206634924
2	0	0	0	1	7902,83	3,77114105	3,77153325	5,3255036585032941	6	-0,147201106	0,0200853143
2	0	0	1	1	7904,13	3,75813937	3,75846505	5,1974624531964582	6	-0,140362963	0,0195344817
2	0	0	0	1	7905,43	3,74513698	3,745646	5,1006259215646778	6	-0,133659214	0,0191051383
2	0	0	0	1	7906,77	3,73173499	3,73211837	4,9568144645580077	6	-0,126917392	0,0184994191
2	0	0	1	1	7908,07	3,71873403	3,71947169	4,8272242483993376	6	-0,120556101	0,0179547239
2	0	0	0	1	7909,37	3,70573235	3,70639372	4,6954307891428397	6	-0,114366852	0,0174031146
2	0	0	1	1	7910,67	3,69273043	3,69312525	4,5686784113446886	6	-0,108344108	0,0168727022
2	0	0	0	1	7911,97	3,67972875	3,6801672	4,4352955246965069	6	-0,102509215	0,0163226295
2	0	0	1	1	7913,27	3,66672707	3,66714931	4,3580785381297248	6	-0,0967918634	0,0159817245
2	0	0	0	1	7914,57	3,65372515	3,65427208	4,2414239409069126	6	-0,0912077948	0,0154993171
2	0	0	1	1	7915,87	3,64072347	3,64149427	4,1300509547193939	6	-0,0857748017	0,0150395567
2	0	0	0	1	7917,17	3,62772155	3,62807584	4,0313906297087565	6	-0,0804766417	0,014626191
2	0	0	1	1	7918,47	3,61471844	3,61530685	3,911447948832617	6	-0,0753061548	0,0141410846
2	0	0	1	1	7919,77	3,60171795	3,60208964	3,8233140570421824	6	-0,0702695921	0,0137719195
2	0	0	0	1	7921,07	3,58871627	3,58923221	3,7225779679914125	6	-0,0653623268	0,013361197
2	0	0	1	1	7922,37	3,57571459	3,57624435	3,6324683291216646	6	-0,0605774112	0,0129905939
2	0	0	0	1	7923,67	3,56271267	3,56306601	3,543994265298039	6	-0,0559298247	0,0126274852
2	0	0	1	1	7924,97	3,54971099	3,55048871	3,4549786647160768	6	-0,0513767935	0,0122668631
2	0	0	0	1	7926,27	3,53670883	3,53729033	3,3785737218956128	6	-0,0469359383	0,0119509958
2	0	0	1	1	7927,57	3,52370739	3,52435255	3,3032136286298483	6	-0,0426008962	0,0116416896
2	0	0	0	1	7928,87	3,51070523	3,51137471	3,2205325551331046	6	-0,0383613594	0,0113084968
2	0	0	1	1	7930,17	3,49770331	3,49832797	3,1506923025160064	6	-0,034220919	0,0110221552
2	0	0	1	1	7931,47	3,48470211	3,48525882	3,0872763829926554	6	-0,0301660113	0,0107599571
2	0	0	0	1	7932,77	3,47169995	3,47221112	3,0170662080248256	6	-0,0261987485	0,0104758907
2	0	0	1	1	7934,07	3,45869827	3,45915294	2,9507399362822253	6	-0,0223197117	0,0102070607
2	0	0	0	1	7935,37	3,44569635	3,44640517	2,906534462546313	6	-0,0185161345	0,0100170951
2	0	0	1	1	7936,67	3,43269467	3,43327737	2,8265512579431018	6	-0,0147855254	0,00970433466
2	0	0	0	1	7937,97	3,41969275	3,42023921	2,7737857444832698	6	-0,0111434814	0,00948701054
2	0	0	1	1	7939,27	3,40669107	3,40726137	2,7104771131028685	6	-0,00757729728	0,00923530385
2	0	0	0	1	7940,57	3,39368939	3,39397335	2,6590215836962016	6	-0,00408804603	0,009024648
2	0	0	1	1	7941,87	3,38068748	3,38107514	2,6089600970347712	6	-0,000662488572	0,00882108975
2	0	0	1	1	7943,17	3,36768651	3,36812878	2,559694112026392	6	0,00269594975	0,00862137973
2	0	0	0	1	7944,47	3,35468411	3,35513973	2,5110499430447818	6	0,00599065097	0,00842492376
2	0	0	1	1	7945,77	3,3416822	3,34232187	2,4639579653739859	6	0,00922370423	0,00823534094
2	0	0	0	1	7947,07	3,32868052	3,32910371	2,4097066689282656	6	0,012393103	0,00802216306
2	0	0	1	1	7948,37	3,31567883	3,31620598	2,3660459307332803	6	0,0154977841	0,00784629583
2	0	0	0	1	7949,67	3,30267692	3,30321813	2,3212998379021846	6	0,0185441766	0,0076677599
2	0	0	1	1	7950,97	3,28967524	3,29023004	2,2761878805855779	6	0,0215327572	0,00748918159
2	0	0	0	1	7952,27	3,27667356	3,27713227	2,2372226497779318	6	0,024465451	0,00733167445
2	0	0	1	1	7953,57	3,26367164	3,26414442	2,199557730307177	6	0,0273469239	0,00717967423
2	0	0	1	1	7954,87	3,25066996	3,25117755	2,154635461004247	6	0,0301783271	0,00700510247
2	0	0	0	1	7956,17	3,23766804	3,23810816	2,1205272339284349	6	0,0329562575	0,00686649652
2	0	0	1	1	7957,48	3,22466636	3,22508025	2,082639633988336	6	0,0356870852	0,00671667978
2	0	0	0	1	7958,78	3,2116642	3,2120626	2,0373010815431626	6	0,0383647531	0,00654393854
2	0	0	1	1	7960,08	3,19866276	3,19915485	2,0054655211667168	6	0,0409945846	0,0064157946
2	0	0	0	1	7961,38	3,18566108	3,18592668	1,9662887404362336	6	0,0435778946	0,00626445189
2	0	0	1	1	7962,68	3,17265892	3,17324901	1,9310273745407613	6	0,0461111329	0,00612763083
2	0	0	0	1	7963,98	3,15965748	3,16024065	1,8950362571825536	6	0,0486017838	0,00598877063
2	0	0	1	1	7965,28	3,14665532	3,14700294	1,8616047631949187	6	0,0510473773	0,00585847581
2	0	0	0	1	7966,58	3,13365364	3,13419509	1,8327618148177862	6	0,0534489006	0,00574423326
2	0	0	0	1	7967,88	3,1206522	3,12137771	1,7948542262117117	6	0,0558046401	0,00560241798
2	0	0	1	1	7969,18	3,10765028	3,10816956	1,7711902813365037	6	0,0581222326	0,0055051595
2	0	0	0	1	7970,48	3,0946486	3,09528184	1,732739238068465	6	0,0603990667	0,00536331628
2	0	0	1	1	7971,78	3,08164692	3,08206344	1,704673456648983	6	0,0626340061	0,00525391195
2	0	0	0	1	7973,08	3,068645	3,06924582	1,6735336414227894	6	0,0648298115	0,00513648614
2	0	0	1	1	7974,38	3,05564308	3,05611801	1,6446989669154019	6	0,0669874027	0,00502639404
2	0	0	0	1	7975,68	3,04264164	3,04305983	1,6122297930220704	6	0,0691022277	0,00490611186
2	0	0	1	1	7976,98	3,02963948	3,03007174	1,5844497922807949	6	0,0711815208	0,00480099674
2	0	0	0	1	7978,28	3,01663709	3,01698232	1,5544174828594963	6	0,073220782	0,00468965014
2	0	0	0	1	7979,58	3,00363636	3,00420594	1,520451459102329	6	0,0752179548	0,00456774933
2	0	0	1	1	7980,88	2,9906342	2,99137878	1,4892044219498822	6	0,0771741793	0,00445477432
2	0	0	0	1	7982,18	2,97763252	2,9780302	1,4586243772258358	6	0,0790916905	0,00434382726
2	0	0	1	1	7983,48	2,96463084	2,96516252	1,427303295892969	6	0,0809672549	0,00423218636
2	0	0	0	1	7984,78	2,95162892	2,95208454	1,396738786250351	6	0,0828053504	0,004123291
2	0	0	1	1	7986,08	2,93862724	2,93907642	1,366929993964729	6	0,0846032575	0,00401751185
2	0	0	0	1	7987,38	2,92562556	2,92619872	1,3410680666565859	6	0,0863647088	0,00392423151
2	0	0	1	1	7988,68	2,91262364	2,91320086	1,3147091660648584	6	0,0880884305	0,00383001193
2	0	0	0	1	7989,98	2,89962196	2,90023327	1,2875484243656238	6	0,0897767767	0,00373419072
2	0	0	0	1	7991,28	2,88662052	2,88717628	1,2585943734953578	6	0,0914278179	0,0036337839
2	0	0	1	1	7992,58	2,87361836	2,87420726	1,227222961063184	6	0,0930421501	0,00352729321
2	0	0	0	1	7993,88	2,86061645	2,86090875	1,2007141510645525	6	0,0946205482	0,00343513372
2	0	0	1	1	7995,18	2,84761453	2,8480711	1,17382442982246	6	0,0961629823	0,00334313535
2	0	0	0	1	7996,48	2,83461285	2,83526349	1,1462386818602707	6	0,0976710171	0,00324988877
2	0	0	1	1	7997,78	2,82161117	2,82237577	1,1181869124993682	6	0,0991406217	0,0031559437
2	0	0	0	1	7999,08	2,80860925	2,80901742	1,0812652458747216	6	0,100569554	0,00303729298
2	0	0	1	1	8000,38	2,79560757	2,79604959	1,0564101121077947	6	0,101960063	0,00295377499
2	0	0	0	1	8001,68	2,78260589	2,78287125	1,029388672051331	6	0,103313446	0,00286465604
2	0	0	0	1	8002,98	2,76960468	2,77011395	1,0072814600849931	6	0,104635544	0,00279028434
2	0	0	1	1	8004,28	2,75660229	2,75682545	0,97847366860757299	6	0,1059241	0,00269748108
2	0	0	0	1	8005,58	2,74360037	2,74409819	0,95113726891576717	6	0,107176468	0,00261001405
2	0	0	1	1	8006,88	2,73059845	2,73090005	0,92443190297732518	6	0,108395025	0,00252453121
2	0	0	0	1	8008,18	2,71759701	2,71806216	0,89910712124159181	6	0,109579504	0,00244382909
2	0	0	1	1	8009,48	2,70459509	2,70514417	0,87146635632961805	6	0,110729896	0,00235744216
2	0	0	0	1	8010,78	2,69159317	2,69231653	0,84494969869653146	6	0,111845382	0,00227487204
2	0	0	1	1	8012,08	2,67859149	2,67888808	0,81917093756298342	6	0,112928532	0,00219446723
2	0	0	0	1	8013,38	2,66558981	2,66620088	0,79205409002800666	6	0,113975003	0,00211177533
2	0	0	1	1	8014,68	2,65258789	2,65295243	0,76344887943317286	6	0,114986181	0,00202539354
2	0	0	1	1	8015,98	2,63958621	2,64016461	0,73108673840761139	6	0,115954548	0,00193018932
2	0	0	0	1	8017,28	2,62658453	2,62718678	0,70326262991875405	6	0,11688751	0,00184760231
2	0	0	1	1	8018,58	2,61358261	2,61398888	0,6769514253052567	6	0,117784284	0,00176954351
2	0	0	0	1	8019,88	2,60058093	2,60121107	0,6507901105408873	6	0,118650116	0,00169284246
2	0	0	1	1	8021,18	2,58757925	2,58804297	0,6193592978330944	6	0,119475722	0,0016029285
2	0	0	0	1	8022,48	2,57457733	2,57503533	0,58664230521147507	6	0,120260738	0,00151062466
2	0	0	1	1	8023,78	2,56157541	2,56213713	0,55560338978345139	6	0,121003605	0,00142353203
2	0	0	0	1	8025,08	2,54857349	2,54891896	0,5207136961010583	6	0,121702485	0,00132725702
2	0	0	1	1	8026,42	2,53517199	2,53568101	0,48278061983485984	6	0,122374877	0,00122417766
2	0	0	0	1	8027,72	2,52216887	2,52265334	0,4453994120038711	6	0,122978941	0,0011235883
2	0	0	0	1	8029,02	2,50916815	2,50959492	0,40727596729993818	6	0,123532526	0,00102209765
2	0	0	1	1	8030,33	2,49616671	2,49679732	0,36661046611455526	6	0,124035046	0,000915352022
2	0	0	0	1	8031,63	2,48316479	2,48379946	0,32391578090998042	6	0,124483556	0,000804541865
2	0	0	1	1	8032,93	2,47016287	2,47053099	0,27851280725250627	6	0,12487521	0,000688074506
2	0	0	0	1	8034,23	2,45716119	2,45769358	0,23095625980446634	6	0,125206873	0,000567619689
2	0	0	1	1	8035,53	2,44415951	2,44467545	0,18234663173401078	6	0,125475094	0,000445778336
2	0	0	0	1	8036,83	2,43115759	2,43173766	0,13178032527988149	6	0,12567924	0,000320455176
2	0	0	1	1	8038,13	2,41815591	2,41865945	0,078958784889739955	6	0,125815958	0,000190974417
2	0	0	0	1	8039,47	2,40475392	2,40528107	0,02251995756038616	6	0,125883743	5,41668269E-005
2	0	0	0	1	8040,60	2,39335299	2,39398599	-0,027288418263196944	6	0,125881031	6,53280877E-005