File: Experimentelles/Rohdaten/Batterietests/AlteZelle/Studenten_Batterietests/S vs Li GCPL 300µm/ZView-Export/S vs Li GCPL 300µm_01_OCV_C06_loop0.txt
EC-Lab ASCII FILE
Nb header lines : 3
mode	error	time/s	Ewe/V
3	1	0,00	2,35784245
3	0	5,00	2,35767102
3	0	10,00	2,35772824
3	0	15,00	2,35784245
3	0	20,00	2,35767102
3	0	25,00	2,3576138
3	0	30,00	2,35753775
3	0	35,00	2,35770917
3	0	40,00	2,35759497
3	0	45,00	2,35765195
3	0	50,00	2,3576138
3	0	55,00	2,3576901
3	0	60,00	2,35770917
3	0	65,00	2,35746145
3	0	70,00	2,3574996
3	0	75,00	2,35765195
3	0	80,00	2,35763288
3	0	85,00	2,35770917
3	0	90,00	2,35774732
3	0	95,00	2,35757589
3	0	100,00	2,3574996
3	0	105,00	2,35746145
3	0	110,00	2,35759497
3	0	115,00	2,35763288
3	0	120,00	2,35759497
3	0	125,00	2,35742354
3	0	130,00	2,35755682
3	0	135,00	2,35753775
3	0	140,00	2,35751867
3	0	145,00	2,35755682
3	0	150,00	2,3573854
3	0	155,00	2,35736632
3	0	160,00	2,35746145
3	0	165,00	2,35736632
3	0	170,00	2,35740447
3	0	175,00	2,35744238
3	0	180,00	2,3574996
3	0	185,00	2,35736632
3	0	190,00	2,3573854
3	0	195,00	2,3573091
3	0	200,00	2,35744238
3	0	205,00	2,35729003
3	0	210,00	2,35725188
3	0	215,00	2,35736632
3	0	220,00	2,35734725
3	0	225,00	2,35725188
3	0	230,00	2,35744238
3	0	235,00	2,35723305
3	0	240,00	2,35717583
3	0	245,00	2,3573091
3	0	250,00	2,3571949
3	0	255,00	2,3573091
3	0	260,00	2,35727096
3	0	265,00	2,35736632
3	0	270,00	2,35709953
3	0	275,00	2,35723305
3	0	280,00	2,35727096
3	0	285,00	2,3571949
3	0	290,00	2,35729003
3	0	295,00	2,35713768
3	0	300,00	2,35711861
3	0	305,00	2,35729003
3	0	310,00	2,35706162
3	0	315,00	2,35729003
3	0	320,00	2,35729003
3	0	325,00	2,35711861
3	0	330,00	2,35706162
3	0	335,00	2,35706162
3	0	340,00	2,35717583
3	0	345,00	2,35713768
3	0	350,00	2,35708046
3	0	355,00	2,35698533
3	0	360,00	2,35709953
3	0	365,00	2,3570044
3	0	370,00	2,35702348
3	0	375,00	2,35702348
3	0	380,00	2,35688996
3	0	385,00	2,35708046
3	0	390,00	2,35711861
3	0	395,00	2,35698533
3	0	400,00	2,3570044
3	0	405,00	2,35698533
3	0	410,00	2,35709953
3	0	415,00	2,35692811
3	0	420,00	2,35698533
3	0	425,00	2,35690904
3	0	430,00	2,35683298
3	0	435,00	2,35692811
3	0	440,00	2,35694718
3	0	445,00	2,3570044
3	0	450,00	2,3570044
3	0	455,00	2,35704255
3	0	460,00	2,35687113
3	0	465,00	2,35696626
3	0	470,00	2,35688996
3	0	475,00	2,35685205
3	0	480,00	2,35690904
3	0	485,00	2,35685205
3	0	490,00	2,35679483
3	0	495,00	2,35685205
3	0	500,00	2,35687113
3	0	505,00	2,35685205
3	0	510,00	2,35673761
3	0	515,00	2,35671854
3	0	520,00	2,35690904
3	0	525,00	2,35681391
3	0	530,00	2,35685205
3	0	535,00	2,35681391
3	0	540,00	2,35681391
3	0	545,00	2,35681391
3	0	550,00	2,35683298
3	0	555,00	2,35698533
3	0	560,00	2,35688996
3	0	565,00	2,35681391
3	0	570,00	2,35683298
3	0	575,00	2,35683298
3	0	580,00	2,35673761
3	0	585,00	2,35677576
3	0	590,00	2,35668063
3	0	595,00	2,35681391
3	0	600,00	2,35683298
3	0	605,00	2,35675669
3	0	610,00	2,35673761
3	0	615,00	2,35671854
3	0	620,00	2,35673761
3	0	625,00	2,35668063
3	0	630,00	2,35677576
3	0	635,00	2,35666156
3	0	640,00	2,35662341
3	0	645,00	2,35664248
3	0	650,00	2,35671854
3	0	655,00	2,35666156
3	0	660,00	2,35675669
3	0	665,00	2,35671854
3	0	670,00	2,35664248
3	0	675,00	2,35662341
3	0	680,00	2,35668063
3	0	685,00	2,35647106
3	0	690,00	2,35671854
3	0	695,00	2,35649014
3	0	700,00	2,35668063
3	0	705,00	2,35662341
3	0	710,00	2,35664248
3	0	715,00	2,35666156
3	0	720,00	2,35660434
3	0	725,00	2,35662341
3	0	730,00	2,35656619
3	0	735,00	2,35652804
3	0	740,00	2,35647106
3	0	745,00	2,35656619
3	0	750,00	2,35654712
3	0	755,00	2,35650921
3	0	760,00	2,35647106
3	0	765,00	2,35645199
3	0	770,00	2,35652804
3	0	775,00	2,35654712
3	0	780,00	2,35633779
3	0	785,00	2,35641384
3	0	790,00	2,35631871
3	0	795,00	2,35643291
3	0	800,00	2,35643291
3	0	805,00	2,35635662
3	0	810,00	2,35643291
3	0	815,00	2,35643291
3	0	820,00	2,35647106
3	0	825,00	2,35639477
3	0	830,00	2,35629964
3	0	835,00	2,35628057
3	0	840,00	2,35635662
3	0	845,00	2,35643291
3	0	850,00	2,35647106
3	0	855,00	2,35643291
3	0	860,00	2,35637569
3	0	865,00	2,35639477
3	0	870,00	2,35637569
3	0	875,00	2,35633779
3	0	880,00	2,35624242
3	0	885,00	2,35620427
3	0	890,00	2,35622334
3	0	895,00	2,35633779
3	0	900,00	2,35628057
3	0	905,00	2,35626149
3	0	910,00	2,35620427
3	0	915,00	2,35614729
3	0	920,00	2,35612822
3	0	925,00	2,35616636
3	0	930,00	2,35616636
3	0	935,00	2,35631871
3	0	940,00	2,35610914
3	0	945,00	2,35620427
3	0	950,00	2,35612822
3	0	955,00	2,35605192
3	0	960,00	2,35620427
3	0	965,00	2,35612822
3	0	970,00	2,35624242
3	0	975,00	2,35609007
3	0	980,00	2,3561852
3	0	985,00	2,35612822
3	0	990,00	2,35597587
3	0	995,00	2,3561852
3	0	1000,00	2,35597587
3	0	1005,00	2,35597587
3	0	1010,00	2,3559947
3	0	1015,00	2,35601377
3	0	1020,00	2,3561852
3	0	1025,00	2,3559947
3	0	1030,00	2,35591865
3	0	1035,00	2,35589957
3	0	1040,00	2,35595679
3	0	1045,00	2,35591865
3	0	1050,00	2,35603285
3	0	1055,00	2,35601377
3	0	1060,00	2,356071
3	0	1065,00	2,35591865
3	0	1070,00	2,35582328
3	0	1075,00	2,35603285
3	0	1080,00	2,35593772
3	0	1085,00	2,35586143
3	0	1090,00	2,3559947
3	0	1095,00	2,35589957
3	0	1100,00	2,35589957
3	0	1105,00	2,3559947
3	0	1110,00	2,35578537
3	0	1115,00	2,35589957
3	0	1120,00	2,35591865
3	0	1125,00	2,35570908
3	0	1130,00	2,35578537
3	0	1135,00	2,35591865
3	0	1140,00	2,35574722
3	0	1145,00	2,35584235
3	0	1150,00	2,35578537
3	0	1155,00	2,35563278
3	0	1160,00	2,35565186
3	0	1165,00	2,35555673
3	0	1170,00	2,3557663
3	0	1175,00	2,35580444
3	0	1180,00	2,35578537
3	0	1185,00	2,35595679
3	0	1190,00	2,35567093
3	0	1195,00	2,35565186
3	0	1200,00	2,35548043
3	0	1205,00	2,35561395
3	0	1210,00	2,35567093
3	0	1215,00	2,3555758
3	0	1220,00	2,35563278
3	0	1225,00	2,35565186
3	0	1230,00	2,35559487
3	0	1235,00	2,35555673
3	0	1240,00	2,35561395
3	0	1245,00	2,3555758
3	0	1250,00	2,35553765
3	0	1255,00	2,35555673
3	0	1260,00	2,35559487
3	0	1265,00	2,35555673
3	0	1270,00	2,35559487
3	0	1275,00	2,35559487
3	0	1280,00	2,35553765
3	0	1285,00	2,35565186
3	0	1290,00	2,35563278
3	0	1295,00	2,35544252
3	0	1300,00	2,35551858
3	0	1305,00	2,35540438
3	0	1310,00	2,35548043
3	0	1315,00	2,35561395
3	0	1320,00	2,35549951
3	0	1325,00	2,35540438
3	0	1330,00	2,35532808
3	0	1335,00	2,35542345
3	0	1340,00	2,35525203
3	0	1345,00	2,35559487
3	0	1350,00	2,35551858
3	0	1355,00	2,35542345
3	0	1360,00	2,35523295
3	0	1365,00	2,35548043
3	0	1370,00	2,35553765
3	0	1375,00	2,35527086
3	0	1380,00	2,35536623
3	0	1385,00	2,35528994
3	0	1390,00	2,35534716
3	0	1395,00	2,35528994
3	0	1400,00	2,35525203
3	0	1405,00	2,35525203
3	0	1410,00	2,35528994
3	0	1415,00	2,35517573
3	0	1420,00	2,35523295
3	0	1425,00	2,35527086
3	0	1430,00	2,35513759
3	0	1435,00	2,35513759
3	0	1440,00	2,35528994
3	0	1445,00	2,35527086
3	0	1450,00	2,35521388
3	0	1455,00	2,35523295
3	0	1460,00	2,35525203
3	0	1465,00	2,35513759
3	0	1470,00	2,35515666
3	0	1475,00	2,35504246
3	0	1480,00	2,35509944
3	0	1485,00	2,35511851
3	0	1490,00	2,35509944
3	0	1495,00	2,3550806
3	0	1500,00	2,35511851
3	0	1505,00	2,35498524
3	0	1510,00	2,35500431
3	0	1515,00	2,35509944
3	0	1520,00	2,35515666
3	0	1525,00	2,35500431
3	0	1530,00	2,3550806
3	0	1535,00	2,35502338
3	0	1540,00	2,35509944
3	0	1545,00	2,35498524
3	0	1550,00	2,35504246
3	0	1555,00	2,35490894
3	0	1560,00	2,35502338
3	0	1565,00	2,35517573
3	0	1570,00	2,3550806
3	0	1575,00	2,35498524
3	0	1580,00	2,35492802
3	0	1585,00	2,35483289
3	0	1590,00	2,35504246
3	0	1595,00	2,35492802
3	0	1600,00	2,35496616
3	0	1605,00	2,35502338
3	0	1610,00	2,35506153
3	0	1615,00	2,35487103
3	0	1620,00	2,35490894
3	0	1625,00	2,35487103
3	0	1630,00	2,35500431
3	0	1635,00	2,35479474
3	0	1640,00	2,35477567
3	0	1645,00	2,35485196
3	0	1650,00	2,35490894
3	0	1655,00	2,35487103
3	0	1660,00	2,35479474
3	0	1665,00	2,35475659
3	0	1670,00	2,35475659
3	0	1675,00	2,35477567
3	0	1680,00	2,35481381
3	0	1685,00	2,35483289
3	0	1690,00	2,35479474
3	0	1695,00	2,35469961
3	0	1700,00	2,35481381
3	0	1705,00	2,3545661
3	0	1710,00	2,35477567
3	0	1715,00	2,35479474
3	0	1720,00	2,35477567
3	0	1725,00	2,35464239
3	0	1730,00	2,35462332
3	0	1735,00	2,35475659
3	0	1740,00	2,35460424
3	0	1745,00	2,35454726
3	0	1750,00	2,35450912
3	0	1755,00	2,35468054
3	0	1760,00	2,35452819
3	0	1765,00	2,35450912
3	0	1770,00	2,3545661
3	0	1775,00	2,3545661
3	0	1780,00	2,35462332
3	0	1785,00	2,35445189
3	0	1790,00	2,3545661
3	0	1795,00	2,35458517
3	0	1800,00	2,3545661
3	0	1805,00	2,35450912
3	0	1810,00	2,35452819
3	0	1815,00	2,35435677
3	0	1820,00	2,35462332
3	0	1825,00	2,35435677
3	0	1830,00	2,3543756
3	0	1835,00	2,35462332
3	0	1840,00	2,35443282
3	0	1845,00	2,35458517
3	0	1850,00	2,3545661
3	0	1855,00	2,35468054
3	0	1860,00	2,35433769
3	0	1865,00	2,3545661
3	0	1870,00	2,35429955
3	0	1875,00	2,35445189
3	0	1880,00	2,35441375
3	0	1885,00	2,35443282
3	0	1890,00	2,35439467
3	0	1895,00	2,35445189
3	0	1900,00	2,35447097
3	0	1905,00	2,35433769
3	0	1910,00	2,3542614
3	0	1915,00	2,35422325
3	0	1920,00	2,35428047
3	0	1925,00	2,35431862
3	0	1930,00	2,3543756
3	0	1935,00	2,35422325
3	0	1940,00	2,3542614
3	0	1945,00	2,35435677
3	0	1950,00	2,35420418
3	0	1955,00	2,35420418
3	0	1960,00	2,35418534
3	0	1965,00	2,35428047
3	0	1970,00	2,3541472
3	0	1975,00	2,35422325
3	0	1980,00	2,35416627
3	0	1985,00	2,35416627
3	0	1990,00	2,35422325
3	0	1995,00	2,35416627
3	0	2000,00	2,35433769
3	0	2005,00	2,35420418
3	0	2010,00	2,3540709
3	0	2015,00	2,35412812
3	0	2020,00	2,35405183
3	0	2025,00	2,35420418
3	0	2030,00	2,35405183
3	0	2035,00	2,3541472
3	0	2040,00	2,35403275
3	0	2045,00	2,3541472
3	0	2050,00	2,35405183
3	0	2055,00	2,35416627
3	0	2060,00	2,3540709
3	0	2065,00	2,3539567
3	0	2070,00	2,35389948
3	0	2075,00	2,35403275
3	0	2080,00	2,35416627
3	0	2085,00	2,3540709
3	0	2090,00	2,35401368
3	0	2095,00	2,3540709
3	0	2100,00	2,35399485
3	0	2105,00	2,35386133
3	0	2110,00	2,35393763
3	0	2115,00	2,35401368
3	0	2120,00	2,35393763
3	0	2125,00	2,35391855
3	0	2130,00	2,35399485
3	0	2135,00	2,35378528
3	0	2140,00	2,3539567
3	0	2145,00	2,3537662
3	0	2150,00	2,35393763
3	0	2155,00	2,35384226
3	0	2160,00	2,35388041
3	0	2165,00	2,35382342
3	0	2170,00	2,3539567
3	0	2175,00	2,35393763
3	0	2180,00	2,35389948
3	0	2185,00	2,35382342
3	0	2190,00	2,35384226
3	0	2195,00	2,35384226
3	0	2200,00	2,35374713
3	0	2205,00	2,35382342
3	0	2210,00	2,3537662
3	0	2215,00	2,35386133
3	0	2220,00	2,35389948
3	0	2225,00	2,35370898
3	0	2230,00	2,35368991
3	0	2235,00	2,35367084
3	0	2240,00	2,35370898
3	0	2245,00	2,35378528
3	0	2250,00	2,35372806
3	0	2255,00	2,35363293
3	0	2260,00	2,35363293
3	0	2265,00	2,35368991
3	0	2270,00	2,35367084
3	0	2275,00	2,35363293
3	0	2280,00	2,35338521
3	0	2285,00	2,35374713
3	0	2290,00	2,35348034
3	0	2295,00	2,35355663
3	0	2300,00	2,35365176
3	0	2305,00	2,35374713
3	0	2310,00	2,35353756
3	0	2315,00	2,35351849
3	0	2320,00	2,35359478
3	0	2325,00	2,35357571
3	0	2330,00	2,3534615
3	0	2335,00	2,3534615
3	0	2340,00	2,35357571
3	0	2345,00	2,35370898
3	0	2350,00	2,35355663
3	0	2355,00	2,35351849
3	0	2360,00	2,35348034
3	0	2365,00	2,3534615
3	0	2370,00	2,35353756
3	0	2375,00	2,35344243
3	0	2380,00	2,3534615
3	0	2385,00	2,35355663
3	0	2390,00	2,35332799
3	0	2395,00	2,35321379
3	0	2400,00	2,3534615
3	0	2405,00	2,35342336
3	0	2410,00	2,35340428
3	0	2415,00	2,35348034
3	0	2420,00	2,35327101
3	0	2425,00	2,35329008
3	0	2430,00	2,35336614
3	0	2435,00	2,35325193
3	0	2440,00	2,35334706
3	0	2445,00	2,35330892
3	0	2450,00	2,35336614
3	0	2455,00	2,35332799
3	0	2460,00	2,35332799
3	0	2465,00	2,35300422
3	0	2470,00	2,35323286
3	0	2475,00	2,35321379
3	0	2480,00	2,35332799
3	0	2485,00	2,35315657
3	0	2490,00	2,35336614
3	0	2495,00	2,35340428
3	0	2500,00	2,35323286
3	0	2505,00	2,35336614
3	0	2510,00	2,35319471
3	0	2515,00	2,35336614
3	0	2520,00	2,35327101
3	0	2525,00	2,35311842
3	0	2530,00	2,35304236
3	0	2535,00	2,35323286
3	0	2540,00	2,35329008
3	0	2545,00	2,35325193
3	0	2550,00	2,35325193
3	0	2555,00	2,35315657
3	0	2560,00	2,35308051
3	0	2565,00	2,35317564
3	0	2570,00	2,35309958
3	0	2575,00	2,35313749
3	0	2580,00	2,35319471
3	0	2585,00	2,35308051
3	0	2590,00	2,35317564
3	0	2595,00	2,35302329
3	0	2600,00	2,35308051
3	0	2605,00	2,35306144
3	0	2610,00	2,35327101
3	0	2615,00	2,35306144
3	0	2620,00	2,35304236
3	0	2625,00	2,35296607
3	0	2630,00	2,35308051
3	0	2635,00	2,35302329
3	0	2640,00	2,35287094
3	0	2645,00	2,35292816
3	0	2650,00	2,35311842
3	0	2655,00	2,35283279
3	0	2660,00	2,35281372
3	0	2665,00	2,35298514
3	0	2670,00	2,35298514
3	0	2675,00	2,35279465
3	0	2680,00	2,35298514
3	0	2685,00	2,35290909
3	0	2690,00	2,35285187
3	0	2695,00	2,35292816
3	0	2700,00	2,3527565
3	0	2705,00	2,35266137
3	0	2710,00	2,35283279
3	0	2715,00	2,35277557
3	0	2720,00	2,35289001
3	0	2725,00	2,35292816
3	0	2730,00	2,3526423
3	0	2735,00	2,35289001
3	0	2740,00	2,35290909
3	0	2745,00	2,352947
3	0	2750,00	2,35292816
3	0	2755,00	2,3527565
3	0	2760,00	2,35302329
3	0	2765,00	2,35277557
3	0	2770,00	2,35268044
3	0	2775,00	2,35287094
3	0	2780,00	2,35271859
3	0	2785,00	2,35277557
3	0	2790,00	2,35260415
3	0	2795,00	2,35262322
3	0	2800,00	2,35269952
3	0	2805,00	2,35266137
3	0	2810,00	2,35281372
3	0	2815,00	2,35258508
3	0	2820,00	2,3526423
3	0	2825,00	2,3525281
3	0	2830,00	2,3527565
3	0	2835,00	2,35262322
3	0	2840,00	2,3526423
3	0	2845,00	2,35248995
3	0	2850,00	2,35247087
3	0	2855,00	2,3524518
3	0	2860,00	2,35260415
3	0	2865,00	2,35248995
3	0	2870,00	2,35273767
3	0	2875,00	2,35262322
3	0	2880,00	2,35250902
3	0	2885,00	2,35256624
3	0	2890,00	2,35247087
3	0	2895,00	2,3525281
3	0	2900,00	2,3524518
3	0	2905,00	2,35250902
3	0	2910,00	2,35260415
3	0	2915,00	2,35239458
3	0	2920,00	2,3524518
3	0	2925,00	2,35241365
3	0	2930,00	2,35248995
3	0	2935,00	2,35247087
3	0	2940,00	2,35243273
3	0	2945,00	2,35237575
3	0	2950,00	2,35250902
3	0	2955,00	2,35228038
3	0	2960,00	2,35239458
3	0	2965,00	2,35239458
3	0	2970,00	2,35235667
3	0	2975,00	2,35256624
3	0	2980,00	2,35228038
3	0	2985,00	2,35248995
3	0	2990,00	2,35241365
3	0	2995,00	2,35224223
3	0	3000,00	2,35222316
3	0	3005,00	2,35220432
3	0	3010,00	2,35224223
3	0	3015,00	2,35231853
3	0	3020,00	2,3522613
3	0	3025,00	2,35220432
3	0	3030,00	2,35224223
3	0	3035,00	2,35229945
3	0	3040,00	2,3522613
3	0	3045,00	2,35210896
3	0	3050,00	2,35203266
3	0	3055,00	2,3522613
3	0	3060,00	2,35228038
3	0	3065,00	2,35222316
3	0	3070,00	2,35218525
3	0	3075,00	2,35224223
3	0	3080,00	2,35199475
3	0	3085,00	2,35218525
3	0	3090,00	2,35199475
3	0	3095,00	2,35218525
3	0	3100,00	2,35197568
3	0	3105,00	2,35216618
3	0	3110,00	2,35208988
3	0	3115,00	2,35210896
3	0	3120,00	2,35193753
3	0	3125,00	2,35231853
3	0	3130,00	2,35212803
3	0	3135,00	2,35210896
3	0	3140,00	2,35203266
3	0	3145,00	2,35207081
3	0	3150,00	2,35212803
3	0	3155,00	2,35199475
3	0	3160,00	2,35224223
3	0	3165,00	2,35212803
3	0	3170,00	2,35189939
3	0	3175,00	2,35212803
3	0	3180,00	2,35191846
3	0	3185,00	2,35189939
3	0	3190,00	2,35203266
3	0	3195,00	2,35191846
3	0	3200,00	2,35193753
3	0	3205,00	2,35205173
3	0	3210,00	2,35199475
3	0	3215,00	2,35199475
3	0	3220,00	2,35186124
3	0	3225,00	2,35201383
3	0	3230,00	2,35205173
3	0	3235,00	2,3518424
3	0	3240,00	2,35203266
3	0	3245,00	2,3518424
3	0	3250,00	2,35191846
3	0	3255,00	2,3518424
3	0	3260,00	2,35189939
3	0	3265,00	2,35197568
3	0	3270,00	2,35188031
3	0	3275,00	2,35168982
3	0	3280,00	2,35176611
3	0	3285,00	2,35176611
3	0	3290,00	2,35199475
3	0	3295,00	2,35170889
3	0	3300,00	2,35186124
3	0	3305,00	2,35176611
3	0	3310,00	2,35168982
3	0	3315,00	2,35178518
3	0	3320,00	2,35176611
3	0	3325,00	2,35186124
3	0	3330,00	2,35174704
3	0	3335,00	2,35176611
3	0	3340,00	2,35176611
3	0	3345,00	2,35174704
3	0	3350,00	2,35186124
3	0	3355,00	2,35182333
3	0	3360,00	2,35170889
3	0	3365,00	2,35165191
3	0	3370,00	2,35172796
3	0	3375,00	2,35170889
3	0	3380,00	2,35174704
3	0	3385,00	2,35170889
3	0	3390,00	2,35165191
3	0	3395,00	2,35167098
3	0	3400,00	2,35180426
3	0	3405,00	2,35174704
3	0	3410,00	2,35155654
3	0	3415,00	2,35151839
3	0	3420,00	2,35159469
3	0	3425,00	2,35170889
3	0	3430,00	2,35170889
3	0	3435,00	2,35170889
3	0	3440,00	2,35138512
3	0	3445,00	2,35163283
3	0	3450,00	2,35142326
3	0	3455,00	2,35153747
3	0	3460,00	2,35151839
3	0	3465,00	2,35161376
3	0	3470,00	2,35144234
3	0	3475,00	2,35136604
3	0	3480,00	2,35151839
3	0	3485,00	2,35136604
3	0	3490,00	2,35142326
3	0	3495,00	2,35151839
3	0	3500,00	2,35142326
3	0	3505,00	2,35153747
3	0	3510,00	2,35149932
3	0	3515,00	2,35153747
3	0	3520,00	2,35140419
3	0	3525,00	2,35144234
3	0	3530,00	2,35155654
3	0	3535,00	2,35144234
3	0	3540,00	2,35121369
3	0	3545,00	2,35144234
3	0	3550,00	2,35140419
3	0	3555,00	2,35128999
3	0	3560,00	2,3513279
3	0	3565,00	2,35134697
3	0	3570,00	2,35125184
3	0	3575,00	2,35136604
3	0	3580,00	2,35128999
3	0	3585,00	2,35136604
3	0	3590,00	2,35119462
3	0	3595,00	2,35119462
3	0	3600,00	2,35109949