File: Experimentelles/Rohdaten/Batterietests/AlteZelle/Studenten_Batterietests/S vs Li GCPL 300µm/ZView-Export/S vs Li GCPL 300µm_02_GCPL_C06_loop10.txt
EC-Lab ASCII FILE
Nb header lines : 3
mode	ox/red	error	control changes	Ns changes	counter inc.	Ns	time/s	control/V/mA	Ewe/V	dq/mA.h	<I>/mA	P/W	(Q-Qo)/mA.h	x	Capacity/mA.h
1	0	0	1	1	0	1	696637,89	-0,200000003	2,35709953	0	0	0	0	0	0
1	0	0	1	0	0	1	696867,90	-0,200000003	2,2909832	-0,00055587840658426278	-0,20011246864422896	0,000458454306	-0,012782328694576624	0,00047692586961836563	0,012782328694576624
1	0	0	1	0	0	1	697097,90	-0,200000003	2,28273535	-0,00055587189416835699	-0,20011012421852666	0,000456798443	-0,025567471218540877	0,00095395672699441754	0,025567471218540877
1	0	0	1	0	0	1	697327,91	-0,200000003	2,27641129	-0,00055588150800930131	-0,20011358513627725	0,000455540838	-0,038352614776040557	0,0014309876229330659	0,038352614776040557
1	0	0	1	0	0	1	697557,91	-0,200000003	2,27092552	-0,00055587577219804134	-0,2001115202829976	0,000454438356	-0,05113777998191824	0,0019080193266018042	0,05113777998191824
1	0	0	1	0	0	1	697787,92	-0,200000003	2,26616335	-0,00055586826840291418	-0,20010881896747734	0,000453479268	-0,063922854270479347	0,0023850476380232211	0,063922854270479347
1	0	0	1	0	0	1	698017,92	-0,200000003	2,26142025	-0,00055587560893098509	-0,20011146150796109	0,0004525361	-0,076707973942787699	0,0028620776427732666	0,076707973942787699
1	0	0	1	0	0	1	698247,92	-0,200000003	2,25730586	-0,0005558802310244905	-0,20011312543037773	0,000451716536	-0,089493206094721498	0,0033391118442893683	0,089493206094721498
1	0	0	1	0	0	1	698477,93	-0,200000003	2,25273442	-0,00055586567037966522	-0,2001078836966703	0,000450789928	-0,10227827372360843	0,0038161399072293882	0,10227827372360843
1	0	0	1	0	0	1	698707,93	-0,200000003	2,24852467	-0,00055587214690529645	-0,20011021519279818	0,000449952757	-0,11506338940293461	0,0042931697629959002	0,11506338940293461
1	0	0	1	0	0	1	698937,94	-0,200000003	2,244277	-0,00055587674446735123	-0,20011187028638794	0,000449106476	-0,12784860266977832	0,0047702032598838995	0,12784860266977832
1	0	0	1	0	0	1	699167,94	-0,200000003	2,23968625	-0,00055587887321992064	-0,20011263662059299	0,00044818953	-0,14063383365252819	0,0052472374177761766	0,14063383365252819
1	0	0	1	0	0	1	699397,95	-0,200000003	2,23519087	-0,00055589007792539072	-0,20011667024813699	0,000447298953	-0,15341915858289798	0,0057242750809804678	0,15341915858289798
1	0	0	1	0	0	1	699627,95	-0,200000003	2,23058128	-0,0005558823075865705	-0,20011387297868906	0,00044637025	-0,16620454299287702	0,0062013149634489498	0,16620454299287702
1	0	0	1	0	0	1	699857,95	-0,200000003	2,22610497	-0,00055588090949671136	-0,20011336967579078	0,000445473357	-0,17898982900127878	0,0066783511744222835	0,17898982900127878
1	0	0	1	0	0	1	700087,96	-0,200000003	2,22130466	-0,00055588905134465958	-0,20011630068601344	0,000444519275	-0,19177519468327306	0,0071553903581244736	0,19177519468327306
1	0	0	1	0	0	1	700317,96	-0,200000003	2,21661901	-0,00055588395926107974	-0,20011446757034707	0,000443577534	-0,20456055861822874	0,0076324294766423066	0,20456055861822874
1	0	0	1	0	0	1	700547,97	-0,200000003	2,21136165	-0,00055589022679378586	-0,20011672383975286	0,000442530436	-0,21734597073712723	0,0081094703929678285	0,21734597073712723
1	0	0	1	0	0	1	700777,97	-0,200000003	2,20610428	-0,00055589877969109357	-0,20011980282496624	0,000441485143	-0,23013155341944621	0,008586517673243895	0,23013155341944621
1	0	0	1	0	0	1	701007,98	-0,200000003	2,19974208	-0,00055589144667072435	-0,20011716298720438	0,000440206146	-0,24291708053948509	0,0090635628804165862	0,24291708053948509
1	0	0	1	0	0	1	701237,98	-0,200000003	2,19277048	-0,00055589345047126221	-0,20011788434185238	0,000438812596	-0,25570264679183914	0,0095406095476685683	0,25570264679183914
1	0	0	1	0	0	1	701467,98	-0,200000003	2,18509412	-0,00055589178908699091	-0,20011728625474563	0,000437275099	-0,26848823847910947	0,010017657163931478	0,26848823847910947
1	0	0	1	0	0	1	701697,99	-0,200000003	2,17623663	-0,00055589601217707008	-0,20011880653862611	0,000435505877	-0,28127382946874048	0,010494704754164525	0,28127382946874048
1	0	0	1	0	0	1	701927,99	-0,200000003	2,16585541	-0,00055589349482539629	-0,20011790029972227	0,000433426438	-0,29405946775259334	0,010971754109008578	0,29405946775259334
1	0	0	1	0	0	1	702158,00	-0,200000003	2,15366459	-0,00055589265075657101	-0,20011759644531037	0,000430986169	-0,30684505319167424	0,011448801492143134	0,30684505319167424
1	0	0	1	0	0	1	702388,00	-0,200000003	2,13897824	-0,00055588080307344595	-0,20011333135248675	0,000428038067	-0,31963043456960787	0,01192584126148193	0,31963043456960787
1	0	0	1	0	0	1	702618,01	-0,200000003	2,12124443	-0,00055588700902130867	-0,20011556545409475	0,000424494036	-0,33241584143107302	0,012402881981645542	0,33241584143107302
1	0	0	1	0	0	1	702848,01	-0,200000003	2,09958649	-0,00055588997181670528	-0,20011663204972752	0,000420162163	-0,34520130586671328	0,012879924849979043	0,34520130586671328
1	0	0	1	0	0	1	703078,02	-0,200000003	2,07333803	-0,0005558866056725383	-0,20011542026058246	0,000414906914	-0,35798677398421696	0,013356967855687816	0,35798677398421696
1	0	0	1	0	0	1	703308,02	-0,200000003	2,04114652	-0,00055588210092153824	-0,20011379858067443	0,000408461579	-0,37077209446513414	0,013834005352877048	0,37077209446513414
1	0	0	1	0	0	1	703538,02	-0,200000003	2,00400257	-0,00055588273944291795	-0,20011402844405478	0,000401029014	-0,3835573915088368	0,014311041975592291	0,3835573915088368
1	0	0	1	0	0	1	703768,03	-0,200000003	1,96520126	-0,00055587625732604	-0,20011169492579766	0,000393259746	-0,39634260865354138	0,014788075617168496	0,39634260865354138
1	0	0	1	0	0	1	703998,03	-0,200000003	1,93302882	-0,00055588072856184512	-0,20011330454046208	0,000386824773	-0,40912782507057005	0,015265109231594131	0,40912782507057005
1	0	0	1	0	0	1	704228,04	-0,200000003	1,90853274	-0,00055587488735881114	-0,20011120174685626	0,00038191877	-0,42191306339801043	0,015742143663526688	0,42191306339801043
1	0	0	1	0	0	1	704458,04	-0,200000003	1,89020836	-0,00055587374975780653	-0,20011079221818474	0,000378251105	-0,43469816859030336	0,016219173128007888	0,43469816859030336
1	0	0	1	0	0	1	704688,05	-0,200000003	1,87836039	-0,00055587090950542029	-0,20010976974652573	0,00037587827	-0,44748337025197952	0,016696206191891485	0,44748337025197952
1	0	0	1	0	0	1	704918,05	-0,200000003	1,8712554	-0,00055588013312551712	-0,20011309018740912	0,000374462688	-0,46026863706671642	0,017173241686723376	0,46026863706671642
1	0	0	1	0	0	1	705148,05	-0,200000003	1,86754096	-0,00055588144592775245	-0,20011356278733933	0,000373720279	-0,47305390133133312	0,017650277086406848	0,47305390133133312
1	0	0	1	0	0	1	705378,06	-0,200000003	1,86563611	-0,00055588588126500442	-0,20011515946944886	0,000373342074	-0,48583923871404032	0,018127315214224592	0,48583923871404032
1	0	0	1	0	0	1	705608,06	-0,200000003	1,86527419	-0,00055588337742288915	-0,20011425810554288	0,000373267947	-0,49862451304499834	0,018604350989496797	0,49862451304499834
1	0	0	1	0	0	1	705838,07	-0,200000003	1,86676002	-0,00055588090891556608	-0,2001133694572641	0,000373563642	-0,51140980017437606	0,019081387242295251	0,51140980017437606
1	0	0	1	0	0	1	706068,07	-0,200000003	1,86893153	-0,0005558810239566697	-0,20011341088060202	0,000373998249	-0,52419512784383514	0,019558425007698643	0,52419512784383514
1	0	0	1	0	0	1	706298,08	-0,200000003	1,87194109	-0,00055588547845515936	-0,20011501446994602	0,000374603522	-0,53698044808062726	0,020035462495779242	0,53698044808062726
1	0	0	1	0	0	1	706528,08	-0,200000003	1,87388396	-0,00055587992619640301	-0,20011301569432688	0,000374988565	-0,54976559030772634	0,020512493342078854	0,54976559030772634
1	0	0	1	0	0	1	706758,08	-0,200000003	1,87527454	-0,00055588104828529888	-0,2001134196387441	0,000375267613	-0,56255078049338336	0,020989525977776746	0,56255078049338336
1	0	0	1	0	0	1	706988,09	-0,200000003	1,87596023	-0,00055589157851537069	-0,20011721045038579	0,000375411939	-0,57533617506701805	0,021466566239464886	0,57533617506701805
1	0	0	1	0	0	1	707218,09	-0,200000003	1,87637937	-0,00055588411577459834	-0,20011452391415578	0,000375490752	-0,58812154862338368	0,021943605716970458	0,58812154862338368
1	0	0	1	0	0	1	707448,10	-0,200000003	1,87624598	-0,00055587634699874445	-0,20011172720736512	0,000375458825	-0,6009067834253897	0,02242064001736432	0,6009067834253897
1	0	0	1	0	0	1	707678,10	-0,200000003	1,87529361	-0,00055586848997821421	-0,20010889873308749	0,000375262927	-0,6136918423257353	0,022897667754630723	0,6136918423257353
1	0	0	1	0	0	1	707908,11	-0,200000003	1,8744173	-0,00055587163124978541	-0,20011002956961821	0,000375089701	-0,62647685612846234	0,023374693809244352	0,62647685612846234
1	0	0	1	0	0	1	708138,11	-0,200000003	1,87416971	-0,00055587445901996563	-0,20011104754776742	0,000375042058	-0,6392619108194953	0,023851721389455645	0,6392619108194953
1	0	0	1	0	0	1	708368,11	-0,200000003	1,8740555	-0,00055587637037949427	-0,20011173562427699	0,000375020492	-0,65204701024963341	0,024328750638943101	0,65204701024963341
1	0	0	1	0	0	1	708598,12	-0,200000003	1,87470305	-0,00055587493758814195	-0,20011121981975757	0,000375149102	-0,66483209547014835	0,024805779358250413	0,66483209547014835
1	0	0	1	0	0	1	708828,12	-0,200000003	1,87584603	-0,00055586661459091635	-0,20010822360167882	0,000375372212	-0,677617168660896	0,025282807628710931	0,677617168660896
1	0	0	1	0	0	1	709058,13	-0,200000003	1,87727463	-0,00055587267140299085	-0,20011040401308163	0,000375662174	-0,69040230317922189	0,025759838187385856	0,69040230317922189
1	0	0	1	0	0	1	709288,13	-0,200000003	1,87891269	-0,00055587572019547219	-0,20011150155310605	0,000375992036	-0,70318741415451789	0,026236867867638675	0,70318741415451789
1	0	0	1	0	0	1	709518,14	-0,200000003	1,88068426	-0,00055588108606139814	-0,20011343323788448	0,000376350188	-0,71597257294250509	0,026713899331847293	0,71597257294250509
1	0	0	1	0	0	1	709748,14	-0,200000003	1,8831414	-0,00055587919835580717	-0,20011275367663258	0,000376840617	-0,7287578443654144	0,027190934998616291	0,7287578443654144
1	0	0	1	0	0	1	709978,14	-0,200000003	1,88664627	-0,00055588353774944941	-0,20011431582900957	0,00037754493	-0,7415431475032151	0,027667971848710528	0,7415431475032151
1	0	0	1	0	0	1	710208,15	-0,200000003	1,89049411	-0,00055587750101089472	-0,20011214264393811	0,000378310826	-0,75432843578149594	0,028145008144376102	0,75432843578149594
1	0	0	1	0	0	1	710438,15	-0,200000003	1,89479899	-0,00055587661469231046	-0,20011182357523926	0,000379171688	-0,76711362318055731	0,028622040676102358	0,76711362318055731
1	0	0	1	0	0	1	710668,16	-0,200000003	1,89843714	-0,00055588033542119789	-0,20011316301248669	0,000379902252	-0,77989878868687885	0,029099072390981062	0,77989878868687885
1	0	0	1	0	0	1	710898,16	-0,200000003	1,90150392	-0,00055587463232543738	-0,2001111099365657	0,000380512065	-0,79268386275891776	0,029576100694323744	0,79268386275891776
1	0	0	1	0	0	1	711128,17	-0,200000003	1,90415168	-0,00055586890084130893	-0,20010904664102419	0,000381037971	-0,80546888315616064	0,030053126994987622	0,80546888315616064
1	0	0	1	0	0	1	711358,17	-0,200000003	1,90674222	-0,00055587259098556301	-0,20011037506801037	0,000381558901	-0,81825398348883059	0,030530156278149754	0,81825398348883059
1	0	0	1	0	0	1	711588,17	-0,200000003	1,90898991	-0,0005558784699241319	-0,20011249144615366	0,000382012717	-0,83103911884726771	0,031007186868170355	0,83103911884726771
1	0	0	1	0	0	1	711818,18	-0,200000003	1,91142809	-0,0005558670289524727	-0,20010837277369709	0,000382492755	-0,84382422324494042	0,031484216303003206	0,84382422324494042
1	0	0	1	0	0	1	712048,18	-0,200000003	1,91373289	-0,00055586826427612038	-0,20010881748185946	0,000382954837	-0,85660913169034842	0,031961238426593606	0,85660913169034842
1	0	0	1	0	0	1	712278,19	-0,200000003	1,91657114	-0,00055586311765842976	-0,20010696472729331	0,000383519247	-0,86939408929901594	0,032438262384531322	0,86939408929901594
1	0	0	1	0	0	1	712508,19	-0,200000003	1,91986644	-0,00055586561569157574	-0,2001078640000097	0,00038418037	-0,88217888686503334	0,032915280371062566	0,88217888686503334
1	0	0	1	0	0	1	712738,20	-0,200000003	1,92295229	-0,00055586718283759219	-0,20010842817129984	0,000384798972	-0,89496374906279104	0,033392300769090957	0,89496374906279104
1	0	0	1	0	0	1	712968,20	-0,200000003	1,92615235	-0,00055586123636447718	-0,20010628748117645	0,000385435182	-0,90774868783388928	0,033869324024173626	0,90774868783388928
1	0	0	1	0	0	1	713198,21	-0,200000003	1,92921913	-0,00055586456860022419	-0,20010748706351952	0,000386051193	-0,9205335574567008	0,034346344699240749	0,9205335574567008
1	0	0	1	0	0	1	713428,21	-0,200000003	1,9325906	-0,00055586054863449594	-0,20010603990303226	0,000386723055	-0,93331844944874406	0,03482336620893399	0,93331844944874406
1	0	0	1	0	0	1	713658,21	-0,200000003	1,93588603	-0,00055586794493844109	-0,20010870252245363	0,000387387641	-0,94610345411616934	0,035300391922697216	0,94610345411616934
1	0	0	1	0	0	1	713888,22	-0,200000003	1,93855274	-0,00055586817815237581	-0,2001087864778936	0,000387921435	-0,95888850556041434	0,03577741938176649	0,95888850556041434
1	0	0	1	0	0	1	714118,22	-0,200000003	1,94133377	-0,0005558745570439431	-0,20011108283573667	0,000388482411	-0,97167360111371891	0,03625444848660407	0,97167360111371891
1	0	0	1	0	0	1	714348,23	-0,200000003	1,94316244	-0,00055587532473438323	-0,20011135919910554	0,000388848886	-0,98445868294002406	0,036731477079268851	0,98445868294002406
1	0	0	1	0	0	1	714578,23	-0,200000003	1,94523871	-0,00055588004844056237	-0,20011305970139789	0,000389267661	-0,99724383837910874	0,037208508418525408	0,99724383837910874
1	0	0	1	0	0	1	714808,24	-0,200000003	1,94727683	-0,00055587957407285773	-0,20011288893223094	0,000389675202	-1,0100290518293931	0,03768554192225783	1,0100290518293931
1	0	0	1	0	0	1	715038,24	-0,200000003	1,94933403	-0,00055587267697105811	-0,2001104060222073	0,000390082016	-1,0228141887191674	0,038162572569414675	1,0228141887191674
1	0	0	1	0	0	1	715268,24	-0,200000003	1,95148647	-0,00055586568664759392	-0,20010788954369658	0,000390507834	-1,0355992193150318	0,038639599250602842	1,0355992193150318
1	0	0	1	0	0	1	715498,25	-0,200000003	1,95348656	-0,00055587613307767437	-0,20011165019023731	0,000390915433	-1,0483842455843475	0,039116625770361645	1,0483842455843475
1	0	0	1	0	0	1	715728,25	-0,200000003	1,95611525	-0,00055586904863516486	-0,20010909985047229	0,00039143645	-1,0611692469204242	0,039593651359827782	1,0611692469204242
1	0	0	1	0	0	1	715958,26	-0,200000003	1,95885813	-0,00055587040441234906	-0,20010958790711635	0,000391986279	-1,0739541999923374	0,040070675148493094	1,0739541999923374
1	0	0	1	0	0	1	716188,26	-0,200000003	1,96160114	-0,00055585894632256685	-0,20010546308156938	0,000392527116	-1,0867391184771342	0,040547697646666579	1,0867391184771342
1	0	0	1	0	0	1	716418,27	-0,200000003	1,96457267	-0,00055586727562298381	-0,20010846157341357	0,000393127615	-1,099524082795327	0,041024721854945696	1,099524082795327
1	0	0	1	0	0	1	716648,27	-0,200000003	1,96758223	-0,00055586631280101005	-0,20010811496401168	0,000393729162	-1,1123091788679805	0,04150175097916089	1,1123091788679805
1	0	0	1	0	0	1	716878,27	-0,200000003	1,97034431	-0,00055587488922973472	-0,2001112024203761	0,000394287956	-1,1250942748075808	0,041978780098411686	1,1250942748075808
1	0	0	1	0	0	1	717108,28	-0,200000003	1,97306812	-0,00055587245019525293	-0,20011032438445046	0,000394831295	-1,1378792972883062	0,042455806476813107	1,1378792972883062
1	0	0	1	0	0	1	717338,28	-0,200000003	1,97565866	-0,00055587128110312755	-0,20010990351918835	0,000395348849	-1,1506644177813224	0,042932836512184858	1,1506644177813224
1	0	0	1	0	0	1	717568,29	-0,200000003	1,97767782	-0,0005558682203665376	-0,2001088016747065	0,000395750743	-1,1634494135384312	0,043409861893492205	1,1634494135384312
1	0	0	1	0	0	1	717798,29	-0,200000003	1,97996366	-0,000555879525432984	-0,20011287142220518	0,000396216201	-1,1762345592869168	0,043886892871179488	1,1762345592869168
1	0	0	1	0	0	1	718028,30	-0,200000003	1,98209703	-0,00055587505878590867	-0,20011126345945254	0,000396639953	-1,1890196360885192	0,044363921276365856	1,1890196360885192
1	0	0	1	0	0	1	718258,30	-0,200000003	1,98443997	-0,00055587448927180627	-0,20011105843822557	0,000397108379	-1,2018047335503046	0,044840950452411424	1,2018047335503046
1	0	0	1	0	0	1	718488,30	-0,200000003	1,98632574	-0,00055587136470692026	-0,20010993361598854	0,000397483498	-1,2145898185388078	0,045317979163062067	1,2145898185388078
1	0	0	1	0	0	1	718718,31	-0,200000003	1,98809719	-0,00055586276690910259	-0,20010683846223613	0,000397831842	-1,227374779699969	0,045795003253548096	1,227374779699969
1	0	0	1	0	0	1	718948,31	-0,200000003	1,99005914	-0,00055587516575720576	-0,20011130196373722	0,000398233329	-1,2401597749454832	0,046272028615767155	1,2401597749454832
1	0	0	1	0	0	1	719178,32	-0,200000003	1,99162114	-0,00055587494789395066	-0,20011122352977904	0,00039854573	-1,2529448460500518	0,046749056808389536	1,2529448460500518
1	0	0	1	0	0	1	719408,32	-0,200000003	1,99335456	-0,00055587238053149651	-0,20011029930596909	0,000398890785	-1,2657298925465547	0,047226084082851891	1,2657298925465547
1	0	0	1	0	0	1	719638,33	-0,200000003	1,99491644	-0,00055586774551371731	-0,20010863073090118	0,000399199984	-1,2785149472587902	0,047703111663854278	1,2785149472587902
1	0	0	1	0	0	1	719868,33	-0,200000003	1,99630702	-0,00055586082834336486	-0,20010614059633421	0,000399473298	-1,2912998623051512	0,048180134033735104	1,2912998623051512
1	0	0	1	0	0	1	720098,33	-0,200000003	1,99800229	-0,00055587338136467674	-0,20011065959914835	0,000399821554	-1,3040848690588542	0,04865715982534016	1,3040848690588542
1	0	0	1	0	0	1	720328,34	-0,200000003	1,99937379	-0,00055587440968884365	-0,20011102978889696	0,00040009676	-1,3168700367707096	0,049134191622510304	1,3168700367707096
1	0	0	1	0	0	1	720558,34	-0,200000003	2,00040245	-0,00055587726817197267	-0,20011205882350016	0,000400304649	-1,3296552064201539	0,049611223491974483	1,3296552064201539
1	0	0	1	0	0	1	720788,35	-0,200000003	2,00116444	-0,00055588176255921523	-0,2001136767725255	0,000400460383	-1,342440450170769	0,050088258126252979	1,342440450170769
1	0	0	1	0	0	1	721018,35	-0,200000003	2,00164056	-0,00055587703032129344	-0,20011197319886349	0,000400552235	-1,3552256130570894	0,050565289743375917	1,3552256130570894
1	0	0	1	0	0	1	721248,36	-0,200000003	2,00251675	-0,0005558784906268121	-0,20011249889897856	0,000400728633	-1,368010846531523	0,051042323994236262	1,368010846531523
1	0	0	1	0	0	1	721478,36	-0,200000003	2,00293589	-0,00055588277636220058	-0,20011404173474694	0,000400815596	-1,3807960814701213	0,051519358299726566	1,3807960814701213
1	0	0	1	0	0	1	721708,36	-0,200000003	2,00297403	-0,0005558823087472055	-0,20011387339650976	0,000400822901	-1,393581360608655	0,051996394254375891	1,393581360608655
1	0	0	1	0	0	1	721938,37	-0,200000003	2,00301194	-0,00055587450637254451	-0,2001110645850575	0,000400824851	-1,4063665886193442	0,052473428301376576	1,4063665886193442
1	0	0	1	0	0	1	722168,37	-0,200000003	2,00259304	-0,00055587119119283226	-0,20010987114510122	0,000400738645	-1,4191517932250734	0,052950461475106758	1,4191517932250734
1	0	0	1	0	0	1	722398,38	-0,200000003	2,0024786	-0,00055587710192882355	-0,20011199897243114	0,00040071999	-1,4319370124912827	0,053427495195839149	1,4319370124912827
1	0	0	1	0	0	1	722628,38	-0,200000003	2,00219297	-0,0005558817486473255	-0,20011367175502093	0,000400666177	-1,4447222879070464	0,053904531011586918	1,4447222879070464
1	0	0	1	0	0	1	722858,39	-0,200000003	2,00204062	-0,00055588430623958509	-0,20011459248026346	0,000400637538	-1,4575075212563002	0,054381565257776634	1,4575075212563002
1	0	0	1	0	0	1	723088,39	-0,200000003	2,00209761	-0,0005558736054955257	-0,20011074028473888	0,000400641235	-1,4702926857965155	0,054858596936608614	1,4702926857965155
1	0	0	1	0	0	1	723318,40	-0,200000003	2,00145006	-0,00055588248504698266	-0,20011393686323779	0,000400518038	-1,4830778273422893	0,055335627757487066	1,4830778273422893
1	0	0	1	0	0	1	723548,40	-0,200000003	2,00116444	-0,00055588448448727526	-0,20011465664822694	0,000400462333	-1,4958631554479066	0,055812665539164109	1,4958631554479066
1	0	0	1	0	0	1	723778,40	-0,200000003	2,00072622	-0,00055588765047904525	-0,20011579638386208	0,000400376914	-1,508648544052065	0,056289705578123059	1,508648544052065
1	0	0	1	0	0	1	724008,41	-0,200000003	2,00021195	-0,0005558877169936896	-0,20011582032868442	0,000400274061	-1,5214339365799277	0,056766745763480698	1,5214339365799277
1	0	0	1	0	0	1	724238,41	-0,200000003	1,99891663	-0,0005558789944383833	-0,20011268026773843	0,000400008576	-1,5342192269349101	0,057243782136630803	1,5342192269349101
1	0	0	1	0	0	1	724468,42	-0,200000003	1,99794519	-0,00055588327063868442	-0,20011421967093981	0,000399817247	-1,5470045471856128	0,057720819625230426	1,5470045471856128
1	0	0	1	0	0	1	724698,42	-0,200000003	1,99636412	-0,0005558631464996272	-0,20010697511691795	0,000399486395	-1,5597896347536387	0,058197848432126528	1,5597896347536387
1	0	0	1	0	0	1	724928,43	-0,200000003	1,99457359	-0,00055587187666942682	-0,20011011791903008	0,000399134355	-1,5725745868125674	0,058674872182996006	1,5725745868125674
1	0	0	1	0	0	1	725158,43	-0,200000003	1,99244022	-0,00055586999603692032	-0,20010944090404077	0,000398706092	-1,5853595988711216	0,059151898172532198	1,5853595988711216
1	0	0	1	0	0	1	725388,43	-0,200000003	1,9893353	-0,00055585911365929587	-0,20010552331700163	0,000398076983	-1,5981444214102992	0,059628917090845645	1,5981444214102992
1	0	0	1	0	0	1	725618,44	-0,200000003	1,98598289	-0,00055585720163004262	-0,2001048349947368	0,000397404772	-1,6109292408332218	0,060105935892887411	1,6109292408332218
1	0	0	1	0	0	1	725848,44	-0,200000003	1,98078263	-0,0005558660609184039	-0,20010802427865811	0,000396370509	-1,6237141435300189	0,060582957801989402	1,6237141435300189
1	0	0	1	0	0	1	726078,45	-0,200000003	1,97415388	-0,00055586950316694061	-0,20010926347417984	0,000395046489	-1,6364991131983098	0,061059982209887872	1,6364991131983098
1	0	0	1	0	0	1	726308,45	-0,200000003	1,96506786	-0,00055586918454534477	-0,20010914877255926	0,000393228052	-1,6492841647743347	0,061537009673874035	1,6492841647743347
1	0	0	1	0	0	1	726538,46	-0,200000003	1,95361996	-0,00055586204353140454	-0,20010657805581389	0,000390932197	-1,6620691382346474	0,062014034223257933	1,6620691382346474
1	0	0	1	0	0	1	726768,46	-0,200000003	1,93840039	-0,00055586055037462048	-0,20010604052946528	0,000387885637	-1,6748540525810157	0,062491056567021094	1,6748540525810157
1	0	0	1	0	0	1	726998,46	-0,200000003	1,91862833	-0,00055585938660138176	-0,20010562157896646	0,000383928302	-1,6876390256007437	0,062968081099966195	1,6876390256007437
1	0	0	1	0	0	1	727228,47	-0,200000003	1,89077985	-0,00055587506155835264	-0,2001112644575136	0,000378366356	-1,7004239754252541	0,063445104767466534	1,7004239754252541
1	0	0	1	0	0	1	727458,47	-0,200000003	1,85064518	-0,00055588751893242189	-0,20011574902796698	0,000370343245	-1,7132091647983517	0,063922137372846746	1,7132091647983517
1	0	0	1	0	0	1	727688,48	-0,200000003	1,79873872	-0,00055587942304462189	-0,20011283456308698	0,000359950704	-1,7259942753963437	0,06439916703902185	1,7259942753963437
1	0	0	1	0	0	1	727918,48	-0,200000003	1,73622239	-0,00055587979691889555	-0,20011296915529811	0,000347440626	-1,7387794941666147	0,064876200741250125	1,7387794941666147
1	0	0	1	0	0	1	728148,49	-0,200000003	1,62090445	-0,00055587989988095232	-0,20011300622094253	0,000324364053	-1,7515647474996272	0,065353235733060749	1,7515647474996272
1	1	0	0	0	0	2	728366,65	0,200000003	2,11015844	0,00055534329294082189	0,19991983134994698	0,000421862525	-1,7625806932406957	0,06576425547975657	0,00055535393826415142
1	1	0	0	0	0	2	728596,66	0,200000003	2,30824089	0,00055534679785784749	0,19992109309638301	0,000461466028	-1,7498076202198061	0,065287674951767859	0,013328426959153677
1	1	0	0	0	0	2	728826,66	0,200000003	2,3028121	0,00055535311415212026	0,1999233669196232	0,000460385956	-1,7370344909916541	0,064811092326610611	0,026101556187305181
1	1	0	0	0	0	2	729056,67	0,200000003	2,29102135	0,00055534730457845664	0,1999212755123769	0,000458023918	-1,7242613601538307	0,064334509641394355	0,038874687025128973
1	1	0	0	0	0	2	729286,67	0,200000003	2,28170681	0,00055535505252579846	0,199924064721044	0,000456168113	-1,7114883187606374	0,06385793029347753	0,051647728418322074
1	1	0	0	0	0	2	729516,68	0,200000003	2,27557325	0,00055535322888195514	0,19992340822158819	0,000454940367	-1,6987152058251555	0,063381348276221696	0,064420841353803866
1	1	0	0	0	0	2	729746,68	0,200000003	2,27176356	0,00055535288033551648	0,19992328273791696	0,000454178429	-1,6859420356136938	0,062904764121922061	0,077194011565265549
1	1	0	0	0	0	2	729976,68	0,200000003	2,26963019	0,00055536705870843597	0,19992838686097712	0,000453763496	-1,6731687558320093	0,062428175879410099	0,08996729134694985
1	1	0	0	0	0	2	730206,69	0,200000003	2,26841116	0,00055536130313906406	0,19992631489491078	0,000453515095	-1,6603954427440547	0,061951586394196403	0,10274060443490411
1	1	0	0	0	0	2	730436,69	0,200000003	2,2677443	0,00055536946154054669	0,19992925185963894	0,000453388435	-1,6476220731423946	0,061474994800380378	0,1155139740365644
1	1	0	0	0	0	2	730666,70	0,200000003	2,2676301	0,00055536794182906547	0,1999287047830887	0,000453364337	-1,6348486301883405	0,06099840046968791	0,12828741699061869
1	1	0	0	0	0	2	730896,70	0,200000003	2,26785874	0,00055536704689843789	0,19992838261411251	0,000453409331	-1,6220752147927206	0,060521807167237683	0,14106083238623862
1	1	0	0	0	0	2	731126,71	0,200000003	2,2681253	0,00055536922197043898	0,19992916562532944	0,000453464396	-1,609301771740767	0,060045212832892454	0,15383427543819194
1	1	0	0	0	0	2	731356,71	0,200000003	2,26896334	0,00055536721340566874	0,19992844255559002	0,000453630317	-1,5965283048450717	0,059568617608905165	0,1666077423338873
1	1	0	0	0	0	2	731586,71	0,200000003	2,26932526	0,00055534250485400358	0,19991954764401984	0,000453682471	-1,5837551207977488	0,059092032938370944	0,17938092638121043
1	1	0	0	0	0	2	731816,72	0,200000003	2,27023959	0,0005553646849956777	0,19992753234508525	0,000453883404	-1,5709819596663104	0,058615449122859187	0,19215408751264877
1	1	0	0	0	0	2	732046,72	0,200000003	2,27079201	0,00055535136332694029	0,19992273663439398	0,000453982939	-1,558208841236911	0,05813886690061792	0,204927205942048
1	1	0	0	0	0	2	732276,73	0,200000003	2,27189684	0,00055535449415031405	0,19992386370964422	0,000454206398	-1,5454357856881082	0,057662287024536243	0,21770026149085088
1	1	0	0	0	0	2	732506,73	0,200000003	2,27273488	0,00055535092281384595	0,19992257805265786	0,000454371009	-1,5326626661883098	0,05718570476235696	0,23047338099064925
1	1	0	0	0	0	2	732736,74	0,200000003	2,27389693	0,00055534439230130778	0,19992022711229027	0,00045459799	-1,5198895228441398	0,056709121610512102	0,24324652433481888
1	1	0	0	0	0	2	732966,74	0,200000003	2,27507782	0,00055534830221533779	0,19992163465491011	0,000454837282	-1,5071164208502451	0,0562325400015016	0,25601962632871411
1	1	0	0	0	0	2	733196,74	0,200000003	2,2762208	0,00055535527044865818	0,19992414316249078	0,00045507148	-1,4943432884003824	0,055755957256138003	0,26879275877857606
1	1	0	0	0	0	2	733426,75	0,200000003	2,2775352	0,0005553636849183175	0,19992717231701382	0,000455341185	-1,4815700556193824	0,055279370767284755	0,28156599155957661
1	1	0	0	0	0	2	733656,75	0,200000003	2,27873516	0,00055536085738490022	0,19992615442642512	0,00045557876	-1,4687968232905165	0,054802784295301261	0,29433922388844192
1	1	0	0	0	0	2	733886,76	0,200000003	2,27968764	0,0005553602832067344	0,19992594772151203	0,000455768721	-1,456023542575231	0,054326196017955386	0,30711250460372698
1	1	0	0	0	0	2	734116,76	0,200000003	2,2809639	0,00055535063401361299	0,1999224740865263	0,000456015958	-1,4432503065962944	0,053849609409782835	0,319885740582664
1	1	0	0	0	0	2	734346,77	0,200000003	2,28227806	0,00055535450033677946	0,19992386593672995	0,00045628185	-1,4304771977679422	0,053373027545769542	0,33265884941101562
1	1	0	0	0	0	2	734576,77	0,200000003	2,28364968	0,0005553695354370608	0,19992927847119427	0,000456568436	-1,4177038167952571	0,052896435527685293	0,34543223038370086
1	1	0	0	0	0	2	734806,77	0,200000003	2,28496385	0,00055536114941454592	0,19992625955977824	0,000456824288	-1,4049304910512696	0,052419845570258003	0,35820555612768826
1	1	0	0	0	0	2	735036,78	0,200000003	2,28599262	0,00055535521940886976	0,19992412479782154	0,000457025075	-1,3921572379480432	0,051943258323155174	0,37097880923091469
1	1	0	0	0	0	2	735266,78	0,200000003	2,28742123	0,00055535800430013069	0,1999251273398497	0,00045731297	-1,3793839639948002	0,051466670298110195	0,38375208318415802
1	1	0	0	0	0	2	735496,79	0,200000003	2,28848791	0,00055537226184540326	0,1999302599597671	0,000457537972	-1,366610524967513	0,050990076113930682	0,39652552221144512
1	1	0	0	0	0	2	735726,79	0,200000003	2,2896688	0,00055536886894454566	0,1999290385383943	0,000457771268	-1,3538369638238688	0,050513477373425702	0,40929908335508922
1	1	0	0	0	0	2	735956,80	0,200000003	2,29094505	0,00055536410114665824	0,19992732216338506	0,000458022521	-1,3410635907723203	0,050036885650889709	0,42207245640663814
1	1	0	0	0	0	2	736186,80	0,200000003	2,29233551	0,00055536440052505997	0,19992742993758586	0,000458300754	-1,328290283426097	0,049560296379907731	0,43484576375286125
1	1	0	0	0	0	2	736416,81	0,200000003	2,29344034	0,00055536712859819334	0,19992841201616246	0,000458523893	-1,315516910467171	0,049083704660827616	0,44761913671178726
1	1	0	0	0	0	2	736646,81	0,200000003	2,29473567	0,00055536709140903418	0,19992839863297139	0,00045878283	-1,3027434390155344	0,048607109266852019	0,46039260816342317
1	1	0	0	0	0	2	736876,81	0,200000003	2,29593563	0,00055536277993520109	0,19992684653153696	0,000459019182	-1,2899701019281587	0,048130518886187667	0,47316594525079834
1	1	0	0	0	0	2	737106,82	0,200000003	2,2973454	0,00055536251332693632	0,19992675054970912	0,000459300791	-1,277196661697261	0,047653924657099834	0,48593938548169606
1	1	0	0	0	0	2	737336,82	0,200000003	2,29844999	0,00055536308142791187	0,1999269550715296	0,000459522096	-1,2644231283681626	0,04717732695439296	0,49871291881079469
1	1	0	0	0	0	2	737566,83	0,200000003	2,29997396	0,00055536330058011744	0,19992703396484218	0,000459826959	-1,2516497213550419	0,046700733964705037	0,51148632582391571
1	1	0	0	0	0	2	737796,83	0,200000003	2,30109787	0,00055537334316554995	0,19993064922771024	0,000460059993	-1,2388762279881267	0,046224137753040947	0,5242598191908311
1	1	0	0	0	0	2	738026,84	0,200000003	2,30241203	0,0005553705697473552	0,19992965081590832	0,000460320443	-1,2261026013480922	0,045747536568777587	0,53703344583086419
1	1	0	0	0	0	2	738256,84	0,200000003	2,30368829	0,00055536563790755136	0,19992787538691808	0,000460571493	-1,2133290714672587	0,045270938994730099	0,54980697571169766
1	1	0	0	0	0	2	738486,84	0,200000003	2,30507898	0,0005553607266619801	0,19992610737171238	0,000460845476	-1,2005556542027469	0,044794345622549005	0,56258039297620979
1	1	0	0	0	0	2	738716,85	0,200000003	2,30645037	0,00055536746100667456	0,1999285316902783	0,000461125223	-1,1877823475214568	0,044317756376376582	0,57535369965749997
1	1	0	0	0	0	2	738946,85	0,200000003	2,30770755	0,00055537074332601504	0,19992971330305248	0,000461379299	-1,1750087825084558	0,043841157491500698	0,58812726467050061
1	1	0	0	0	0	2	739176,86	0,200000003	2,30911708	0,00055537279630617958	0,19993045236203363	0,000461662828	-1,1622351904912264	0,043364557599060749	0,60090085668772979
1	1	0	0	0	0	2	739406,86	0,200000003	2,3104887	0,00055536356365349555	0,19992712866947994	0,000461929361	-1,1494618172152005	0,04288796586814919	0,61367422996375539
1	1	0	0	0	0	2	739636,87	0,200000003	2,31189823	0,00055536961685866118	0,19992930778242	0,000462216209	-1,1366883969862755	0,042411372385361856	0,6264476501926793
1	1	0	0	0	0	2	739866,87	0,200000003	2,31313634	0,00055537098847909114	0,1999298015471929	0,000462464901	-1,1239148209775562	0,041934773090220934	0,63922122620139917
1	1	0	0	0	0	2	740096,87	0,200000003	2,31443167	0,00055536521036922938	0,19992772146903005	0,000462719036	-1,1111412705818307	0,041458174750735251	0,65199477659712461
1	1	0	0	0	0	2	740326,88	0,200000003	2,31566978	0,00055536186586485971	0,19992651747239322	0,000462963799	-1,0983678860192546	0,040981582598707334	0,66476816115970048
1	1	0	0	0	0	2	740556,88	0,200000003	2,31723166	0,00055536514751447571	0,19992769883941622	0,00046327879	-1,0855945725359323	0,040504993098741952	0,67754147464302234
1	1	0	0	0	0	2	740786,89	0,200000003	2,31812692	0,00055536311966180806	0,19992696883547379	0,00046345609	-1,072821165287035	0,04002840010025689	0,69031488189192026
1	1	0	0	0	0	2	741016,89	0,200000003	2,31963181	0,00055536027192407187	0,19992594366913939	0,000463754579	-1,0600478358911966	0,039551810006574144	0,70308821128775821
1	1	0	0	0	0	2	741246,90	0,200000003	2,3206985	0,00055537320166163968	0,1999305982872591	0,000463978649	-1,0472743269392746	0,039075213213412486	0,71586172023968038
1	1	0	0	0	0	2	741476,90	0,200000003	2,32199383	0,00055537806380954061	0,19993234862763536	0,00046424169	-1,0345007597188291	0,038598614246173882	0,72863528746012544
1	1	0	0	0	0	2	741706,90	0,200000003	2,32332706	0,0005553712116910352	0,1999298819112936	0,000464502518	-1,0217272629281496	0,038122017906764531	0,74140878425080512
1	1	0	0	0	0	2	741936,91	0,200000003	2,32456517	0,00055537591914087526	0,19993157656141379	0,000464753975	-1,0089537604948397	0,037645421356821069	0,7541822866841152
1	1	0	0	0	0	2	742166,91	0,200000003	2,3258605	0,00055538163021289638	0,19993363250873466	0,000465017743	-0,99618010441528653	0,037168819074129683	0,76695594276366835
1	1	0	0	0	0	2	742396,92	0,200000003	2,32711768	0,00055537783489210739	0,19993226621890691	0,000465265912	-0,98340633760342963	0,036692212659867162	0,77972970957552512
1	1	0	0	0	0	2	742626,92	0,200000003	2,32768917	0,00055537795147796467	0,19993230818902739	0,000465380261	-0,97063263803204186	0,036215608754436954	0,7925034091469129
1	1	0	0	0	0	2	742856,93	0,200000003	2,32883215	0,0005553759526610375	0,1999315886284456	0,000465607125	-0,95785898310013888	0,035739006514565933	0,805277064078816
1	1	0	0	0	0	2	743086,93	0,200000003	2,32982254	0,00055536480125702093	0,19992757418907318	0,000465795776	-0,94508553112838694	0,035262411847411046	0,81805051605056794
1	1	0	0	0	0	2	743316,93	0,200000003	2,33073688	0,00055537122218145261	0,19992988568311805	0,000465983961	-0,9323120578987849	0,034785816387097178	0,83082398928016986
1	1	0	0	0	0	2	743546,94	0,200000003	2,33168936	0,00055537118132743571	0,19992987096896582	0,000466174359	-0,91953853555236877	0,034309219094168941	0,84359751162658598
1	1	0	0	0	0	2	743776,94	0,200000003	2,33235598	0,00055536911576903533	0,19992912738423229	0,000466305908	-0,90676492187791693	0,033832618393668896	0,85637112530103782
1	1	0	0	0	0	2	744006,95	0,200000003	2,33328938	0,00055536863899313734	0,19992895575744179	0,000466492114	-0,89399138175298445	0,03335602043740032	0,8691446654259703
1	1	0	0	0	0	2	744236,95	0,200000003	2,33378458	0,00055536813311196032	0,19992877364363782	0,000466590689	-0,88121783913613427	0,032879422388154931	0,88191820804282048
1	1	0	0	0	0	2	744466,96	0,200000003	2,33466077	0,00055537402888884147	0,19993089608345968	0,000466770813	-0,8684442646444023	0,032402823149614854	0,89469178253455245
1	1	0	0	0	0	2	744696,96	0,200000003	2,33519411	0,00055538081269711258	0,19993333820857888	0,000466883153	-0,85567059750690278	0,031926220454336621	0,90746544967205197
1	1	0	0	0	0	2	744926,96	0,200000003	2,33567023	0,00055536573766337498	0,19992791129834022	0,000466965663	-0,84289709036011136	0,031449623728526816	0,92023895681884339
1	1	0	0	0	0	2	745156,97	0,200000003	2,33618474	0,00055535696194403706	0,19992475209870224	0,000467061152	-0,83012376508365043	0,030973033788543571	0,93301228209530445
1	1	0	0	0	0	2	745386,97	0,200000003	2,33667994	0,00055536748087240589	0,19992853884180733	0,000467169011	-0,81735042787930573	0,03049644340351495	0,94578561929964902
1	1	0	0	0	0	2	745616,98	0,200000003	2,33706093	0,00055537232386072474	0,19993028228486362	0,000467249251	-0,80457687914440653	0,030019845125996928	0,95855916803454822
1	1	0	0	0	0	2	745846,98	0,200000003	2,33747983	0,00055536393178916634	0,19992726119583283	0,000467325939	-0,79180344167945254	0,02954325100011017	0,97133260549950221
1	1	0	0	0	0	2	746076,99	0,200000003	2,33801317	0,00055536750312315098	0,19992854685192512	0,000467435573	-0,7790300390531561	0,029066658174100557	0,98410600812579878
1	1	0	0	0	0	2	746306,99	0,200000003	2,33835626	0,00055536980199399923	0,19992937442989021	0,000467506092	-0,76625652091890061	0,028590061038333706	0,99687952626005414
1	1	0	0	0	0	2	746537,00	0,200000003	2,33898473	0,00055537562891261446	0,19993147207189197	0,000467636652	-0,7534829980933143	0,028113463727526982	1,0096530490856403
1	1	0	0	0	0	2	746767,00	0,200000003	2,33928943	0,00055536806920005216	0,19992875062880058	0,000467691221	-0,74070946134873869	0,027636865897384061	1,0224265858302155
1	1	0	0	0	0	2	746997,00	0,200000003	2,33947992	0,0005553730784489049	0,19993055393616237	0,000467733509	-0,72793593106023795	0,027160268308125965	1,0352001161187158
1	1	0	0	0	0	2	747227,01	0,200000003	2,34005141	0,00055537133084651501	0,19992992480646086	0,000467846316	-0,7151623964479639	0,026683670557542077	1,0479736507309901
1	1	0	0	0	0	2	747457,01	0,200000003	2,34039426	0,00055536775421930688	0,19992863724484387	0,000467911828	-0,70238875411270042	0,026207068787668621	1,0607472930662534
1	1	0	0	0	0	2	747687,02	0,200000003	2,34079432	0,00055537509774416678	0,19993128086415136	0,000467998005	-0,68961523933213261	0,025730471777032358	1,073520807846821
1	1	0	0	0	0	2	747917,02	0,200000003	2,34113717	0,00055537635475231539	0,19993173337858752	0,000468067621	-0,67684160078186022	0,025253870148382003	1,0862944463970931
1	1	0	0	0	0	2	748147,03	0,200000003	2,34144187	0,00055537227772259053	0,19993026567544717	0,000468125101	-0,66406792902674074	0,024777267280814166	1,0990681181522117
1	1	0	0	0	0	2	748377,03	0,200000003	2,34167051	0,0005553734970663984	0,1999307046309753	0,000468171842	-0,65129438907957274	0,024300669331178211	1,1118416580993797
1	1	0	0	0	0	2	748607,03	0,200000003	2,3419373	0,00055537043795237933	0,19992960337060797	0,000468222599	-0,63852091245783539	0,023824073744299216	1,1246151347211165
1	1	0	0	0	0	2	748837,04	0,200000003	2,34228015	0,0005553732342637248	0,19993061002378934	0,000468293496	-0,62574737148770957	0,023347475756495331	1,1373886756912426
1	1	0	0	0	0	2	749067,04	0,200000003	2,34260392	0,00055536897845069568	0,19992907795986806	0,000468354643	-0,61297383734623373	0,022870878023477558	1,150162209832719
1	1	0	0	0	0	2	749297,05	0,200000003	2,34294677	0,00055537209739618829	0,19993020075916138	0,000468425831	-0,60020029895017651	0,022394280131715638	1,1629357482287763
1	1	0	0	0	0	2	749527,05	0,200000003	2,34302306	0,00055538171365360416	0,19993366254682541	0,000468449172	-0,58742667306980378	0,021917678975796275	1,1757093741091496
1	1	0	0	0	0	2	749757,06	0,200000003	2,34346104	0,00055536080493612422	0,19992613554056547	0,000468519109	-0,57465319110476198	0,021441083189551408	1,1884828560741914
1	1	0	0	0	0	2	749987,06	0,200000003	2,3437469	0,00055537208187166182	0,19993019516578189	0,000468585786	-0,56187972279037587	0,020964487912630861	1,2012563243885773
1	1	0	0	0	0	2	750217,06	0,200000003	2,34395623	0,00055537047896534202	0,19992961812801494	0,000468626269	-0,54910617978728851	0,020487889848974445	1,2140298673916643
1	1	0	0	0	0	2	750447,07	0,200000003	2,34441352	0,0005553608651219143	0,19992615720704307	0,000468709593	-0,53633266141566438	0,020011292704351043	1,2268033857632885
1	1	0	0	0	0	2	750677,07	0,200000003	2,34448957	0,00055536992391861152	0,19992941832192643	0,00046873244	-0,5235591567178167	0,019534696069914624	1,2395768904611362
1	1	0	0	0	0	2	750907,08	0,200000003	2,34471822	0,00055536978090057773	0,19992936683640102	0,000468778017	-0,51078570318782957	0,019058101344619878	1,252350343991123
1	1	0	0	0	0	2	751137,08	0,200000003	2,34513736	0,0005553697323625287	0,19992934936303149	0,000468861777	-0,4980122189370839	0,018581505473092326	1,2651238282418691
1	1	0	0	0	0	2	751367,09	0,200000003	2,3451755	0,00055537552596049171	0,1999314350191336	0,000468874292	-0,48523874286321203	0,018104909906654931	1,2778973043157411
1	1	0	0	0	0	2	751597,09	0,200000003	2,34553742	0,00055537389399028486	0,1999308475208912	0,000468945276	-0,47246517813004038	0,017628311032219856	1,2906708690489126
1	1	0	0	0	0	2	751827,09	0,200000003	2,34580398	0,00055536294419732365	0,19992690566944554	0,000468989339	-0,45969170103034112	0,017151715427507462	1,3034443461486114
1	1	0	0	0	0	2	752057,10	0,200000003	2,34589934	0,00055537390091684128	0,1999308500144047	0,000469017657	-0,4469182469696071	0,01667512068240983	1,3162178002093456
1	1	0	0	0	0	2	752287,10	0,200000003	2,34629917	0,00055537975929346355	0,19993295899038621	0,000469102524	-0,43414453920942541	0,016198516471444714	1,3289915079695275
1	1	0	0	0	0	2	752517,11	0,200000003	2,34648967	0,00055537391755150426	0,19993085600277091	0,000469135673	-0,42137087862984493	0,015721914020851258	1,3417651685491078
1	1	0	0	0	0	2	752747,11	0,200000003	2,34700394	0,00055537870396342547	0,19993257907870653	0,000469242543	-0,40859723970604608	0,015245312378264134	1,3545388074729067
1	1	0	0	0	0	2	752977,12	0,200000003	2,34719443	0,0005553755585418807	0,19993144674821338	0,000469277991	-0,39582366210397171	0,014768713023672995	1,3673123850749811
1	1	0	0	0	0	2	753207,12	0,200000003	2,34727073	0,00055537482702152602	0,1999311833965209	0,000469292601	-0,38305007528298195	0,014292113325111728	1,3800859718959709
1	1	0	0	0	0	2	753437,12	0,200000003	2,34772778	0,00055538521613346208	0,19993492340891504	0,000469392777	-0,37027620528873978	0,013815503060975685	1,3928598418902134
1	1	0	0	0	0	2	753667,13	0,200000003	2,34828019	0,00055537447400473888	0,19993105631286394	0,000469494145	-0,35750239982342067	0,013338895204500523	1,4056336473555326
1	1	0	0	0	0	2	753897,13	0,200000003	2,34881353	0,00055537397989382349	0,19993087844558442	0,000469600345	-0,34472888534085382	0,012862298204983075	1,4184071618380998
1	1	0	0	0	0	2	754127,14	0,200000003	2,34928989	0,00055538307265275046	0,19993415177733126	0,000469703285	-0,33195514255613267	0,012385692687205294	1,4311809046228214
1	1	0	0	0	0	2	754357,14	0,200000003	2,34980416	0,00055538238863150285	0,19993390553430608	0,000469805527	-0,31918140757976986	0,011909087460767864	1,4439546395991843
1	1	0	0	0	0	2	754587,15	0,200000003	2,35026121	0,00055538758042703072	0,19993577454559968	0,000469901308	-0,306407565931808	0,011432478254269651	1,4567284812471462
1	1	0	0	0	0	2	754817,15	0,200000003	2,35073757	0,00055538465213692858	0,19993472038095811	0,000469994062	-0,2936337743868855	0,0109558709171832	1,4695022727920688
1	1	0	0	0	0	2	755047,15	0,200000003	2,35128999	0,00055538397503064736	0,19993447662727408	0,000470103929	-0,2808599429008673	0,010479262089840768	1,4822761042780867
1	1	0	0	0	0	2	755277,16	0,200000003	2,35172796	0,00055537769365972947	0,1999322153762056	0,000470186176	-0,26808619730951322	0,010002656467343741	1,4950498498694406
1	1	0	0	0	0	2	755507,16	0,200000003	2,35239458	0,00055537158884935904	0,19993001768574061	0,000470314291	-0,25531262076104784	0,0095260571520641715	1,5078234264179066
1	1	0	0	0	0	2	755737,17	0,200000003	2,35292816	0,00055536950635413331	0,19992926800153699	0,000470419211	-0,24253892523897136	0,009049453397719209	1,520597121939983
1	1	0	0	0	0	2	755967,17	0,200000003	2,35338521	0,00055536817179289133	0,19992878756851146	0,000470509462	-0,22976539622207344	0,0085728558559063296	1,533370650956881
1	1	0	0	0	0	2	756197,18	0,200000003	2,35399485	0,00055537305426100883	0,19993054522402838	0,000470635481	-0,21699176820334563	0,0080962546202020659	1,546144278975608
1	1	0	0	0	0	2	756427,18	0,200000003	2,35466146	0,00055536848475618496	0,19992890022387181	0,000470764877	-0,20421831264220861	0,0076196598191223859	1,558917734536745
1	1	0	0	0	0	2	756657,19	0,200000003	2,35532808	0,00055537730094956019	0,19993207399854442	0,000470905623	-0,1914447136075697	0,007143059664853449	1,571691333571383
1	1	0	0	0	0	2	756887,19	0,200000003	2,35597587	0,00055537841315153568	0,19993247438373712	0,000471036095	-0,17867101358304026	0,0066664557425159142	1,5844650335959126
1	1	0	0	0	0	2	757117,19	0,200000003	2,35669971	0,00055538185427669024	0,19993371316087584	0,00047118371	-0,16589725175592237	0,0061898495142407104	1,5972387954230301
1	1	0	0	0	0	2	757347,20	0,200000003	2,3571949	0,00055536802304039398	0,19992873401861798	0,000471270992	-0,15312368525860224	0,0057132505739828832	1,6100123619203498
1	1	0	0	0	0	2	757577,20	0,200000003	2,35810924	0,00055537978857672883	0,19993296953216378	0,000471463776	-0,14035000978741152	0,0052366475677634291	1,6227860373915405
1	1	0	0	0	0	2	757807,21	0,200000003	2,35883307	0,00055538094787879123	0,19993338687306938	0,000471609499	-0,12757618657825085	0,0047600390492416794	1,6355598606007014
1	1	0	0	0	0	2	758037,21	0,200000003	2,35955691	0,00055538369248227942	0,19993437491177165	0,000471756532	-0,11480247968323472	0,004283434870557049	1,6483335674957181
1	1	0	0	0	0	2	758267,22	0,200000003	2,3607378	0,00055537200650241638	0,19993016803801795	0,000471982697	-0,10202880024093418	0,0038068317161701472	1,6611072469380182
1	1	0	0	0	0	2	758497,22	0,200000003	2,36161399	0,00055537844671640134	0,1999324864715168	0,000472163345	-0,089255209430501158	0,0033302318687573894	1,6738808377484515
1	1	0	0	0	0	2	758727,22	0,200000003	2,3623569	0,00055537964832865536	0,19993291904380538	0,00047231291	-0,076481596251238003	0,0028536311867335043	1,6866544509277149
1	1	0	0	0	0	2	758957,23	0,200000003	2,36340451	0,00055538280987077299	0,19993405717759578	0,000472525047	-0,063707896021634611	0,0023770272567443843	1,6994281511573181
1	1	0	0	0	0	2	759187,23	0,200000003	2,36424279	0,00055537771017683866	0,19993222132225325	0,00047268832	-0,050934243537444467	0,0019004251082008275	1,7122018036415082
1	1	0	0	0	0	2	759417,24	0,200000003	2,36551881	0,00055537814596212576	0,19993237820201072	0,000472943793	-0,03816055557702425	0,0014238216359914278	1,724975491601929
1	1	0	0	0	0	2	759647,24	0,200000003	2,36656666	0,00055537789142959648	0,19993228657202077	0,000473153079	-0,025386848021246739	0,00094721743265290163	1,7377491991577062
1	1	0	0	0	0	2	759877,25	0,200000003	2,36761427	0,00055538697612451181	0,1999355569914679	0,000473370281	-0,012613041345262114	0,00047060953100617926	1,7505230058336902
1	1	0	0	0	0	2	760107,25	0,200000003	2,3685286	0,00055537869282066816	0,19993257506040678	0,00047354601	0,00016076371191334195	-5,9983102405963085E-006	1,7632968108908659
1	1	0	0	0	0	2	760337,25	0,200000003	2,37001419	0,00055537643060170944	0,19993176067454675	0,000473841123	0,012934404687740485	-0,0004826000293916567	1,7760704518666928
1	1	0	0	0	0	2	760567,26	0,200000003	2,37121439	0,00055538197918401824	0,19993375813597949	0,000474085798	0,025708155708414566	-0,00095920585446391322	1,7888442028873674
1	1	0	0	0	0	2	760797,26	0,200000003	2,37239528	0,00055537840457674528	0,1999324713015255	0,000474318862	0,038481866764211571	-0,0014358101883928726	1,8016179139431645
1	1	0	0	0	0	2	761027,27	0,200000003	2,37367153	0,00055537394535624314	0,19993086601228893	0,000474570203	0,051255450428970739	-0,0019124097691909315	1,8143914976079245
1	1	0	0	0	0	2	761257,27	0,200000003	2,37513828	0,00055536730824162566	0,19992847669589341	0,000474857778	0,064029008866920819	-0,0023890084087428253	1,8271650560458746
1	1	0	0	0	0	2	761487,28	0,200000003	2,37622404	0,00055537147942764896	0,1999299782946647	0,000475078414	0,076802604189812864	-0,002865608424521496	1,839938651368767
1	1	0	0	0	0	2	761717,28	0,200000003	2,37772894	0,0005553768664648135	0,19993191759162768	0,000475383917	0,089576122977506534	-0,0033422055846690125	1,8527121701564605
1	1	0	0	0	0	2	761947,28	0,200000003	2,37889075	0,00055537760160532262	0,19993218223724141	0,000475616805	0,10234970113988858	-0,0038188049601659834	1,8654857483188426
1	1	0	0	0	0	2	762177,29	0,200000003	2,38062406	0,00055536960133165126	0,19992930219280138	0,000475956505	0,11512329845508661	-0,0042954050502802688	1,8782593456340403
1	1	0	0	0	0	2	762407,29	0,200000003	2,38199568	0,000555378763747712	0,19993260060064554	0,00047623858	0,12789697788992579	-0,004772008204388777	1,891033025068879
1	1	0	0	0	0	2	762637,30	0,200000003	2,38331008	0,0005553847981865207	0,19993477295782397	0,000476506568	0,14067075523175187	-0,0052486150115386042	1,903806802410705
1	1	0	0	0	0	2	762867,30	0,200000003	2,3851006	0,00055538497889704179	0,19993483801238995	0,00047686469	0,15344444960982074	-0,0057252187231991027	1,9165804967887738
1	1	0	0	0	0	2	763097,31	0,200000003	2,38666248	0,00055537400108244685	0,19993088606403571	0,000477167545	0,1662181744746729	-0,0062018235723624768	1,9293542216536256
1	1	0	0	0	0	2	763327,31	0,200000003	2,38835764	0,00055537626588096224	0,19993170138084618	0,000477508409	0,17899181665535325	-0,0066784253364682304	1,9421278638343059
1	1	0	0	0	0	2	763557,31	0,200000003	2,3901484	0,00055538183799634374	0,19993370730937107	0,000477871217	0,19176542502762598	-0,0071550258391368397	1,9549014722065789
1	1	0	0	0	0	2	763787,32	0,200000003	2,3920722	0,00055537242649330035	0,19993031922258723	0,000478247763	0,20453904050575002	-0,0076316266069343142	1,9676750876847027
1	1	0	0	0	0	2	764017,32	0,200000003	2,39420557	0,00055537137187603443	0,19992993957681053	0,000478673377	0,21731260414941411	-0,0081082254407183974	1,9804486513283674
1	1	0	0	0	0	2	764247,33	0,200000003	2,39593887	0,00055537248383296864	0,19993033987378998	0,000479020877	0,23008626622242445	-0,0085848279470337293	1,9932223134013782
1	1	0	0	0	0	2	764356,61	0,200000003	2,39702463	0,00051538834074719085	0,19993106793751651	0,000479239709	0,2361553915281673	-0,0088112751722167552	1,9992914387071206