File: Experimentelles/Rohdaten/Batterietests/AlteZelle/Studenten_Batterietests/S vs Li GCPL 300µm/ZView-Export/S vs Li GCPL 300µm_02_GCPL_C06_loop4.txt
EC-Lab ASCII FILE
Nb header lines : 3
mode	ox/red	error	control changes	Ns changes	counter inc.	Ns	time/s	control/V/mA	Ewe/V	dq/mA.h	<I>/mA	P/W	(Q-Qo)/mA.h	x	Capacity/mA.h
1	0	0	1	1	0	1	288865,45	-0,200000003	2,32715583	0	0	0	0	0	0
1	0	0	1	0	0	1	289095,46	-0,200000003	2,28473544	-0,00055585658170282835	-0,20010451641897107	0,000457185874	-0,012781740946882261	0,00047690393996165376	0,012781740946882261
1	0	0	1	0	0	1	289325,46	-0,200000003	2,27747798	-0,00055584991481320723	-0,20010211637560211	0,00045572815	-0,02556630515233424	0,00095391321949645517	0,02556630515233424
1	0	0	1	0	0	1	289555,47	-0,200000003	2,27143979	-0,00055585538367678714	-0,20010408513324154	0,000454524386	-0,038350903740040934	0,0014309237818794077	0,038350903740040934
1	0	0	1	0	0	1	289785,47	-0,200000003	2,2663157	-0,00055584785598185325	-0,20010137521524464	0,000453492888	-0,051135403913331494	0,0019079306722881744	0,051135403913331494
1	0	0	1	0	0	1	290015,48	-0,200000003	2,26132512	-0,00055585038140333357	-0,20010228434481331	0,000452496315	-0,063919977805907494	0,0023849403132625978	0,063919977805907494
1	0	0	1	0	0	1	290245,48	-0,200000003	2,25688696	-0,00055585809704826938	-0,20010506193282598	0,000451614498	-0,076704622492645312	0,0028619525956623818	0,076704622492645312
1	0	0	1	0	0	1	290475,49	-0,200000003	2,25182009	-0,0005558517293027705	-0,20010276958858531	0,000450595428	-0,089489299195707648	0,0033389660726342803	0,089489299195707648
1	0	0	1	0	0	1	290705,49	-0,200000003	2,2475152	-0,0005558507209536103	-0,20010240658987709	0,000449733197	-0,10227386485617275	0,0038159754064575776	0,10227386485617275
1	0	0	1	0	0	1	290935,49	-0,200000003	2,24300075	-0,00055584828964951968	-0,20010153132793962	0,000448827894	-0,11505844704253638	0,0042929853568843686	0,11505844704253638
1	0	0	1	0	0	1	291165,50	-0,200000003	2,23829579	-0,00055585248000754253	-0,2001030398301112	0,00044788979	-0,12784302101674419	0,0047699950009045837	0,12784302101674419
1	0	0	1	0	0	1	291395,50	-0,200000003	2,23322892	-0,00055584762479199302	-0,20010129198849747	0,000446872	-0,14062759110526482	0,0052470044999445869	0,14062759110526482
1	0	0	1	0	0	1	291625,51	-0,200000003	2,22741914	-0,00055584496493637562	-0,2001003344542535	0,000445707323	-0,15341211403543248	0,0057240122394430355	0,15341211403543248
1	0	0	1	0	0	1	291855,51	-0,200000003	2,2214191	-0,00055584988969233299	-0,2001021073415793	0,000444510631	-0,16619664055543302	0,0062010201128829747	0,16619664055543302
1	0	0	1	0	0	1	292085,52	-0,200000003	2,21463799	-0,00055583913488603302	-0,20009823568585965	0,000443145167	-0,17898107106914688	0,0066780244041992755	0,17898107106914688
1	0	0	1	0	0	1	292315,52	-0,200000003	2,2075901	-0,00055584900596986214	-0,20010178920761539	0,000441742741	-0,1917655679089873	0,0071550311702325363	0,1917655679089873
1	0	0	1	0	0	1	292545,53	-0,200000003	2,19958973	-0,00055584576669997632	-0,20010062308359222	0,000440139265	-0,20455006478903434	0,0076320379377659597	0,20455006478903434
1	0	0	1	0	0	1	292775,53	-0,200000003	2,19040847	-0,00055584416141361005	-0,20010004519395709	0,000438300835	-0,21733457314586214	0,008109045133513504	0,21733457314586214
1	0	0	1	0	0	1	293005,53	-0,200000003	2,1801796	-0,00055584147007266682	-0,20009907633220237	0,000436251925	-0,2301190609635528	0,0085860515629182272	0,2301190609635528
1	0	0	1	0	0	1	293235,54	-0,200000003	2,16878891	-0,00055584916539986931	-0,2001018465919951	0,000433978654	-0,2429035143524184	0,0090630567077371955	0,2429035143524184
1	0	0	1	0	0	1	293465,54	-0,200000003	2,15615988	-0,00055585144449356531	-0,20010266705924563	0,000431453343	-0,25568807200003651	0,0095400657425903974	0,25568807200003651
1	0	0	1	0	0	1	293695,55	-0,200000003	2,14215946	-0,00055584780874765581	-0,20010135821591984	0,000428649015	-0,26847261960216934	0,01001707440263304	0,26847261960216934
1	0	0	1	0	0	1	293925,55	-0,200000003	2,12695885	-0,00055584666007426048	-0,20010094470145971	0,000425606471	-0,28125708577626262	0,010494080024486043	0,28125708577626262
1	0	0	1	0	0	1	294155,56	-0,200000003	2,11061549	-0,00055584271456632352	-0,20009952433663354	0,000422333163	-0,29404153519609056	0,010971085021214878	0,29404153519609056
1	0	0	1	0	0	1	294385,56	-0,200000003	2,09312916	-0,00055584419836021139	-0,20010005849447747	0,000418835261	-0,30682594124268474	0,01144808839963005	0,30682594124268474
1	0	0	1	0	0	1	294615,57	-0,200000003	2,07371902	-0,000555841697772344	-0,20009915830250781	0,000414949434	-0,31961042054835533	0,011925094511439859	0,31961042054835533
1	0	0	1	0	0	1	294845,57	-0,200000003	2,05425167	-0,00055584652599775123	-0,200100896425528	0,000411057612	-0,33239483620567936	0,012402098248444283	0,33239483620567936
1	0	0	1	0	0	1	295075,57	-0,200000003	2,03566074	-0,00055584390201585152	-0,20009995181955034	0,00040733561	-0,34517930725557843	0,012879104052220155	0,34517930725557843
1	0	0	1	0	0	1	295305,58	-0,200000003	2,02114606	-0,00055584204872780378	-0,20009928464869946	0,000404429884	-0,35796374750522605	0,013356108706797232	0,35796374750522605
1	0	0	1	0	0	1	295535,58	-0,200000003	2,01047897	-0,00055584731979254221	-0,20010118219546822	0,000402299222	-0,37074826539473146	0,013833116258221798	0,37074826539473146
1	0	0	1	0	0	1	295765,59	-0,200000003	2,00207877	-0,00055585052345693114	-0,20010233548312374	0,000400620629	-0,38353276841233504	0,014310123254755707	0,38353276841233504
1	0	0	1	0	0	1	295995,59	-0,200000003	1,99588788	-0,00055582805914597376	-0,20009424849155258	0,000399365672	-0,39631716773029165	0,014787126382116362	0,39631716773029165
1	0	0	1	0	0	1	296225,60	-0,200000003	1,99223065	-0,00055583713009622362	-0,20009751397076595	0,000398640404	-0,40910134275277293	0,015264121140711264	0,40910134275277293
1	0	0	1	0	0	1	296455,60	-0,200000003	1,99036396	-0,00055583185332434048	-0,20009561436480595	0,000398263102	-0,42188551725250733	0,015741115879801779	0,42188551725250733
1	0	0	1	0	0	1	296685,61	-0,200000003	1,99038303	-0,00055582873882187731	-0,20009449317482531	0,000398264674	-0,43466969310205024	0,016218110669255466	0,43466969310205024
1	0	0	1	0	0	1	296915,61	-0,200000003	1,99143064	-0,0005558310021046135	-0,20009530794092208	0,000398475939	-0,44745377592986842	0,01669510198794353	0,44745377592986842
1	0	0	1	0	0	1	297145,61	-0,200000003	1,99259257	-0,00055583758920762266	-0,20009767925234605	0,000398713164	-0,46023794571265274	0,017172096551038291	0,46023794571265274
1	0	0	1	0	0	1	297375,62	-0,200000003	1,99367833	-0,00055584067108399334	-0,20009878869715939	0,000398932607	-0,47302221478169107	0,017649094818636688	0,47302221478169107
1	0	0	1	0	0	1	297605,62	-0,200000003	1,99424982	-0,00055583442406687469	-0,20009653981895757	0,000399042503	-0,48580642664536947	0,018126090951826189	0,48580642664536947
1	0	0	1	0	0	1	297835,63	-0,200000003	1,99487841	-0,00055583534023248486	-0,20009686963222669	0,00039916893	-0,49859062934113075	0,018603086742948374	0,49859062934113075
1	0	0	1	0	0	1	298065,63	-0,200000003	1,9956975	-0,00055583662686000269	-0,20009733280455587	0,000399333745	-0,51137478929622739	0,019080080939358896	0,51137478929622739
1	0	0	1	0	0	1	298295,64	-0,200000003	1,99647844	-0,0005558272486825785	-0,20009395673500682	0,00039948328	-0,52415890966860614	0,019557073658884995	0,52415890966860614
1	0	0	1	0	0	1	298525,64	-0,200000003	1,99725938	-0,00055583633468962387	-0,2000972276345623	0,000399646058	-0,53694305434123846	0,020034067285086227	0,53694305434123846
1	0	0	1	0	0	1	298755,64	-0,200000003	1,99809754	-0,00055584978295862675	-0,20010206891818486	0,000399823446	-0,54972758021969434	0,020511075134589274	0,54972758021969434
1	0	0	1	0	0	1	298985,65	-0,200000003	1,99891663	-0,00055585082142717299	-0,20010244275034544	0,000399988086	-0,56251218719654541	0,02098808600998248	0,56251218719654541
1	0	0	1	0	0	1	299215,65	-0,200000003	1,99998331	-0,00055585860617872742	-0,20010524521160282	0,000400207151	-0,57529678871719514	0,021465096681797482	0,57529678871719514
1	0	0	1	0	0	1	299445,66	-0,200000003	2,00125957	-0,00055585389089584346	-0,20010354774244925	0,000400459132	-0,58808143446052045	0,021942109003619968	0,58808143446052045
1	0	0	1	0	0	1	299675,66	-0,200000003	2,00244069	-0,00055584864670948845	-0,20010165986705338	0,000400691701	-0,60086598439077581	0,022419117750527987	0,60086598439077581
1	0	0	1	0	0	1	299905,67	-0,200000003	2,00375485	-0,00055585210935688672	-0,20010290640543274	0,000400957157	-0,6136505329843872	0,022896126447564026	0,6136505329843872
1	0	0	1	0	0	1	300135,67	-0,200000003	2,00518346	-0,00055585148289716909	-0,20010268088427677	0,000401242578	-0,6264351422191104	0,023373137407201478	0,6264351422191104
1	0	0	1	0	0	1	300365,68	-0,200000003	2,00655508	-0,00055585060444474227	-0,20010236464749219	0,000401516416	-0,63921969878132698	0,023850146401556896	0,63921969878132698
1	0	0	1	0	0	1	300595,68	-0,200000003	2,00815511	-0,00055584864150070483	-0,20010165799192736	0,000401835161	-0,65200422056487437	0,024327154098273398	0,65200422056487437
1	0	0	1	0	0	1	300825,68	-0,200000003	2,00964093	-0,00055584497301777203	-0,20010033736815907	0,000402129837	-0,66478870342611354	0,02480416034274625	0,66478870342611354
1	0	0	1	0	0	1	301055,69	-0,200000003	2,01139331	-0,00055585697876910374	-0,20010465935308941	0,000402489182	-0,67757333819498304	0,02528117225509703	0,67757333819498304
1	0	0	1	0	0	1	301285,69	-0,200000003	2,01325989	-0,000555855586623152	-0,20010415818786723	0,000402861682	-0,69035797158973018	0,025758184116177462	0,69035797158973018
1	0	0	1	0	0	1	301515,70	-0,200000003	2,01514578	-0,00055585105313360691	-0,20010252617237334	0,000403235754	-0,70314261422783718	0,026235196322140077	0,70314261422783718
1	0	0	1	0	0	1	301745,70	-0,200000003	2,0168221	-0,00055584648554275437	-0,2001008818713273	0,000403567887	-0,71592719071358784	0,026712206059869338	0,71592719071358784
1	0	0	1	0	0	1	301975,71	-0,200000003	2,0186317	-0,0005558478215800391	-0,20010136283548886	0,000403930957	-0,72871170409455923	0,027189213443074429	0,72871170409455923
1	0	0	1	0	0	1	302205,71	-0,200000003	2,02053642	-0,00055584804179188282	-0,20010144210090842	0,000404312246	-0,74149619210784806	0,027666219879777184	0,74149619210784806
1	0	0	1	0	0	1	302435,72	-0,200000003	2,02246022	-0,00055584891059001299	-0,20010175486687194	0,000404697843	-0,75428062960747994	0,028143224431747478	0,75428062960747994
1	0	0	1	0	0	1	302665,72	-0,200000003	2,02423167	-0,00055584267713460659	-0,20009951086380435	0,000405047758	-0,7670650963401367	0,028620230074441235	0,7670650963401367
1	0	0	1	0	0	1	302895,72	-0,200000003	2,02615571	-0,00055584642692572538	-0,20010086076028541	0,000405435509	-0,77984962171224781	0,029097237905051878	0,77984962171224781
1	0	0	1	0	0	1	303125,73	-0,200000003	2,02806044	-0,00055585353770189811	-0,20010342059973606	0,000405821833	-0,79263417920743462	0,029574246934217664	0,79263417920743462
1	0	0	1	0	0	1	303355,73	-0,200000003	2,02964139	-0,00055585751673827578	-0,20010485302525078	0,000406141102	-0,80541888670228941	0,030051261560072742	0,80541888670228941
1	0	0	1	0	0	1	303585,74	-0,200000003	2,03129864	-0,00055584997888406125	-0,2001021394499832	0,00040646721	-0,81820358341505651	0,030528275783633626	0,81820358341505651
1	0	0	1	0	0	1	303815,74	-0,200000003	2,03308916	-0,00055584874671532051	-0,20010169586845968	0,000406824576	-0,8309882124844535	0,031005287483329427	0,8309882124844535
1	0	0	1	0	0	1	304045,75	-0,200000003	2,03457499	-0,00055584846680445811	-0,20010159510714835	0,000407121697	-0,84377272703474867	0,031482294910163565	0,84377272703474867
1	0	0	1	0	0	1	304275,75	-0,200000003	2,03575587	-0,00055585397059304845	-0,20010357643056115	0,000407362037	-0,8565572942650569	0,031959304302559821	0,8565572942650569
1	0	0	1	0	0	1	304505,76	-0,200000003	2,03737497	-0,0005558435964410503	-0,20009984180542234	0,000407678424	-0,86934183212898586	0,032436312599256979	0,86934183212898586
1	0	0	1	0	0	1	304735,76	-0,200000003	2,0387466	-0,00055584519337614381	-0,20010041670030429	0,000407954038	-0,88212634317148723	0,032913319895210618	0,88212634317148723
1	0	0	1	0	0	1	304965,76	-0,200000003	2,04021335	-0,00055584722540527584	-0,20010114821670656	0,000408249034	-0,89491077931909274	0,033390324396734989	0,89491077931909274
1	0	0	1	0	0	1	305195,77	-0,200000003	2,04166079	-0,00055584831743687392	-0,20010154134051232	0,000408539461	-0,90769525230020531	0,03386733027256704	0,90769525230020531
1	0	0	1	0	0	1	305425,77	-0,200000003	2,04286098	-0,00055584879326158106	-0,20010171263410861	0,000408779975	-0,92047975181077248	0,034344337138248698	0,92047975181077248
1	0	0	1	0	0	1	305655,78	-0,200000003	2,04409909	-0,00055585069710099034	-0,20010239799844035	0,000409029133	-0,93326429737834842	0,03482134572237929	0,93326429737834842
1	0	0	1	0	0	1	305885,78	-0,200000003	2,04524207	-0,00055585116172333568	-0,20010256525693462	0,00040925818	-0,94604893858335936	0,035298357874871162	0,94604893858335936
1	0	0	1	0	0	1	306115,79	-0,200000003	2,04648018	-0,00055584869781219296	-0,20010167826367277	0,000409504108	-0,95883354755675904	0,035775368824758285	0,95883354755675904
1	0	0	1	0	0	1	306345,79	-0,200000003	2,04764199	-0,00055585132416503302	-0,20010262374180803	0,000409738539	-0,9716181364215351	0,036252379024365619	0,9716181364215351
1	0	0	1	0	0	1	306575,80	-0,200000003	2,0485754	-0,00055584732145567731	-0,20010118279418531	0,000409922359	-0,98440260965806464	0,036729384909727622	0,98440260965806464
1	0	0	1	0	0	1	306805,80	-0,200000003	2,04973745	-0,00055585003367066387	-0,20010215917278042	0,000410156877	-0,99718705229491162	0,037206389653374317	0,99718705229491162
1	0	0	1	0	0	1	307035,80	-0,200000003	2,05067062	-0,00055585035117301677	-0,20010227347142666	0,00041034384	-1,009971586386901	0,037683397809335341	1,009971586386901
1	0	0	1	0	0	1	307265,81	-0,200000003	2,05179453	-0,00055584350277317901	-0,20009980809029677	0,000410563691	-1,022756046006147	0,038160403186618182	1,022756046006147
1	0	0	1	0	0	1	307495,81	-0,200000003	2,05267072	-0,00055584961744480666	-0,20010200932736858	0,000410743523	-1,0355405576762408	0,038637410505988134	1,0355405576762408
1	0	0	1	0	0	1	307725,82	-0,200000003	2,0533185	-0,00055585045749362976	-0,20010231173679248	0,000410873792	-1,0483250426122963	0,039114416827875168	1,0483250426122963
1	0	0	1	0	0	1	307955,82	-0,200000003	2,05442309	-0,00055584653158154746	-0,2001008984449737	0,000411091896	-1,061109500077037	0,039591422124770522	1,061109500077037
1	0	0	1	0	0	1	308185,83	-0,200000003	2,05508995	-0,00055584667626354419	-0,20010095052948963	0,000411225454	-1,0738940982022664	0,040068432669897824	1,0738940982022664
1	0	0	1	0	0	1	308415,83	-0,200000003	2,05579472	-0,00055585804055217242	-0,20010504159462269	0,000411374873	-1,0866787054579826	0,040545443555695866	1,0866787054579826
1	0	0	1	0	0	1	308645,84	-0,200000003	2,05632806	-0,00055584838276356461	-0,20010156485766813	0,000411474466	-1,0994632824934171	0,041022453313934566	1,0994632824934171
1	0	0	1	0	0	1	308875,84	-0,200000003	2,0567472	-0,00055584948305371744	-0,20010196094517853	0,000411559158	-1,1122478471711024	0,04149946261108903	1,1122478471711024
1	0	0	1	0	0	1	309105,84	-0,200000003	2,05728054	-0,00055584614325728678	-0,20010075864394326	0,000411663408	-1,1250324281552306	0,041976472516658797	1,1250324281552306
1	0	0	1	0	0	1	309335,85	-0,200000003	2,05771852	-0,00055585026011947117	-0,20010224068346358	0,000411754096	-1,1378170143939397	0,042453482618284045	1,1378170143939397
1	0	0	1	0	0	1	309565,85	-0,200000003	2,05809951	-0,00055584459874530637	-0,20010020263732458	0,000411826128	-1,1506014969810392	0,042930488852528378	1,1506014969810392
1	0	0	1	0	0	1	309795,86	-0,200000003	2,05823278	-0,00055584561696565818	-0,20010056918959331	0,000411853543	-1,1633858828717066	0,043407491478898816	1,1633858828717066
1	0	0	1	0	0	1	310025,86	-0,200000003	2,05846143	-0,00055585393676161766	-0,20010356425846896	0,000411905465	-1,1761703271946282	0,043884496285455232	1,1761703271946282
1	0	0	1	0	0	1	310255,87	-0,200000003	2,0583663	-0,0005558414450759689	-0,2000990673382232	0,000411877176	-1,1889547372351442	0,044361499812888992	1,1889547372351442
1	0	0	1	0	0	1	310485,87	-0,200000003	2,05865192	-0,00055584486973120102	-0,20010030018105059	0,000411936868	-1,2017391679405483	0,044838504111357517	1,2017391679405483
1	0	0	1	0	0	1	310715,88	-0,200000003	2,05857563	-0,00055583952641735475	-0,20009837662859802	0,00041191763	-1,2145235932846605	0,04531550820978903	1,2145235932846605
1	0	0	1	0	0	1	310945,88	-0,200000003	2,05838513	-0,00055584491030209594	-0,20010031478629152	0,00041188352	-1,2273079162018902	0,045792508486535846	1,2273079162018902
1	0	0	1	0	0	1	311175,88	-0,200000003	2,05823278	-0,00055584720279028019	-0,2001011400754649	0,000411854737	-1,2400923559092005	0,046269513120877594	1,2400923559092005
1	0	0	1	0	0	1	311405,89	-0,200000003	2,05806136	-0,00055585146041876736	-0,20010267279220794	0,000411823567	-1,2528769711763293	0,046746524305592205	1,2528769711763293
1	0	0	1	0	0	1	311635,89	-0,200000003	2,05800438	-0,00055584775932629907	-0,20010134042457398	0,000411809422	-1,2656615803591138	0,04722353526329175	1,2656615803591138
1	0	0	1	0	0	1	311865,90	-0,200000003	2,05754709	-0,00055585431024597747	-0,20010369871024963	0,00041172278	-1,2784462421555074	0,047700548184075802	1,2784462421555074
1	0	0	1	0	0	1	312095,90	-0,200000003	2,05722332	-0,00055585603990736934	-0,20010432136704346	0,000411659275	-1,2912308828992731	0,04817756031935799	1,2912308828992731
1	0	0	1	0	0	1	312325,91	-0,200000003	2,0565567	-0,00055585178625831994	-0,20010279008519994	0,00041152272	-1,3040155819311718	0,0486545746294488	1,3040155819311718
1	0	0	1	0	0	1	312555,91	-0,200000003	2,05623269	-0,0005558550573214889	-0,20010396764293738	0,000411460322	-1,3168002752082171	0,049131588724818285	1,3168002752082171
1	0	0	1	0	0	1	312785,92	-0,200000003	2,05568027	-0,00055585460003962112	-0,20010380303395261	0,000411349436	-1,3295849227918195	0,049608601115303981	1,3295849227918195
1	0	0	1	0	0	1	313015,92	-0,200000003	2,05508995	-0,00055584909989519245	-0,2001018230200833	0,000411227258	-1,3423695222001142	0,050085611708304173	1,3423695222001142
1	0	0	1	0	0	1	313245,92	-0,200000003	2,05442309	-0,00055585120279093587	-0,20010258004797437	0,00041109536	-1,3551540800803626	0,05056262075183712	1,3551540800803626
1	0	0	1	0	0	1	313475,93	-0,200000003	2,05385184	-0,00055585770747479469	-0,20010492168907549	0,000410985871	-1,367938674464324	0,051039631157372691	1,367938674464324
1	0	0	1	0	0	1	313705,93	-0,200000003	2,05318499	-0,00055585020697530778	-0,20010222155193309	0,000410846871	-1,3807233280714837	0,051516643772605408	1,3807233280714837
1	0	0	1	0	0	1	313935,94	-0,200000003	2,05202317	-0,00055585309905558829	-0,20010326268311664	0,000410616543	-1,3935078840306467	0,051993652744460083	1,3935078840306467
1	0	0	1	0	0	1	314165,94	-0,200000003	2,05099463	-0,00055584768116722502	-0,20010131227853133	0,000410406705	-1,4062923176462674	0,052470657151512704	1,4062923176462674
1	0	0	1	0	0	1	314395,95	-0,200000003	2,04958487	-0,00055584697791023386	-0,20010105912020701	0,000410124107	-1,4190768699910472	0,052947665988509875	1,4190768699910472
1	0	0	1	0	0	1	314625,95	-0,200000003	2,04796576	-0,00055585563137713402	-0,20010417430830842	0,000409806496	-1,4318613952187152	0,053424673813731149	1,4318613952187152
1	0	0	1	0	0	1	314855,95	-0,200000003	2,04596591	-0,00055585230437086694	-0,20010297660911382	0,000409403874	-1,4446461015757558	0,053901688397132845	1,4446461015757558
1	0	0	1	0	0	1	315085,96	-0,200000003	2,04392767	-0,00055584849078042643	-0,20010160374298966	0,000408993219	-1,4574306547010941	0,054378697263253715	1,4574306547010941
1	0	0	1	0	0	1	315315,96	-0,200000003	2,04116559	-0,00055585818109330202	-0,20010509217913725	0,000408447639	-1,4702153342301728	0,05485571084566807	1,4702153342301728
1	0	0	1	0	0	1	315545,97	-0,200000003	2,03798461	-0,0005558613606699639	-0,20010623680702528	0,000407813437	-1,4829999284806733	0,055332721246224038	1,4829999284806733
1	0	0	1	0	0	1	315775,97	-0,200000003	2,03457499	-0,00055585215297424134	-0,20010292210271914	0,000407124404	-1,4957845938132982	0,055809734298949626	1,4957845938132982
1	0	0	1	0	0	1	316005,98	-0,200000003	2,03044152	-0,00055585074344608518	-0,20010241468701216	0,000406296254	-1,5085692119225469	0,056286745589707558	1,5085692119225469
1	0	0	1	0	0	1	316235,98	-0,200000003	2,02539372	-0,0005558515262562368	-0,20010269649324058	0,000405286759	-1,5213537349222675	0,056763753331801126	1,5213537349222675
1	0	0	1	0	0	1	316465,99	-0,200000003	2,01979351	-0,00055585143448743558	-0,20010266345710826	0,000404166058	-1,5341383277298438	0,057240763678519642	1,5341383277298438
1	0	0	1	0	0	1	316695,99	-0,200000003	2,01352668	-0,00055585573996934618	-0,20010421340075206	0,000402915175	-1,5469229595705811	0,057717775481617869	1,5469229595705811
1	0	0	1	0	0	1	316925,99	-0,200000003	2,00623107	-0,00055585723567008966	-0,20010475183333414	0,000401456375	-1,5597076044856176	0,058194787772535782	1,5597076044856176
1	0	0	1	0	0	1	317156,00	-0,200000003	1,99851656	-0,00055585180290291699	-0,20010279607713949	0,000399908749	-1,5724923435367574	0,058671803575798285	1,5724923435367574
1	0	0	1	0	0	1	317386,00	-0,200000003	1,98941159	-0,00055584501346449062	-0,20010035192869741	0,00039808196	-1,5852767986485235	0,059148808784900992	1,5852767986485235
1	0	0	1	0	0	1	317616,01	-0,200000003	1,9796207	-0,00055584501448853146	-0,20010035230200387	0,000396122807	-1,5980612762915552	0,059625814834675507	1,5980612762915552
1	0	0	1	0	0	1	317846,01	-0,200000003	1,96842039	-0,00055584715711739328	-0,20010112363354218	0,000393883121	-1,6108457152208048	0,060102819439986752	1,6108457152208048
1	0	0	1	0	0	1	318076,02	-0,200000003	1,95661044	-0,00055583992063750829	-0,20009851855094422	0,000391514855	-1,6236301037723702	0,060579822165638874	1,6236301037723702
1	0	0	1	0	0	1	318306,02	-0,200000003	1,94358146	-0,00055584303821126618	-0,2000996408558872	0,000388909946	-1,6364145043722195	0,061056825340828685	1,6364145043722195
1	0	0	1	0	0	1	318536,03	-0,200000003	1,92986679	-0,0005558420707177785	-0,20009929255562026	0,000386164989	-1,6491988305086742	0,061533825737689101	1,6491988305086742
1	0	0	1	0	0	1	318766,03	-0,200000003	1,91546631	-0,0005558412189251847	-0,20009898591852022	0,000383282866	-1,6619832295650864	0,062010828855291187	1,6619832295650864
1	0	0	1	0	0	1	318996,03	-0,200000003	1,90081823	-0,00055584937991698586	-0,20010192382132899	0,000380357378	-1,6747675951061139	0,06248783072238921	1,6747675951061139
1	0	0	1	0	0	1	319226,04	-0,200000003	1,8862654	-0,0005558468442021145	-0,20010101097689309	0,000377443619	-1,6875520550542083	0,062964836111941811	1,6875520550542083
1	0	0	1	0	0	1	319456,04	-0,200000003	1,87209344	-0,00055584466951837139	-0,20010022811513744	0,000374606316	-1,7003365318619686	0,063441842130551232	1,7003365318619686
1	0	0	1	0	0	1	319686,05	-0,200000003	1,8577311	-0,00055583949295596947	-0,20009836458855475	0,000371728966	-1,7131210161705139	0,063918848429025024	1,7131210161705139
1	0	0	1	0	0	1	319916,05	-0,200000003	1,84262586	-0,00055585660559352909	-0,2001045250194577	0,000368717767	-1,7259055678362397	0,064395857240685786	1,7259055678362397
1	0	0	1	0	0	1	320146,06	-0,200000003	1,82670152	-0,00055584520620687149	-0,20010042130995962	0,000365523738	-1,738690109395552	0,064872865675262669	1,738690109395552
1	0	0	1	0	0	1	320376,06	-0,200000003	1,80938673	-0,00055584605780657805	-0,20010072788228042	0,000362059596	-1,7514744789321226	0,065349867691439757	1,7514744789321226
1	0	0	1	0	0	1	320606,07	-0,200000003	1,78940511	-0,000555845079679456	-0,20010037576562595	0,000358060643	-1,7642589459020675	0,065826873342987059	1,7642589459020675
1	0	0	1	0	0	1	320836,07	-0,200000003	1,76367092	-0,00055585558048966854	-0,20010415598917357	0,000352917879	-1,7770435794315418	0,066303885209094349	1,7770435794315418
1	0	0	1	0	0	1	321066,07	-0,200000003	1,728127	-0,0005558494049790832	-0,20010193284816922	0,000345801556	-1,7898281135456054	0,066780893365878989	1,7898281135456054
1	0	0	1	0	0	1	321296,08	-0,200000003	1,67526805	-0,00055585268326020909	-0,20010311300665069	0,000335226359	-1,8026127228086077	0,067257904326571571	1,8026127228086077
1	0	0	1	0	0	1	321526,08	-0,200000003	1,59267497	-0,00055584681359761293	-0,20010099996880243	0,000318695849	-1,8153972461431754	0,067734912081158733	1,8153972461431754
1	1	0	0	0	0	2	321740,42	0,200000003	2,24566746	0,00055538193596651149	0,19993364724396723	0,000448984472	-1,822865702834031	0,068013570241741376	0,0022215329867063296
1	1	0	0	0	0	2	321970,42	0,200000003	2,30193591	0,00055538900808410509	0,19993619315727958	0,000460240291	-1,8100919475604861	0,067536964257988787	0,014995288260251283
1	1	0	0	0	0	2	322200,42	0,200000003	2,30275512	0,00055539590520825651	0,19993867607416576	0,000460409821	-1,7973179950470774	0,067060350914951693	0,027769240773660432
1	1	0	0	0	0	2	322430,43	0,200000003	2,28502107	0,00055538265588714016	0,19993390641040333	0,000456853188	-1,7845440646611709	0,066583738397521446	0,040543171159567078
1	1	0	0	0	0	2	322660,43	0,200000003	2,26997304	0,00055539642392016115	0,1999388627975457	0,000453855842	-1,7717701121601971	0,066107125054948314	0,053317123660541203
1	1	0	0	0	0	2	322890,44	0,200000003	2,26174426	0,00055537934516949786	0,1999327145680183	0,000452196662	-1,7589962265038381	0,065630514206437645	0,066091009316900493
1	1	0	0	0	0	2	323120,44	0,200000003	2,2572298	0,00055538373716258336	0,19993429565275786	0,000451297645	-1,7462224592187635	0,06515390777451872	0,07886477660197513
1	1	0	0	0	0	2	323350,45	0,200000003	2,25431538	0,00055538419369856512	0,19993446001185677	0,000450715335	-1,7334486712394806	0,064677300570471078	0,091638564581258394
1	1	0	0	0	0	2	323580,45	0,200000003	2,25282955	0,00055537914815545088	0,19993264365130947	0,000450414169	-1,7206748888763859	0,064200693575970982	0,10441234694435278
1	1	0	0	0	0	2	323810,46	0,200000003	2,25199151	0,00055537451255321504	0,19993097486663686	0,000450242864	-1,7079012106057478	0,063724090465300378	0,11718602521499077
1	1	0	0	0	0	2	324040,46	0,200000003	2,25174379	0,00055537443633625907	0,19993094742906102	0,000450193271	-1,6951274946653123	0,063247485949118989	0,1299597411554265
1	1	0	0	0	0	2	324270,46	0,200000003	2,25143909	0,00055537368280357786	0,19993067615320918	0,000450131745	-1,6823538160801066	0,06277088282671145	0,14273341974063216
1	1	0	0	0	0	2	324500,47	0,200000003	2,25168681	0,00055537668464663962	0,19993175679823117	0,000450183696	-1,6695801621190493	0,062294280623063987	0,15550707370168963
1	1	0	0	0	0	2	324730,47	0,200000003	2,25195336	0,0005553707217905257	0,19992961020903514	0,000450232154	-1,656806561952001	0,061817680426543334	0,16828067386873811
1	1	0	0	0	0	2	324960,48	0,200000003	2,25229621	0,00055537616278893427	0,19993156894005696	0,000450305117	-1,6440329998169258	0,061341081649046733	0,18105423600381283
1	1	0	0	0	0	2	325190,48	0,200000003	2,2528677	0,00055537406057616083	0,1999308121580303	0,000450417661	-1,6312593864312397	0,060864480959320934	0,19382784938949936
1	1	0	0	0	0	2	325420,49	0,200000003	2,25355339	0,00055538269939604736	0,19993392207330832	0,000450561754	-1,6184856095551472	0,06038787416954825	0,20660162626559213
1	1	0	0	0	0	2	325650,49	0,200000003	2,25402951	0,00055539415083825594	0,19993804451312621	0,000450666266	-1,60571163655204	0,059911260062012954	0,21937559926869978
1	1	0	0	0	0	2	325880,49	0,200000003	2,25477242	0,00055537617691440717	0,19993157401581942	0,000450800202	-1,5929377330660794	0,059434648548255872	0,23214950275465936
1	1	0	0	0	0	2	326110,50	0,200000003	2,25547719	0,00055538402801917664	0,19993440036144285	0,000450947467	-1,580163827374185	0,058958036952192422	0,24492340844655382
1	1	0	0	0	0	2	326340,50	0,200000003	2,25616312	0,00055538510771426886	0,19993478905582947	0,000451085507	-1,5673899044209898	0,05848142471208663	0,25769733139974886
1	1	0	0	0	0	2	326570,51	0,200000003	2,25709629	0,00055538979866107302	0,19993647775950806	0,000451275875	-1,5546159741132035	0,058004812197571174	0,27047126170753539
1	1	0	0	0	0	2	326800,51	0,200000003	2,2580297	0,00055539847304920358	0,19993960047910736	0,000451469561	-1,5418420163837597	0,057528198659916794	0,28324521943697917
1	1	0	0	0	0	2	327030,52	0,200000003	2,25865841	0,00055539201814764077	0,19993727675928778	0,000451590022	-1,5290679981147245	0,057051582863448858	0,29601923770601472
1	1	0	0	0	0	2	327260,52	0,200000003	2,25949645	0,00055539103074454605	0,19993692130101802	0,000451756758	-1,5162939892212851	0,056574967416797018	0,30879324659945408
1	1	0	0	0	0	2	327490,53	0,200000003	2,26018214	0,00055539135953866771	0,19993703965531261	0,000451894128	-1,5035200238318986	0,056098353593339872	0,32156721198884077
1	1	0	0	0	0	2	327720,53	0,200000003	2,26111555	0,00055540126593410963	0,19994060589133162	0,000452088803	-1,4907459477167674	0,055621735638556333	0,3343412881039721
1	1	0	0	0	0	2	327950,53	0,200000003	2,26206803	0,0005553952650609943	0,1999384456209335	0,000452274369	-1,477971819481769	0,055145115739110464	0,34711541633897024
1	1	0	0	0	0	2	328180,54	0,200000003	2,26284885	0,00055539640875988531	0,19993885733995149	0,000452431414	-1,4651977517629546	0,054668498097604794	0,35988948405778406
1	1	0	0	0	0	2	328410,54	0,200000003	2,26366806	0,0005553944303956297	0,19993814515184298	0,00045259358	-1,452423733266119	0,054191882292637325	0,37266350255461952
1	1	0	0	0	0	2	328640,55	0,200000003	2,26448703	0,00055538307922995744	0,19993405881088307	0,000452748092	-1,4396497151890326	0,053715266503331264	0,38543752063170656
1	1	0	0	0	0	2	328870,55	0,200000003	2,26536322	0,00055539300451096563	0,19993763184324762	0,000452931359	-1,4268757317763053	0,053238652007399046	0,39821150404443437
1	1	0	0	0	0	2	329100,56	0,200000003	2,26604915	0,00055539452709423174	0,19993817995335923	0,000453069748	-1,4141017643490949	0,052762038107907955	0,41098547147164499
1	1	0	0	0	0	2	329330,56	0,200000003	2,26698232	0,00055539303024278752	0,19993764109954253	0,00045325511	-1,4013277563943584	0,052285422696280384	0,42375947942638067
1	1	0	0	0	0	2	329560,57	0,200000003	2,26764917	0,000555396076688336	0,19993873779649555	0,000453390909	-1,3885537634006349	0,051808807842868314	0,43653347242010374
1	1	0	0	0	0	2	329790,57	0,200000003	2,26848722	0,00055539608067688013	0,19993873923234374	0,000453558459	-1,3757798119739208	0,051332194540377254	0,44930742384681747
1	1	0	0	0	0	2	330020,57	0,200000003	2,26930642	0,00055539065815508358	0,19993678717139418	0,000453717832	-1,3630058179043299	0,05085557964682313	0,46208141791640864
1	1	0	0	0	0	2	330250,58	0,200000003	2,27018261	0,00055539664852784742	0,19993894366406605	0,000453897926	-1,3502318188193582	0,050378964566138406	0,47485541700138048
1	1	0	0	0	0	2	330480,58	0,200000003	2,27084923	0,00055538328924278426	0,19993413441404499	0,000454020279	-1,3374579283373325	0,049902353537575603	0,48762930748340634
1	1	0	0	0	0	2	330710,59	0,200000003	2,27178264	0,00055539186985542374	0,19993722336580742	0,000454213907	-1,3246839677254342	0,049425739892372986	0,50040326809530419
1	1	0	0	0	0	2	330940,59	0,200000003	2,27281117	0,00055538883480098515	0,19993613076957498	0,000454417081	-1,3119100028530509	0,048949126088205926	0,51317723296768768
1	1	0	0	0	0	2	331170,60	0,200000003	2,27336359	0,00055539108137620819	0,19993693952341034	0,000454529363	-1,2991360746399995	0,048472513651847834	0,52595116118073926
1	1	0	0	0	0	2	331400,60	0,200000003	2,2744112	0,00055538211388885984	0,19993371128546934	0,00045473146	-1,2863621461287982	0,047995901204365363	0,53872508969194086
1	1	0	0	0	0	2	331630,61	0,200000003	2,27523041	0,00055537756703628435	0,19993207445936928	0,000454891531	-1,2735882971168635	0,047519291723107424	0,55149893870387533
1	1	0	0	0	0	2	331860,61	0,200000003	2,27637315	0,0005553887590385145	0,19993610350259328	0,000455129164	-1,2608144582955088	0,047042682622073728	0,56427277752523008
1	1	0	0	0	0	2	332090,61	0,200000003	2,27709699	0,00055538214892811245	0,19993372390866739	0,000455268484	-1,248040637119936	0,046566074179427872	0,57704659870080282
1	1	0	0	0	0	2	332320,62	0,200000003	2,27812552	0,00055538317773987846	0,19993409426446182	0,000455474976	-1,2352668088054586	0,046089465470419891	0,58982042701528013
1	1	0	0	0	0	2	332550,62	0,200000003	2,27879238	0,00055537309251311757	0,19993046365506266	0,000455600006	-1,2224930337526818	0,045612858748677568	0,6025942020680567
1	1	0	0	0	0	2	332780,63	0,200000003	2,27955437	0,00055538971724443962	0,19993644844542931	0,000455766014	-1,2097192228688496	0,045136250690030394	0,61536801295188928
1	1	0	0	0	0	2	333010,63	0,200000003	2,28052568	0,00055539138427128397	0,19993704855888304	0,000455961563	-1,1969451904802491	0,044659634366742502	0,6281420453404896
1	1	0	0	0	0	2	333240,64	0,200000003	2,28123045	0,0005553812628752656	0,19993340493578432	0,00045609416	-1,1841712460241669	0,044183021324335098	0,64091598979657203
1	1	0	0	0	0	2	333470,64	0,200000003	2,28237343	0,00055538098555223808	0,1999333051014167	0,00045632245	-1,1713973825700296	0,043706411304219162	0,6536898532507095
1	1	0	0	0	0	2	333700,65	0,200000003	2,28340197	0,00055538445867929197	0,19993455540308166	0,00045653095	-1,1586235852389208	0,043229803751242317	0,66646365058181837
1	1	0	0	0	0	2	333930,65	0,200000003	2,2841258	0,00055538175656149786	0,19993358265009594	0,000456673442	-1,1458498359547024	0,042753197990959558	0,67923739986603686
1	1	0	0	0	0	2	334160,65	0,200000003	2,28530693	0,00055536996809144813	0,19992933888491904	0,000456899899	-1,133076221905839	0,042276597276489722	0,69201101391490022
1	1	0	0	0	0	2	334390,66	0,200000003	2,28620219	0,00055537340091582797	0,19993057468022806	0,000457081711	-1,1203025904122218	0,041799995911132653	0,7047846454085175
1	1	0	0	0	0	2	334620,66	0,200000003	2,28719258	0,00055537450808203878	0,19993097324773456	0,000457280636	-1,107528910998101	0,041323392757797178	0,71755832482263821
1	1	0	0	0	0	2	334850,67	0,200000003	2,28806877	0,00055537375621000928	0,19993070258832547	0,0004574552	-1,0947554147583016	0,040846796438941914	0,73033182106243776
1	1	0	0	0	0	2	335080,67	0,200000003	2,28877354	0,00055536974474208224	0,19992925848767779	0,000457592803	-1,081981896470795	0,040370199297457056	0,74310533934994419
1	1	0	0	0	0	2	335310,68	0,200000003	2,28987837	0,00055536634344442022	0,199928034044096	0,000457810878	-1,0692083271373594	0,039893600251379936	0,75587890868337997
1	1	0	0	0	0	2	335540,68	0,200000003	2,2907927	0,00055536789010382362	0,19992859082145062	0,00045799496	-1,056434916209529	0,039417007115628947	0,76865231961120934
1	1	0	0	0	0	2	335770,69	0,200000003	2,29185939	0,00055536368529167443	0,19992707712287805	0,00045820474	-1,0436615456793534	0,038940415487168762	0,78142569014138509
1	1	0	0	0	0	2	336000,69	0,200000003	2,29292607	0,00055536505306594906	0,19992756950748115	0,000458419148	-1,0308881044857906	0,038463821222162592	0,7941991313349481
1	1	0	0	0	0	2	336230,69	0,200000003	2,29393578	0,000555369782589376	0,19992927210313142	0,000458624912	-1,0181146410234867	0,037987226126279757	0,80697259479725184
1	1	0	0	0	0	2	336460,70	0,200000003	2,29513574	0,0005553589862684409	0,1999253855117407	0,00045885591	-1,0053412295465181	0,037510632970039667	0,81974600627422067
1	1	0	0	0	0	2	336690,70	0,200000003	2,29597378	0,0005553687682251136	0,19992890694833792	0,000459031522	-0,99256788589534234	0,03703404234447111	0,83251934992539648
1	1	0	0	0	0	2	336920,71	0,200000003	2,29707861	0,00055536881033000013	0,19992892210580522	0,000459252449	-0,97979438348228288	0,036557445795283213	0,84529285233845581
1	1	0	0	0	0	2	337150,71	0,200000003	2,29824066	0,0005553649485384425	0,19992753188761299	0,000459481584	-0,96702086761932966	0,036080848744261702	0,85806636820140902
1	1	0	0	0	0	2	337380,72	0,200000003	2,29904056	0,00055536682376845011	0,19992820695276246	0,000459643052	-0,95424743398927142	0,035604254761460058	0,87083980183146726
1	1	0	0	0	0	2	337610,72	0,200000003	2,30016446	0,00055535900562173792	0,19992539247413872	0,000459861272	-0,94147407879677248	0,03512766370526921	0,88361315702396621
1	1	0	0	0	0	2	337840,73	0,200000003	2,30111694	0,00055536898506598342	0,19992898500023827	0,000460059964	-0,92870057971168384	0,034651067280252371	0,89638665610905485
1	1	0	0	0	0	2	338070,73	0,200000003	2,3023932	0,00055536126363277434	0,19992620534711488	0,000460308744	-0,91592713195952768	0,034174472770536269	0,90916010386121101
1	1	0	0	0	0	2	338300,73	0,200000003	2,30345988	0,00055536600516736506	0,19992791226670099	0,000460525916	-0,90315367064838106	0,033697877754916	0,92193356517235763
1	1	0	0	0	0	2	338530,74	0,200000003	2,30435514	0,00055535721013777786	0,1999247461170135	0,000460697629	-0,89038027165284237	0,033221285064374848	0,93470696416789632
1	1	0	0	0	0	2	338760,74	0,200000003	2,30555511	0,0005553537410886752	0,19992349727407325	0,000460934651	-0,87760698432645491	0,032744696540359872	0,94748025149428378
1	1	0	0	0	0	2	338990,75	0,200000003	2,30652666	0,00055536109077350957	0,19992614311432298	0,000461134972	-0,86483367391445632	0,032268107154989696	0,96025356190628237
1	1	0	0	0	0	2	339220,75	0,200000003	2,30778384	0,00055536318622860646	0,19992689746130547	0,000461388059	-0,85206030507514918	0,031791515589618093	0,9730269307455895
1	1	0	0	0	0	2	339450,76	0,200000003	2,30888844	0,00055537554195523264	0,19993134543491792	0,000461619173	-0,83928665431565581	0,031314913505425293	0,98580058150508288
1	1	0	0	0	0	2	339680,76	0,200000003	2,31008863	0,00055535957113818989	0,19992559606079622	0,000461845833	-0,82651326183527578	0,030838321057973466	0,99857397398546304
1	1	0	0	0	0	2	339910,77	0,200000003	2,31115532	0,00055535293691605325	0,19992320778681306	0,000462053576	-0,81374005184359539	0,03036173541942039	1,011347183977143
1	1	0	0	0	0	2	340140,77	0,200000003	2,31239343	0,00055536122400313626	0,19992619108071984	0,000462308002	-0,800966759418848	0,029885146705178746	1,0241204764018907
1	1	0	0	0	0	2	340370,77	0,200000003	2,31334591	0,0005553552588994304	0,19992404367542419	0,000462493481	-0,78819348235744038	0,029408558564163962	1,0368937534632989
1	1	0	0	0	0	2	340600,78	0,200000003	2,31456494	0,00055535272798770003	0,19992313256939933	0,000462735072	-0,77542017652608922	0,02893196934970391	1,0496670592946499
1	1	0	0	0	0	2	340830,78	0,200000003	2,31578398	0,00055535519342290029	0,19992402010665459	0,000462980854	-0,76264693832120742	0,028455382658478352	1,0624402974995317
1	1	0	0	0	0	2	341060,79	0,200000003	2,31681252	0,00055536784539371725	0,19992857472612224	0,000463197037	-0,74987370344630656	0,027978796091498858	1,0752135323744323
1	1	0	0	0	0	2	341290,79	0,200000003	2,31763172	0,00055536418163279693	0,19992725580689651	0,000463357748	-0,73710033959045709	0,027502204712066755	1,0879868962302819
1	1	0	0	0	0	2	341520,80	0,200000003	2,31854606	0,00055535811190638272	0,19992507074746051	0,000463535485	-0,72432708085673664	0,027025617254882627	1,1007601549640024
1	1	0	0	0	0	2	341750,80	0,200000003	2,31966972	0,00055536756446792019	0,19992847360409229	0,000463768025	-0,71155380512634355	0,026549029163529792	1,1135334306943954
1	1	0	0	0	0	2	341980,80	0,200000003	2,32048893	0,0005553600099177824	0,1999257540090985	0,000463925506	-0,69878039895508045	0,02607243620525271	1,1263068368656584
1	1	0	0	0	0	2	342210,81	0,200000003	2,32123184	0,00055536298466639386	0,19992682490263354	0,000464076526	-0,68600710629111117	0,025595847482085379	1,1390801295296274
1	1	0	0	0	0	2	342440,81	0,200000003	2,32208896	0,00055536810618307846	0,19992866860615715	0,000464252167	-0,67323379491475072	0,025119258060733568	1,1518534409059885
1	1	0	0	0	0	2	342670,82	0,200000003	2,3227365	0,0005553589836657047	0,19992538456546413	0,000464373996	-0,66046047273239936	0,024642668236195715	1,1646267630883405
1	1	0	0	0	0	2	342900,82	0,200000003	2,32349849	0,00055536422647535802	0,19992727194990768	0,00046453072	-0,64768719286978522	0,02416607999066415	1,1774000429509544
1	1	0	0	0	0	2	343130,83	0,200000003	2,32414627	0,00055535029863566157	0,19992225802415965	0,000464648561	-0,63491402434814413	0,023689495899413997	1,1901732114725955
1	1	0	0	0	0	2	343360,83	0,200000003	2,32456517	0,00055535696003254925	0,19992465608086483	0,000464737881	-0,62214079396508518	0,023212909500031162	1,2029464418556544
1	1	0	0	0	0	2	343590,84	0,200000003	2,32534623	0,00055534690495166522	0,1999210363214447	0,000464885641	-0,60936764956117478	0,022736326308645968	1,2157195862595645
1	1	0	0	0	0	2	343820,84	0,200000003	2,32591772	0,00055535124907559821	0,19992260017129398	0,000465003512	-0,59659458844042944	0,022259746224667632	1,2284926473803094
1	1	0	0	0	0	2	344050,84	0,200000003	2,32626057	0,00055536139458003974	0,19992625248373168	0,000465080549	-0,58382137896720038	0,021783160605458666	1,2412658568535386
1	1	0	0	0	0	2	344280,85	0,200000003	2,32675576	0,00055535543599641984	0,1999241074291128	0,000465174555	-0,57104813577286298	0,021306573728069811	1,2540391000478758
1	1	0	0	0	0	2	344510,85	0,200000003	2,32677484	0,00055536406350963648	0,19992721328337754	0,000465185614	-0,5582748931072823	0,020829986870409581	1,2668123427134565
1	1	0	0	0	0	2	344740,86	0,200000003	2,32706046	0,00055537594460364845	0,19993149039486643	0,00046525267	-0,54550143386270099	0,020353391931895642	1,2795858019580384
1	1	0	0	0	0	2	344970,86	0,200000003	2,32753682	0,00055536584883597158	0,19992785598848294	0,000465339457	-0,53272800007336122	0,019876797943150989	1,2923592357473787
1	1	0	0	0	0	2	345200,87	0,200000003	2,32761288	0,00055535692349076269	0,19992464292607494	0,00046534717	-0,51995470536056442	0,019400209143539152	1,3051325304601757
1	1	0	0	0	0	2	345430,87	0,200000003	2,3276701	0,00055535772804998688	0,19992493255716397	0,000465359277	-0,50718160116125658	0,018923627452241725	1,3179056346594834
1	1	0	0	0	0	2	345660,88	0,200000003	2,32786059	0,00055535355097469357	0,19992342883668502	0,000465393881	-0,49440836538884646	0,018447040851774957	1,3306788704318934
1	1	0	0	0	0	2	345890,88	0,200000003	2,32801294	0,00055535834268149402	0,19992515381559136	0,00046542834	-0,48163513720127136	0,017970454534308579	1,3434520986194686
1	1	0	0	0	0	2	346120,88	0,200000003	2,32835579	0,00055535740242981248	0,19992481534081306	0,000465496094	-0,46886195956749082	0,01749387010307225	1,3562252762532491
1	1	0	0	0	0	2	346350,89	0,200000003	2,32847023	0,00055536192596620986	0,19992644378256061	0,000465522782	-0,45608873262757504	0,017017283832157718	1,3689985031931645
1	1	0	0	0	0	2	346580,89	0,200000003	2,32860351	0,00055535878659536442	0,19992531363081722	0,000465546793	-0,44331535657796454	0,01654069199776	1,3817718792427747
1	1	0	0	0	0	2	346810,90	0,200000003	2,328794	0,0005553560821256704	0,19992434004047376	0,000465582591	-0,43054200835119974	0,016064101201470061	1,3945452274695398
1	1	0	0	0	0	2	347040,90	0,200000003	2,32888913	0,00055536440818674029	0,19992733736009091	0,000465608609	-0,41776875173945926	0,015587513823459856	1,4073184840812806
1	1	0	0	0	0	2	347270,91	0,200000003	2,32902241	0,0005553653533740176	0,19992767761979533	0,000465636054	-0,40499531375786272	0,015110919678296467	1,4200919220628774
1	1	0	0	0	0	2	347500,91	0,200000003	2,32932734	0,00055536674749106176	0,19992817948877654	0,000465698162	-0,39222193509307277	0,014634327746322886	1,4328653007276672
1	1	0	0	0	0	2	347730,92	0,200000003	2,32930827	0,00055536594576636947	0,19992789088275427	0,00046569368	-0,37944848029644237	0,014157732973767974	1,4456387555242976
1	1	0	0	0	0	2	347960,92	0,200000003	2,32953691	0,00055536451992972032	0,19992737759144397	0,000465738209	-0,3666750462976896	0,013681138977209846	1,4584121895230499
1	1	0	0	0	0	2	348190,92	0,200000003	2,32932734	0,00055536617692063251	0,19992797409668672	0,000465697696	-0,35390164833858886	0,013204546325339589	1,4711855874821504
1	1	0	0	0	0	2	348420,93	0,200000003	2,32968926	0,00055536895964211891	0,19992897585713302	0,000465772377	-0,34112822852010714	0,012727952857866432	1,483959007300632
1	1	0	0	0	0	2	348650,93	0,200000003	2,32957482	0,00055535936101360448	0,19992552040809242	0,000465741468	-0,32835480855832691	0,012251359385046621	1,4967324272624125
1	1	0	0	0	0	2	348880,94	0,200000003	2,32965112	0,00055535605711655475	0,19992433102572861	0,000465753954	-0,31558145537867507	0,011774768403957806	1,5095057804420643
1	1	0	0	0	0	2	349110,94	0,200000003	2,32967019	0,00055535922299242675	0,19992547072142512	0,000465760415	-0,3028082213783159	0,01129818186960864	1,5222790144424237
1	1	0	0	0	0	2	349340,95	0,200000003	2,32999396	0,00055535768860992467	0,19992491836366973	0,000465823861	-0,29003491504712678	0,01082159263649896	1,5350523207736125
1	1	0	0	0	0	2	349570,95	0,200000003	2,33008933	0,00055536430297129683	0,19992729948791539	0,000465848454	-0,2772615909870369	0,010345002741900154	1,5478256448337027
1	1	0	0	0	0	2	349800,96	0,200000003	2,33018446	0,00055536287939382925	0,19992678700989478	0,000465866295	-0,26448826442724909	0,0098684127540342566	1,5605989713934906
1	1	0	0	0	0	2	350030,96	0,200000003	2,33027959	0,00055535579776929485	0,19992423767414963	0,000465879362	-0,25171497792982013	0,0093918242609488333	1,5733722578909194
1	1	0	0	0	0	2	350260,96	0,200000003	2,33054638	0,00055536657273355456	0,19992811657728531	0,000465941761	-0,23894160926972694	0,0089152327022639398	1,5861456265510125
1	1	0	0	0	0	2	350490,97	0,200000003	2,33062267	0,00055535849917183315	0,19992521015568349	0,00046595023	-0,22616831638325619	0,0084386439707947776	1,5989189194374829
1	1	0	0	0	0	2	350720,97	0,200000003	2,33077502	0,00055536002685791917	0,1999257601074303	0,000465981982	-0,21339506396651302	0,0079620567493055642	1,6116921718542262
1	1	0	0	0	0	2	350950,98	0,200000003	2,33113694	0,00055536659370776685	0,19992812413716605	0,000466059835	-0,20062173453502886	0,0074854666542928154	1,6244655012857104
1	1	0	0	0	0	2	351180,98	0,200000003	2,33147979	0,00055535781796690496	0,19992496493128602	0,000466121011	-0,18784848498005619	0,0070088795395801062	1,6372387508406835
1	1	0	0	0	0	2	351410,99	0,200000003	2,33155584	0,00055536216611001222	0,1999265302326649	0,000466139871	-0,1750752865465328	0,0065322943322774042	1,6500119492742064
1	1	0	0	0	0	2	351640,99	0,200000003	2,33184171	0,00055536464964598419	0,19992742428839981	0,000466199097	-0,16230195227377229	0,0060557040566301248	1,662785283546967
1	1	0	0	0	0	2	351871,00	0,200000003	2,33212733	0,00055536725176870829	0,19992836102523386	0,000466258381	-0,14952850664088906	0,0055791096259869434	1,6755587291798506
1	1	0	0	0	0	2	352101,00	0,200000003	2,33266068	0,0005553660792435209	0,19992793892662131	0,000466364028	-0,1367551354065532	0,0051025179712535949	1,6883321004141862
1	1	0	0	0	0	2	352331,00	0,200000003	2,33294654	0,00055535937886519565	0,19992552683454147	0,000466415571	-0,12398191497520302	0,0046259319431823974	1,7011053208455363
1	1	0	0	0	0	2	352561,01	0,200000003	2,33338451	0,00055536052185462579	0,19992593831212314	0,000466504076	-0,11120870099756643	0,0041493461559079322	1,7138785348231734
1	1	0	0	0	0	2	352791,01	0,200000003	2,33361316	0,00055535405846271251	0,19992361153583622	0,000466544385	-0,09843544417505737	0,0036727587700336691	1,7266517916456826
1	1	0	0	0	0	2	353021,02	0,200000003	2,33401322	0,0005553586351796985	0,19992525912222704	0,000466628204	-0,085662232482429453	0,0031961730680159494	1,7394250033383104
1	1	0	0	0	0	2	353251,02	0,200000003	2,33437514	0,00055535697657946086	0,1999246620376383	0,000466699159	-0,072889000518265971	0,0027195866096399821	1,7521982353024739
1	1	0	0	0	0	2	353481,03	0,200000003	2,33492756	0,00055535249805119302	0,19992304978919594	0,000466805825	-0,060115900459951245	0,0022430050728485814	1,7649713353607888
1	1	0	0	0	0	2	353711,03	0,200000003	2,33553696	0,00055535014767530886	0,19992220367249696	0,000466925703	-0,047342896739440102	0,00176642713055016	1,7777443390813005
1	1	0	0	0	0	2	353941,04	0,200000003	2,33597517	0,00055535741175048877	0,19992481868688237	0,000467019418	-0,034569816831643654	0,0012898463456016886	1,790517418989097
1	1	0	0	0	0	2	354171,04	0,200000003	2,33637524	0,00055534915832595693	0,19992184752057018	0,000467092468	-0,02179675074745576	0,00081326607643063872	1,8032904850732851
1	1	0	0	0	0	2	354401,04	0,200000003	2,33700371	0,00055534765457444723	0,19992130618045011	0,000467216829	-0,0090236793594487206	0,00033668560936696531	1,8160635564612922
1	1	0	0	0	0	2	354631,05	0,200000003	2,33730841	0,00055534322925160326	0,19991971309490102	0,000467274018	0,003749347375020119	-0,00013989319161316046	1,8288365831957606
1	1	0	0	0	0	2	354861,05	0,200000003	2,33765125	0,000555337837588456	0,19991777213354102	0,000467338017	0,016522187688857882	-0,00061646503698889549	1,8416094235095987
1	1	0	0	0	0	2	355091,06	0,200000003	2,33826089	0,00055534425760557254	0,19992008328589248	0,000467465317	0,029294994134573203	-0,0010930356186994462	1,8543822299553146
1	1	0	0	0	0	2	355321,06	0,200000003	2,3390038	0,00055534236546771392	0,19991940213170634	0,000467612233	0,042067871689695181	-0,001569608853597567	1,8671551075104362
1	1	0	0	0	0	2	355551,07	0,200000003	2,33953714	0,00055534075356274842	0,1999188218594192	0,000467717502	0,054840645855581338	-0,0020461782309042906	1,8799278816763222
1	1	0	0	0	0	2	355781,07	0,200000003	2,34003234	0,00055533782961881824	0,19991776926452669	0,000467814039	0,067613544025339738	-0,0025227522349622128	1,8927007798460806
1	1	0	0	0	0	2	356011,08	0,200000003	2,34056568	0,00055535089324994214	0,19992247208117898	0,000467931677	0,080386517475074086	-0,0029993290478172525	1,9054737532958147
1	1	0	0	0	0	2	356241,08	0,200000003	2,34104204	0,0005553523731372423	0,19992300483034899	0,000468028156	0,093159583424895731	-0,0034759093119749171	1,9182468192456365
1	1	0	0	0	0	2	356471,08	0,200000003	2,34180379	0,00055535502258439853	0,19992395861296026	0,000468182698	0,10593275829574936	-0,0039524936401227315	1,9310199941164899
1	1	0	0	0	0	2	356701,09	0,200000003	2,3425467	0,00055534755190875795	0,19992126921220422	0,000468324899	0,11870585342152389	-0,0044290749928744256	1,9437930892422646
1	1	0	0	0	0	2	356931,09	0,200000003	2,34330869	0,00055534449524432422	0,1999201688388505	0,000468474667	0,13147875517005699	-0,0049056491304612429	1,9565659909907974
1	1	0	0	0	0	2	357161,10	0,200000003	2,3440516	0,00055534437514841555	0,19992012560515581	0,000468623097	0,14425162632021533	-0,005382222126381559	1,9693388621409558
1	1	0	0	0	0	2	357391,10	0,200000003	2,34471822	0,00055535135293338035	0,19992263755472096	0,000468762242	0,15702456942849667	-0,005858797807156192	1,9821118052492371
1	1	0	0	0	0	2	357621,11	0,200000003	2,34549928	0,0005553540965070327	0,19992362523152778	0,000468920713	0,16979765213155222	-0,0063353786963995392	1,9948848879522931
1	1	0	0	0	0	2	357700,39	0,200000003	2,34574676	0,00051537247939573402	0,19992481928861296	0,000468972983	0,17420051671992298	-0,0064996554939060506	1,9992877525406643