File: Experimentelles/Rohdaten/Batterietests/AlteZelle/Studenten_Batterietests/S vs Li GCPL 300µm/ZView-Export/S vs Li GCPL 300µm_02_GCPL_C06_loop9.txt
EC-Lab ASCII FILE
Nb header lines : 3
mode	ox/red	error	control changes	Ns changes	counter inc.	Ns	time/s	control/V/mA	Ewe/V	dq/mA.h	<I>/mA	P/W	(Q-Qo)/mA.h	x	Capacity/mA.h
1	0	0	1	1	0	1	629751,65	-0,200000003	2,34685159	0	0	0	0	0	0
1	0	0	1	0	0	1	629981,65	-0,200000003	2,28740215	-0,00055586417199505696	-0,20010734428834038	0,000457725982	-0,01278221682279241	0,00047692169553168333	0,01278221682279241
1	0	0	1	0	0	1	630211,66	-0,200000003	2,2792685	-0,00055586262557986707	-0,20010678758932576	0,000456097099	-0,02556711801461311	0,0009539435484809847	0,02556711801461311
1	0	0	1	0	0	1	630441,66	-0,200000003	2,27357316	-0,00055586298268950643	-0,20010691614638189	0,000454957713	-0,03835203654181641	0,0014309660482367189	0,03835203654181641
1	0	0	1	0	0	1	630671,67	-0,200000003	2,26841116	-0,00055586835892581274	-0,20010885155510886	0,000453929155	-0,051137010298989037	0,0019079906086968659	0,051137010298989037
1	0	0	1	0	0	1	630901,67	-0,200000003	2,26359177	-0,00055586858492013472	-0,20010893291153712	0,000452964945	-0,063922057551724365	0,0023850179113752726	0,063922057551724365
1	0	0	1	0	0	1	631131,68	-0,200000003	2,25896311	-0,00055586274192233882	-0,20010682947182909	0,000452033943	-0,076707010021871322	0,0028620416775878714	0,076707010021871322
1	0	0	1	0	0	1	631361,68	-0,200000003	2,25454402	-0,00055586618905762842	-0,2001080704079127	0,000451152446	-0,089491992056703552	0,0033390665468986272	0,089491992056703552
1	0	0	1	0	0	1	631591,68	-0,200000003	2,24991512	-0,00055586733281032902	-0,20010848215115318	0,000450227089	-0,102276923662382	0,0038160895346298534	0,102276923662382
1	0	0	1	0	0	1	631821,69	-0,200000003	2,24541974	-0,00055586666786091187	-0,20010824277618758	0,000449326995	-0,11506186637203741	0,0042931129366653894	0,11506186637203741
1	0	0	1	0	0	1	632051,69	-0,200000003	2,24061966	-0,00055586497873978483	-0,20010763470167078	0,000448365114	-0,1278468218482883	0,004770136815039767	0,1278468218482883
1	0	0	1	0	0	1	632281,70	-0,200000003	2,23597193	-0,00055586859324243328	-0,20010893590750832	0,000447437953	-0,14063177104063674	0,0052471604589532954	0,14063177104063674
1	0	0	1	0	0	1	632511,70	-0,200000003	2,2313242	-0,00055586668668356205	-0,20010824955920294	0,000446506368	-0,15341664931736563	0,0057241814569097126	0,15341664931736563
1	0	0	1	0	0	1	632741,71	-0,200000003	2,22671437	-0,00055586848482655155	-0,20010889687852378	0,000445585349	-0,16620158398700752	0,0062012045589615334	0,16620158398700752
1	0	0	1	0	0	1	632971,71	-0,200000003	2,22151423	-0,00055587272965908058	-0,20011042498953923	0,000444548146	-0,17898660874099203	0,0066782310221812979	0,17898660874099203
1	0	0	1	0	0	1	633201,71	-0,200000003	2,21656179	-0,00055586822874016237	-0,20010880468915478	0,000443553523	-0,19177163361228096	0,007155257489777847	0,19177163361228096
1	0	0	1	0	0	1	633431,72	-0,200000003	2,21090436	-0,00055587021755178778	-0,20010952064789562	0,000442423014	-0,20455659923144931	0,0076322817465981133	0,20455659923144931
1	0	0	1	0	0	1	633661,72	-0,200000003	2,20482802	-0,00055586849972854061	-0,2001089022431391	0,000441205717	-0,21734153578590525	0,0081093049189748813	0,21734153578590525
1	0	0	1	0	0	1	633891,73	-0,200000003	2,19758964	-0,00055587283672971859	-0,20011046353424515	0,000439760683	-0,23012653464578595	0,0085863304160508173	0,23012653464578595
1	0	0	1	0	0	1	634121,73	-0,200000003	2,19031334	-0,00055586325678974394	-0,20010701482061443	0,000438297051	-0,24291156375969869	0,009063357041945367	0,24291156375969869
1	0	0	1	0	0	1	634351,74	-0,200000003	2,1813035	-0,00055586577026463213	-0,20010791965458317	0,000436496106	-0,25569645678713094	0,0095403785902703578	0,25569645678713094
1	0	0	1	0	0	1	634581,74	-0,200000003	2,1713984	-0,00055586776309212045	-0,20010863705900749	0,000434515561	-0,26848138034568992	0,010017401277752736	0,26848138034568992
1	0	0	1	0	0	1	634811,74	-0,200000003	2,16015983	-0,00055586429970049197	-0,20010739025211562	0,000432263943	-0,28126628834492573	0,010494423384695848	0,28126628834492573
1	0	0	1	0	0	1	635041,75	-0,200000003	2,14650226	-0,00055586792170421952	-0,20010869415130234	0,000429533771	-0,2940512521376	0,010971447573367163	0,2940512521376
1	0	0	1	0	0	1	635271,75	-0,200000003	2,13095903	-0,00055587111822515731	-0,20010984487490195	0,00042642589	-0,30683631633298797	0,01144847550819872	0,30683631633298797
1	0	0	1	0	0	1	635501,76	-0,200000003	2,11217737	-0,00055586467716428966	-0,20010752613653117	0,00042266259	-0,31962135801198368	0,011925502602913408	0,31962135801198368
1	0	0	1	0	0	1	635731,76	-0,200000003	2,09008145	-0,00055586350377152358	-0,20010710373238554	0,000418240146	-0,33240626324739014	0,012402524606734331	0,33240626324739014
1	0	0	1	0	0	1	635961,77	-0,200000003	2,06368065	-0,00055586992050376205	-0,2001094137126144	0,000412961934	-0,34519131912971258	0,012879552231394235	0,34519131912971258
1	0	0	1	0	0	1	636191,77	-0,200000003	2,03352737	-0,00055586844733026298	-0,20010888338011334	0,000406926905	-0,35797633817740166	0,013356578481704445	0,35797633817740166
1	0	0	1	0	0	1	636421,78	-0,200000003	1,999488	-0,00055587217405107296	-0,20011022497441238	0,000400118006	-0,3707613345517959	0,013833603886043541	0,3707613345517959
1	0	0	1	0	0	1	636651,78	-0,200000003	1,96657276	-0,00055585892150137152	-0,20010545414610685	0,000393521943	-0,38354607744986445	0,014310619832840123	0,38354607744986445
1	0	0	1	0	0	1	636881,78	-0,200000003	1,9407624	-0,00055585564239240352	-0,20010427368904506	0,000388354849	-0,39633084624030816	0,014787636745716032	0,39633084624030816
1	0	0	1	0	0	1	637111,79	-0,200000003	1,92287612	-0,0005558664034696089	-0,20010814760409434	0,000384783169	-0,40911562657270534	0,015264654089237744	0,40911562657270534
1	0	0	1	0	0	1	637341,79	-0,200000003	1,90938997	-0,00055586728012810144	-0,2001084631952255	0,000382085098	-0,42190046585652678	0,015741673632316355	0,42190046585652678
1	0	0	1	0	0	1	637571,80	-0,200000003	1,90026581	-0,00055586602139472966	-0,20010801005972061	0,000380258396	-0,43468535429050726	0,016218695009253485	0,43468535429050726
1	0	0	1	0	0	1	637801,80	-0,200000003	1,89392281	-0,00055586677377753792	-0,2001082809124455	0,000378989644	-0,44747022779240339	0,01669571582905447	0,44747022779240339
1	0	0	1	0	0	1	638031,81	-0,200000003	1,8895607	-0,00055586183074282278	-0,20010650144404486	0,000378113386	-0,46025510007647622	0,017172736603416835	0,46025510007647622
1	0	0	1	0	0	1	638261,81	-0,200000003	1,88649392	-0,00055586760165956282	-0,20010857893971894	0,000377503631	-0,473039975792968	0,017649757505847363	0,473039975792968
1	0	0	1	0	0	1	638491,81	-0,200000003	1,8845129	-0,0005558707619938585	-0,20010971663637206	0,000377109332	-0,48582492855289446	0,018126781282872022	0,48582492855289446
1	0	0	1	0	0	1	638721,82	-0,200000003	1,88399863	-0,00055586632022675539	-0,20010811763722979	0,000377003424	-0,49860996037292115	0,018603808009735322	0,49860996037292115
1	0	0	1	0	0	1	638951,82	-0,200000003	1,88422716	-0,0005558689276451865	-0,20010905629023891	0,000377050921	-0,5113948192696103	0,019080828284596397	0,5113948192696103
1	0	0	1	0	0	1	639181,83	-0,200000003	1,88531291	-0,00055586467550363802	-0,20010752554802586	0,0003772653	-0,52417969879272288	0,019557849329057066	0,52417969879272288
1	0	0	1	0	0	1	639411,83	-0,200000003	1,88636065	-0,00055586367646521984	-0,2001071659009488	0,000377474295	-0,53696453604301754	0,020034868796262061	0,53696453604301754
1	0	0	1	0	0	1	639641,84	-0,200000003	1,88706541	-0,00055586855848961408	-0,20010892339672832	0,00037761862	-0,54974951953475616	0,020511893719931955	0,54974951953475616
1	0	0	1	0	0	1	639871,84	-0,200000003	1,88773203	-0,00055586707159959597	-0,20010838812637315	0,000377751014	-0,56253451513373133	0,02098891909533912	0,56253451513373133
1	0	0	1	0	0	1	640101,84	-0,200000003	1,88809395	-0,00055586398338029786	-0,20010727638830211	0,000377821329	-0,57531934794275718	0,021465938396834403	0,57531934794275718
1	0	0	1	0	0	1	640331,85	-0,200000003	1,88839877	-0,00055586376743598118	-0,2001071986498079	0,000377882185	-0,58810427270265754	0,021942961129140445	0,58810427270265754
1	0	0	1	0	0	1	640561,85	-0,200000003	1,88809395	-0,00055586746114078496	-0,20010852835856787	0,000377823715	-0,60088920818933197	0,022419984261676851	0,60088920818933197
1	0	0	1	0	0	1	640791,86	-0,200000003	1,88777018	-0,00055587344698856275	-0,20011068322330368	0,000377762975	-0,61367415118722394	0,022897007674466874	0,61367415118722394
1	0	0	1	0	0	1	641021,86	-0,200000003	1,88757968	-0,00055586667593402989	-0,20010824568944403	0,000377720251	-0,6264591168368791	0,023374031932424643	0,6264591168368791
1	0	0	1	0	0	1	641251,87	-0,200000003	1,88784635	-0,00055586657154808448	-0,20010820811120934	0,00037777354	-0,63924400313036992	0,023851053229497229	0,63924400313036992
1	0	0	1	0	0	1	641481,87	-0,200000003	1,88891304	-0,00055587024369504717	-0,20010953004997411	0,000377989491	-0,65202891772742515	0,024328075582613853	0,65202891772742515
1	0	0	1	0	0	1	641711,87	-0,200000003	1,89055121	-0,00055586284194721114	-0,20010686547311846	0,000378312281	-0,66481381139142758	0,024805097154690138	0,66481381139142758
1	0	0	1	0	0	1	641941,88	-0,200000003	1,89253223	-0,00055586462811297837	-0,20010750847839069	0,000378709898	-0,67759873171096512	0,025282119721320269	0,67759873171096512
1	0	0	1	0	0	1	642171,88	-0,200000003	1,89462757	-0,00055586358829836051	-0,20010713416147542	0,000379128498	-0,6903835906172128	0,025759139996537987	0,6903835906172128
1	0	0	1	0	0	1	642401,89	-0,200000003	1,89664662	-0,00055586662116812339	-0,20010822597408794	0,000379534584	-0,70316854569063718	0,026236163859882371	0,70316854569063718
1	0	0	1	0	0	1	642631,89	-0,200000003	1,89914203	-0,00055586233965473043	-0,20010668465820941	0,000380031008	-0,71595350209350963	0,02671318777283024	0,71595350209350963
1	0	0	1	0	0	1	642861,90	-0,200000003	1,90190399	-0,00055586601235303616	-0,20010800680477213	0,000380586222	-0,72873840182082266	0,02719020957113679	0,72873840182082266
1	0	0	1	0	0	1	643091,90	-0,200000003	1,90458977	-0,00055587267878817184	-0,20011040667635597	0,000381128222	-0,74152333412438682	0,027667232584907075	0,74152333412438682
1	0	0	1	0	0	1	643321,90	-0,200000003	1,90700889	-0,00055586470781763405	-0,20010753718084595	0,000381606864	-0,75430824219230771	0,028144254694412922	0,75430824219230771
1	0	0	1	0	0	1	643551,91	-0,200000003	1,90931368	-0,00055585970341496998	-0,20010573562971658	0,000382064609	-0,76709305324314662	0,028621273184080992	0,76709305324314662
1	0	0	1	0	0	1	643781,91	-0,200000003	1,91249478	-0,00055586221540222566	-0,20010663992814762	0,000382702914	-0,77987781102640986	0,029098289686264198	0,77987781102640986
1	0	0	1	0	0	1	644011,92	-0,200000003	1,91563773	-0,00055586658057736032	-0,20010821136168762	0,000383334846	-0,79266258334797389	0,029575306730890957	0,79266258334797389
1	0	0	1	0	0	1	644241,92	-0,200000003	1,91868544	-0,0005558604478132393	-0,20010600360806141	0,000383940467	-0,80544747571027213	0,030052328254398906	0,80544747571027213
1	0	0	1	0	0	1	644471,93	-0,200000003	1,92169511	-0,0005558699659804503	-0,20010943008391475	0,000384549319	-0,81823233682064576	0,030529348611855526	0,81823233682064576
1	0	0	1	0	0	1	644701,93	-0,200000003	1,92485702	-0,00055587172326197235	-0,20011006268406531	0,000385183259	-0,83101737597146355	0,031006375612240499	0,83101737597146355
1	0	0	1	0	0	1	644931,93	-0,200000003	1,92847621	-0,00055587225831713939	-0,20011025530496758	0,000385907857	-0,84380241685073203	0,031483402677116288	0,84380241685073203
1	0	0	1	0	0	1	645161,94	-0,200000003	1,93179059	-0,0005558737792546551	-0,20011080282986214	0,000386572152	-0,85658747524026227	0,031960430395323488	0,85658747524026227
1	0	0	1	0	0	1	645391,94	-0,200000003	1,93504786	-0,00055587521775480774	-0,20011132067786333	0,00038722498	-0,86937252373677402	0,032437457744408864	0,86937252373677402
1	0	0	1	0	0	1	645621,95	-0,200000003	1,93769562	-0,00055586553860455757	-0,20010783625852234	0,000387748092	-0,8821574651985367	0,03291448109988384	0,8821574651985367
1	0	0	1	0	0	1	645851,95	-0,200000003	1,94034326	-0,00055586875890609286	-0,20010899554530586	0,000388280139	-0,89494240571035008	0,033391504419914938	0,89494240571035008
1	0	0	1	0	0	1	646081,96	-0,200000003	1,94247675	-0,00055586325095014445	-0,20010701271839808	0,000388703222	-0,90772732147097715	0,03386852681644599	0,90772732147097715
1	0	0	1	0	0	1	646311,96	-0,200000003	1,94432437	-0,00055586525568283264	-0,20010773440861389	0,000389074354	-0,92051223882886029	0,034345549272572819	0,92051223882886029
1	0	0	1	0	0	1	646541,97	-0,200000003	1,9459244	-0,00055585848902248678	-0,20010529845663187	0,000389389781	-0,93329712082888102	0,034822570409450266	0,93329712082888102
1	0	0	1	0	0	1	646771,97	-0,200000003	1,94733405	-0,00055585960405154362	-0,20010569985955475	0,000389672641	-0,94608185175578202	0,035299585909586483	0,94608185175578202
1	0	0	1	0	0	1	647001,97	-0,200000003	1,94895315	-0,00055586132517291437	-0,2001063194516135	0,000389997847	-0,95886664407066496	0,035776603700190848	0,95886664407066496
1	0	0	1	0	0	1	647231,98	-0,200000003	1,95064843	-0,00055586349825147117	-0,200107101745204	0,000390338595	-0,9716514856307479	0,03625362332819984	0,9716514856307479
1	0	0	1	0	0	1	647461,98	-0,200000003	1,95251513	-0,00055586456484099219	-0,20010748571022144	0,000390712899	-0,98443626110844966	0,036730640490586336	0,98443626110844966
1	0	0	1	0	0	1	647691,99	-0,200000003	1,95455325	-0,00055586236065543366	-0,20010669221832058	0,000391119189	-0,99722111782329498	0,037207660684039891	0,99722111782329498
1	0	0	1	0	0	1	647921,99	-0,200000003	1,95691526	-0,00055585289868132934	-0,20010328597160579	0,00039158517	-1,0100058756480754	0,03768467718777216	1,0100058756480754
1	0	0	1	0	0	1	648152,00	-0,200000003	1,95933437	-0,00055585926141341523	-0,20010557650282682	0,000392073736	-1,0227904920756488	0,038161688415784525	1,0227904920756488
1	0	0	1	0	0	1	648382,00	-0,200000003	1,96190584	-0,00055585271637472845	-0,20010322033547344	0,000392583665	-1,0355751906036963	0,038638702707075962	1,0355751906036963
1	0	0	1	0	0	1	648612,00	-0,200000003	1,9641155	-0,00055586024473359194	-0,20010593049144317	0,000393031165	-1,048359919621225	0,039115718135970938	1,048359919621225
1	0	0	1	0	0	1	648842,01	-0,200000003	1,96624887	-0,00055585445048246118	-0,2001038446095231	0,000393453956	-1,0611447354251531	0,039592736802983162	1,0611447354251531
1	0	0	1	0	0	1	649072,01	-0,200000003	1,9677918	-0,00055585431802603923	-0,20010379692610662	0,000393762602	-1,0739294691197666	0,040069752406386458	1,0739294691197666
1	0	0	1	0	0	1	649302,02	-0,200000003	1,96954417	-0,00055586007472210451	-0,20010586929777498	0,000394117349	-1,0867142474955571	0,04054676967690455	1,0867142474955571
1	0	0	1	0	0	1	649532,02	-0,200000003	1,97141099	-0,00055585692104780019	-0,20010473399634416	0,000394488685	-1,0994989601272221	0,041023784494420915	1,0994989601272221
1	0	0	1	0	0	1	649762,03	-0,200000003	1,97337294	-0,00055586293579058515	-0,20010689926308726	0,000394885545	-1,1122837930995157	0,041500803802007942	1,1122837930995157
1	0	0	1	0	0	1	649992,03	-0,200000003	1,97501111	-0,00055585737703575027	-0,20010489814892374	0,000395209383	-1,1250686268774962	0,041977823139656224	1,1250686268774962
1	0	0	1	0	0	1	650222,03	-0,200000003	1,97676349	-0,00055585662805702944	-0,20010462852164733	0,000395559531	-1,1378534435767442	0,042454841840074035	1,1378534435767442
1	0	0	1	0	0	1	650452,04	-0,200000003	1,97826827	-0,00055586491692397325	-0,20010761245771456	0,000395866547	-1,1506382702790731	0,042931860913720256	1,1506382702790731
1	0	0	1	0	0	1	650682,04	-0,200000003	1,98030651	-0,00055586567953063379	-0,20010788699095712	0,000396274962	-1,1634230434920965	0,04340887799160855	1,1634230434920965
1	0	0	1	0	0	1	650912,05	-0,200000003	1,98148751	-0,00055586143171787264	-0,20010635780707821	0,000396508258	-1,1762078521299962	0,043885896391246618	1,1762078521299962
1	0	0	1	0	0	1	651142,05	-0,200000003	1,9828018	-0,00055585802843338912	-0,2001051326476703	0,000396768824	-1,1889925728643549	0,044362911511085389	1,1889925728643549
1	0	0	1	0	0	1	651372,06	-0,200000003	1,98331606	-0,00055586489651848864	-0,20010760510255997	0,000396876625	-1,2017773019036274	0,044839926940791654	1,2017773019036274
1	0	0	1	0	0	1	651602,06	-0,200000003	1,98400187	-0,00055586990505374144	-0,20010940814605235	0,000397017429	-1,2145621877996637	0,045316948223034675	1,2145621877996637
1	0	0	1	0	0	1	651832,06	-0,200000003	1,9841733	-0,0005558635372039344	-0,20010711576316842	0,000397047203	-1,2273470956170658	0,045793970323193331	1,2273470956170658
1	0	0	1	0	0	1	652062,07	-0,200000003	1,98440182	-0,00055586010606504147	-0,2001058805717024	0,00039709048	-1,2401318944696816	0,046270988357729299	1,2401318944696816
1	0	0	1	0	0	1	652292,07	-0,200000003	1,98430657	-0,00055585441903356051	-0,20010383328813146	0,000397067342	-1,252916573081443	0,046748001905917331	1,252916573081443
1	0	0	1	0	0	1	652522,08	-0,200000003	1,9842304	-0,00055586050443765184	-0,20010602399246717	0,000397056458	-1,2657012449866318	0,047225015203874112	1,2657012449866318
1	0	0	1	0	0	1	652752,08	-0,200000003	1,98413515	-0,00055585901728769146	-0,2001054886285345	0,000397036347	-1,278485996192533	0,047702031460647098	1,278485996192533
1	0	0	1	0	0	1	652982,09	-0,200000003	1,98432565	-0,00055586251185172134	-0,20010674664796208	0,000397076947	-1,2912707796385082	0,048179048920340589	1,2912707796385082
1	0	0	1	0	0	1	653212,09	-0,200000003	1,98432565	-0,00055585452723585894	-0,20010387224022746	0,000397071242	-1,3040555150171616	0,048656064586577683	1,3040555150171616
1	0	0	1	0	0	1	653442,09	-0,200000003	1,98436379	-0,00055585615613394323	-0,20010445863252646	0,000397080032	-1,3168401027838979	0,04913307474521568	1,3168401027838979
1	0	0	1	0	0	1	653672,10	-0,200000003	1,98443997	-0,00055585861093882061	-0,20010534234568787	0,000397097028	-1,329624832175031	0,049610090188050342	1,329624832175031
1	0	0	1	0	0	1	653902,10	-0,200000003	1,98459232	-0,00055586156567268896	-0,20010640602990659	0,000397129625	-1,3424096315065627	0,050087108240455309	1,3424096315065627
1	0	0	1	0	0	1	654132,11	-0,200000003	1,98434472	-0,00055586341151346758	-0,20010707052010906	0,0003970814	-1,355194487274801	0,050564128398589677	1,355194487274801
1	0	0	1	0	0	1	654362,11	-0,200000003	1,9840399	-0,00055586651451223424	-0,2001081875786888	0,000397022639	-1,3679794195168595	0,051041151410065101	1,3679794195168595
1	0	0	1	0	0	1	654592,12	-0,200000003	1,98323989	-0,00055585532601757184	-0,20010415979624435	0,000396854564	-1,3807642420065899	0,051518170326533594	1,3807642420065899
1	0	0	1	0	0	1	654822,12	-0,200000003	1,98219228	-0,0005558583579527008	-0,20010525126307699	0,000396647083	-1,3935489139720291	0,051995183626738406	1,3935489139720291
1	0	0	1	0	0	1	655052,12	-0,200000003	1,98112559	-0,00055585771215707072	-0,20010501878334522	0,00039643317	-1,4063336539552022	0,05247219946477632	1,4063336539552022
1	0	0	1	0	0	1	655282,13	-0,200000003	1,98005891	-0,00055585671162605286	-0,20010465859661293	0,000396219024	-1,419118346594731	0,0529492135363592	1,419118346594731
1	0	0	1	0	0	1	655512,13	-0,200000003	1,97861123	-0,00055585837669836141	-0,20010525802070605	0,000395930518	-1,4319030556944272	0,053426228222093075	1,4319030556944272
1	0	0	1	0	0	1	655742,14	-0,200000003	1,97676349	-0,00055585399516340755	-0,20010368069774176	0,000395557639	-1,4446877871876451	0,053903243743359341	1,4446877871876451
1	0	0	1	0	0	1	655972,14	-0,200000003	1,97523963	-0,00055585481800718438	-0,20010397691593901	0,000395253301	-1,4574724610288195	0,054380257113550355	1,4574724610288195
1	0	0	1	0	0	1	656202,15	-0,200000003	1,97360146	-0,00055585615570926003	-0,20010445847964339	0,000394926465	-1,4702571744403818	0,054857271960165741	1,4702571744403818
1	0	0	1	0	0	1	656432,15	-0,200000003	1,97184908	-0,00055586170425266022	-0,20010645591775946	0,000394579722	-1,4830419824675683	0,055334290337017286	1,4830419824675683
1	0	0	1	0	0	1	656662,16	-0,200000003	1,96956325	-0,00055586276799274822	-0,20010683885700026	0,000394123083	-1,4958267648655238	0,05581130775760775	1,4958267648655238
1	0	0	1	0	0	1	656892,16	-0,200000003	1,96666789	-0,00055586003545920051	-0,20010585516339494	0,000393541763	-1,5086115424335763	0,056288324997988038	1,5086115424335763
1	0	0	1	0	0	1	657122,16	-0,200000003	1,96320117	-0,0005558581225069033	-0,20010516651349946	0,000392846705	-1,5213962626605949	0,056765340098897261	1,5213962626605949
1	0	0	1	0	0	1	657352,17	-0,200000003	1,95889628	-0,00055586179415881632	-0,20010648828336784	0,000391987851	-1,5341810508872154	0,057242357736963066	1,5341810508872154
1	0	0	1	0	0	1	657582,17	-0,200000003	1,9541533	-0,00055585997060686355	-0,20010583181699203	0,000391037465	-1,5469658881066832	0,057719377203017869	1,5469658881066832
1	0	0	1	0	0	1	657812,18	-0,200000003	1,94822931	-0,00055586098921133408	-0,20010619850771568	0,000389852765	-1,5597506350791398	0,058196393301835341	1,5597506350791398
1	0	0	1	0	0	1	658042,18	-0,200000003	1,94140995	-0,00055586073396603264	-0,20010610661181462	0,000388487999	-1,5725354245472406	0,058673410986222438	1,5725354245472406
1	0	0	1	0	0	1	658272,19	-0,200000003	1,93232393	-0,00055585465825100736	-0,20010391939547734	0,000386665604	-1,5853201695283517	0,059150427010740147	1,5853201695283517
1	0	0	1	0	0	1	658502,19	-0,200000003	1,91946638	-0,00055585899513297613	-0,20010548064832774	0,000384095736	-1,5981049759640902	0,059627445328212621	1,5981049759640902
1	0	0	1	0	0	1	658732,19	-0,200000003	1,90165639	-0,00055585606953501702	-0,20010442744818051	0,000380529877	-1,6108897236065754	0,06010446145202976	1,6108897236065754
1	0	0	1	0	0	1	658962,20	-0,200000003	1,87906516	-0,00055585638999028339	-0,20010454281922806	0,00037600947	-1,6236744562086419	0,060581477014668659	1,6236744562086419
1	0	0	1	0	0	1	659192,20	-0,200000003	1,85115945	-0,00055585332268724838	-0,20010343861087037	0,000370423368	-1,6364592546908368	0,061058495035383731	1,6364592546908368
1	0	0	1	0	0	1	659422,21	-0,200000003	1,81746316	-0,00055586011184006925	-0,20010588265999139	0,000363685074	-1,6492440153326272	0,061535511644222438	1,6492440153326272
1	0	0	1	0	0	1	659652,21	-0,200000003	1,77890956	-0,00055586118695222675	-0,20010626969310029	0,000355970958	-1,6620288470007014	0,062012530903147277	1,6620288470007014
1	0	0	1	0	0	1	659882,22	-0,200000003	1,73481286	-0,00055585656059947277	-0,20010460423738294	0,000347144029	-1,6748136244117533	0,06248954813766967	1,6748136244117533
1	0	0	1	0	0	1	660112,22	-0,200000003	1,67399192	-0,00055585260366151738	-0,20010317976646781	0,000334971119	-1,6875983291549168	0,06296656266085545	1,6875983291549168
1	0	0	1	0	0	1	660342,22	-0,200000003	1,59162736	-0,00055585947065552077	-0,20010565183788829	0,000318493636	-1,7003829535536224	0,063443574186281459	1,7003829535536224
1	0	0	1	0	0	1	660572,23	-0,200000003	1,51852024	-0,00055586112049635917	-0,20010624576943722	0,000303865381	-1,7131676746922349	0,063920589321203482	1,7131676746922349
1	1	0	0	0	0	2	660787,89	0,200000003	2,30313587	0,00055537515680078003	0,19993130212413286	0,00046046896	-1,7084867473107872	0,063745937627027878	0,008330522569233344
1	1	0	0	0	0	2	661017,89	0,200000003	2,31700301	0,0005553680026390487	0,19992872667427162	0,000463235454	-1,6957132472513165	0,063269341165655526	0,021104022628703875
1	1	0	0	0	0	2	661247,90	0,200000003	2,3028121	0,00055536802277134522	0,19992873392176224	0,000460398296	-1,6829397366088826	0,062792744309418598	0,033877533271138035
1	1	0	0	0	0	2	661477,90	0,200000003	2,28875446	0,00055536316469311712	0,19992698504644064	0,000457583781	-1,6701663112348982	0,062316150634662182	0,046650958645122726
1	1	0	0	0	0	2	661707,91	0,200000003	2,27989721	0,00055535995562871296	0,19992582980494832	0,000455810339	-1,6573929261020198	0,06183955846135552	0,059424343778000922
1	1	0	0	0	0	2	661937,91	0,200000003	2,27454448	0,00055536114000280698	0,19992625617161587	0,000454741152	-1,644619636678063	0,061362969859077414	0,072197633201958374
1	1	0	0	0	0	2	662167,92	0,200000003	2,27155399	0,00055536208546906714	0,19992659653307821	0,000454144058	-1,6318462753879222	0,06088637857537536	0,084970994492099494
1	1	0	0	0	0	2	662397,92	0,200000003	2,2692492	0,00055536707330163981	0,19992839211908669	0,000453687331	-1,6190728531296931	0,060409785016871936	0,09774441675032841
1	1	0	0	0	0	2	662627,92	0,200000003	2,26848722	0,00055536483533928787	0,19992758646776861	0,000453533168	-1,606299464806895	0,059933192724545088	0,1105178050731263
1	1	0	0	0	0	2	662857,93	0,200000003	2,26804924	0,00055536742959088749	0,19992852038080733	0,000453447719	-1,5935260850451827	0,059456600751643853	0,12329118483483792
1	1	0	0	0	0	2	663087,93	0,200000003	2,26770616	0,00055536154994782477	0,19992640373974141	0,000453374349	-1,5807526731245616	0,058980007578850509	0,13606459675545907
1	1	0	0	0	0	2	663317,94	0,200000003	2,26820159	0,00055535889511720998	0,19992544802099414	0,000453471206	-1,5679793855004707	0,058503419043727808	0,14883788437954998
1	1	0	0	0	0	2	663547,94	0,200000003	2,26842999	0,00055536279085361293	0,19992685045743664	0,000453520071	-1,555206082096121	0,058026829919822438	0,16161118778389939
1	1	0	0	0	0	2	663777,95	0,200000003	2,26902056	0,00055536403858661658	0,19992729964219293	0,000453639164	-1,5424327035700867	0,057550237993026022	0,17438456630993389
1	1	0	0	0	0	2	664007,95	0,200000003	2,26930642	0,00055536299333390266	0,19992692335828182	0,000453695451	-1,5296594638435238	0,057073651245024506	0,18715780603649632
1	1	0	0	0	0	2	664237,96	0,200000003	2,27025867	0,0005553680800596873	0,19992875454517811	0,000453889981	-1,516885991978168	0,056597055835612486	0,19993127790185232
1	1	0	0	0	0	2	664467,96	0,200000003	2,2713635	0,00055535701514366598	0,19992477125020906	0,000454101828	-1,504112737156529	0,056120468524393382	0,21270453272349056
1	1	0	0	0	0	2	664697,96	0,200000003	2,27214456	0,00055536076454238758	0,19992612100840298	0,000454261055	-1,4913393978885094	0,055643878062366272	0,22547787199151021
1	1	0	0	0	0	2	664927,97	0,200000003	2,27305889	0,00055535831973122221	0,1999252408929103	0,000454441848	-1,478566092423431	0,055167288861572346	0,23825117745658838
1	1	0	0	0	0	2	665157,97	0,200000003	2,27418256	0,00055536232854922611	0,19992668404029219	0,000454669789	-1,465792711074336	0,054690696829443725	0,25102455880568336
1	1	0	0	0	0	2	665387,98	0,200000003	2,27532554	0,00055535490808056461	0,19992401272173626	0,000454892201	-1,4530194499033446	0,054214109281321747	0,26379781997667402
1	1	0	0	0	0	2	665617,98	0,200000003	2,27644944	0,00055535484686245523	0,19992399068363069	0,000455116853	-1,4402463006479486	0,053737525908921101	0,27657096923207066
1	1	0	0	0	0	2	665847,99	0,200000003	2,2778399	0,00055535629273702701	0,19992451118870246	0,000455396017	-1,4274731164261278	0,053260941231876128	0,28934415345389222
1	1	0	0	0	0	2	666077,99	0,200000003	2,27869701	0,00055536196339627104	0,1999265525876968	0,000455572037	-1,4146998275781251	0,052784352651087635	0,30211744230189485
1	1	0	0	0	0	2	666307,99	0,200000003	2,27959228	0,00055536652626759475	0,19992819518121872	0,00045575478	-1,4019264817834464	0,052307761945542106	0,31489078809657338
1	1	0	0	0	0	2	666538,00	0,200000003	2,28098297	0,00055537199173453786	0,19993016271004426	0,000456037291	-1,3891530718009075	0,051831168845061197	0,32766419807911322
1	1	0	0	0	0	2	666768,00	0,200000003	2,28224015	0,00055535757855988211	0,19992497407158342	0,000456276815	-1,376379728422904	0,051354578229685062	0,34043754145711661
1	1	0	0	0	0	2	666998,01	0,200000003	2,28321147	0,0005553637613827984	0,19992719984138262	0,000456476089	-1,3636065686840454	0,050877994466132333	0,35321070119597517
1	1	0	0	0	0	2	667228,01	0,200000003	2,2844305	0,00055535416903760704	0,19992374667126746	0,000456711918	-1,3508334580005435	0,050401412532900902	0,3659838118794777
1	1	0	0	0	0	2	667458,02	0,200000003	2,28580213	0,00055535569734871379	0,19992429685293453	0,000456987385	-1,3380603004531222	0,049924828851113651	0,3787569694268985
1	1	0	0	0	0	2	667688,02	0,200000003	2,28719258	0,00055535420313146381	0,19992375894482538	0,000457264134	-1,3252870998259661	0,049448243561963552	0,39153017005405498
1	1	0	0	0	0	2	667918,02	0,200000003	2,28808784	0,00055535137397216429	0,19992274046660262	0,000457440794	-1,3125139407024613	0,048971659821370502	0,4043033291775593
1	1	0	0	0	0	2	668148,03	0,200000003	2,2891736	0,00055536692890607648	0,19992834013766	0,000457670685	-1,2997407362727744	0,048495074390342874	0,41707653360724614
1	1	0	0	0	0	2	668378,03	0,200000003	2,29033566	0,00055535940853506323	0,1999256328549328	0,000457896793	-1,2869675055782206	0,048018487979337754	0,42984976430180006
1	1	0	0	0	0	2	668608,04	0,200000003	2,29178333	0,00055536328777091366	0,19992702935361539	0,000458189432	-1,2741941239760042	0,047541895937764838	0,44262314590401702
1	1	0	0	0	0	2	668838,04	0,200000003	2,2927928	0,00055536558066887987	0,1999278547813833	0,000458393159	-1,2614207161141589	0,047065302916409869	0,45539655376586234
1	1	0	0	0	0	2	669068,05	0,200000003	2,29443097	0,0005553623926209079	0,19992670710566451	0,000458718016	-1,2486473378958976	0,04658871100109687	0,46816993198412416
1	1	0	0	0	0	2	669298,05	0,200000003	2,2957263	0,00055535800484733446	0,19992512753683933	0,000458973373	-1,2358740637206451	0,046112122967768422	0,48094320615937651
1	1	0	0	0	0	2	669528,05	0,200000003	2,29694533	0,00055535904721005094	0,19992550278037091	0,000459217961	-1,2231009314602454	0,045635540229473933	0,49371633841977613
1	1	0	0	0	0	2	669758,06	0,200000003	2,29808807	0,00055536167107025786	0,19992644734765334	0,00045944858	-1,2103277006624282	0,04515895381461591	0,5064895692175927
1	1	0	0	0	0	2	669988,06	0,200000003	2,2989645	0,00055535969175646707	0,1999257348080688	0,000459622155	-1,1975543741421282	0,04468236382822336	0,51926289573789331
1	1	0	0	0	0	2	670218,07	0,200000003	2,30062151	0,00055535150286638074	0,19992278685833978	0,000459946663	-1,1847811478195051	0,044205777580340851	0,53203612206051629
1	1	0	0	0	0	2	670448,07	0,200000003	2,30193591	0,00055535204709569613	0,19992298278652378	0,000460209907	-1,1720080568520605	0,043729196382742035	0,54480921302796128
1	1	0	0	0	0	2	670678,08	0,200000003	2,30298352	0,00055535933278832173	0,19992560558661786	0,000460425363	-1,1592347923852202	0,043252608711647494	0,55758247749480173
1	1	0	0	0	0	2	670908,08	0,200000003	2,30446935	0,0005553577663451433	0,19992504167766278	0,000460721116	-1,1464615704196162	0,042776022626331226	0,57035569946040634
1	1	0	0	0	0	2	671138,08	0,200000003	2,3058598	0,00055535066795266336	0,19992248630435501	0,000460993237	-1,1336884486620944	0,042299440279913235	0,58312882121792858
1	1	0	0	0	0	2	671368,09	0,200000003	2,30698371	0,00055535373114132224	0,19992358903156509	0,00046122045	-1,120915337093004	0,041822858313639322	0,59590193278701875
1	1	0	0	0	0	2	671598,09	0,200000003	2,30848861	0,00055535856266154189	0,19992532834618317	0,000461525342	-1,1081420857250656	0,041346271131282419	0,60867518415495667
1	1	0	0	0	0	2	671828,10	0,200000003	2,30984092	0,00055535090478675226	0,19992257156302598	0,000461789343	-1,0953688276244022	0,040869683697718496	0,6214484422556201
1	1	0	0	0	0	2	672058,10	0,200000003	2,31144094	0,00055535543420000211	0,19992420212117722	0,000462112977	-1,0825956168148803	0,040393098028650656	0,6342216530651415
1	1	0	0	0	0	2	672288,11	0,200000003	2,31258392	0,00055535641845646829	0,19992455644685149	0,000462342316	-1,0698223779385074	0,039916511312370861	0,64699489194151411
1	1	0	0	0	0	2	672518,11	0,200000003	2,31412673	0,00055535168877906272	0,19992285379495798	0,000462646829	-1,0570492080855621	0,039439927171447949	0,65976806179445952
1	1	0	0	0	0	2	672748,11	0,200000003	2,31532693	0,00055535692048486739	0,19992473717368144	0,000462891127	-1,0442759955515806	0,038963341438038195	0,67254127432844083
1	1	0	0	0	0	2	672978,12	0,200000003	2,31692696	0,00055535776716305152	0,19992504196279469	0,000463211705	-1,0315028155389027	0,03848675691804201	0,68531445434111885
1	1	0	0	0	0	2	673208,12	0,200000003	2,31818414	0,00055535440819379366	0,19992383275889581	0,000463460252	-1,0187294662999038	0,038010166083984256	0,69808780358011827
1	1	0	0	0	0	2	673438,13	0,200000003	2,31947947	0,0005553562250228391	0,19992448680739782	0,000463720731	-1,0059563197007584	0,037533582810691885	0,71086095017926349
1	1	0	0	0	0	2	673668,13	0,200000003	2,32083178	0,00055535732338991424	0,19992488221677469	0,000463992008	-0,99318304302760614	0,037056994684163437	0,72363422685241587
1	1	0	0	0	0	2	673898,14	0,200000003	2,32208896	0,00055535869976960947	0,19992537770416067	0,000464244513	-0,98040985062248909	0,036580409701788678	0,73640741925753293
1	1	0	0	0	0	2	674128,14	0,200000003	2,32321286	0,0005553585492960281	0,19992532353468858	0,000464469078	-0,96763654637209715	0,036103820546316333	0,74918072350792486
1	1	0	0	0	0	2	674358,15	0,200000003	2,32469845	0,00055537598199976819	0,1999315991901903	0,000464780693	-0,95486315062724954	0,035627227977062835	0,76195411925277248
1	1	0	0	0	0	2	674588,15	0,200000003	2,3257463	0,00055536588745647002	0,19992796522284186	0,000464981713	-0,94208973143847539	0,035150634533084922	0,77472753844154662
1	1	0	0	0	0	2	674818,15	0,200000003	2,32690811	0,00055536729567829107	0,19992847217317789	0,000465215184	-0,92931627026829709	0,034674039522724378	0,78750099961172493
1	1	0	0	0	0	2	675048,16	0,200000003	2,32755589	0,00055535334821293754	0,19992345117993517	0,000465332996	-0,91654295816888538	0,034197450074394547	0,80027431171113677
1	1	0	0	0	0	2	675278,16	0,200000003	2,32871771	0,00055536182993153734	0,19992650454129488	0,000465572404	-0,90376967611267443	0,033720861747016941	0,81304759376734758
1	1	0	0	0	0	2	675508,17	0,200000003	2,32978439	0,00055536167810774509	0,199926449885756	0,000465785532	-0,89099630484747098	0,033244270091131878	0,82582096503255104
1	1	0	0	0	0	2	675738,17	0,200000003	2,33054638	0,00055535846558958291	0,19992529340093414	0,000465935154	-0,87822299218636531	0,032767680621844506	0,8385942776936567
1	1	0	0	0	0	2	675968,18	0,200000003	2,33136535	0,000555359086677432	0,19992551698836128	0,000466099416	-0,86544969026563546	0,032291091553294989	0,85136757961438656
1	1	0	0	0	0	2	676198,18	0,200000003	2,33207035	0,00055535915062079821	0,19992554000754086	0,000466240424	-0,85267642802184371	0,031814503965145382	0,8641408418581783
1	1	0	0	0	0	2	676428,18	0,200000003	2,33290839	0,00055536456901497306	0,19992749058816077	0,000466412515	-0,83990303152332262	0,031337911367771309	0,87691423835669952
1	1	0	0	0	0	2	676658,19	0,200000003	2,33355594	0,00055536431382348134	0,19992739871629398	0,000466541765	-0,82712968295568525	0,030861320558762957	0,88968758692433677
1	1	0	0	0	0	2	676888,19	0,200000003	2,33405113	0,00055535291006416083	0,19992329344002797	0,000466631202	-0,8143564991901431	0,030384735898742355	0,90246077068987891
1	1	0	0	0	0	2	677118,20	0,200000003	2,3344512	0,00055535375693854362	0,1999235983183904	0,000466711877	-0,8015833460507639	0,029908152381425069	0,91523392382925811
1	1	0	0	0	0	2	677348,20	0,200000003	2,33487034	0,00055534579451133805	0,19992073189842224	0,000466788973	-0,78881031892274214	0,029431573565760954	0,92800695095727987
1	1	0	0	0	0	2	677578,21	0,200000003	2,33530831	0,00055534250596496794	0,19991954804395952	0,000466873782	-0,7760372524835744	0,028954993283345133	0,94078001739644762
1	1	0	0	0	0	2	677808,21	0,200000003	2,33578467	0,00055535090810971123	0,19992257275926877	0,000466976082	-0,76326414656865024	0,02847841152803576	0,95355312331137178
1	1	0	0	0	0	2	678038,21	0,200000003	2,33612752	0,00055535050663269229	0,1999224282302559	0,000467044272	-0,75049107931582656	0,028001831215261338	0,96632619056419546
1	1	0	0	0	0	2	678268,22	0,200000003	2,33658457	0,00055535066844854093	0,19992248648286755	0,000467135804	-0,73771806994529933	0,027525253062153216	0,97909919993472269
1	1	0	0	0	0	2	678498,22	0,200000003	2,33688951	0,00055535614216824378	0,19992445698495837	0,000467201375	-0,72494495710664474	0,027048671048510154	0,99187231277337728
1	1	0	0	0	0	2	678728,23	0,200000003	2,33702278	0,00055535392275038694	0,19992365800953309	0,000467226142	-0,71217186722079411	0,026572089891267062	1,0046454026592275
1	1	0	0	0	0	2	678958,23	0,200000003	2,33740377	0,00055535078081902534	0,19992252693548234	0,000467299658	-0,69939880587033011	0,026095509798717616	1,0174184640096917
1	1	0	0	0	0	2	679188,24	0,200000003	2,33751798	0,00055535939089208838	0,19992562650358112	0,000467329752	-0,6866256790711488	0,025618927264188531	1,0301915908088722
1	1	0	0	0	0	2	679418,24	0,200000003	2,3376894	0,000555353595390088	0,19992354016203846	0,000467359147	-0,67385259277096115	0,025142346240731347	1,0429646771090603
1	1	0	0	0	0	2	679648,24	0,200000003	2,33795619	0,00055536287147220634	0,19992687947958528	0,000467420294	-0,66107932342545088	0,024665758387607072	1,0557379464545709
1	1	0	0	0	0	2	679878,25	0,200000003	2,33826089	0,00055535850870195366	0,19992530891411402	0,000467477541	-0,64830610531944371	0,024189172446297549	1,0685111645605781
1	1	0	0	0	0	2	680108,25	0,200000003	2,33864188	0,00055535352202587661	0,19992351374676352	0,000467549515	-0,63553293209593062	0,02371258817961423	1,0812843377840909
1	1	0	0	0	0	2	680338,26	0,200000003	2,3388896	0,0005553507045035561	0,19992249945311984	0,000467596663	-0,62275984964060454	0,023236007299614	1,0940574202394171
1	1	0	0	0	0	2	680568,26	0,200000003	2,33915615	0,00055535442066192627	0,19992383725432138	0,000467653066	-0,60998683717914445	0,022759429031179021	1,1068304327008778
1	1	0	0	0	0	2	680798,27	0,200000003	2,33951807	0,00055535134766085286	0,19992273099470838	0,000467722828	-0,59721375412071437	0,022282848128676176	1,1196035157593077
1	1	0	0	0	0	2	681028,27	0,200000003	2,33976579	0,00055535713727275526	0,19992481521585562	0,000467777252	-0,58444063562779059	0,021806265904064723	1,132376634252231
1	1	0	0	0	0	2	681258,27	0,200000003	2,34003234	0,00055535362494902477	0,19992355080305587	0,000467827573	-0,57166757278851507	0,021329685755965718	1,1451496970915069
1	1	0	0	0	0	2	681488,28	0,200000003	2,34028006	0,00055535160814391245	0,19992282476684896	0,00046787539	-0,55889440195714093	0,02085310157853631	1,1579228679228806
1	1	0	0	0	0	2	681718,28	0,200000003	2,34052753	0,00055535632787976	0,1999245238398488	0,000467928854	-0,54612123678188173	0,020376517612144166	1,1706960330981402
1	1	0	0	0	0	2	681948,29	0,200000003	2,34060383	0,00055535968425290451	0,19992573211149178	0,000467946928	-0,53334801673766963	0,01989993159851761	1,1834692531423525
1	1	0	0	0	0	2	682178,29	0,200000003	2,34107995	0,00055536037829187187	0,19992598196082835	0,000468042708	-0,52057477431488717	0,019423344749916506	1,1962424955651357
1	1	0	0	0	0	2	682408,30	0,200000003	2,34123254	0,00055536871183829178	0,19992898198120493	0,000468080252	-0,50780140135160589	0,018946753030673882	1,209015868528417
1	1	0	0	0	0	2	682638,30	0,200000003	2,34159446	0,0005553601732320256	0,19992590814066992	0,000468145387	-0,49502799478428902	0,018470160057619501	1,2217892750957338
1	1	0	0	0	0	2	682868,30	0,200000003	2,34195638	0,00055536034848623808	0,1999259712216921	0,000468217913	-0,48225476290476819	0,017993573602401664	1,2345625069752549
1	1	0	0	0	0	2	683098,31	0,200000003	2,34229922	0,00055535718959901069	0,19992483404829904	0,000468283775	-0,4694814957076071	0,017516985829435187	1,247335774172416
1	1	0	0	0	0	2	683328,31	0,200000003	2,34264207	0,00055535424281987878	0,19992377322540438	0,000468349841	-0,4567083962950681	0,017040404316738547	1,2601088735849549
1	1	0	0	0	0	2	683558,32	0,200000003	2,34290862	0,00055535388676822189	0,19992364504688742	0,000468402839	-0,44393521260670662	0,016563819659597658	1,2728820572733162
1	1	0	0	0	0	2	683788,32	0,200000003	2,34302306	0,0005553620262593031	0,19992657521796339	0,000468432583	-0,43116199203328634	0,016087233626225635	1,2856552778467363
1	1	0	0	0	0	2	684018,33	0,200000003	2,34323239	0,00055535838710268339	0,19992526514618093	0,000468471349	-0,41838871967093581	0,015610645660538995	1,2984285502090869
1	1	0	0	0	0	2	684248,33	0,200000003	2,34365153	0,00055535723596397376	0,1999248507440271	0,000468554179	-0,40561553488591085	0,015134060962480122	1,3112017349941123
1	1	0	0	0	0	2	684478,34	0,200000003	2,34378481	0,00055535651136603622	0,19992458989366787	0,000468580227	-0,39284243162506752	0,014657479306198074	1,3239748382549557
1	1	0	0	0	0	2	684708,34	0,200000003	2,34414673	0,00055535293045639994	0,19992330079040566	0,000468649552	-0,3800693749312057	0,014180899387392709	1,3367478949488179
1	1	0	0	0	0	2	684938,34	0,200000003	2,3443563	0,00055534143333882099	0,19991916190579754	0,000468681741	-0,3672963637496937	0,013704321166714317	1,3495209061303291
1	1	0	0	0	0	2	685168,35	0,200000003	2,34456587	0,00055534157942152691	0,19991921449458413	0,000468723767	-0,35452346184343264	0,013227747023242458	1,3622938080365901
1	1	0	0	0	0	2	685398,35	0,200000003	2,34492779	0,00055533775190677907	0,19991783661514883	0,000468792889	-0,3417505838343625	0,01275117377140692	1,3750666860456602
1	1	0	0	0	0	2	685628,36	0,200000003	2,34519458	0,00055534537334657376	0,19992058028195414	0,000468852668	-0,32897772945722861	0,012274601401310698	1,3878395404227946
1	1	0	0	0	0	2	685858,36	0,200000003	2,34549928	0,00055534547053029146	0,19992061526743558	0,000468913669	-0,31620480339023802	0,011798026356369533	1,400612466489785
1	1	0	0	0	0	2	686088,37	0,200000003	2,3458612	0,00055534352181769075	0,19991991374407258	0,000468984363	-0,30343195018990016	0,011321454030181155	1,4133853196901234
1	1	0	0	0	0	2	686318,37	0,200000003	2,34639454	0,00055534265069001254	0,1999196001346879	0,000469090272	-0,29065892837136979	0,010844875412621304	1,4261583415086538
1	1	0	0	0	0	2	686548,37	0,200000003	2,34671831	0,00055534507058064141	0,19992047128361053	0,000469157036	-0,27788599658816381	0,010368300154400458	1,43893127329186
1	1	0	0	0	0	2	686778,38	0,200000003	2,34706116	0,00055534734290175968	0,19992128930385226	0,000469227496	-0,26511304918566413	0,0098917243134027648	1,4517042206943597
1	1	0	0	0	0	2	687008,38	0,200000003	2,34761357	0,00055534869841072301	0,19992177727326112	0,00046933908	-0,25234008230599904	0,0094151477456858419	1,464477187574025
1	1	0	0	0	0	2	687238,39	0,200000003	2,34816599	0,00055535542014324006	0,19992419706083789	0,000469455204	-0,23956693743558781	0,0089385645368948698	1,4772503324444365
1	1	0	0	0	0	2	687468,39	0,200000003	2,34869933	0,00055535008083697818	0,19992227494667718	0,000469557301	-0,22679387538478	0,0084619844182146522	1,4900233944952451
1	1	0	0	0	0	2	687698,40	0,200000003	2,34949946	0,00055535172506587373	0,19992286685796464	0,000469718681	-0,21402084027845392	0,0079854053048692787	1,5027964296015712
1	1	0	0	0	0	2	687928,40	0,200000003	2,35010886	0,0005553474380605751	0,19992132356503718	0,000469836872	-0,20124784891593523	0,0075088278236641702	1,5155694209640896
1	1	0	0	0	0	2	688158,40	0,200000003	2,35085177	0,0005553462571278215	0,19992089843722902	0,000469984399	-0,18847481501978451	0,0070322487554720653	1,5283424548602403
1	1	0	0	0	0	2	688388,41	0,200000003	2,35146141	0,00055534822823852301	0,1999216080237569	0,000470107945	-0,17570177509798253	0,0065556694624548083	1,5411154947820422
1	1	0	0	0	0	2	688618,41	0,200000003	2,35205173	0,00055534848451200461	0,19992170028047786	0,000470226194	-0,16292870899324346	0,0060790891925169664	1,5538885608867805
1	1	0	0	0	0	2	688848,42	0,200000003	2,35277557	0,0005553379063349632	0,19991789220825117	0,000470361934	-0,15015579922191693	0,0056025147555889395	1,5666614706581072
1	1	0	0	0	0	2	689078,42	0,200000003	2,35368991	0,00055533710344880813	0,19991760317466288	0,000470544037	-0,13738298191966258	0,0051259437688063206	1,5794342879603616
1	1	0	0	0	0	2	689308,43	0,200000003	2,3543756	0,00055533892174561818	0,19991825774922282	0,000470682658	-0,12461011584608482	0,0046493709623000512	1,5922071540339392
1	1	0	0	0	0	2	689538,43	0,200000003	2,35490894	0,00055534395613438554	0,19992007008583741	0,000470793573	-0,11183722388162027	0,0041727971897699866	1,6049800459984042
1	1	0	0	0	0	2	689768,43	0,200000003	2,35591865	0,00055534615566829843	0,19992086190783187	0,0004709973	-0,099064235756086579	0,0036962198293411411	1,6177530341239382
1	1	0	0	0	0	2	689998,44	0,200000003	2,35662341	0,00055535790693759917	0,19992509228301434	0,000471148145	-0,086291116913389645	0,0032196375916791846	1,6305261529666352
1	1	0	0	0	0	2	690228,44	0,200000003	2,35717583	0,00055535196120457517	0,19992295185699142	0,000471253559	-0,073518126628396262	0,0027430601506779946	1,6432991432516285
1	1	0	0	0	0	2	690458,45	0,200000003	2,35795689	0,0005553525233359801	0,19992315422980662	0,000471410167	-0,060744960484689139	0,0022664761481517507	1,6560723093953357
1	1	0	0	0	0	2	690688,45	0,200000003	2,35894728	0,00055535526518440902	0,19992414127670624	0,000471610518	-0,047971843427029562	0,0017898939770919379	1,6688454264529952
1	1	0	0	0	0	2	690918,46	0,200000003	2,35989976	0,00055534617098834778	0,19992086742760077	0,000471793202	-0,035198766776731277	0,0013133133136851029	1,6816185031032931
1	1	0	0	0	0	2	691148,46	0,200000003	2,360852	0,00055535287346028627	0,19992328027219005	0,000471989275	-0,022425665436286733	0,00083673172905571469	1,6943916044437373
1	1	0	0	0	0	2	691378,46	0,200000003	2,36165214	0,00055535556810680358	0,19992425032672051	0,000472151529	-0,0096524329793451635	0,00036014525229353453	1,7071648369006787
1	1	0	0	0	0	2	691608,47	0,200000003	2,36256647	0,00055535431225183936	0,19992379822742294	0,000472333253	0,0031206917240753702	-0,00011643720403989968	1,7199379616040989
1	1	0	0	0	0	2	691838,47	0,200000003	2,36348081	0,0005553451054543257	0,19992048384255578	0,000472508225	0,015893696550496909	-0,00059301518760132493	1,7327109664305206
1	1	0	0	0	0	2	692068,48	0,200000003	2,36452842	0,00055534982005341178	0,19992218106635619	0,000472721673	0,028666600481935827	-0,0010695894066352939	1,7454838703619594
1	1	0	0	0	0	2	692298,48	0,200000003	2,36557603	0,00055535608055028653	0,19992443480291027	0,000472936459	0,041439682335998611	-0,0015461702642015789	1,7582569522160224
1	1	0	0	0	0	2	692528,49	0,200000003	2,36633801	0,0005553521280578441	0,19992301193234979	0,000473085413	0,054212766260243296	-0,0020227511990091341	1,7710300361402672
1	1	0	0	0	0	2	692758,49	0,200000003	2,36715698	0,00055535139849699206	0,19992274929537485	0,000473248539	0,066985821607807603	-0,0024993310675823222	1,7838030914878317
1	1	0	0	0	0	2	692988,49	0,200000003	2,36812854	0,00055534231299741402	0,19991947856763523	0,000473435037	0,079758697950706061	-0,0029759042572507533	1,7965759678307299
1	1	0	0	0	0	2	693218,50	0,200000003	2,36908102	0,00055533954077959066	0,19991848058563168	0,000473623077	0,092531511894381069	-0,0034524751187202611	1,8093487817744048
1	1	0	0	0	0	2	693448,50	0,200000003	2,37018585	0,00055534256637924243	0,19991956978803526	0,000473846536	0,10530438083263587	-0,0039290480321114829	1,8221216507126595
1	1	0	0	0	0	2	693678,51	0,200000003	2,37109995	0,00055534918542951347	0,19992195259673344	0,000474034925	0,11807726699053514	-0,004405621587990791	1,8348945368705584
1	1	0	0	0	0	2	693908,51	0,200000003	2,37228107	0,00055534939712948262	0,19992202881660064	0,000474271248	0,13085023231985773	-0,0048821980978623494	1,8476675021998806
1	1	0	0	0	0	2	694138,52	0,200000003	2,37344289	0,00055535579696132083	0,19992433271279968	0,000474508997	0,14362322288434149	-0,0053587755492917005	1,8604404927643645
1	1	0	0	0	0	2	694368,52	0,200000003	2,37470007	0,00055535152268492512	0,19992279400219126	0,000474756671	0,15639634492131094	-0,0058353579061362586	1,8732136148013341
1	1	0	0	0	0	2	694598,53	0,200000003	2,37610984	0,00055534631987661114	0,19992092102636909	0,000475034059	0,16916939949630717	-0,0063119377458838938	1,8859866693763306
1	1	0	0	0	0	2	694828,53	0,200000003	2,37715745	0,00055534929136021267	0,19992199074037846	0,000475246052	0,1819424077132967	-0,0067885158559519706	1,8987596775933197
1	1	0	0	0	0	2	695058,53	0,200000003	2,37835741	0,00055535184830841088	0,1999229112244449	0,000475488137	0,19471529993995056	-0,007265089638264672	1,9115325698199731
1	1	0	0	0	0	2	695288,54	0,200000003	2,37974787	0,00055535710968656672	0,19992480528501421	0,000475770619	0,20748846047529274	-0,0077416734315352781	1,9243057303553155
1	1	0	0	0	0	2	695518,54	0,200000003	2,38110042	0,0005553585246379177	0,19992531465793552	0,000476042245	0,22026156482188266	-0,0082182551283279936	1,9370788347019046
1	1	0	0	0	0	2	695748,55	0,200000003	2,38249087	0,00055535712691313696	0,19992481148646304	0,000476319052	0,2330348284860496	-0,0086948427694737101	1,9498520983660717
1	1	0	0	0	0	2	695978,55	0,200000003	2,38431954	0,0005553467840221193	0,19992108811561443	0,000476675748	0,24580794020833261	-0,0091714247414634483	1,9626252100883546
1	1	0	0	0	0	2	696208,56	0,200000003	2,38578629	0,00055535483607732582	0,19992398679174752	0,000476975896	0,2585810154071792	-0,0096480053507146701	1,9753982852872006
1	1	0	0	0	0	2	696438,56	0,200000003	2,38778639	0,00055534842986116813	0,19992168060189146	0,000477370282	0,27135412001084064	-0,010124587057099069	1,9881713898908621
1	1	0	0	0	0	2	696637,84	0,200000003	2,38942456	0,0005153598000167145	0,19991999604158422	0,000477693742	0,28242106582795523	-0,010537509685202517	1,9992383357079763