File: Experimentelles/Rohdaten/Batteriemessungen/AlteZelle/Studenten_Batterietests/S vs Li GCPL 300µm/ECLab-Export/S vs Li GCPL 300µm_02_GCPL_C06_loop7.mpt
EC-Lab ASCII FILE
Nb header lines : 3
mode	ox/red	error	control changes	Ns changes	counter inc.	Ns	time/s	control/V/mA	Ewe/V	dq/mA.h	<I>/mA	P/W	(Q-Qo)/mA.h	x	Capacity/mA.h
1	0	0	1	1	0	1	494270,04	-0,200000003	2,33547997	0	0	0	0	0	0
1	0	0	1	0	0	1	494500,04	-0,200000003	2,28505921	-0,00055586750674247731	-0,20010844935751632	0,000457259652	-0,012782292519685563	0,00047692451988454246	0,012782292519685563
1	0	0	1	0	0	1	494730,05	-0,200000003	2,27808762	-0,00055586212986210976	-0,20010651371785453	0,000455860165	-0,025567210142663232	0,0009539469859024023	0,025567210142663232
1	0	0	1	0	0	1	494960,05	-0,200000003	2,27222061	-0,00055586488973266547	-0,20010750725212416	0,000454688416	-0,038352170878168051	0,0014309710605066155	0,038352170878168051
1	0	0	1	0	0	1	495190,06	-0,200000003	2,26742053	-0,00055586887187510733	-0,20010894078648237	0,000453731132	-0,051137091654986406	0,001907993644198512	0,051137091654986406
1	0	0	1	0	0	1	495420,06	-0,200000003	2,26242995	-0,00055586005830185286	-0,2001057679635329	0,000452725275	-0,063922022610365773	0,0023850166076662045	0,063922022610365773
1	0	0	1	0	0	1	495650,07	-0,200000003	2,25816298	-0,00055587164703094304	-0,20010993982334682	0,000451880856	-0,076706981666849984	0,0028620406196239014	0,076706981666849984
1	0	0	1	0	0	1	495880,07	-0,200000003	2,25330591	-0,00055586670254998739	-0,2001081598537943	0,000450904889	-0,08949198406155433	0,0033390662485888602	0,08949198406155433
1	0	0	1	0	0	1	496110,08	-0,200000003	2,24873424	-0,00055586403739286797	-0,20010720041570518	0,000449987914	-0,1022769256085425	0,0038160896072437178	0,1022769256085425
1	0	0	1	0	0	1	496340,08	-0,200000003	2,24425793	-0,00055586543016549613	-0,20010770180419715	0,000449093292	-0,11506193705257218	0,0042931155738511725	0,11506193705257218
1	0	0	1	0	0	1	496570,08	-0,200000003	2,23955297	-0,0005558624411763417	-0,20010662578882013	0,000448149396	-0,12784691078522245	0,0047701401333963571	0,12784691078522245
1	0	0	1	0	0	1	496800,09	-0,200000003	2,23494339	-0,00055586888392352397	-0,20010894512382886	0,00044723216	-0,14063186959277277	0,0052471641360659955	0,14063186959277277
1	0	0	1	0	0	1	497030,09	-0,200000003	2,22991467	-0,00055586609120915334	-0,2001079397683431	0,000446223625	-0,15341685939489315	0,0057241892951847174	0,15341685939489315
1	0	0	1	0	0	1	497260,10	-0,200000003	2,22473335	-0,00055586546449280448	-0,20010771415247213	0,000445186306	-0,16620186690350957	0,0062012151149566106	0,16620186690350957
1	0	0	1	0	0	1	497490,10	-0,200000003	2,21907616	-0,00055587578931864762	-0,20011143102752582	0,000444062491	-0,17898699151807619	0,0066782453041089574	0,17898699151807619
1	0	0	1	0	0	1	497720,11	-0,200000003	2,21267581	-0,00055587693692660992	-0,20011184415843747	0,00044278265	-0,19177213612114566	0,0071552762390592192	0,19177213612114566
1	0	0	1	0	0	1	497950,11	-0,200000003	2,20606613	-0,00055587362097534874	-0,20011065043896838	0,00044145732	-0,20455727717536278	0,0076323070415970304	0,20455727717536278
1	0	0	1	0	0	1	498180,12	-0,200000003	2,19873261	-0,0005558759349303113	-0,20011148344671542	0,000439991651	-0,21734236439205882	0,0081093358353845427	0,21734236439205882
1	0	0	1	0	0	1	498410,12	-0,200000003	2,19050384	-0,0005558698954913351	-0,20010930929054717	0,000438340212	-0,23012755729311712	0,0085863685723977075	0,23012755729311712
1	0	0	1	0	0	1	498640,12	-0,200000003	2,18120813	-0,00055588156698892512	-0,20011351094178829	0,000436489208	-0,24291275911970691	0,0090634016424344512	0,24291275911970691
1	0	0	1	0	0	1	498870,13	-0,200000003	2,17073178	-0,00055588301471372448	-0,2001140321196697	0,000434393878	-0,25569803884220045	0,009540437618872096	0,25569803884220045
1	0	0	1	0	0	1	499100,13	-0,200000003	2,15863609	-0,00055588313960035642	-0,20011407707799155	0,000431973458	-0,26848333716918454	0,010017474289468298	0,26848333716918454
1	0	0	1	0	0	1	499330,14	-0,200000003	2,14414048	-0,00055588566327260602	-0,20011498558250822	0,000429074629	-0,2812686842135721	0,010494512777776323	0,2812686842135721
1	0	0	1	0	0	1	499560,14	-0,200000003	2,12827325	-0,00055588886711829248	-0,20011613894474746	0,000425901817	-0,29405416584712922	0,010971556287787222	0,29405416584712922
1	0	0	1	0	0	1	499790,15	-0,200000003	2,10951066	-0,00055588027716924755	-0,20011304662263366	0,000422140612	-0,30683947907718509	0,011448593514437069	0,30683947907718509
1	0	0	1	0	0	1	500020,15	-0,200000003	2,08768153	-0,00055587273453672723	-0,20011033131789094	0,000417766656	-0,3196247206545264	0,011925628067627798	0,3196247206545264
1	0	0	1	0	0	1	500250,16	-0,200000003	2,06249976	-0,00055587512929240864	-0,20011119341566618	0,000412729278	-0,3324099239036928	0,012402661190742789	0,3324099239036928
1	0	0	1	0	0	1	500480,16	-0,200000003	2,033813	-0,00055587831650260429	-0,2001123407915736	0,000406991079	-0,34519510630213619	0,012879693535889267	0,34519510630213619
1	0	0	1	0	0	1	500710,16	-0,200000003	2,00327873	-0,00055587553202609216	-0,20011133840398934	0,00040087878	-0,35798032871618035	0,013356727374071616	0,35798032871618035
1	0	0	1	0	0	1	500940,17	-0,200000003	1,97573495	-0,00055586563545217126	-0,20010777570597722	0,000395359937	-0,3707653045440249	0,013833752011791317	0,3707653045440249
1	0	0	1	0	0	1	501170,17	-0,200000003	1,95483899	-0,00055587124273098176	-0,20010979428748138	0,000391182431	-0,38355033674830931	0,014310778752991787	0,38355033674830931
1	0	0	1	0	0	1	501400,18	-0,200000003	1,93973374	-0,00055587060037586426	-0,20010956304409168	0,000388159271	-0,39633537998400454	0,014787805905789024	0,39633537998400454
1	0	0	1	0	0	1	501630,18	-0,200000003	1,93001914	-0,00055586776552100979	-0,20010854250667616	0,000386213331	-0,40912042946372832	0,015264833291559366	0,40912042946372832
1	0	0	1	0	0	1	501860,19	-0,200000003	1,92390466	-0,00055587044664306778	-0,20010950769436195	0,00038499161	-0,42190544377680019	0,015741859365214643	0,42190544377680019
1	0	0	1	0	0	1	502090,19	-0,200000003	1,92001879	-0,00055586962869597805	-0,2001092132414089	0,000384213461	-0,43469050724744275	0,016218887273004973	0,43469050724744275
1	0	0	1	0	0	1	502320,20	-0,200000003	1,91718066	-0,00055585813932286368	-0,20010507714206896	0,000383637584	-0,44747528898722464	0,016695904669038102	0,44747528898722464
1	0	0	1	0	0	1	502550,20	-0,200000003	1,9146663	-0,00055585952053798566	-0,20010557437925677	0,000383135397	-0,4602601521211328	0,017172925101995517	0,4602601521211328
1	0	0	1	0	0	1	502780,20	-0,200000003	1,91253293	-0,00055585417399638234	-0,20010364966133981	0,000382704806	-0,47304493915890022	0,01764994269570361	0,47304493915890022
1	0	0	1	0	0	1	503010,21	-0,200000003	1,91060901	-0,00055586486954987046	-0,20010749998645792	0,000382327184	-0,48582982328067424	0,018126963911746518	0,48582982328067424
1	0	0	1	0	0	1	503240,21	-0,200000003	1,90952325	-0,00055586290844447085	-0,20010679399278966	0,000382108585	-0,49861471526887302	0,01860398542129631	0,49861471526887302
1	0	0	1	0	0	1	503470,22	-0,200000003	1,91039944	-0,0005558713044317232	-0,200109816492332	0,000382289669	-0,51139964347085978	0,019081008282031226	0,51139964347085978
1	0	0	1	0	0	1	503700,22	-0,200000003	1,91152334	-0,00055586820526917779	-0,20010870081296845	0,000382512459	-0,52418460543953824	0,019558032402646803	0,52418460543953824
1	0	0	1	0	0	1	503930,23	-0,200000003	1,91339004	-0,00055586657260192768	-0,20010811306407546	0,000382884871	-0,53696950262335462	0,020035054106052077	0,53696950262335462
1	0	0	1	0	0	1	504160,23	-0,200000003	1,91518056	-0,00055586796439273498	-0,20010861410843677	0,000383244129	-0,54975447866237459	0,020512078751651014	0,54975447866237459
1	0	0	1	0	0	1	504390,24	-0,200000003	1,91750443	-0,00055587067322764134	-0,20010958927022643	0,000383711013	-0,56253945985462464	0,020989103589523898	0,56253945985462464
1	0	0	1	0	0	1	504620,24	-0,200000003	1,91965687	-0,00055586313730064371	-0,20010687638874358	0,00038413654	-0,575324344351648	0,021466124819567866	0,575324344351648
1	0	0	1	0	0	1	504850,24	-0,200000003	1,92137122	-0,00055587031922820538	-0,20010946183288326	0,000384484563	-0,58810933546727795	0,021943150027695392	0,58810933546727795
1	0	0	1	0	0	1	505080,25	-0,200000003	1,92339039	-0,00055588206666956346	-0,20011369082335446	0,000384896761	-0,6008945121939273	0,02242018216121961	0,6008945121939273
1	0	0	1	0	0	1	505310,25	-0,200000003	1,92542851	-0,00055587261408319078	-0,20011028796477094	0,000385298044	-0,61367970407961485	0,022897214860347923	0,61367970407961485
1	0	0	1	0	0	1	505540,26	-0,200000003	1,9274286	-0,00055587507885446144	-0,20011117525602528	0,000385699997	-0,62646475889774912	0,023374242445301539	0,62646475889774912
1	0	0	1	0	0	1	505770,26	-0,200000003	1,92952394	-0,0005558653265784185	-0,2001076645135672	0,000386112544	-0,63924974243884966	0,02385126737081319	0,63924974243884966
1	0	0	1	0	0	1	506000,27	-0,200000003	1,93194306	-0,00055587124220612973	-0,2001097940985383	0,000386600732	-0,65203474227802854	0,024328292904428061	0,65203474227802854
1	0	0	1	0	0	1	506230,27	-0,200000003	1,93405735	-0,00055587043630994029	-0,20010950398149629	0,000387023261	-0,6648197442135369	0,024805318516259802	0,6648197442135369
1	0	0	1	0	0	1	506460,27	-0,200000003	1,93660986	-0,00055586132125308115	-0,20010622261489123	0,000387527689	-0,67760476189260314	0,025282344715504848	0,67760476189260314
1	0	0	1	0	0	1	506690,28	-0,200000003	1,93923855	-0,00055587537743730682	-0,20011128274610947	0,000388063519	-0,69038973112703411	0,025759369107215424	0,69038973112703411
1	0	0	1	0	0	1	506920,28	-0,200000003	1,94266713	-0,00055587145982517139	-0,20010987243522576	0,000388746877	-0,70317479059652032	0,026236396865717232	0,70317479059652032
1	0	0	1	0	0	1	507150,29	-0,200000003	1,94621015	-0,00055586549846248493	-0,20010772638132166	0,000389451685	-0,71595984312281075	0,026713424365159069	0,71595984312281075
1	0	0	1	0	0	1	507380,29	-0,200000003	1,94937217	-0,00055587039954132499	-0,20010949074504966	0,000390087866	-0,72874480181703514	0,027190448363600368	0,72874480181703514
1	0	0	1	0	0	1	507610,30	-0,200000003	1,95261037	-0,0005558726336153017	-0,20011029499619549	0,000390737434	-0,74152983128890611	0,027667475002850819	0,74152983128890611
1	0	0	1	0	0	1	507840,30	-0,200000003	1,95573425	-0,00055587503586626714	-0,20011115978989149	0,000391364243	-0,75431492877087795	0,028144504179649574	0,75431492877087795
1	0	0	1	0	0	1	508070,31	-0,200000003	1,95803905	-0,00055586398115091853	-0,2001071801596752	0,000391817681	-0,76709993378757299	0,028621529906444534	0,76709993378757299
1	0	0	1	0	0	1	508300,31	-0,200000003	1,96022964	-0,00055586461046586438	-0,20010740671335254	0,000392256479	-0,77988488643780634	0,029098553679376397	0,77988488643780634
1	0	0	1	0	0	1	508530,31	-0,200000003	1,96215355	-0,00055586763215478925	-0,20010849450042026	0,000392643589	-0,79266983653154765	0,029575577356922106	0,79266983653154765
1	0	0	1	0	0	1	508760,32	-0,200000003	1,9641155	-0,0005558647272454368	-0,20010744874853011	0,000393034134	-0,80545482188175398	0,030052602349933926	0,80545482188175398
1	0	0	1	0	0	1	508990,32	-0,200000003	1,96638227	-0,00055587307231624928	-0,20011045292549568	0,000393493654	-0,81823976496231181	0,030529625765808326	0,81823976496231181
1	0	0	1	0	0	1	509220,33	-0,200000003	1,96868706	-0,00055587234983013728	-0,20011019283550339	0,000393954339	-0,83102477119289523	0,031006651537895091	0,83102477119289523
1	0	0	1	0	0	1	509450,33	-0,200000003	1,97123957	-0,00055586559139854374	-0,2001077598469767	0,000394460338	-0,8438097319445353	0,031483675613101338	0,8438097319445353
1	0	0	1	0	0	1	509680,34	-0,200000003	1,97341096	-0,00055586488092276774	-0,20010750407130403	0,000394894334	-0,85659462382266099	0,03196069711854416	0,85659462382266099
1	0	0	1	0	0	1	509910,34	-0,200000003	1,9759444	-0,00055586325843135507	-0,20010691999030102	0,000395400159	-0,8693795602192896	0,032437720285032173	0,8693795602192896
1	0	0	1	0	0	1	510140,35	-0,200000003	1,97786832	-0,00055586613121132058	-0,20010795416884602	0,000395787181	-0,88216444429989005	0,032914741499538835	0,88216444429989005
1	0	0	1	0	0	1	510370,35	-0,200000003	1,97983027	-0,00055587350646737555	-0,20011060920757357	0,000396185031	-0,89494950346242624	0,03339176924658793	0,89494950346242624
1	0	0	1	0	0	1	510600,35	-0,200000003	1,98129702	-0,00055587013081378406	-0,20010939400499763	0,000396476156	-0,90773451921525773	0,033868795373962566	0,90773451921525773
1	0	0	1	0	0	1	510830,36	-0,200000003	1,98278272	-0,00055586559559322061	-0,2001077613570313	0,000396770221	-0,92051956768360883	0,034345822721997235	0,92051956768360883
1	0	0	1	0	0	1	511060,36	-0,200000003	1,98413515	-0,00055587133804046451	-0,20010982859823453	0,000397044932	-0,93330459190913882	0,034822849165499654	0,93330459190913882
1	0	0	1	0	0	1	511290,37	-0,200000003	1,98592567	-0,0005558608307176167	-0,20010604603484221	0,000397395721	-0,94608955447387149	0,035299873308354816	0,94608955447387149
1	0	0	1	0	0	1	511520,37	-0,200000003	1,98701143	-0,00055586680145727264	-0,20010819545507238	0,000397617259	-0,95887448777983181	0,035776896359525843	0,95887448777983181
1	0	0	1	0	0	1	511750,38	-0,200000003	1,98849726	-0,0005558651622517241	-0,20010760535243728	0,00039791342	-0,97165941412979366	0,036253919151159219	0,97165941412979366
1	0	0	1	0	0	1	511980,38	-0,200000003	1,98948777	-0,00055586621701800166	-0,20010798505632688	0,000398112403	-0,98444435091482445	0,03673094233213904	0,98444435091482445
1	0	0	1	0	0	1	512210,39	-0,200000003	1,99078298	-0,00055586920153515213	-0,20010905947113152	0,000398373697	-0,99722930572138496	0,037207966185526374	0,99722930572138496
1	0	0	1	0	0	1	512440,39	-0,200000003	1,99186873	-0,00055586446783360506	-0,20010735537138688	0,000398587581	-1,010014297060553	0,037684991401994413	1,010014297060553
1	0	0	1	0	0	1	512670,39	-0,200000003	1,99303067	-0,00055586950180679565	-0,20010916756684182	0,0003988237	-1,0227992440267669	0,038162014962847866	1,0227992440267669
1	0	0	1	0	0	1	512900,40	-0,200000003	1,99404025	-0,00055587620614137907	-0,20011158107150166	0,000399030541	-1,0355843082551619	0,038639042898910957	1,0355843082551619
1	0	0	1	0	0	1	513130,40	-0,200000003	1,99499261	-0,00055586383649458483	-0,2001071280890568	0,000399212237	-1,0483693135108829	0,039116068634624294	1,0483693135108829
1	0	0	1	0	0	1	513360,41	-0,200000003	1,99630702	-0,00055587113915714957	-0,2001097569946311	0,000399480516	-1,0611543339119077	0,03959309493542928	1,0611543339119077
1	0	0	1	0	0	1	513590,41	-0,200000003	1,99746895	-0,00055587857209311584	-0,20011243279772694	0,000399718381	-1,0739392614903885	0,040070117772900346	1,0739392614903885
1	0	0	1	0	0	1	513820,42	-0,200000003	1,99878323	-0,00055587915333277651	-0,20011264204929411	0,0003999818	-1,0867244500070259	0,04054715034632487	1,0867244500070259
1	0	0	1	0	0	1	514050,42	-0,200000003	2,00007868	-0,00055588016389227578	-0,20011300584370902	0,000400241755	-1,0995096752848214	0,041024184291357632	1,0995096752848214
1	0	0	1	0	0	1	514280,43	-0,200000003	2,00158334	-0,00055588141124612755	-0,20011345488244947	0,000400543766	-1,1122950098083955	0,041501222312497267	1,1122950098083955
1	0	0	1	0	0	1	514510,43	-0,200000003	2,00263119	-0,00055588352631943091	-0,20011421628485942	0,000400754972	-1,1250803403607318	0,041978260185464698	1,1250803403607318
1	0	0	1	0	0	1	514740,43	-0,200000003	2,00405979	-0,0005558790400558048	-0,20011260126571037	0,000401037629	-1,1378657238410464	0,042455300033246144	1,1378657238410464
1	0	0	1	0	0	1	514970,44	-0,200000003	2,0051074	-0,00055587984905888634	-0,20011289249888243	0,000401247846	-1,1506510157688042	0,042932336465078611	1,1506510157688042
1	0	0	1	0	0	1	515200,44	-0,200000003	2,00611687	-0,00055588618017153613	-0,20011517165322166	0,000401454425	-1,1634363717949237	0,04340937528850713	1,1634363717949237
1	0	0	1	0	0	1	515430,45	-0,200000003	2,00737405	-0,00055588279191404576	-0,20011395191332976	0,000401703554	-1,1762217228000789	0,043886413924596723	1,1762217228000789
1	0	0	1	0	0	1	515660,45	-0,200000003	2,00868845	-0,00055588554484314381	-0,20011494294872275	0,000401968573	-1,1890069431541603	0,044363447685919091	1,1890069431541603
1	0	0	1	0	0	1	515890,46	-0,200000003	2,00952649	-0,00055588341754840486	-0,20011417713736234	0,000402134727	-1,2017922503671101	0,044840484688062618	1,2017922503671101
1	0	0	1	0	0	1	516120,46	-0,200000003	2,01040268	-0,00055587011435214016	-0,20010938806960179	0,000402300444	-1,2145773688897677	0,045317514649917645	1,2145773688897677
1	0	0	1	0	0	1	516350,47	-0,200000003	2,01122189	-0,00055588787363552384	-0,20011578129317802	0,00040247725	-1,2273626655336232	0,045794551257714061	1,2273626655336232
1	0	0	1	0	0	1	516580,47	-0,200000003	2,0121932	-0,00055587733906176358	-0,20011198891848141	0,00040266398	-1,2401479503804011	0,046271587425345645	1,2401479503804011
1	0	0	1	0	0	1	516810,47	-0,200000003	2,01331711	-0,00055588648963967949	-0,20011528305960822	0,00040289553	-1,2529331814427675	0,046748621586208525	1,2529331814427675
1	0	0	1	0	0	1	517040,48	-0,200000003	2,01406002	-0,00055588455738955072	-0,20011458747227389	0,000403042795	-1,2657184655893754	0,047225657727715821	1,2657184655893754
1	0	0	1	0	0	1	517270,48	-0,200000003	2,01478386	-0,00055588165108693971	-0,20011354122347936	0,000403185521	-1,2785037330590002	0,047702693246982458	1,2785037330590002
1	0	0	1	0	0	1	517500,49	-0,200000003	2,01527905	-0,00055587775361124013	-0,20011213815924339	0,000403281796	-1,2912889134964893	0,048179725518963104	1,2912889134964893
1	0	0	1	0	0	1	517730,49	-0,200000003	2,01554585	-0,00055588054360200966	-0,20011314253658122	0,00040333721	-1,3040740997279394	0,048656758007124211	1,3040740997279394
1	0	0	1	0	0	1	517960,50	-0,200000003	2,01606011	-0,00055587572263429555	-0,20011140701696224	0,000403436628	-1,3168592604191822	0,049133789542345856	1,3168592604191822
1	0	0	1	0	0	1	518190,50	-0,200000003	2,01634574	-0,00055588450546728237	-0,20011456877595802	0,000403500162	-1,3296444591480045	0,04961082249680073	1,3296444591480045
1	0	0	1	0	0	1	518420,51	-0,200000003	2,01665068	-0,0005558867389195495	-0,20011537279863347	0,000403562794	-1,342429874303739	0,050087863526434682	1,342429874303739
1	0	0	1	0	0	1	518650,51	-0,200000003	2,0169363	-0,0005558836040389207	-0,20011424427265536	0,000403617683	-1,3552152248625397	0,050564902145870195	1,3552152248625397
1	0	0	1	0	0	1	518880,51	-0,200000003	2,01661253	-0,00055588749798966778	-0,20011564606793286	0,000403555721	-1,3680006237909746	0,051041942570041779	1,3680006237909746
1	0	0	1	0	0	1	519110,52	-0,200000003	2,01649809	-0,0005558903101848231	-0,20011665843869568	0,000403534854	-1,3807860492707189	0,051518983984878426	1,3807860492707189
1	0	0	1	0	0	1	519340,52	-0,200000003	2,01607919	-0,00055587978374958042	-0,20011286899497373	0,00040344338	-1,3935714006519408	0,051996022634999571	1,3935714006519408
1	0	0	1	0	0	1	519570,53	-0,200000003	2,01545048	-0,0005558860474833184	-0,20011512389104227	0,000403322134	-1,4063566790846462	0,052473058563313491	1,4063566790846462
1	0	0	1	0	0	1	519800,53	-0,200000003	2,01480293	-0,00055587766218682131	-0,20011210524009766	0,000403186452	-1,4191419326124014	0,052950093562390227	1,4191419326124014
1	0	0	1	0	0	1	520030,54	-0,200000003	2,01360273	-0,0005558817041185168	-0,20011356030516118	0,000402949227	-1,431927182180207	0,053427128413715917	1,431927182180207
1	0	0	1	0	0	1	520260,54	-0,200000003	2,01230764	-0,00055587981497910285	-0,20011288023738531	0,000402688689	-1,4447125623946099	0,053904168139641824	1,4447125623946099
1	0	0	1	0	0	1	520490,55	-0,200000003	2,01061225	-0,00055588003457337619	-0,20011295928980157	0,000402349571	-1,4574978428847552	0,054381204144721574	1,4574978428847552
1	0	0	1	0	0	1	520720,55	-0,200000003	2,0085361	-0,00055588265456010899	-0,20011390246686458	0,000401936006	-1,4702831433838387	0,054858240896361722	1,4702831433838387
1	0	0	1	0	0	1	520950,55	-0,200000003	2,00621223	-0,0005558834447604087	-0,2001141869334951	0,000401471538	-1,4830684012201104	0,055335276056195014	1,4830684012201104
1	0	0	1	0	0	1	521180,56	-0,200000003	2,00314546	-0,00055587933072199418	-0,20011270589886461	0,000400854857	-1,4958536746116403	0,055812311796415898	1,4958536746116403
1	0	0	1	0	0	1	521410,56	-0,200000003	1,99941182	-0,00055588070733928019	-0,20011320147387491	0,000400108693	-1,5086389499750963	0,056289347610211981	1,5086389499750963
1	0	0	1	0	0	1	521640,57	-0,200000003	1,99504983	-0,00055586753655887309	-0,20010846008189405	0,000399226352	-1,5214241100361469	0,056766379121920314	1,5214241100361469
1	0	0	1	0	0	1	521870,57	-0,200000003	1,99036396	-0,00055586765735513638	-0,20010850357702957	0,000398288743	-1,534209087495121	0,057243403820499642	1,534209087495121
1	0	0	1	0	0	1	522100,58	-0,200000003	1,98445904	-0,00055588203710152038	-0,2001136801860527	0,000397117401	-1,5469942004085581	0,05772043357306711	1,5469942004085581
1	0	0	1	0	0	1	522330,58	-0,200000003	1,97704923	-0,00055587905116462042	-0,20011260526946611	0,000395632465	-1,5597793824961251	0,058197465906614387	1,5597793824961251
1	0	0	1	0	0	1	522560,58	-0,200000003	1,96807754	-0,0005558657279494736	-0,20010780900436493	0,000393827679	-1,5725645436142262	0,058674497457762675	1,5725645436142262
1	0	0	1	0	0	1	522790,59	-0,200000003	1,9576962	-0,00055587036472393408	-0,2001094782017121	0,000391753565	-1,5853495264754304	0,059151522357906483	1,5853495264754304
1	0	0	1	0	0	1	523020,59	-0,200000003	1,9456768	-0,00055587436807817888	-0,2001109193838199	0,00038935116	-1,5981346458733661	0,059628552352419315	1,5981346458733661
1	0	0	1	0	0	1	523250,60	-0,200000003	1,93179059	-0,00055586470206992486	-0,20010743968552032	0,000386565662	-1,6109196885021712	0,060105579482572672	1,6109196885021712
1	0	0	1	0	0	1	523480,60	-0,200000003	1,91611397	-0,00055586905053754643	-0,20010900511304016	0,000383431674	-1,6237047478516131	0,060582607236595456	1,6237047478516131
1	0	0	1	0	0	1	523710,61	-0,200000003	1,8980372	-0,0005558763337367111	-0,20011162701425498	0,000379819307	-1,6364898133872406	0,061059635221433152	1,6364898133872406
1	0	0	1	0	0	1	523940,61	-0,200000003	1,87677932	-0,00055587624848137293	-0,20011159632292422	0,000375565316	-1,6492750011843894	0,061536667768012595	1,6492750011843894
1	0	0	1	0	0	1	524170,62	-0,200000003	1,85074043	-0,00055587669898900723	-0,20011175850254982	0,000370354916	-1,6620601722929626	0,062013699691918835	1,6620601722929626
1	0	0	1	0	0	1	524400,62	-0,200000003	1,81887269	-0,00055588394024554227	-0,20011446071556374	0,000363982719	-1,674845437302895	0,062490735119411046	1,674845437302895
1	0	0	1	0	0	1	524630,62	-0,200000003	1,78740501	-0,00055588680912305914	-0,20011549348974662	0,000357687444	-1,6876308904939229	0,062967777568192947	1,6876308904939229
1	0	0	1	0	0	1	524860,63	-0,200000003	1,75226104	-0,00055588992345912582	-0,20011661463200733	0,000350656541	-1,7004164554605907	0,06344482418747424	1,7004164554605907
1	0	0	1	0	0	1	525090,63	-0,200000003	1,70740247	-0,00055588852144860557	-0,2001161099270161	0,000341678737	-1,713201881102887	0,063921865608375923	1,713201881102887
1	0	0	1	0	0	1	525320,64	-0,200000003	1,6407336	-0,00055587880218525722	-0,2001126110579127	0,000328331487	-1,7259873935281958	0,064398910267268493	1,7259873935281958
1	0	0	1	0	0	1	525550,64	-0,200000003	1,56530261	-0,00055588851500799258	-0,20011610760843894	0,000313242257	-1,738772871670945	0,06487595364703264	1,738772871670945
1	1	0	0	1	0	2	525766,55	0,200000003	1,54428673	1,0650251474645403E-008	0,063901518211239514	9,86822633E-005	-1,7507747264270221	0,065323758984647219	1,0650251474645403E-008
1	1	0	0	0	0	2	525996,55	0,200000003	2,30397415	0,0005553247553830345	0,19991315795445702	0,000460594747	-1,7380023407508541	0,064847204102414208	0,012772396326419379
1	1	0	0	0	0	2	526226,56	0,200000003	2,3054409	0,0005553302142620087	0,1999151231046767	0,000460892508	-1,7252298679607075	0,064370645969841536	0,025544869116566246
1	1	0	0	0	0	2	526456,56	0,200000003	2,28873539	0,00055533028758400019	0,19991514950242528	0,000457552873	-1,7124573517263142	0,0638940862163056	0,03831738535096
1	1	0	0	0	0	2	526686,57	0,200000003	2,27559233	0,00055533548880120122	0,19991702190778477	0,000454929628	-1,6996847425660429	0,063417522995580224	0,051089994511230938
1	1	0	0	0	0	2	526916,57	0,200000003	2,26797295	0,00055532314514037632	0,19991257826867629	0,000453396322	-1,6869122578793606	0,062940964419131789	0,063862479197913562
1	1	0	0	0	0	2	527146,57	0,200000003	2,26376319	0,00055532772707856358	0,19991422774475888	0,000452558481	-1,6741398051806179	0,062464407036196416	0,076634931896655898
1	1	0	0	0	0	2	527376,58	0,200000003	2,26140118	0,00055532839074896442	0,19991446666161677	0,000452086824	-1,6613673136922979	0,061987848205969741	0,089407423384976051
1	1	0	0	0	0	2	527606,58	0,200000003	2,26006794	0,00055533028865853952	0,19991514989623395	0,000451821834	-1,648594733812376	0,061511286077733555	0,10218000326489819
1	1	0	0	0	0	2	527836,59	0,200000003	2,2594583	0,0005553170604465737	0,19991038782934874	0,000451689179	-1,6358222941494701	0,061034729181182784	0,11495244292780339
1	1	0	0	0	0	2	528066,59	0,200000003	2,2593441	0,00055532301883730624	0,19991253280973382	0,000451671192	-1,6230500035940138	0,060558177848031411	0,12772473348325982
1	1	0	0	0	0	2	528296,60	0,200000003	2,25943923	0,00055532023817797504	0,19991153179117184	0,000451687956	-1,6102775881042496	0,060081621853413043	0,14049714897302368
1	1	0	0	0	0	2	528526,60	0,200000003	2,25982022	0,00055533305682821408	0,1999161464186041	0,00045177454	-1,5975051106629718	0,059605063547300416	0,15326962641430147
1	1	0	0	0	0	2	528756,60	0,200000003	2,26012516	0,00055533094945798317	0,19991538777956675	0,000451833796	-1,584732564042176	0,05912850266000695	0,1660421730350967
1	1	0	0	0	0	2	528986,61	0,200000003	2,26075363	0,00055531513461387821	0,19990969454259693	0,000451946573	-1,5719601615537098	0,058651947150484493	0,17881457552356266
1	1	0	0	0	0	2	529216,61	0,200000003	2,26132512	0,00055531763391031155	0,19991059427241776	0,000452062843	-1,5591878722414106	0,058175395863716979	0,19158686483586157
1	1	0	0	0	0	2	529446,62	0,200000003	2,26199174	0,00055531967652589082	0,19991132959090934	0,000452197768	-1,5464155001365126	0,05769884148784631	0,20435923694075882
1	1	0	0	0	0	2	529676,62	0,200000003	2,2627728	0,0005553264552205801	0,19991376987982803	0,00045235944	-1,5336430147057469	0,057222282883635136	0,21713172237152515
1	1	0	0	0	0	2	529906,63	0,200000003	2,26359177	0,00055532984579685664	0,19991499046436733	0,000452525914	-1,5208704754657923	0,056745722271730784	0,22990426161147978
1	1	0	0	0	0	2	530136,63	0,200000003	2,26441097	0,00055531791612340346	0,19991069585791418	0,00045267996	-1,5080980079174106	0,056269164334735405	0,2426767291598609
1	1	0	0	0	0	2	530366,64	0,200000003	2,26528716	0,00055532748380717306	0,19991414016870278	0,000452862936	-1,495325513443888	0,055792605393126803	0,25544922363338358
1	1	0	0	0	0	2	530596,64	0,200000003	2,26622057	0,00055532688750161069	0,19991392550273139	0,000453049055	-1,4825531365967731	0,055316050840317638	0,26822160048049843
1	1	0	0	0	0	2	530826,64	0,200000003	2,26755381	0,00055532644079873958	0,19991376469271747	0,00045331521	-1,4697806480354093	0,054839492119299648	0,28099408904186211
1	1	0	0	0	0	2	531056,65	0,200000003	2,26825857	0,0005553387312781479	0,19991818918222106	0,000453466142	-1,457007997324785	0,054362927348274726	0,2937667397524871
1	1	0	0	0	0	2	531286,65	0,200000003	2,26913476	0,00055534215277267821	0,19991942089712275	0,000453644112	-1,4442352207842349	0,053886357882366099	0,30653951629303725
1	1	0	0	0	0	2	531516,66	0,200000003	2,27018261	0,00055534452056388058	0,19992027328594938	0,000453855522	-1,4314624712949962	0,053409789425778272	0,3193122657822759
1	1	0	0	0	0	2	531746,66	0,200000003	2,27134442	0,0005553392784934905	0,19991838617604525	0,000454083522	-1,4186898539786894	0,052933225900740237	0,33208488309858234
1	1	0	0	0	0	2	531976,67	0,200000003	2,27233505	0,00055532623787638208	0,19991369164204054	0,000454270892	-1,4059172156266928	0,052456661590832346	0,3448575214505792
1	1	0	0	0	0	2	532206,67	0,200000003	2,27355409	0,00055534114068001517	0,19991905655060579	0,000454526802	-1,3931445811801829	0,051980097426643398	0,35763015589708922
1	1	0	0	0	0	2	532436,67	0,200000003	2,27462077	0,00055533338533424672	0,1999162646785551	0,000454733701	-1,3803718942180469	0,051503531303025843	0,37040284285922528
1	1	0	0	0	0	2	532666,68	0,200000003	2,27568746	0,00055533250598775014	0,1999159481197607	0,000454946217	-1,3675992334024139	0,051026966154969459	0,38317550367485824
1	1	0	0	0	0	2	532896,68	0,200000003	2,27665901	0,00055533591758542592	0,19991717626255248	0,00045514325	-1,3548265324798814	0,050550399510470746	0,39594820459739053
1	1	0	0	0	0	2	533126,69	0,200000003	2,27776361	0,00055534387554973363	0,19992004107823478	0,00045537058	-1,3420537351640406	0,050073829269408083	0,40872100191323149
1	1	0	0	0	0	2	533356,69	0,200000003	2,27883053	0,00055533842203683328	0,19991807785278368	0,000455579429	-1,3292808769610245	0,049597256756563053	0,42149386011624774
1	1	0	0	0	0	2	533586,70	0,200000003	2,27991629	0,00055533753791285882	0,19991775957878413	0,000455795758	-1,3165081131596499	0,049120687765970195	0,43426662391762208
1	1	0	0	0	0	2	533816,70	0,200000003	2,28113532	0,0005553404792091913	0,19991881842558074	0,000456041889	-1,303735368330664	0,048644119483262662	0,44703936874660781
1	1	0	0	0	0	2	534046,70	0,200000003	2,28208756	0,00055535047703484698	0,19992241757523168	0,000456240465	-1,2909625508988237	0,048167548491645011	0,45981218617844845
1	1	0	0	0	0	2	534276,71	0,200000003	2,28357339	0,00055534538006368608	0,19992058270006918	0,000456533337	-1,2781896546077675	0,047690974557684	0,47258508246950477
1	1	0	0	0	0	2	534506,71	0,200000003	2,28458309	0,00055534572352882893	0,19992070634519878	0,000456735463	-1,2654167834088742	0,047214401559945325	0,48535795366839821
1	1	0	0	0	0	2	534736,72	0,200000003	2,28574491	0,00055534116852614618	0,19991906657502474	0,000456963986	-1,2526439473399246	0,046737829872952064	0,49813078973734701
1	1	0	0	0	0	2	534966,72	0,200000003	2,28696394	0,00055533760375363955	0,1999177832810201	0,000457204762	-1,2398712078145755	0,046261261788130349	0,51090352926269555
1	1	0	0	0	0	2	535196,73	0,200000003	2,28818321	0,00055534734539770426	0,19992129020703011	0,000457456539	-1,2270982890642264	0,045784687016182918	0,5236764480130457
1	1	0	0	0	0	2	535426,73	0,200000003	2,28904033	0,00055534703036232128	0,19992117679642186	0,000457627641	-1,2143252918023197	0,045308109314863718	0,53644944527495232
1	1	0	0	0	0	2	535656,73	0,200000003	2,29027843	0,00055534041038403904	0,19991879364899114	0,000457869697	-1,2015523481949418	0,044831533615467117	0,54922238888233075
1	1	0	0	0	0	2	535886,74	0,200000003	2,29142141	0,00055534752400385018	0,19992135450403526	0,00045810407	-1,1887793816120789	0,044354957058824288	0,56199535546519373
1	1	0	0	0	0	2	536116,74	0,200000003	2,29285002	0,0005553452559270793	0,19992053800242054	0,000458387804	-1,1760063919942299	0,043878379642715149	0,57476834508304211
1	1	0	0	0	0	2	536346,75	0,200000003	2,29401183	0,00055534340160257286	0,19991987046278813	0,000458618539	-1,1632334479563093	0,043401803927254426	0,5875412891209632
1	1	0	0	0	0	2	536576,75	0,200000003	2,29530716	0,00055534353637115821	0,19991991897158582	0,000458877621	-1,1504604365241757	0,042925225697225005	0,60031430055309709
1	1	0	0	0	0	2	536806,76	0,200000003	2,29650712	0,00055533843664245478	0,19991808310605405	0,000459113304	-1,1376875477375717	0,042448652043265184	0,61308718933970099
1	1	0	0	0	0	2	537036,76	0,200000003	2,29782152	0,00055534336554424627	0,19991985748668896	0,000459380157	-1,1249147472309229	0,04197208168314919	0,62585998984634995
1	1	0	0	0	0	2	537266,76	0,200000003	2,29883099	0,00055534869863589606	0,1999217773636313	0,000459586387	-1,1121417858880458	0,041495505322017274	0,63863295118922688
1	1	0	0	0	0	2	537496,77	0,200000003	2,30012631	0,00055534411090115699	0,19992012581013821	0,00045984154	-1,0993688164571238	0,04101892865910953	0,65140592062014963
1	1	0	0	0	0	2	537726,77	0,200000003	2,3013835	0,00055534979967110682	0,19992217372886416	0,000460097595	-1,086595878133959	0,040542353156874022	0,66417885894331482
1	1	0	0	0	0	2	537956,78	0,200000003	2,3026979	0,00055535483203000486	0,19992398534404886	0,000460364536	-1,0738228485190829	0,040065774248422029	0,67695188855819149
1	1	0	0	0	0	2	538186,78	0,200000003	2,30384064	0,00055535582789447571	0,19992434384852634	0,000460593816	-1,0610496371017397	0,039589188556675558	0,68972509997553446
1	1	0	0	0	0	2	538416,79	0,200000003	2,30534554	0,00055534472551859091	0,19992034706825962	0,000460885465	-1,0482766015960667	0,039112609428430003	0,70249813548120768
1	1	0	0	0	0	2	538646,79	0,200000003	2,30660272	0,00055533818054861498	0,19991799092331213	0,000461131393	-1,0355037267707317	0,03863603629538391	0,71527101030654285
1	1	0	0	0	0	2	538876,79	0,200000003	2,30761242	0,0005553508771277136	0,19992256160595904	0,000461343792	-1,0227308270374358	0,038159462232988301	0,72804391003983859
1	1	0	0	0	0	2	539106,80	0,200000003	2,30919337	0,00055534544137368602	0,19992060477125469	0,000461655349	-1,0099577798012258	0,037682882667060653	0,74081695727604826
1	1	0	0	0	0	2	539336,80	0,200000003	2,31050754	0,00055533883095449875	0,1999182250650336	0,000461912568	-0,99718497407924339	0,037206312112353542	0,75358976299803046
1	1	0	0	0	0	2	539566,81	0,200000003	2,31178379	0,00055534556717177229	0,19992065004840602	0,00046217331	-0,98441209383298317	0,03672973877704544	0,76636264324429056
1	1	0	0	0	0	2	539796,81	0,200000003	2,3130219	0,00055534579855038061	0,19992073334546822	0,000462421041	-0,97163911069649894	0,036253161602764742	0,77913562638077478
1	1	0	0	0	0	2	540026,82	0,200000003	2,31437445	0,0005553446012263497	0,19992030231458365	0,000462690427	-0,95886616198738867	0,035776585713015648	0,79190857508988506
1	1	0	0	0	0	2	540256,82	0,200000003	2,31591725	0,00055533646037098432	0,19991737167099347	0,000462992088	-0,94609333020150464	0,035300014185829331	0,80468140687576922
1	1	0	0	0	0	2	540486,83	0,200000003	2,31709838	0,00055533865597678554	0,19991816207423965	0,000463230041	-0,9333206418272823	0,034823448009524928	0,81745409524999155
1	1	0	0	0	0	2	540716,83	0,200000003	2,31803179	0,00055534320644206477	0,19991980021097914	0,000463420438	-0,92054776861774707	0,034346874936766496	0,83022696845952666
1	1	0	0	0	0	2	540946,83	0,200000003	2,31925082	0,00055534742252445875	0,19992131797214035	0,000463667675	-0,9077748641587081	0,033870300698047059	0,84299987291856576
1	1	0	0	0	0	2	541176,84	0,200000003	2,32041264	0,00055533890813340749	0,19991825284891901	0,000463892851	-0,89500190209504461	0,033393724310021632	0,85577283498222925
1	1	0	0	0	0	2	541406,84	0,200000003	2,32166982	0,00055533978234810963	0,19991856756030211	0,00046414489	-0,88222907451614643	0,032917152939803616	0,86854566256112742
1	1	0	0	0	0	2	541636,85	0,200000003	2,32271767	0,00055534311686456198	0,19991976796368368	0,000464357174	-0,86945608110984947	0,032440575382342394	0,88131865596742426
1	1	0	0	0	0	2	541866,85	0,200000003	2,32395577	0,00055534539010872448	0,1999205863162151	0,000464606594	-0,85668316434497536	0,031964000684475706	0,8940915727322985
1	1	0	0	0	0	2	542096,86	0,200000003	2,3247366	0,00055534349514461229	0,19991990414194464	0,000464761106	-0,84391017492143027	0,031487423275616307	0,90686456215584358
1	1	0	0	0	0	2	542326,86	0,200000003	2,32578421	0,00055535117645810048	0,19992266936287485	0,000464976998	-0,83113715760869133	0,031010844826173594	0,91963757946858253
1	1	0	0	0	0	2	542556,86	0,200000003	2,32681298	0,00055535310757408544	0,19992336455157517	0,000465184276	-0,81836415460875328	0,030534266910760723	0,93241058246852045
1	1	0	0	0	0	2	542786,87	0,200000003	2,32742238	0,00055535842546241152	0,19992527894611414	0,000465310557	-0,80559090316438451	0,030057679725552102	0,94518383391288934
1	1	0	0	0	0	2	543016,87	0,200000003	2,3277843	0,0005553494242793984	0,1999220385857321	0,000465375371	-0,79281787590758285	0,02958110090508304	0,95795686116969088
1	1	0	0	0	0	2	543246,88	0,200000003	2,32875586	0,00055534747527539725	0,19992133695513955	0,00046556798	-0,78004475327727066	0,029104518526100058	0,9707299838000032
1	1	0	0	0	0	2	543476,88	0,200000003	2,32947969	0,00055535302171359462	0,19992333363306941	0,000465717341	-0,76727167729530662	0,028627937887629677	0,98350305978196723
1	1	0	0	0	0	2	543706,89	0,200000003	2,33018446	0,00055535072753164512	0,19992250775238566	0,000465856312	-0,75449858600207757	0,028151356677875405	0,99627615107519629
1	1	0	0	0	0	2	543936,89	0,200000003	2,33052731	0,00055535959645195136	0,19992570050374221	0,000465932302	-0,7417254145147072	0,027674772475969904	1,0090493225625667
1	1	0	0	0	0	2	544166,89	0,200000003	2,33113694	0,00055536715651965798	0,19992842207701069	0,000466060534	-0,72895222465073331	0,027198187588408611	1,0218225124265413
1	1	0	0	0	0	2	544396,90	0,200000003	2,33140349	0,00055535391282207443	0,19992365443540771	0,000466102705	-0,71617902962216422	0,026721602508149334	1,0345957074551104
1	1	0	0	0	0	2	544626,90	0,200000003	2,33153677	0,00055535371186584237	0,19992358209252266	0,00046612919	-0,70340595335225114	0,026245021858935181	1,0473687837250237
1	1	0	0	0	0	2	544856,91	0,200000003	2,3322227	0,00055534877105967866	0,19992180343570346	0,000466262165	-0,69063284305828992	0,025768439940238045	1,0601418940189851
1	1	0	0	0	0	2	545086,91	0,200000003	2,33227968	0,00055535630200554925	0,19992451452530781	0,000466279889	-0,67785966413070182	0,025291855460728016	1,0729150729465726
1	1	0	0	0	0	2	545316,92	0,200000003	2,33250833	0,00055534663921180691	0,19992103598488086	0,000466317491	-0,66508667280366605	0,024815277980846826	1,0856880642736085
1	1	0	0	0	0	2	545546,92	0,200000003	2,3328321	0,00055535429568092026	0,1999237922620041	0,00046638865	-0,65231364084229133	0,024338698984843808	1,0984610962349835
1	1	0	0	0	0	2	545776,92	0,200000003	2,33306074	0,00055535013299352595	0,19992229372268182	0,000466430851	-0,63954052627559846	0,023862116906725315	1,1112342108016763
1	1	0	0	0	0	2	546006,93	0,200000003	2,33351779	0,00055535848150071174	0,19992529912883299	0,000466529251	-0,62676741733485299	0,023385535038518483	1,1240073197424222
1	1	0	0	0	0	2	546236,93	0,200000003	2,33355594	0,00055534581470986214	0,19992073916975437	0,000466526224	-0,61399430784145485	0,022908953149691434	1,1367804292358203
1	1	0	0	0	0	2	546466,94	0,200000003	2,3336513	0,00055534570444126925	0,19992069946682432	0,0004665452	-0,60122128040697728	0,02243237432259304	1,1495534566702979
1	1	0	0	0	0	2	546696,94	0,200000003	2,33391786	0,0005553436222035024	0,19991994987297683	0,000466596743	-0,58844830426801626	0,021955797409399338	1,1623264328092584
1	1	0	0	0	0	2	546926,95	0,200000003	2,33422279	0,00055534355040556845	0,1999199240355153	0,000466657657	-0,57567538029928723	0,021479222442747133	1,1750993567779872
1	1	0	0	0	0	2	547156,95	0,200000003	2,334337	0,00055534747919523059	0,1999213383732351	0,000466683763	-0,56290237136943078	0,021002644306081037	1,1878723657078434
1	1	0	0	0	0	2	547386,95	0,200000003	2,33458471	0,00055534420142405562	0,19992015839776979	0,000466730533	-0,55012941551873626	0,020526068149869834	1,2006453215585384
1	1	0	0	0	0	2	547616,96	0,200000003	2,33448935	0,00055533894771585862	0,19991826709833386	0,000466707075	-0,53735652801989408	0,020049494543958144	1,2134182090573805
1	1	0	0	0	0	2	547846,96	0,200000003	2,33496547	0,00055534211156020563	0,1999194060609112	0,000466804922	-0,52458368671200237	0,019572922661492918	1,226191050365272
1	1	0	0	0	0	2	548076,97	0,200000003	2,33521318	0,00055534642031457683	0,19992095718335779	0,000466858066	-0,51181081180033651	0,019096349525225699	1,2389639252769378
1	1	0	0	0	0	2	548306,97	0,200000003	2,33521318	0,00055533953937722579	0,19991848009242637	0,000466852274	-0,49903790460551565	0,018619775184430563	1,2517368324717579
1	1	0	0	0	0	2	548536,98	0,200000003	2,33551788	0,00055534293042454451	0,1999197008465377	0,000466916041	-0,48626499875942157	0,018143200893958237	1,2645097383178528
1	1	0	0	0	0	2	548766,98	0,200000003	2,33561325	0,00055534795716487699	0,19992151043907674	0,000466939324	-0,47349201412677395	0,017666623663853667	1,2772827229505003
1	1	0	0	0	0	2	548996,98	0,200000003	2,33584189	0,00055534730916801427	0,19992127716458662	0,000466984493	-0,46071912021895386	0,01719004981881439	1,2900556168583206
1	1	0	0	0	0	2	549226,99	0,200000003	2,33597517	0,00055535057995468378	0,19992245462567722	0,000467013888	-0,4479462055248416	0,016713475198210608	1,3028285315524328
1	1	0	0	0	0	2	549456,99	0,200000003	2,33591795	0,00055534395246124934	0,19992006876353318	0,000466996891	-0,43517327618472486	0,01623690003114471	1,315601460892549
1	1	0	0	0	0	2	549687,00	0,200000003	2,33618474	0,00055534676089303354	0,19992107978464522	0,000467052567	-0,42240034771237818	0,015760324896456474	1,3283743893648957
1	1	0	0	0	0	2	549917,00	0,200000003	2,33637524	0,00055534229048589856	0,19991947047760579	0,000467086909	-0,4096273900387193	0,015283748672228022	1,3411473470385544
1	1	0	0	0	0	2	550147,01	0,200000003	2,33656573	0,00055534923481030598	0,19992197037348493	0,000467130827	-0,39685441926724435	0,014807171959302442	1,3539203178100296
1	1	0	0	0	0	2	550377,01	0,200000003	2,33667994	0,00055534715846429267	0,1999212229122656	0,000467151898	-0,38408142194104333	0,014330594255584328	1,366693315136231
1	1	0	0	0	0	2	550607,02	0,200000003	2,33675599	0,00055535031787140499	0,19992236027746851	0,000467169768	-0,3713083180474512	0,013854012575693571	1,3794664190298234
1	1	0	0	0	0	2	550837,02	0,200000003	2,33690858	0,00055535064962175162	0,19992247970535066	0,00046720056	-0,35853525568007558	0,013377432445201784	1,3922394813971986
1	1	0	0	0	0	2	551067,02	0,200000003	2,33702278	0,00055534338225424294	0,19991986350217482	0,000467217265	-0,34576227876792896	0,012900855503159488	1,4050124583093448
1	1	0	0	0	0	2	551297,03	0,200000003	2,33725142	0,00055533725863695142	0,19991765904134538	0,000467257836	-0,3329892965972297	0,01242427836491352	1,4177854404800437
1	1	0	0	0	0	2	551527,03	0,200000003	2,3375752	0,00055534685067832474	0,19992111211139776	0,000467330625	-0,32021642530089587	0,011947705363539203	1,4305583117763774
1	1	0	0	0	0	2	551757,04	0,200000003	2,33753705	0,00055534983338084493	0,19992218586414205	0,000467325503	-0,30744347653660736	0,011471129471731338	1,4433312605406659
1	1	0	0	0	0	2	551987,04	0,200000003	2,33782291	0,00055534568711370227	0,19992069323599936	0,00046737917	-0,2946704880158121	0,010994552096554749	1,4561042490614611
1	1	0	0	0	0	2	552217,05	0,200000003	2,33793712	0,00055535465913431514	0,19992392310276931	0,000467409554	-0,28189744966585251	0,010517972862185048	1,4688772874114205
1	1	0	0	0	0	2	552447,05	0,200000003	2,33854651	0,0005553551328074601	0,19992409362189949	0,00046753179	-0,26912432834023299	0,01004139053188191	1,4816504087370397
1	1	0	0	0	0	2	552677,05	0,200000003	2,33866096	0,00055535071964810285	0,19992250491436374	0,00046755097	-0,25635117977624355	0,0095648071852785702	1,4944235573010291
1	1	0	0	0	0	2	552907,06	0,200000003	2,33917522	0,0005553509271542231	0,19992257960585485	0,000467653939	-0,24357815502852339	0,0090882284584267085	1,5071965820487494
1	1	0	0	0	0	2	553137,06	0,200000003	2,33968949	0,00055534544615116384	0,19992060648413242	0,000467752136	-0,2308051019281295	0,0086116486736984704	1,5199696351491437
1	1	0	0	0	0	2	553367,07	0,200000003	2,33970857	0,0005553508407920599	0,19992254851605994	0,000467760488	-0,21803208307030765	0,0081350701666066342	1,5327426540069654
1	1	0	0	0	0	2	553597,07	0,200000003	2,34008956	0,00055535634015666118	0,19992452825945024	0,00046784131	-0,20525904387672541	0,0076584909007602355	1,5455156932005475
1	1	0	0	0	0	2	553827,08	0,200000003	2,34087062	0,00055534629002627398	0,1999209102804495	0,000467988983	-0,1924861188215825	0,0071819158935724698	1,5582886182556902
1	1	0	0	0	0	2	554057,08	0,200000003	2,34104204	0,0005553422591355111	0,19991945918702358	0,000468019862	-0,1797131627009193	0,0067053397272883725	1,5710615743763539
1	1	0	0	0	0	2	554287,08	0,200000003	2,34153724	0,00055534921956972941	0,19992196489628976	0,000468124723	-0,16694018108270941	0,0062287626096565286	1,5838345559945638
1	1	0	0	0	0	2	554517,09	0,200000003	2,34218478	0,00055534769718431763	0,19992141684783286	0,000468252896	-0,15416712924495373	0,0057521828720390189	1,5966076078323194
1	1	0	0	0	0	2	554747,09	0,200000003	2,34281349	0,00055535086771845811	0,19992255821869069	0,000468381273	-0,14139415340217893	0,0052756059698964218	1,6093805836750944
1	1	0	0	0	0	2	554977,10	0,200000003	2,34328961	0,0005553444543563657	0,19992024945169158	0,000468471058	-0,12862125544482747	0,0047990319737636883	1,6221534816324458
1	1	0	0	0	0	2	555207,10	0,200000003	2,34382296	0,00055533860814323027	0,1999181448544831	0,000468572747	-0,11584839760638302	0,0043224594745213165	1,6349263394708899
1	1	0	0	0	0	2	555437,11	0,200000003	2,34439445	0,00055535054992056563	0,19992244381359766	0,000468697079	-0,10307555191284854	0,003845887428421863	1,6476991851644237
1	1	0	0	0	0	2	555667,11	0,200000003	2,34502292	0,00055534873477700678	0,19992179037418685	0,000468821177	-0,090302621182066099	0,0033693122094683546	1,6604721158952061
1	1	0	0	0	0	2	555897,11	0,200000003	2,34549928	0,00055534957799646592	0,199922093927492	0,000468917133	-0,077529710399252032	0,0028927377348003674	1,6732450266780202
1	1	0	0	0	0	2	556127,12	0,200000003	2,3462801	0,0005553487711697817	0,1999218034660304	0,000469072547	-0,064756719325227251	0,0024161602643593552	1,6860180177520451
1	1	0	0	0	0	2	556357,12	0,200000003	2,34702301	0,00055534975759933395	0,19992215857632832	0,000469221908	-0,051983619467643597	0,0019395787350575008	1,6987911176096288
1	1	0	0	0	0	2	556587,13	0,200000003	2,34725165	0,00055534788881904544	0,19992148583503942	0,00046926603	-0,039210573237807578	0,0014629992066790138	1,711564163839465
1	1	0	0	0	0	2	556817,13	0,200000003	2,34816599	0,0005553524004742503	0,19992310999110502	0,000469452643	-0,026437529876264624	0,00098641978532039731	1,7243372072010077
1	1	0	0	0	0	2	557047,14	0,200000003	2,34892797	0,00055535189560386867	0,19992292825049002	0,000469604565	-0,013664518236515613	0,00050984154754456333	1,7371102188407565
1	1	0	0	0	0	2	557277,14	0,200000003	2,34949946	0,00055534963216301466	0,19992211342708336	0,000469716906	-0,00089150683911908493	3,3263318811226426E-005	1,749883230238153
1	1	0	0	0	0	2	557507,14	0,200000003	2,35026121	0,00055535175981124237	0,1999228793660625	0,000469870982	0,011881560737319928	-0,00044331700603771917	1,7626562978145917
1	1	0	0	0	0	2	557737,15	0,200000003	2,3511374	0,00055534979858828915	0,19992217333905715	0,000470044499	0,024654651680710224	-0,00091989820273903424	1,7754293887579821
1	1	0	0	0	0	2	557967,15	0,200000003	2,35186124	0,00055534668558422067	0,19992105267863632	0,000470186584	0,037427633299774394	-0,0013964753204027538	1,7882023703770461
1	1	0	0	0	0	2	558197,16	0,200000003	2,3527565	0,00055534304959326982	0,19991974374647325	0,000470362487	0,050200541415473453	-0,0018730496955570941	1,8009752784927453
1	1	0	0	0	0	2	558427,16	0,200000003	2,35357571	0,00055534605970895955	0,19992082736777322	0,000470528816	0,062973473366675085	-0,0023496249600460829	1,8137482104439472
1	1	0	0	0	0	2	558657,17	0,200000003	2,35468054	0,00055534574718442227	0,19992071486105245	0,000470749423	0,075746462493481536	-0,0028262023578337613	1,8265211995707536
1	1	0	0	0	0	2	558887,17	0,200000003	2,35565186	0,00055534312428451251	0,19991977063481571	0,000470941392	0,088519435515566643	-0,0033027791547326323	1,8392941725928387
1	1	0	0	0	0	2	559117,17	0,200000003	2,35649014	0,0005553481440544128	0,19992157771804627	0,000471113221	0,10129248381643558	-0,0037793587603841427	1,8520672208937078
1	1	0	0	0	0	2	559347,18	0,200000003	2,35725188	0,00055534387120935654	0,19992003952271034	0,000471261883	0,11406545136884912	-0,0042559353532022144	1,8648401884461216
1	1	0	0	0	0	2	559577,18	0,200000003	2,35807109	0,00055534605776021875	0,19992082665693037	0,000471427513	0,12683849020845755	-0,0047325146058413741	1,8776132272857302
1	1	0	0	0	0	2	559807,19	0,200000003	2,35896635	0,00055534840292897491	0,19992167090415661	0,00047160848	0,13961151988574019	-0,0052090935166218387	1,8903862569630131
1	1	0	0	0	0	2	560037,19	0,200000003	2,35995674	0,00055535017568866419	0,19992230908333354	0,000471807987	0,15238444256661565	-0,0056856684352224941	1,903159179643889
1	1	0	0	0	0	2	560267,20	0,200000003	2,36069965	0,00055534721161176762	0,19992124204499731	0,000471954001	0,16515751485703373	-0,0061622489359563366	1,9159322519343066
1	1	0	0	0	0	2	560497,20	0,200000003	2,36188078	0,00055535079576240653	0,19992253231499853	0,000472193176	0,17793064533490842	-0,0066388316077424179	1,9287053824121814
1	1	0	0	0	0	2	560727,21	0,200000003	2,36302352	0,00055535449508991501	0,19992386404789421	0,000472424785	0,19070379100248205	-0,0071154148462765914	1,9414785280797552
1	1	0	0	0	0	2	560957,21	0,200000003	2,36374736	0,00055535858508530586	0,19992533641858666	0,000472572981	0,20347692206051936	-0,007591997539709321	1,954251659137792
1	1	0	0	0	0	2	561187,21	0,200000003	2,36494756	0,00055535277978496422	0,19992324654970733	0,000472807995	0,21625001458064781	-0,0080685787952408576	1,9670247516579203
1	1	0	0	0	0	2	561417,22	0,200000003	2,36591887	0,0005553530250746343	0,1999233348523304	0,000473002379	0,22902316344941888	-0,0085451621532160115	1,9797979005266918
1	1	0	0	0	0	2	561647,22	0,200000003	2,3669095	0,00055535568164206214	0,19992429119864611	0,000473202701	0,24179634273839805	-0,0090217466462100288	1,9925710798156714
1	1	0	0	0	0	2	561766,50	0,200000003	2,36744285	0,0005153791899780432	0,1999275176608017	0,000473316963	0,24842071297447114	-0,0092689108062784243	1,9991954500517443