File: Experimentelles/Rohdaten/Batteriemessungen/AlteZelle/Studenten_Batterietests/S vs Li GCPL 300µm/ECLab-Export/S vs Li GCPL 300µm_02_GCPL_C06_loop2.mpt
EC-Lab ASCII FILE
Nb header lines : 3
mode	ox/red	error	control changes	Ns changes	counter inc.	Ns	time/s	control/V/mA	Ewe/V	dq/mA.h	<I>/mA	P/W	(Q-Qo)/mA.h	x	Capacity/mA.h
1	0	0	1	1	0	1	147600,09	-0,200000003	2,32591772	0	0	0	0	0	0
1	0	0	1	0	0	1	147850,09	-0,200000003	2,28879261	-0,00055585696510887808	-0,20010847612978522	0,000458006805	-0,01389375002375119	0,00051839449373173856	0,01389375002375119
1	0	0	1	0	0	1	148100,09	-0,200000003	2,28252578	-0,00055586272030654874	-0,20011054800062246	0,000456757494	-0,027790198121024074	0,0010368896562141701	0,027790198121024074
1	0	0	1	0	0	1	148350,09	-0,200000003	2,2773447	-0,00055585033397128179	-0,20010608892062403	0,000455710542	-0,041686641406872602	0,0015553846391758896	0,041686641406872602
1	0	0	1	0	0	1	148600,09	-0,200000003	2,27258253	-0,0005558566781249312	-0,20010837281558048	0,000454762805	-0,055583167549976429	0,0020738827136532074	0,055583167549976429
1	0	0	1	0	0	1	148850,09	-0,200000003	2,26827765	-0,0005558617246167527	-0,200110189552352	0,000453905464	-0,069479690307597696	0,0025923806618136186	0,069479690307597696
1	0	0	1	0	0	1	149100,09	-0,200000003	2,26395369	-0,00055585138958113062	-0,20010646894011014	0,000453031767	-0,083376137325959411	0,0031108757840404243	0,083376137325959411
1	0	0	1	0	0	1	149350,09	-0,200000003	2,25951552	-0,00055585862775809235	-0,2001090746834087	0,000452149572	-0,09727259285535863	0,0036293712238254816	0,09727259285535863
1	0	0	1	0	0	1	149600,09	-0,200000003	2,25534391	-0,00055585543054259482	-0,20010792368600966	0,000451312197	-0,11116900849211997	0,0041478651751625837	0,11116900849211997
1	0	0	1	0	0	1	149850,09	-0,200000003	2,25119138	-0,00055586176973250176	-0,20011020579401907	0,000450486375	-0,12506543060340102	0,0046663593680727219	0,12506543060340102
1	0	0	1	0	0	1	150100,09	-0,200000003	2,24684834	-0,00055586932075189216	-0,2001129241605743	0,000449623389	-0,13896204147036482	0,0051848606037111667	0,13896204147036482
1	0	0	1	0	0	1	150350,09	-0,200000003	2,24195313	-0,0005558556805857353	-0,20010801370152614	0,000448632782	-0,15285859096563552	0,0057033595494892282	0,15285859096563552
1	0	0	1	0	0	1	150600,09	-0,200000003	2,23682904	-0,00055586176021562682	-0,20011020236794467	0,000447612314	-0,16675519264237606	0,006221860442228087	0,16675519264237606
1	0	0	1	0	0	1	150850,09	-0,200000003	2,23060036	-0,00055585690625260275	-0,20010845494152938	0,000446361984	-0,18065175453622413	0,0067403598506137395	0,18065175453622413
1	0	0	1	0	0	1	151100,09	-0,200000003	2,22378111	-0,00055585766117854246	-0,20010872671482518	0,000444998004	-0,19454817491479818	0,0072588539788742502	0,19454817491479818
1	0	0	1	0	0	1	151350,09	-0,200000003	2,21627593	-0,00055585502359602182	-0,2001077771852663	0,000443494064	-0,20844461876224826	0,0077773489827900787	0,20844461876224826
1	0	0	1	0	0	1	151600,09	-0,200000003	2,2079711	-0,00055585786474578918	-0,2001087999990225	0,000441834447	-0,22234098871886502	0,0082958412297395699	0,22234098871886502
1	0	0	1	0	0	1	151850,09	-0,200000003	2,19859934	-0,0005558656940865849	-0,20011161856126794	0,000439965283	-0,23623740121565446	0,0088143350639200973	0,23623740121565446
1	0	0	1	0	0	1	152100,09	-0,200000003	2,18837047	-0,00055586212677674163	-0,20011033432992534	0,000437915558	-0,25013390141359648	0,0093328321703485453	0,25013390141359648
1	0	0	1	0	0	1	152350,09	-0,200000003	2,1775701	-0,00055585009603616275	-0,20010600326399456	0,000435744849	-0,26403021312566611	0,009851322244115671	0,26403021312566611
1	0	0	1	0	0	1	152600,09	-0,200000003	2,16562676	-0,00055585380542195507	-0,20010733864267085	0,000433357811	-0,27792657437079494	0,010369814166027834	0,27792657437079494
1	0	0	1	0	0	1	152850,09	-0,200000003	2,15345502	-0,00055585424544993376	-0,20010749705271843	0,00043092249	-0,29182293549593798	0,010888306083463165	0,29182293549593798
1	0	0	1	0	0	1	153100,09	-0,200000003	2,14088321	-0,00055584881683107885	-0,20010554275023642	0,000428402593	-0,30571918514240634	0,011406793841479261	0,30571918514240634
1	0	0	1	0	0	1	153350,09	-0,200000003	2,12777805	-0,000555855964557992	-0,20010811593152256	0,000425785664	-0,31961550240558323	0,011925284122365662	0,31961550240558323
1	0	0	1	0	0	1	153600,09	-0,200000003	2,11453938	-0,00055584389027787584	-0,20010376919136083	0,000423127291	-0,33351166479216371	0,012443768624598016	0,33351166479216371
1	0	0	1	0	0	1	153850,09	-0,200000003	2,10107231	-0,00055584740080767206	-0,20010503298188973	0,000420435157	-0,34740777545169107	0,012962251196824474	0,34740777545169107
1	0	0	1	0	0	1	154100,09	-0,200000003	2,08745289	-0,00055584625447044768	-0,2001046203005535	0,000417708972	-0,36130402152854477	0,013480738821653445	0,36130402152854477
1	0	0	1	0	0	1	154350,09	-0,200000003	2,07425237	-0,0005558393560830089	-0,20010213688146416	0,000415062328	-0,37520016084306541	0,013999222463036227	0,37520016084306541
1	0	0	1	0	0	1	154600,09	-0,200000003	2,06314731	-0,0005558393066881431	-0,20010211909931523	0,000412840134	-0,38909618183538656	0,014517701689658662	0,38909618183538656
1	0	0	1	0	0	1	154850,09	-0,200000003	2,05484223	-0,00055585003487765792	-0,20010598124693626	0,000411186222	-0,40299227088789901	0,015036183455698339	0,40299227088789901
1	0	0	1	0	0	1	155100,09	-0,200000003	2,04960394	-0,00055584699727346502	-0,20010488770959795	0,000410135777	-0,41688832363276614	0,015554663867050954	0,41688832363276614
1	0	0	1	0	0	1	155350,09	-0,200000003	2,04581332	-0,00055584297289202605	-0,20010343893250659	0,000409374275	-0,43078438585101984	0,016073144631868365	0,43078438585101984
1	0	0	1	0	0	1	155600,09	-0,200000003	2,04411817	-0,00055584324284311802	-0,20010353611488448	0,000409035274	-0,44468053098740595	0,016591628490472774	0,44468053098740595
1	0	0	1	0	0	1	155850,09	-0,200000003	2,04308963	-0,00055585477581785779	-0,20010768798514118	0,00040883795	-0,45857676819420614	0,017110115784348125	0,45857676819420614
1	0	0	1	0	0	1	156100,09	-0,200000003	2,04347038	-0,00055584799382587277	-0,20010524646840861	0,000408909138	-0,47247300461752954	0,017628603048990902	0,47247300461752954
1	0	0	1	0	0	1	156350,09	-0,200000003	2,04476571	-0,00055584867624441773	-0,20010549213904637	0,000409168861	-0,48636921143402573	0,018147089208963146	0,48636921143402573
1	0	0	1	0	0	1	156600,09	-0,200000003	2,04672766	-0,00055585403416305773	-0,20010742098945498	0,0004095654	-0,50026559947489536	0,018665582130660426	0,50026559947489536
1	0	0	1	0	0	1	156850,09	-0,200000003	2,04933739	-0,00055585619449367123	-0,20010819870835414	0,000410089211	-0,514161985301936	0,019184074969756771	0,514161985301936
1	0	0	1	0	0	1	157100,09	-0,200000003	2,05209923	-0,00055585774901674848	-0,20010875833657437	0,000410643028	-0,52805853321087226	0,01970257385634656	0,52805853321087226
1	0	0	1	0	0	1	157350,09	-0,200000003	2,05449939	-0,00055586153557399904	-0,2001101214969713	0,000411126122	-0,54195501415735245	0,020221070244477085	0,54195501415735245
1	0	0	1	0	0	1	157600,09	-0,200000003	2,05659461	-0,00055585714346915482	-0,20010854033947475	0,000411542132	-0,55585150229293446	0,020739566900842659	0,55585150229293446
1	0	0	1	0	0	1	157850,09	-0,200000003	2,05863285	-0,00055585034716874362	-0,20010609367170954	0,000411944988	-0,56974780456095942	0,021258056622239782	0,56974780456095942
1	0	0	1	0	0	1	158100,09	-0,200000003	2,06080437	-0,00055586086507721088	-0,20010988011816531	0,000412387308	-0,58364420608649165	0,021776550047067949	0,58364420608649165
1	0	0	1	0	0	1	158350,09	-0,200000003	2,06270909	-0,00055586429036408659	-0,20011111322124765	0,000412771013	-0,59754075170936371	0,022295048848361616	0,59754075170936371
1	0	0	1	0	0	1	158600,09	-0,200000003	2,06434727	-0,00055586514393736922	-0,20011142050758128	0,000413099478	-0,61143731541284992	0,022813548324267299	0,61143731541284992
1	0	0	1	0	0	1	158850,09	-0,200000003	2,06554747	-0,00055586376435309651	-0,20011092385732086	0,000413338625	-0,62533385692707328	0,023332046972261757	0,62533385692707328
1	0	0	1	0	0	1	159100,09	-0,200000003	2,06705213	-0,00055585872227532992	-0,2001091087096089	0,000413635949	-0,63923031142813082	0,023850542373678	0,63923031142813082
1	0	0	1	0	0	1	159350,09	-0,200000003	2,06840467	-0,00055585955849621037	-0,20010940974907869	0,000413907226	-0,65312676930411789	0,024369037901017405	0,65312676930411789
1	0	0	1	0	0	1	159600,09	-0,200000003	2,06964278	-0,0005558667996087008	-0,20011201654916742	0,0004141604	-0,66702329603951974	0,02488753599759416	0,66702329603951974
1	0	0	1	0	0	1	159850,09	-0,200000003	2,07053804	-0,00055586534168985152	-0,20011149169846381	0,000414338458	-0,68091993332855859	0,02540603821907575	0,68091993332855859
1	0	0	1	0	0	1	160100,09	-0,200000003	2,07183337	-0,00055586288835853331	-0,20011060849932742	0,000414595823	-0,69481648197281562	0,025924537133101347	0,69481648197281562
1	0	0	1	0	0	1	160350,09	-0,200000003	2,07272863	-0,00055586801249037184	-0,20011245318650067	0,000414778799	-0,70871305428821235	0,026443036930328992	0,70871305428821235
1	0	0	1	0	0	1	160600,09	-0,200000003	2,07368088	-0,0005558586911236247	-0,20010909749499674	0,000414962415	-0,72260971153997683	0,026961539896646714	0,72260971153997683
1	0	0	1	0	0	1	160850,09	-0,200000003	2,07450008	-0,00055584887715263501	-0,20010556446599322	0,000415119022	-0,73650610984594739	0,02748003320134871	0,73650610984594739
1	0	0	1	0	0	1	161100,09	-0,200000003	2,0754714	-0,0005558639294000135	-0,2001109832742017	0,000415324612	-0,75040252313160755	0,027998527064963066	0,75040252313160755
1	0	0	1	0	0	1	161350,09	-0,200000003	2,07632875	-0,00055586055495341613	-0,2001097684736167	0,000415493676	-0,76429903527634189	0,028517024617142397	0,76429903527634189
1	0	0	1	0	0	1	161600,09	-0,200000003	2,07707167	-0,00055586225690941024	-0,20011038117767869	0,00041564359	-0,77819562330091174	0,029035525000500416	0,77819562330091174
1	0	0	1	0	0	1	161850,09	-0,200000003	2,07783341	-0,00055585944020416998	-0,20010936716395088	0,00041579394	-0,79209213165460493	0,029554022411230906	0,79209213165460493
1	0	0	1	0	0	1	162100,09	-0,200000003	2,07830977	-0,00055585922921862867	-0,20010929120916787	0,00041588911	-0,80598862966565504	0,030072519436063469	0,80598862966565504
1	0	0	1	0	0	1	162350,09	-0,200000003	2,07914782	-0,00055585269085069491	-0,20010693739708003	0,000416051887	-0,81988505452321498	0,030591013731440973	0,81988505452321498
1	0	0	1	0	0	1	162600,09	-0,200000003	2,07970023	-0,0005558644284953673	-0,20011116294850093	0,000416171242	-0,83378158691741568	0,031109512039155117	0,83378158691741568
1	0	0	1	0	0	1	162850,09	-0,200000003	2,08008122	-0,0005558562990857495	-0,20010823636149642	0,000416241382	-0,8476780227167232	0,031628006742783923	0,8476780227167232
1	0	0	1	0	0	1	163100,09	-0,200000003	2,08078599	-0,00055586031146927014	-0,20010968081933782	0,000416385417	-0,86157456045950413	0,032146505250060787	0,86157456045950413
1	0	0	1	0	0	1	163350,09	-0,200000003	2,08112884	-0,00055586180586533414	-0,2001102188018367	0,00041645515	-0,87547105999665306	0,032665002331834157	0,87547105999665306
1	0	0	1	0	0	1	163600,09	-0,200000003	2,08173847	-0,00055586582805216307	-0,20011166678653898	0,000416580151	-0,88936759084801446	0,033183500581982899	0,88936759084801446
1	0	0	1	0	0	1	163850,09	-0,200000003	2,08242416	-0,00055586368262188301	-0,20011089443408858	0,000416715775	-0,90326416039467021	0,033702000275905094	0,90326416039467021
1	0	0	1	0	0	1	164100,09	-0,200000003	2,08276701	-0,00055586495265530221	-0,20011135164604797	0,000416785333	-0,91716074156328525	0,034220500403458214	0,91716074156328525
1	0	0	1	0	0	1	164350,09	-0,200000003	2,08318615	-0,00055586401558832986	-0,20011101430199072	0,000416868483	-0,93105741673569626	0,03473900403841936	0,93105741673569626
1	0	0	1	0	0	1	164600,09	-0,200000003	2,0836432	-0,00055586614726401037	-0,20011178170511562	0,000416961557	-0,94495406345315174	0,035257506611687853	0,94495406345315174
1	0	0	1	0	0	1	164850,09	-0,200000003	2,0839479	-0,00055587028399606547	-0,20011327092842243	0,000417025643	-0,95885081609497306	0,035776013137136845	0,95885081609497306
1	0	0	1	0	0	1	165100,09	-0,200000003	2,08429074	-0,00055586365631471078	-0,20011088496350806	0,000417089264	-0,97274743430723994	0,036294514646838432	0,97274743430723994
1	0	0	1	0	0	1	165350,09	-0,200000003	2,08474803	-0,00055586201267606675	-0,2001102932536888	0,000417179544	-0,98664401088386778	0,03681301460305833	0,98664401088386778
1	0	0	1	0	0	1	165600,09	-0,200000003	2,0851481	-0,00055586270885500646	-0,2001105438780679	0,000417260133	-1,0005406120064912	0,037331515475122342	1,0005406120064912
1	0	0	1	0	0	1	165850,09	-0,200000003	2,08558607	-0,00055586558954997197	-0,20011158092809322	0,000417349918	-1,0144372023641203	0,037850015945529933	1,0144372023641203
1	0	0	1	0	0	1	166100,09	-0,200000003	2,08570051	-0,00055587224413537318	-0,20011397657846282	0,000417377829	-1,0283338299901912	0,038368517806473197	1,0283338299901912
1	0	0	1	0	0	1	166350,09	-0,200000003	2,08594799	-0,00055586067667106784	-0,20010981229196442	0,000417418662	-1,0422304630189514	0,038887019868998061	1,0422304630189514
1	0	0	1	0	0	1	166600,09	-0,200000003	2,08646226	-0,00055586316103322643	-0,2001107066622016	0,000417523435	-1,056127047178328	0,039405520108140518	1,056127047178328
1	0	0	1	0	0	1	166850,09	-0,200000003	2,08650041	-0,00055586330544037958	-0,20011075864876861	0,000417531177	-1,0700235977600288	0,039924019094454746	1,0700235977600288
1	0	0	1	0	0	1	167100,09	-0,200000003	2,08667183	-0,00055586453942540614	-0,20011120288330867	0,000417566422	-1,083920116485381	0,040442516892165779	1,083920116485381
1	0	0	1	0	0	1	167350,09	-0,200000003	2,08682418	-0,00055585983314282362	-0,20010950862184403	0,000417593372	-1,0978166240727549	0,040961014274303866	1,0978166240727549
1	0	0	1	0	0	1	167600,09	-0,200000003	2,08703375	-0,00055586227447208422	-0,20011038750024035	0,000417637144	-1,1117132090440776	0,041479514543741126	1,1117132090440776
1	0	0	1	0	0	1	167850,09	-0,200000003	2,08697653	-0,00055586136060539219	-0,20011005850828269	0,000417625008	-1,1256097326110568	0,04199801252209977	1,1256097326110568
1	0	0	1	0	0	1	168100,09	-0,200000003	2,08709097	-0,00055586027438938611	-0,2001096674705817	0,000417647068	-1,1395061984729528	0,042516508347404179	1,1395061984729528
1	0	0	1	0	0	1	168350,09	-0,200000003	2,08709097	-0,00055586001443697344	-0,20010957388772778	0,000417646894	-1,1534026298677558	0,043035002886694995	1,1534026298677558
1	0	0	1	0	0	1	168600,09	-0,200000003	2,08703375	-0,00055585560034546592	-0,20010798481503366	0,000417632109	-1,1672991440021266	0,043553500513110336	1,1672991440021266
1	0	0	1	0	0	1	168850,09	-0,200000003	2,0868814	-0,00055586291228731475	-0,20011061711368742	0,000417607138	-1,1811957051678885	0,044071999894330118	1,1811957051678885
1	0	0	1	0	0	1	169100,09	-0,200000003	2,08682418	-0,00055586919098926918	-0,20011287744603734	0,000417600386	-1,1950923769115096	0,044590503401358496	1,1950923769115096
1	0	0	1	0	0	1	169350,09	-0,200000003	2,08650041	-0,00055586715177694957	-0,20011214332971712	0,000417534058	-1,2089890018861242	0,045109005163372365	1,2089890018861242
1	0	0	1	0	0	1	169600,09	-0,200000003	2,08613849	-0,00055586348608964019	-0,20011082368249222	0,000417458883	-1,22288559171634	0,045627505614101453	1,22288559171634
1	0	0	1	0	0	1	169850,09	-0,200000003	2,08608127	-0,00055586536114248973	-0,20011149870141245	0,000417448842	-1,2367821820376603	0,046146006083154323	1,2367821820376603
1	0	0	1	0	0	1	170100,09	-0,200000003	2,08571935	-0,00055586316329075232	-0,20011070747491078	0,000417374773	-1,2506787906524682	0,046664507234761792	1,2506787906524682
1	0	0	1	0	0	1	170350,09	-0,200000003	2,08512902	-0,00055586537149631322	-0,20011150242878832	0,000417258299	-1,2645754122276738	0,047183008869939149	1,2645754122276738
1	0	0	1	0	0	1	170600,09	-0,200000003	2,08451939	-0,00055586808740016486	-0,20011248015402195	0,000417138333	-1,2784720048710256	0,047701509425630125	1,2784720048710256
1	0	0	1	0	0	1	170850,09	-0,200000003	2,08390999	-0,00055585775594082144	-0,20010876082924022	0,000417008647	-1,2923686231523032	0,048220010937906592	1,2923686231523032
1	0	0	1	0	0	1	171100,09	-0,200000003	2,083529	-0,0005558625507404407	-0,20011048695683312	0,000416936004	-1,3062651840304203	0,048738510308393946	1,3062651840304203
1	0	0	1	0	0	1	171350,09	-0,200000003	2,08267164	-0,00055586775324245306	-0,20011235985726451	0,000416768336	-1,320161725382452	0,049257008950336819	1,320161725382452
1	0	0	1	0	0	1	171600,09	-0,200000003	2,0818336	-0,0005558657445021801	-0,20011163671087942	0,000416599127	-1,3340583574340762	0,049775510976403418	1,3340583574340762
1	0	0	1	0	0	1	171850,09	-0,200000003	2,08057642	-0,00055585986120253792	-0,20010951872333962	0,000416343159	-1,3479549337023318	0,050294010921117549	1,3479549337023318
1	0	0	1	0	0	1	172100,09	-0,200000003	2,07973838	-0,00055585926656507789	-0,20010930465388746	0,000416174997	-1,3618514963642094	0,050812510358159418	1,3618514963642094
1	0	0	1	0	0	1	172350,09	-0,200000003	2,07830977	-0,00055585832640197542	-0,20010896619522352	0,000415888411	-1,3757479856968016	0,051331007059187046	1,3757479856968016
1	0	0	1	0	0	1	172600,09	-0,200000003	2,07688117	-0,00055585183673103648	-0,20010662991405107	0,000415597693	-1,389644373763283	0,051849499981839942	1,389644373763283
1	0	0	1	0	0	1	172850,09	-0,200000003	2,07533813	-0,0005558496126126912	-0,20010582923623114	0,000415287243	-1,4035407376504517	0,052367992002330157	1,4035407376504517
1	0	0	1	0	0	1	173100,09	-0,200000003	2,07368088	-0,00055584597753319469	-0,20010452060315808	0,000414952927	-1,4174370907850424	0,052886483621627245	1,4174370907850424
1	0	0	1	0	0	1	173350,09	-0,200000003	2,07190943	-0,00055585454044325478	-0,20010760325029738	0,000414604816	-1,4313333825581722	0,053404972951445715	1,4313333825581722
1	0	0	1	0	0	1	173600,09	-0,200000003	2,06996655	-0,00055585438967165024	-0,20010754897252822	0,000414215931	-1,445229702185337	0,053923463320535693	1,445229702185337
1	0	0	1	0	0	1	173850,09	-0,200000003	2,06752849	-0,00055585602492507968	-0,20010813766367072	0,000413729285	-1,4591261502192877	0,054441958480655488	1,4591261502192877
1	0	0	1	0	0	1	174100,09	-0,200000003	2,06486154	-0,00055585747650596832	-0,20010866023270886	0,000413196685	-1,473022595156047	0,054960453525214906	1,473022595156047
1	0	0	1	0	0	1	174350,09	-0,200000003	2,06255674	-0,00055585942461341619	-0,20010936155128038	0,000412736903	-1,4869190239463622	0,055478947967328781	1,4869190239463622
1	0	0	1	0	0	1	174600,09	-0,200000003	2,05962348	-0,00055585946007155706	-0,20010937431620909	0,000412149966	-1,5008154914624058	0,055997443854351667	1,5008154914624058
1	0	0	1	0	0	1	174850,09	-0,200000003	2,05646133	-0,00055586304055485459	-0,20011066328999453	0,000411519839	-1,5147119923076864	0,056515940984933178	1,5147119923076864
1	0	0	1	0	0	1	175100,09	-0,200000003	2,05347085	-0,00055586290694359277	-0,20011061518761818	0,000410921319	-1,5286085375848067	0,057034439773326381	1,5286085375848067
1	0	0	1	0	0	1	175350,09	-0,200000003	2,04968023	-0,00055586656569606726	-0,20011193234063254	0,000410165463	-1,5425051198997866	0,057552939943651917	1,5425051198997866
1	0	0	1	0	0	1	175600,09	-0,200000003	2,04560399	-0,00055586398695409306	-0,20011100399366704	0,000409347878	-1,556401776047552	0,058071442868777946	1,556401776047552
1	0	0	1	0	0	1	175850,09	-0,200000003	2,04167986	-0,00055586808096037971	-0,20011247783569965	0,000408565626	-1,570298467680913	0,05858994711791927	1,570298467680913
1	0	0	1	0	0	1	176100,09	-0,200000003	2,03708935	-0,00055586162686927456	-0,20011015436326531	0,000407642277	-1,5841951153164813	0,059108449725443776	1,5841951153164813
1	0	0	1	0	0	1	176350,09	-0,200000003	2,03240347	-0,00055586346108549171	-0,20011081468100016	0,00040670592	-1,5980916176587274	0,059626946911879104	1,5980916176587274
1	0	0	1	0	0	1	176600,09	-0,200000003	2,02748895	-0,00055585593197991456	-0,20010810420341648	0,000405716972	-1,6119881865253734	0,060145446580429222	1,6119881865253734
1	0	0	1	0	0	1	176850,09	-0,200000003	2,02234602	-0,00055586072619342138	-0,20010983012000896	0,000404691324	-1,6258846753610269	0,060663943262915392	1,6258846753610269
1	0	0	1	0	0	1	177100,09	-0,200000003	2,01653624	-0,00055585508561465478	-0,20010779951197066	0,000403524638	-1,639781139924617	0,061182439039778266	1,639781139924617
1	0	0	1	0	0	1	177350,09	-0,200000003	2,0103457	-0,00055586234047098298	-0,20011041125984016	0,000402291102	-1,6536776893070986	0,061700937981348019	1,6536776893070986
1	0	0	1	0	0	1	177600,09	-0,200000003	2,00371671	-0,00055586226298246118	-0,20011038336397667	0,00040096452	-1,6675741711545456	0,062219434403094822	1,6675741711545456
1	0	0	1	0	0	1	177850,09	-0,200000003	1,99640226	-0,00055585038798716333	-0,20010610836633837	0,000399492274	-1,6814708070559968	0,062737936572803661	1,6814708070559968
1	0	0	1	0	0	1	178100,09	-0,200000003	1,98870671	-0,00055585910605308083	-0,20010924686957757	0,000397958589	-1,6953671959911104	0,063256429527866381	1,6953671959911104
1	0	0	1	0	0	1	178350,09	-0,200000003	1,98045886	-0,00055585476188858355	-0,20010768297060323	0,000396305026	-1,7092636698551827	0,063774925651742746	1,7092636698551827
1	0	0	1	0	0	1	178600,09	-0,200000003	1,97167766	-0,00055586071818239162	-0,20010982723603866	0,000394552073	-1,7231601483704851	0,064293421949162752	1,7231601483704851
1	0	0	1	0	0	1	178850,09	-0,200000003	1,9626869	-0,0005558606726022231	-0,20010981082718054	0,000392752903	-1,7370566831864157	0,064811920347234906	1,7370566831864157
1	0	0	1	0	0	1	179100,10	-0,200000003	1,95327699	-0,00055586009060674253	-0,20010960130884032	0,000390869478	-1,7509531820902477	0,065330417405378342	1,7509531820902477
1	0	0	1	0	0	1	179350,10	-0,200000003	1,94392431	-0,00055584940639138221	-0,20010575499191245	0,000388990447	-1,7648495534685661	0,06584890970537344	1,7648495534685661
1	0	0	1	0	0	1	179600,10	-0,200000003	1,93445742	-0,00055585220646444301	-0,20010676301805658	0,000387098	-1,7787458249767792	0,066367398279080627	1,7787458249767792
1	0	0	1	0	0	1	179850,10	-0,200000003	1,92483807	-0,0005558596651578944	-0,20010944814727898	0,000385178282	-1,7926422319599859	0,066885891907541978	1,7926422319599859
1	0	0	1	0	0	1	180100,10	-0,200000003	1,91487586	-0,00055585551864074336	-0,20010795540133818	0,000383181905	-1,8065385834994269	0,067404383467321869	1,8065385834994269
1	0	0	1	0	0	1	180350,10	-0,200000003	1,90514219	-0,00055586023462315392	-0,20010965315474035	0,000381237332	-1,8204349749152867	0,067922876514944576	1,8204349749152867
1	0	0	1	0	0	1	180600,10	-0,200000003	1,89510369	-0,00055585724159495706	-0,20010857566475802	0,000379226491	-1,8343314201226096	0,068441371569599091	1,8343314201226096
1	0	0	1	0	0	1	180850,10	-0,200000003	1,88533199	-0,00055586030857513344	-0,2001096797774488	0,000377273187	-1,8482278881156214	0,068959867474418278	1,8482278881156214
1	0	0	1	0	0	1	181100,10	-0,200000003	1,87529361	-0,00055586110198911699	-0,20010996540643818	0,000375264935	-1,862124362354705	0,069478363612286822	1,862124362354705
1	0	0	1	0	0	1	181350,10	-0,200000003	1,86508369	-0,00055586367381860806	-0,20011089126491011	0,000373223564	-1,8760209172597094	0,069996862759909325	1,8760209172597094
1	0	0	1	0	0	1	181600,10	-0,200000003	1,85458815	-0,00055586052726291942	-0,20010975850503946	0,00037112119	-1,8899175617108653	0,070515365248619123	1,8899175617108653
1	0	0	1	0	0	1	181850,10	-0,200000003	1,84275925	-0,00055586431468195379	-0,2001111219756785	0,00036875662	-1,9038142187930954	0,07103386820861129	1,9038142187930954
1	0	0	1	0	0	1	182100,10	-0,200000003	1,82858729	-0,00055586518321517446	-0,20011143464758899	0,000365921238	-1,9177108840787226	0,071552371474683238	1,9177108840787226
1	0	0	1	0	0	1	182350,10	-0,200000003	1,81070101	-0,00055586843967023821	-0,20011260697122851	0,000362344086	-1,9316074551730832	0,072070871226352384	1,9316074551730832
1	0	0	1	0	0	1	182600,10	-0,200000003	1,78618598	-0,00055586588778181203	-0,20011168829153885	0,000357436686	-1,945504120327656	0,072589374487534515	1,945504120327656
1	0	0	1	0	0	1	182850,10	-0,200000003	1,75243247	-0,00055587130230913562	-0,20011363752107034	0,000350685645	-1,9594007637266896	0,073107876936988224	1,9594007637266896
1	0	0	1	0	0	1	183100,10	-0,200000003	1,71094549	-0,00055586234433452288	-0,20011041265071434	0,000342378014	-1,9732974405971619	0,073626380635306317	1,9732974405971619
1	0	0	1	0	0	1	183350,10	-0,200000003	1,65343881	-0,00055586107650316429	-0,20010995623149664	0,000330869574	-1,9871939632444192	0,074144878579348902	1,9871939632444192
1	0	0	1	0	0	1	183600,10	-0,200000003	1,57273149	-0,00055586381072137088	-0,20011094054989702	0,00031472079	-2,0010905280267382	0,07466337809550729	2,0010905280267382
1	1	0	0	0	0	2	183840,10	0,200000003	2,29635477	0,00055533439778370995	0,19992035192215898	0,000459088042	-1,9877623126314768	0,074166084459133888	0,013328215395261845
1	1	0	0	0	0	2	184090,10	0,200000003	2,3023932	0,00055535043923722368	0,19992612684452035	0,000460308569	-1,9738786432555677	0,07364806608792672	0,027211884771171542
1	1	0	0	0	0	2	184340,10	0,200000003	2,29020214	0,00055533818960769312	0,19992171697857936	0,000457861141	-1,9599950517484496	0,073130050622108838	0,041095476278289338
1	1	0	0	0	0	2	184590,10	0,200000003	2,27235413	0,00055535108803626573	0,19992636041213894	0,000454303488	-1,9461114887071386	0,07261203621838848	0,054979039319600518
1	1	0	0	0	0	2	184840,10	0,200000003	2,26039171	0,0005553417593886455	0,19992300209952112	0,000451904285	-1,9322277762849126	0,072094016241065344	0,068862751741826573
1	1	0	0	0	0	2	185090,10	0,200000003	2,25376296	0,00055534435781257018	0,19992393753198768	0,000450581167	-1,918344130982079	0,071575998768056986	0,082746397044660378
1	1	0	0	0	0	2	185340,10	0,200000003	2,25020099	0,00055534541549699168	0,19992431829831984	0,000449869898	-1,9044606336834346	0,07105798681728393	0,096629894343305011
1	1	0	0	0	0	2	185590,10	0,200000003	2,24837232	0,00055533669618268813	0,19992117934566166	0,000449497253	-1,8905769768810813	0,070539968915213005	0,11051355114565797
1	1	0	0	0	0	2	185840,10	0,200000003	2,24745798	0,0005553455600523287	0,19992437033823302	0,000449321611	-1,8766934306544694	0,070021955138871706	0,12439709737226957
1	1	0	0	0	0	2	186090,10	0,200000003	2,24675322	0,00055534803444726598	0,19992526112027107	0,000449182728	-1,8628098666170659	0,069503940697985792	0,13828066140967291
1	1	0	0	0	0	2	186340,10	0,200000003	2,24656272	0,00055534386337134566	0,19992375953317472	0,000449141255	-1,8489263646969053	0,068985928574777741	0,15216416332983238
1	1	0	0	0	0	2	186590,10	0,200000003	2,24658179	0,00055533770016580819	0,19992154077952835	0,00044914009	-1,835042896280049	0,068467917701623014	0,16604763174668794
1	1	0	0	0	0	2	186840,10	0,200000003	2,24660087	0,00055533226366589466	0,1999195836398657	0,000449139508	-1,8211594924246416	0,067949909237342746	0,17993103560209526
1	1	0	0	0	0	2	187090,10	0,200000003	2,24684834	0,00055534480488879814	0,19992409847940454	0,000449199142	-1,8072759699236128	0,067431896346234854	0,19381455810312352
1	1	0	0	0	0	2	187340,10	0,200000003	2,24743891	0,00055534580471863347	0,19992445841808893	0,000449318002	-1,793392281641727	0,066913877269620262	0,20769824638500896
1	1	0	0	0	0	2	187590,10	0,200000003	2,24791503	0,00055534266088406246	0,19992332663782045	0,00044941064	-1,7795086251335002	0,066395859378523597	0,22158190289323619
1	1	0	0	0	0	2	187840,10	0,200000003	2,24842954	0,00055534962277197171	0,19992583291707565	0,000449519139	-1,7656249184150006	0,065877839614014182	0,23546560961173565
1	1	0	0	0	0	2	188090,10	0,200000003	2,24909616	0,00055535104059593549	0,19992634333362278	0,000449653569	-1,7517412137674019	0,065359819926772826	0,24934931425933469
1	1	0	0	0	0	2	188340,10	0,200000003	2,24957228	0,00055534590858717754	0,19992449581075898	0,000449744606	-1,7378575449010426	0,064841801574577638	0,26323298312569398
1	1	0	0	0	0	2	188590,10	0,200000003	2,24989605	0,00055534911380377075	0,19992564968855197	0,000449811923	-1,7239738616430058	0,064323782685409626	0,27711666638373066
1	1	0	0	0	0	2	188840,10	0,200000003	2,25082946	0,00055536172373923994	0,19993018926461062	0,000450008753	-1,7100899346334422	0,06380575470154441	0,29100059339329421
1	1	0	0	0	0	2	189090,10	0,200000003	2,25145817	0,00055535249960753651	0,19992686857771693	0,000450126972	-1,6962060108232723	0,063287726837052877	0,30488451720346413
1	1	0	0	0	0	2	189340,10	0,200000003	2,25202966	0,00055535066817452506	0,19992620926193597	0,00045023975	-1,6823220785471014	0,062769698656683456	0,3187684494796343
1	1	0	0	0	0	2	189590,10	0,200000003	2,25281048	0,00055534782819284326	0,19992518686869053	0,000450393563	-1,6684383213769024	0,062251677009753293	0,33265220664983373
1	1	0	0	0	0	2	189840,10	0,200000003	2,25353432	0,00055534739251352013	0,19992503002881357	0,000450537918	-1,654554673834168	0,061733659453171213	0,34653585419256864
1	1	0	0	0	0	2	190090,10	0,200000003	2,2541821	0,00055535719700488781	0,19992855964049882	0,000450675376	-1,6406708747561635	0,06121563624260448	0,36041965327057293
1	1	0	0	0	0	2	190340,10	0,200000003	2,25488687	0,00055534729591674278	0,19992499524932432	0,000450808235	-1,626787033069207	0,060697611442240448	0,37430349495752941
1	1	0	0	0	0	2	190590,10	0,200000003	2,25570583	0,00055533856504741645	0,19992185213685862	0,000450964901	-1,6129032837741427	0,060179590089142131	0,3881872442525936
1	1	0	0	0	0	2	190840,10	0,200000003	2,2564106	0,00055534804835832774	0,19992526612825251	0,000451113476	-1,5990196273767658	0,059661572202181453	0,40207090064997024
1	1	0	0	0	0	2	191090,10	0,200000003	2,25682974	0,0005553479788336489	0,19992524109937203	0,000451197237	-1,5851358744458224	0,059143550713423603	0,41595465358091456
1	1	0	0	0	0	2	191340,10	0,200000003	2,25766778	0,00055534772002283072	0,19992514793680179	0,000451364554	-1,5712521647255971	0,058625530836915738	0,42983836330114035
1	1	0	0	0	0	2	191590,10	0,200000003	2,25837255	0,00055534903102450906	0,19992561988802243	0,000451506523	-1,5573684928161059	0,058107512371177216	0,44372203521063155
1	1	0	0	0	0	2	191840,10	0,200000003	2,2592299	0,00055535495311601299	0,19992775184063027	0,000451682747	-1,5434845572853942	0,057589484069376512	0,45760597074134304
1	1	0	0	0	0	2	192090,10	0,200000003	2,25995374	0,0005553594430834055	0,19992936822863869	0,000451831118	-1,529600667175456	0,05707145746228592	0,47148986085128179
1	1	0	0	0	0	2	192340,10	0,200000003	2,26071548	0,00055535663488258912	0,19992835727650294	0,000451981119	-1,5157167326444966	0,056553429197787322	0,48537379538224122
1	1	0	0	0	0	2	192590,10	0,200000003	2,26132512	0,00055536391830030419	0,19993097930647014	0,000452108943	-1,5018327375730838	0,056035398674442995	0,49925779045365414
1	1	0	0	0	0	2	192840,10	0,200000003	2,26222038	0,00055536098669552134	0,19992992392891344	0,000452285545	-1,4879487575864406	0,055517368713931712	0,51314177044029696
1	1	0	0	0	0	2	193090,10	0,200000003	2,26322985	0,0005553575928020809	0,19992870212746605	0,000452484615	-1,4740647912619149	0,054999339263172403	0,52702573676482259
1	1	0	0	0	0	2	193340,10	0,200000003	2,26368713	0,00055535537318554195	0,19992790306563706	0,000452574226	-1,4601809229802992	0,054481313470525882	0,54090960504643782
1	1	0	0	0	0	2	193590,10	0,200000003	2,2645824	0,00055534868939883187	0,19992549690279789	0,000452747772	-1,4462970630729846	0,053963287990335808	0,55479346495375194
1	1	0	0	0	0	2	193840,10	0,200000003	2,26530623	0,00055535623738583597	0,19992821417769418	0,000452898617	-1,432413139248037	0,053445260125292883	0,56867738877869946
1	1	0	0	0	0	2	194090,10	0,200000003	2,26603007	0,00055535146494954822	0,19992649610089942	0,000453039451	-1,4185292539347507	0,052927233697171834	0,58256127409198618
1	1	0	0	0	0	2	194340,10	0,200000003	2,26696348	0,00055535017872932877	0,19992603306169286	0,000453225017	-1,4046454502048035	0,052409210313034861	0,59644507782193267
1	1	0	0	0	0	2	194590,10	0,200000003	2,26768732	0,00055535231202178534	0,19992680104685709	0,000453371467	-1,3907616235628494	0,051891186074020102	0,61032890446388723
1	1	0	0	0	0	2	194840,10	0,200000003	2,26846814	0,00055536017690847322	0,1999296324056217	0,000453534012	-1,3768776484432206	0,051373156295103661	0,62421287958351603
1	1	0	0	0	0	2	195090,10	0,200000003	2,26902056	0,00055535157751705907	0,19992653662519699	0,000453637418	-1,3629937117055934	0,050855127948271315	0,63809681632114368
1	1	0	0	0	0	2	195340,10	0,200000003	2,26959205	0,00055536377089718982	0,19993092624135728	0,000453761633	-1,3491097967845744	0,050337100415445952	0,65198073124216358
1	1	0	0	0	0	2	195590,10	0,200000003	2,27062058	0,00055534549581921766	0,19992434721431664	0,000453952351	-1,3352259234986232	0,049819074436080947	0,66586460452811546
1	1	0	0	0	0	2	195840,10	0,200000003	2,27134442	0,00055535651267319917	0,19992831328112944	0,000454106048	-1,3213420970136662	0,049301050202923955	0,67974843101307226
1	1	0	0	0	0	2	196090,10	0,200000003	2,2721827	0,00055535535868091712	0,19992789784397293	0,000454272726	-1,3074581435243293	0,048783021231062797	0,69363238450240883
1	1	0	0	0	0	2	196340,10	0,200000003	2,2729826	0,00055535242922355738	0,19992684323948842	0,000454430236	-1,2935742160845181	0,048264993231144454	0,70751631194222016
1	1	0	0	0	0	2	196590,10	0,200000003	2,27378273	0,0005553576188791129	0,1999287115151961	0,000454594439	-1,2796902936718013	0,047746965418793779	0,72140023435493683
1	1	0	0	0	0	2	196840,10	0,200000003	2,27467799	0,00055536491192297805	0,19993133701057674	0,000454779423	-1,2658063654365387	0,04722893738919609	0,73528416259019955
1	1	0	0	0	0	2	197090,10	0,200000003	2,27538276	0,00055535497957881952	0,19992776136723914	0,000454912195	-1,2519225285762971	0,046710912768923277	0,74916799945044083
1	1	0	0	0	0	2	197340,10	0,200000003	2,27631617	0,00055535043388356768	0,19992612491720451	0,000455095083	-1,2380387546966443	0,046192890498540915	0,76305177333009382
1	1	0	0	0	0	2	197590,10	0,200000003	2,27726841	0,00055535151548683642	0,19992651429432035	0,000455286325	-1,224155051301856	0,045674870858043622	0,77693547672488205
1	1	0	0	0	0	2	197840,10	0,200000003	2,27806854	0,00055535687792715104	0,19992844477253155	0,000455450703	-1,2102711915739654	0,04515684538454809	0,79081933645277286
1	1	0	0	0	0	2	198090,10	0,200000003	2,27888751	0,00055535615322987238	0,19992818388155206	0,00045561383	-1,1963871501592714	0,044638813132073638	0,80470337786746778
1	1	0	0	0	0	2	198340,10	0,200000003	2,27953529	0,00055536701434188422	0,19993209388126458	0,000455752277	-1,1825030877221299	0,044120780095223405	0,81858744030461005
1	1	0	0	0	0	2	198590,10	0,200000003	2,28056383	0,0005553525519925687	0,1999268874363256	0,000455946021	-1,1686191525143568	0,043602751805471968	0,83247137551238272
1	1	0	0	0	0	2	198840,10	0,200000003	2,28166866	0,00055536021048078931	0,19992964449165363	0,000456173206	-1,1547352766884035	0,04308472573133607	0,84635525133833587
1	1	0	0	0	0	2	199090,10	0,200000003	2,28248763	0,0005553601732444432	0,1999296310865711	0,000456336915	-1,1408513317225778	0,042566697077498573	0,86023919630416205
1	1	0	0	0	0	2	199340,10	0,200000003	2,28326869	0,0005553677555024624	0,19993236069903098	0,000456499285	-1,1269672513786218	0,042048663372521011	0,87412327664811891
1	1	0	0	0	0	2	199590,10	0,200000003	2,2841258	0,00055535798553542957	0,19992884351144944	0,000456662645	-1,1130831430133163	0,041530628622029235	0,88800738501342374
1	1	0	0	0	0	2	199840,10	0,200000003	2,28509736	0,00055535927274988762	0,19992930690858186	0,000456857932	-1,0991991745280381	0,041012599090649338	0,90189135349870221
1	1	0	0	0	0	2	200090,10	0,200000003	2,28599262	0,0005553561912683977	0,19992819757541904	0,000457034388	-1,0853150668418157	0,040494564365495059	0,9157754611849257
1	1	0	0	0	0	2	200340,10	0,200000003	2,28684974	0,00055536325534929837	0,19993074064414538	0,000457211572	-1,0714310305343698	0,039976532303578899	0,9296594974923712
1	1	0	0	0	0	2	200590,10	0,200000003	2,28791642	0,00055536589656439091	0,19993169148142995	0,000457426999	-1,05754699336124	0,039458500209362918	0,94354353466550106
1	1	0	0	0	0	2	200840,10	0,200000003	2,28867841	0,00055535792275932102	0,19992882091205389	0,00045757278	-1,0436629512530336	0,038940467931012576	0,95742757677370726
1	1	0	0	0	0	2	201090,10	0,200000003	2,28959274	0,00055535863008432915	0,19992907554901699	0,000457756163	-1,0297789148628558	0,038422435866009587	0,97131161316388506
1	1	0	0	0	0	2	201340,10	0,200000003	2,29046893	0,0005553480126419001	0,19992525327034058	0,000457922579	-1,0158950766661522	0,037904411195871584	0,9851954513605879
1	1	0	0	0	0	2	201590,10	0,200000003	2,29164982	0,0005553503066947063	0,1999260791292216	0,000458160561	-1,002011306134791	0,037386389050418496	0,9990792218919497
1	1	0	0	0	0	2	201840,10	0,200000003	2,29262137	0,00055536149623493357	0,19993010736307312	0,000458364026	-0,98812732682678234	0,036868359115227974	1,0129632011999586
1	1	0	0	0	0	2	202090,10	0,200000003	2,29361176	0,00055536890940699315	0,19993277610459702	0,00045856816	-0,97424326916741619	0,036350326256642957	1,026847258859324
1	1	0	0	0	0	2	202340,10	0,200000003	2,29464054	0,00055535472952077786	0,19992767134635821	0,000458762137	-0,96035923273422835	0,035832294190035206	1,0407312952925112
1	1	0	0	0	0	2	202590,10	0,200000003	2,29551673	0,00055536467151426611	0,19993125046345398	0,00045894552	-0,94647525322962573	0,035314264247509504	1,0546152747971141
1	1	0	0	0	0	2	202840,10	0,200000003	2,29675484	0,00055535889467679795	0,19992917080229085	0,000459188304	-0,93259127209996992	0,03479623424435088	1,0684992559267691
1	1	0	0	0	0	2	203090,10	0,200000003	2,29778337	0,00055536239140811891	0,19993042962536944	0,000459396804	-0,91870723415083686	0,034278202121181165	1,0823832938759026
1	1	0	0	0	0	2	203340,10	0,200000003	2,29869771	0,00055535168975674438	0,19992657703147741	0,000459570758	-0,90482333922013056	0,033760175334221242	1,096267188806609
1	1	0	0	0	0	2	203590,10	0,200000003	2,29978347	0,00055536780735105274	0,19993237936452054	0,000459801173	-0,89093924748429069	0,033242141204197184	1,1101512805424486
1	1	0	0	0	0	2	203840,10	0,200000003	2,3007741	0,00055536198324710125	0,19993028268742605	0,000459994422	-0,87705512973293235	0,032724106103499149	1,1240353982938072
1	1	0	0	0	0	2	204090,10	0,200000003	2,30184078	0,00055536838781999213	0,19993258833330605	0,000460212992	-0,86317101132447501	0,032206070978283872	1,1379195167022645
1	1	0	0	0	0	2	204340,10	0,200000003	2,30305982	0,00055537999206946957	0,19993676586246429	0,000460466341	-0,84928666115855386	0,031688027205886016	1,1518038668681854
1	1	0	0	0	0	2	204590,10	0,200000003	2,30437422	0,00055537413605633709	0,19993465769806646	0,000460724259	-0,8354024170990071	0,031169987392459648	1,1656881109277333
1	1	0	0	0	0	2	204840,10	0,200000003	2,30521226	0,00055537281300541421	0,19993418139980877	0,000460890733	-0,82151824087309466	0,030651950109997382	1,179572287153645
1	1	0	0	0	0	2	205090,10	0,200000003	2,30650759	0,00055535962816576166	0,19992943485827648	0,000461138756	-0,80763419953626138	0,030133917860428019	1,1934563284904784
1	1	0	0	0	0	2	205340,10	0,200000003	2,30761242	0,00055535779081119437	0,19992877341073571	0,000461358111	-0,79375014269874496	0,029615885032507328	1,2073403853279954
1	1	0	0	0	0	2	205590,10	0,200000003	2,30888844	0,00055537178318616416	0,19993381066493674	0,000461624877	-0,77986603592113152	0,02909785034125447	1,2212244921056088
1	1	0	0	0	0	2	205840,10	0,200000003	2,31001234	0,0005553604070891936	0,19992971527066806	0,0004618401	-0,7659819594981696	0,02857981678257447	1,2351085685285712
1	1	0	0	0	0	2	206090,10	0,200000003	2,3112886	0,00055536273083007994	0,19993055181725629	0,000462097203	-0,75209788121756147	0,0280617831545832	1,2489926468091786
1	1	0	0	0	0	2	206340,10	0,200000003	2,31229806	0,00055536176386144422	0,19993020370860189	0,000462298223	-0,73821378488272691	0,027543748852964464	1,2628767431440136
1	1	0	0	0	0	2	206590,10	0,200000003	2,31357431	0,00055535863084594413	0,19992907582319834	0,000462550786	-0,72432975609394419	0,027025717071579738	1,2767607719327966
1	1	0	0	0	0	2	206840,10	0,200000003	2,31454587	0,00055536212270706893	0,19993033289300656	0,000462747936	-0,71044583570762739	0,026507689334836765	1,2906446923191134
1	1	0	0	0	0	2	207090,10	0,200000003	2,31580305	0,00055535386091801856	0,19992735864941379	0,000462992379	-0,69656184223796429	0,025989658871255875	1,3045286857887763
1	1	0	0	0	0	2	207340,10	0,200000003	2,31706023	0,000555364173365136	0,19993107112979523	0,000463252334	-0,6826778527465993	0,025471628556110643	1,3184126752801419
1	1	0	0	0	0	2	207590,10	0,200000003	2,3178792	0,00055535775405334106	0,19992876017791062	0,000463410717	-0,66879384863848333	0,024953597695594778	1,3322966793882581
1	1	0	0	0	0	2	207840,10	0,200000003	2,31864119	0,00055535632791618509	0,19992824676861482	0,000463561853	-0,65490993156837606	0,024435570082584042	1,3461805964583651
1	1	0	0	0	0	2	208090,10	0,200000003	2,31980324	0,00055536932444655232	0,19993292551881494	0,000463805045	-0,6410259081075689	0,023917538499993248	1,3600646199191712
1	1	0	0	0	0	2	208340,10	0,200000003	2,32066035	0,00055535362023446291	0,19992727200334733	0,000463963283	-0,6271418254020951	0,023399504706904282	1,3739487026246445
1	1	0	0	0	0	2	208590,10	0,200000003	2,32159376	0,00055536310453133453	0,19993068634968688	0,000464157842	-0,61325769704576077	0,022881469210520336	1,387832830980979
1	1	0	0	0	0	2	208840,10	0,200000003	2,32216525	0,00055536591756261056	0,19993169904078784	0,000464274432	-0,59937364464381658	0,022363436548096813	1,4017168833829232
1	1	0	0	0	0	2	209090,10	0,200000003	2,32298422	0,00055535878076569901	0,19992912979430163	0,000464432203	-0,58548962951155597	0,021845405276255283	1,4156008985151842
1	1	0	0	0	0	2	209340,10	0,200000003	2,32368898	0,00055536142622596685	0,19993008215984906	0,000464575336	-0,57160573175917165	0,021327378384014765	1,4294847962675682
1	1	0	0	0	0	2	209590,10	0,200000003	2,32433677	0,00055536383062683872	0,19993094774402749	0,000464706856	-0,55772172925852013	0,020809347583475562	1,4433687987682195
1	1	0	0	0	0	2	209840,10	0,200000003	2,32488894	0,00055535196887784531	0,19992667751505798	0,000464807323	-0,54383772051852563	0,020291316550138077	1,4572528075082138
1	1	0	0	0	0	2	210090,10	0,200000003	2,3253653	0,00055535414351771277	0,19992746038528781	0,000464904384	-0,52995387270364768	0,019773291521133062	1,4711366553230922
1	1	0	0	0	0	2	210340,10	0,200000003	2,32578421	0,0005553560741725895	0,19992815542093469	0,000464989746	-0,51607005069364634	0,019255267454942688	1,4850204773330941
1	1	0	0	0	0	2	210590,10	0,200000003	2,32607007	0,00055536251258767315	0,19993047325000211	0,00046505229	-0,50218611431790093	0,018737239121612637	1,4989044137088394
1	1	0	0	0	0	2	210840,10	0,200000003	2,32624149	0,00055536773976683616	0,1999323550342064	0,00046509094	-0,48830206483987002	0,01821920656828424	1,5127884631868701
1	1	0	0	0	0	2	211090,10	0,200000003	2,32679391	0,00055536563004636102	0,19993159553495418	0,000465199613	-0,4744178975686137	0,017701169619932234	1,526672630458127
1	1	0	0	0	0	2	211340,10	0,200000003	2,32698441	0,00055536599527382182	0,19993172701681949	0,000465238001	-0,46053375572743302	0,017183133620410541	1,5405567722993069
1	1	0	0	0	0	2	211590,10	0,200000003	2,3271749	0,0005553630700723993	0,19993067394447213	0,000465273653	-0,44664969081952058	0,016665100491372522	1,5544408372072189
1	1	0	0	0	0	2	211840,10	0,200000003	2,32746053	0,00055536027315755686	0,19992966705528643	0,000465328398	-0,43276557518533248	0,01614706546966896	1,5683249528414067
1	1	0	0	0	0	2	212090,10	0,200000003	2,3276701	0,00055535711150616403	0,19992852886096307	0,000465367659	-0,41888171417409728	0,015629039948290106	1,5822088138526426
1	1	0	0	0	0	2	212340,10	0,200000003	2,3276701	0,00055536158904764384	0,19993014077564362	0,000465371413	-0,40499778762914118	0,015111011981760022	1,5960927403975981
1	1	0	0	0	0	2	212590,10	0,200000003	2,32799387	0,00055536880898558432	0,19993273995289552	0,000465442194	-0,39111363279982528	0,014592975497633542	1,6099768952269139
1	1	0	0	0	0	2	212840,10	0,200000003	2,32816529	0,0005553607298955321	0,19992983148093178	0,000465469697	-0,37722956813459635	0,014074942377650371	1,623860959892143
1	1	0	0	0	0	2	213090,10	0,200000003	2,32866049	0,00055536835823953158	0,19993257768434189	0,000465575082	-0,36334539060633587	0,013556905046595747	1,6377451374204035
1	1	0	0	0	0	2	213340,10	0,200000003	2,32875586	0,00055536173231403027	0,19993019235153466	0,000465588615	-0,3494612679190327	0,013038869761730978	1,6516292601077072
1	1	0	0	0	0	2	213590,10	0,200000003	2,329175	0,0005553665080062217	0,19993191160045456	0,000465676421	-0,33557720588270221	0,012520836739835541	1,6655133221440371
1	1	0	0	0	0	2	213840,10	0,200000003	2,32951784	0,00055536516621874445	0,19993142855703834	0,000465743826	-0,32169305772590189	0,012002800504669586	1,6793974703008374
1	1	0	0	0	0	2	214090,10	0,200000003	2,32970834	0,0005553688537983431	0,19993275608548614	0,000465785008	-0,30780892217049696	0,01148476473967864	1,6932816058562426
1	1	0	0	0	0	2	214340,10	0,200000003	2,32987976	0,00055536737890789907	0,19993222512500934	0,000465818041	-0,29392480351737606	0,010966729605334629	1,7071657245093632
1	1	0	0	0	0	2	214590,10	0,200000003	2,33014631	0,00055536417712685139	0,19993107248401258	0,000465868652	-0,28004071746082637	0,010448695687212522	1,7210498105659123
1	1	0	0	0	0	2	214840,10	0,200000003	2,33033681	0,00055537727205041389	0,19993578665575744	0,000465917721	-0,26615650590014077	0,0099306570863623603	1,7349340221265981
1	1	0	0	0	0	2	215090,10	0,200000003	2,33075595	0,00055536900118821197	0,19993280914583062	0,000465994584	-0,25227225274630016	0,0094126169336156621	1,7488182752804381
1	1	0	0	0	0	2	215340,10	0,200000003	2,33077502	0,0005553654893421465	0,19993154488144486	0,000465995457	-0,23838803148418048	0,0088945779707919526	1,7627024965425578
1	1	0	0	0	0	2	215590,10	0,200000003	2,33104157	0,00055536439705391725	0,19993115165774387	0,000466047815	-0,2245038648801831	0,0083765410473362752	1,7765866631465552
1	1	0	0	0	0	2	215840,10	0,200000003	2,33142257	0,00055536919346037837	0,19993287836379968	0,000466128025	-0,21061970837939734	0,0078585045008450035	1,7904708196473408
1	1	0	0	0	0	2	216090,10	0,200000003	2,33163214	0,00055537593914237293	0,19993530680893779	0,000466175581	-0,19673539004313987	0,0073404619160546944	1,8043551379835984
1	1	0	0	0	0	2	216340,10	0,200000003	2,33199406	0,00055537460987601011	0,19993482827312205	0,000466246827	-0,18285097353679654	0,0068224156684064922	1,8182395544899418
1	1	0	0	0	0	2	216590,10	0,200000003	2,33218455	0,00055536730601390202	0,1999321988831745	0,000466278783	-0,16896669419327011	0,0063043745384874035	1,8321238338334682
1	1	0	0	0	0	2	216840,10	0,200000003	2,33269882	0,0005553714521254103	0,19993369148308397	0,0004663851	-0,15508246567855155	0,0057863353050594765	1,8460080623481875
1	1	0	0	0	0	2	217090,10	0,200000003	2,33287024	0,00055535977678497638	0,19992948836118541	0,000466409547	-0,14119844047891144	0,0052683036575904883	1,8598920875478278
1	1	0	0	0	0	2	217340,10	0,200000003	2,33330846	0,00055537210011316672	0,19993392475863981	0,00046650751	-0,12731426918908744	0,0047502665593003174	1,8737762588376518
1	1	0	0	0	0	2	217590,10	0,200000003	2,33376551	0,0005553725965652201	0,19993410348135107	0,000466599304	-0,11343001215317222	0,0042322262617081971	1,887660515873567
1	1	0	0	0	0	2	217840,10	0,200000003	2,33412743	0,00055535873685114918	0,19992911398506618	0,000466660014	-0,099545923931219059	0,0037141922627919731	1,9015446040955206
1	1	0	0	0	0	2	218090,10	0,200000003	2,33458471	0,00055536841819352582	0,19993259926777645	0,000466759579	-0,085661835314379379	0,0031961582491420026	1,9154286927123597
1	1	0	0	0	0	2	218340,10	0,200000003	2,33507991	0,00055537135756760838	0,19993365745159075	0,000466861064	-0,071777547826610918	0,002678116815350295	1,929312980200128
1	1	0	0	0	0	2	218590,10	0,200000003	2,33538461	0,00055536907292736902	0,19993283497192314	0,000466920057	-0,057893342258336218	0,002160078438085041	1,9431971857684029
1	1	0	0	0	0	2	218840,10	0,200000003	2,33601332	0,00055536744045135046	0,19993224728064842	0,000467044389	-0,044009158190595174	0,0016420408630336058	1,9570813698361437
1	1	0	0	0	0	2	219090,10	0,200000003	2,33645129	0,00055536498172415629	0,19993136213899702	0,000467129896	-0,030124980874548749	0,0011240035398969741	1,9709655471521901
1	1	0	0	0	0	2	219340,10	0,200000003	2,33702278	0,00055536774112284179	0,19993235552236835	0,000467246457	-0,016240830175129472	0,00060596720986248806	1,9848496978516096
1	1	0	0	0	0	2	219590,10	0,200000003	2,33755612	0,00055535352512531808	0,19992723776406054	0,000467341131	-0,0023567698967700861	8,7934253559318925E-005	1,9987337581299686
1	1	0	0	0	0	2	219600,10	0,200000003	2,33736563	0,00055535793215284742	0,19992882429372288	0,00046730676	-0,0018014119646172387	6,721310242401504E-005	1,9992891160621216