File: Experimentelles/Rohdaten/Batteriemessungen/AlteZelle/Studenten_Batterietests/S vs Li GCPL 300µm/ECLab-Export/S vs Li GCPL 300µm_02_GCPL_C06_loop1.mpt
EC-Lab ASCII FILE
Nb header lines : 3
mode	ox/red	error	control changes	Ns changes	counter inc.	Ns	time/s	control/V/mA	Ewe/V	dq/mA.h	<I>/mA	P/W	(Q-Qo)/mA.h	x	Capacity/mA.h
1	0	0	1	1	0	1	75600,05	-0,200000003	2,33528948	0	0	0	0	0	0
1	0	0	1	0	0	1	75840,05	-0,200000003	2,30551696	-0,00055588679771953152	-0,20011529183872045	0,0004613692	-0,013338539309243643	0,00049767883548471712	0,013338539309243643
1	0	0	1	0	0	1	76080,06	-0,200000003	2,30046916	-0,00055588316843575904	-0,20011398607018362	0,000460356066	-0,026679738543871658	0,00099545691636183283	0,026679738543871658
1	0	0	1	0	0	1	76320,06	-0,200000003	2,29639292	-0,0005558816412720416	-0,20011343555547888	0,000459539064	-0,040020964753277888	0,001493236003704192	0,040020964753277888
1	0	0	1	0	0	1	76560,07	-0,200000003	2,2924881	-0,0005558819206373559	-0,20011353674816749	0,000458757888	-0,053362207318129107	0,0019910157012901936	0,053362207318129107
1	0	0	1	0	0	1	76800,07	-0,200000003	2,28902125	-0,00055588481219526797	-0,20011457734599421	0,000458066526	-0,066703427905140096	0,0024887945788534266	0,066703427905140096
1	0	0	1	0	0	1	77040,08	-0,200000003	2,28610682	-0,00055589333694345427	-0,20011764621128749	0,000457490329	-0,08004464312612128	0,0029865732562028723	0,08004464312612128
1	0	0	1	0	0	1	77280,08	-0,200000003	2,2828114	-0,00055587949827975699	-0,20011266469103984	0,000456819485	-0,093385987563664986	0,003484356754796	0,093385987563664986
1	0	0	1	0	0	1	77520,09	-0,200000003	2,27966857	-0,00055588861381759251	-0,20011594562110019	0,000456198031	-0,1067273410855112	0,0039821405923366688	0,1067273410855112
1	0	0	1	0	0	1	77760,09	-0,200000003	2,27665901	-0,00055588997072478131	-0,20011643484351037	0,000455596892	-0,12006860958004522	0,0044799212573939981	0,12006860958004522
1	0	0	1	0	0	1	78000,10	-0,200000003	2,27361131	-0,00055588730067511405	-0,20011547290148106	0,000454984809	-0,13340987208561298	0,004977701698994944	0,13340987208561298
1	0	0	1	0	0	1	78240,10	-0,200000003	2,27050638	-0,00055588832010742694	-0,20011584063329651	0,000454364286	-0,14675113187542173	0,005475482039267271	0,14675113187542173
1	0	0	1	0	0	1	78480,11	-0,200000003	2,26749682	-0,00055589096141109862	-0,20011679074038803	0,000453764194	-0,16009239626234554	0,0059732625510641408	0,16009239626234554
1	0	0	1	0	0	1	78720,11	-0,200000003	2,26416326	-0,00055588945791125306	-0,20011625023428832	0,000453095854	-0,17343369165576861	0,0064710442197551872	0,17343369165576861
1	0	0	1	0	0	1	78960,12	-0,200000003	2,26082993	-0,00055588746549354662	-0,20011553223261443	0,000452427194	-0,18677483955978138	0,0069688203854180326	0,18677483955978138
1	0	0	1	0	0	1	79200,12	-0,200000003	2,25745821	-0,0005558853406781952	-0,20011476806200723	0,000451750733	-0,20011607921275949	0,0074665999743581338	0,20011607921275949
1	0	0	1	0	0	1	79440,13	-0,200000003	2,25340104	-0,00055588705044570893	-0,20011538292084864	0,000450940221	-0,21345727943795549	0,0079643780921946714	0,21345727943795549
1	0	0	1	0	0	1	79680,13	-0,200000003	2,24949622	-0,00055588786739938778	-0,20011567737479018	0,000450159452	-0,22679852058286675	0,0084621577368008064	0,22679852058286675
1	0	0	1	0	0	1	79920,13	-0,200000003	2,24547696	-0,00055588688397490317	-0,20011532333033546	0,000449354353	-0,24013978108819782	0,0089599381037702323	0,24013978108819782
1	0	0	1	0	0	1	80160,14	-0,200000003	2,24071503	-0,00055588088331868243	-0,200113162817636	0,000448396575	-0,25348101268519014	0,0094577173921306714	0,25348101268519014
1	0	0	1	0	0	1	80400,14	-0,200000003	2,23566723	-0,00055588678593188525	-0,20011528834305408	0,000447391183	-0,26682227017621581	0,0099554976466323085	0,26682227017621581
1	0	0	1	0	0	1	80640,15	-0,200000003	2,22995257	-0,00055588796141164173	-0,20011571075960003	0,000446248538	-0,28016361072797114	0,010453281000241448	0,28016361072797114
1	0	0	1	0	0	1	80880,15	-0,200000003	2,22372389	-0,0005558871867424912	-0,20011543263202083	0,000445001468	-0,29350491808002131	0,010951063115124952	0,29350491808002131
1	0	0	1	0	0	1	81120,16	-0,200000003	2,21688557	-0,00055588782031999699	-0,20011565996994144	0,000443633529	-0,30684627784301363	0,011448847185531171	0,30684627784301363
1	0	0	1	0	0	1	81360,16	-0,200000003	2,2095902	-0,00055588282166504192	-0,20011386123286278	0,000442169636	-0,32018755989210342	0,011946628356327198	0,32018755989210342
1	0	0	1	0	0	1	81600,17	-0,200000003	2,20136118	-0,00055588705013195667	-0,2001153827030679	0,00044052623	-0,33352892556709498	0,012444412647318059	0,33352892556709498
1	0	0	1	0	0	1	81840,17	-0,200000003	2,19273233	-0,00055589092421697248	-0,20011677809391597	0,000438802526	-0,34687022685334707	0,012942194535878482	0,34687022685334707
1	0	0	1	0	0	1	82080,18	-0,200000003	2,18362737	-0,00055589368527548179	-0,2001177713121847	0,000436982635	-0,36021160083452653	0,013439979136784381	0,36021160083452653
1	0	0	1	0	0	1	82320,18	-0,200000003	2,17389369	-0,00055589230827324915	-0,20011727622085923	0,000435033697	-0,37355302775412192	0,013937765712893755	0,37355302775412192
1	0	0	1	0	0	1	82560,19	-0,200000003	2,16412187	-0,00055587543086293664	-0,20011120012145408	0,000433065026	-0,38689428023395315	0,014435545780420992	0,38689428023395315
1	0	0	1	0	0	1	82800,19	-0,200000003	2,15391207	-0,00055588040059225427	-0,20011298921893382	0,000431025779	-0,40023543334953939	0,01493332214053465	0,40023543334953939
1	0	0	1	0	0	1	83040,20	-0,200000003	2,14377856	-0,00055588770606286003	-0,20011561944271795	0,000429003587	-0,41357667885336314	0,01543110194777767	0,41357667885336314
1	0	0	1	0	0	1	83280,20	-0,200000003	2,13341618	-0,00055589348562475712	-0,20011769943701475	0,000426934334	-0,42691811808983763	0,015928888983446365	0,42691811808983763
1	0	0	1	0	0	1	83520,21	-0,200000003	2,12333965	-0,0005558880546738704	-0,20011574508114288	0,000424913684	-0,44025950454688435	0,016426674049843642	0,44025950454688435
1	0	0	1	0	0	1	83760,21	-0,200000003	2,11271071	-0,00055589255954987475	-0,20011736605693766	0,000422790094	-0,4536009519010297	0,016924461388393552	0,4536009519010297
1	0	0	1	0	0	1	84000,22	-0,200000003	2,10206294	-0,00055589048113508365	-0,20011661859457696	0,000420657714	-0,4669422793862119	0,017422244254471277	0,4669422793862119
1	0	0	1	0	0	1	84240,22	-0,200000003	2,09149098	-0,00055589608211898138	-0,20011863415646048	0,000418546319	-0,4802837231339849	0,017920031458462582	0,4802837231339849
1	0	0	1	0	0	1	84480,22	-0,200000003	2,08270979	-0,00055589601795954829	-0,20011861180500627	0,000416789	-0,49362515445128122	0,018417818198656093	0,49362515445128122
1	0	0	1	0	0	1	84720,23	-0,200000003	2,07598591	-0,00055589878951923706	-0,20011960880361805	0,00041544548	-0,50696660693844787	0,01891560572872593	0,50696660693844787
1	0	0	1	0	0	1	84960,23	-0,200000003	2,07118559	-0,00055588715841124454	-0,20011542243093523	0,000414476177	-0,52030790493966118	0,019413387494717133	0,52030790493966118
1	0	0	1	0	0	1	85200,24	-0,200000003	2,06848073	-0,00055588437213748691	-0,20011441876059334	0,000413932808	-0,53364917094089549	0,019911168066746099	0,53364917094089549
1	0	0	1	0	0	1	85440,24	-0,200000003	2,06693792	-0,0005558952572801047	-0,20011833767694294	0,000413632195	-0,54699046580989677	0,020408949715870262	0,54699046580989677
1	0	0	1	0	0	1	85680,25	-0,200000003	2,06674743	-0,00055589072992818221	-0,2001167078461536	0,000413590693	-0,5603319298724121	0,02090673767783192	0,5603319298724121
1	0	0	1	0	0	1	85920,25	-0,200000003	2,06718564	-0,000555887401257952	-0,20011550924104493	0,000413675909	-0,57367323588440934	0,021404519742716243	0,57367323588440934
1	0	0	1	0	0	1	86160,26	-0,200000003	2,06844282	-0,00055588538670208723	-0,20011478462795136	0,000413925998	-0,58701451113219507	0,021902300659746477	0,58701451113219507
1	0	0	1	0	0	1	86400,26	-0,200000003	2,06935692	-0,00055589115938544275	-0,20011686200974323	0,000414113223	-0,60035584372837043	0,02240008371652223	0,60035584372837043
1	0	0	1	0	0	1	86640,27	-0,200000003	2,07051897	-0,0005558857659838265	-0,20011492116900886	0,000414341746	-0,61369719835595814	0,022897867595319597	0,61369719835595814
1	0	0	1	0	0	1	86880,27	-0,200000003	2,07171893	-0,00055589080850531648	-0,20011673569306483	0,000414585636	-0,62703849321735014	0,023395649244159853	0,62703849321735014
1	0	0	1	0	0	1	87120,28	-0,200000003	2,07316661	-0,00055589536133574118	-0,20011837542743658	0,000414878741	-0,64037984805728358	0,023893433130880125	0,64037984805728358
1	0	0	1	0	0	1	87360,28	-0,200000003	2,07413816	-0,00055589476449042566	-0,20011815981955581	0,000415072718	-0,65372128632156672	0,02439122013027505	0,65372128632156672
1	0	0	1	0	0	1	87600,29	-0,200000003	2,0751667	-0,00055588854071746272	-0,2001159200533784	0,000415273884	-0,66706254203831078	0,024889000318575859	0,66706254203831078
1	0	0	1	0	0	1	87840,29	-0,200000003	2,07627153	-0,00055588413416180352	-0,20011433297922016	0,000415491697	-0,68040383705224192	0,025386781973107549	0,68040383705224192
1	0	0	1	0	0	1	88080,30	-0,200000003	2,07737637	-0,00055588911139468346	-0,20011612536964861	0,000415716495	-0,69374519004788198	0,025884565791014762	0,69374519004788198
1	0	0	1	0	0	1	88320,30	-0,200000003	2,07836676	-0,00055588601311296224	-0,20011500965384218	0,000415912393	-0,7070864891444649	0,02638234759787568	0,7070864891444649
1	0	0	1	0	0	1	88560,31	-0,200000003	2,07943344	-0,00055589942838665517	-0,20011983907789037	0,000416135881	-0,72042789387201408	0,026880133345969971	0,72042789387201408
1	0	0	1	0	0	1	88800,31	-0,200000003	2,08053827	-0,00055589615880449606	-0,20011866237073664	0,000416354538	-0,73376949027133466	0,02737792624559576	0,73376949027133466
1	0	0	1	0	0	1	89040,32	-0,200000003	2,08166218	-0,00055590182673020493	-0,20012070217795558	0,000416583702	-0,74711112918721702	0,027875720731571632	0,74711112918721702
1	0	0	1	0	0	1	89280,32	-0,200000003	2,08288121	-0,00055589402104583046	-0,20011789293027395	0,0004168218	-0,76045260944981133	0,028373509297980016	0,76045260944981133
1	0	0	1	0	0	1	89520,32	-0,200000003	2,08373833	-0,00055589004591769645	-0,20011646116927731	0,00041699034	-0,77379397855159987	0,02887129371682928	0,77379397855159987
1	0	0	1	0	0	1	89760,33	-0,200000003	2,08469081	-0,00055589144764509472	-0,20011696652548112	0,000417181989	-0,78713546128170125	0,029369082375303674	0,78713546128170125
1	0	0	1	0	0	1	90000,33	-0,200000003	2,08568144	-0,00055589528898149728	-0,20011834863260966	0,000417383126	-0,80047682843750438	0,029866866721545606	0,80047682843750438
1	0	0	1	0	0	1	90240,34	-0,200000003	2,08674812	-0,00055589236657487027	-0,20011729733482787	0,00041759439	-0,81381829979500134	0,030364654955692832	0,81381829979500134
1	0	0	1	0	0	1	90480,34	-0,200000003	2,08777666	-0,00055588477353586086	-0,20011456314729302	0,000417794508	-0,82715962945419686	0,03086243790288592	0,82715962945419686
1	0	0	1	0	0	1	90720,35	-0,200000003	2,08871007	-0,00055589747476081062	-0,20011913624542659	0,000417990843	-0,84050101399001856	0,031360222897599712	0,84050101399001856
1	0	0	1	0	0	1	90960,35	-0,200000003	2,08960533	-0,00055589794550339386	-0,20011930507341347	0,000418170355	-0,85384263747581389	0,031858016807858291	0,85384263747581389
1	0	0	1	0	0	1	91200,36	-0,200000003	2,09048152	-0,00055589321071571776	-0,20011760092832403	0,000418342155	-0,86718406898950989	0,032355803555379738	0,86718406898950989
1	0	0	1	0	0	1	91440,36	-0,200000003	2,09130049	-0,00055590108943316666	-0,20012043719424448	0,000418511976	-0,8805255832422537	0,032853593390006298	0,8805255832422537
1	0	0	1	0	0	1	91680,37	-0,200000003	2,0918529	-0,00055589354065888467	-0,20011771937965958	0,000418616837	-0,8938672213277641	0,033351387844999878	0,8938672213277641
1	0	0	1	0	0	1	91920,37	-0,200000003	2,09255767	-0,00055589679460475846	-0,20011889139408646	0,000418760319	-0,90720870483473331	0,03384917653246025	0,90720870483473331
1	0	0	1	0	0	1	92160,38	-0,200000003	2,09333873	-0,00055589534456862349	-0,20011836864357958	0,00041891553	-0,9205502455165751	0,034346967353191994	0,9205502455165751
1	0	0	1	0	0	1	92400,38	-0,200000003	2,0936625	-0,0005558962040899529	-0,20011867881062778	0,000418980984	-0,93389178475950157	0,034844758120235866	0,93389178475950157
1	0	0	1	0	0	1	92640,39	-0,200000003	2,09410071	-0,00055590045879036192	-0,20012020972934547	0,000419071876	-0,94723339715853158	0,035342551616832333	0,94723339715853158
1	0	0	1	0	0	1	92880,39	-0,200000003	2,09457684	-0,00055590356889863808	-0,20012133008936099	0,00041916949	-0,9605750408627616	0,035840346281467891	0,9605750408627616
1	0	0	1	0	0	1	93120,40	-0,200000003	2,09495783	-0,00055590023744685779	-0,20012013004725891	0,000419243239	-0,97391670912435328	0,036338141862371635	0,97391670912435328
1	0	0	1	0	0	1	93360,40	-0,200000003	2,09545302	-0,00055589323690368058	-0,20011761064700806	0,000419337041	-0,9872582374608832	0,0368359322224832	0,9872582374608832
1	0	0	1	0	0	1	93600,41	-0,200000003	2,09556746	-0,00055590034130132858	-0,20012016743179981	0,0004193653	-1,0005997906325621	0,037333723509227552	1,0005997906325621
1	0	0	1	0	0	1	93840,41	-0,200000003	2,09589124	-0,00055590242640177408	-0,20012091867048595	0,000419431686	-1,0139414468996922	0,037831518642601805	1,0139414468996922
1	0	0	1	0	0	1	94080,41	-0,200000003	2,09619594	-0,00055590488644192621	-0,200121803929636	0,000419494521	-1,027283102245271	0,03832931374159175	1,027283102245271
1	0	0	1	0	0	1	94320,42	-0,200000003	2,09619594	-0,0005559134323108528	-0,20012488039329539	0,000419500953	-1,0406249153150442	0,038827114725483443	1,0406249153150442
1	0	0	1	0	0	1	94560,42	-0,200000003	2,09636736	-0,00055590818467156755	-0,20012299159732701	0,000419531309	-1,0539667327012386	0,039324915870426605	1,0539667327012386
1	0	0	1	0	0	1	94800,43	-0,200000003	2,09631038	-0,00055590522434893587	-0,20012192529419373	0,000419517659	-1,0673084880880965	0,039822714702091181	1,0673084880880965
1	0	0	1	0	0	1	95040,43	-0,200000003	2,09646273	-0,00055590348610281939	-0,2001213002811256	0,00041954685	-1,0806501925454904	0,040320511633508966	1,0806501925454904
1	0	0	1	0	0	1	95280,44	-0,200000003	2,09642458	-0,0005559048346090649	-0,20012178499061331	0,000419540243	-1,0939919420686051	0,040818310246389389	1,0939919420686051
1	0	0	1	0	0	1	95520,44	-0,200000003	2,09646273	-0,00055590328095273843	-0,20012122643321523	0,000419546705	-1,1073337286826837	0,041316110243183546	1,1073337286826837
1	0	0	1	0	0	1	95760,45	-0,200000003	2,09619594	-0,00055590745588143667	-0,20012272863234554	0,000419496442	-1,1206754591842077	0,041813908146342842	1,1206754591842077
1	0	0	1	0	0	1	96000,45	-0,200000003	2,09611988	-0,00055590540837165376	-0,20012199228656058	0,000419479678	-1,1340172221105968	0,042311707259317466	1,1340172221105968
1	0	0	1	0	0	1	96240,46	-0,200000003	2,09591031	-0,00055589959709346291	-0,20011989952459312	0,000419433374	-1,1473588742533474	0,042809502238805574	1,1473588742533474
1	0	0	1	0	0	1	96480,46	-0,200000003	2,09589124	-0,00055589828092439309	-0,20011942645741642	0,000419428543	-1,160700449342628	0,04330729434332512	1,160700449342628
1	0	0	1	0	0	1	96720,47	-0,200000003	2,09545302	-0,00055589738018976307	-0,2001191015645287	0,000419340184	-1,1740419960315498	0,043805085388189094	1,1740419960315498
1	0	0	1	0	0	1	96960,47	-0,200000003	2,09549117	-0,00055590209692716602	-0,2001207999035537	0,00041935136	-1,1873835986981229	0,044302878521654502	1,1873835986981229
1	0	0	1	0	0	1	97200,48	-0,200000003	2,09482455	-0,000555898479660352	-0,20011949769256022	0,000419215241	-1,2007252640434237	0,044800673993747507	1,2007252640434237
1	0	0	1	0	0	1	97440,48	-0,200000003	2,09429121	-0,00055589778098629581	-0,20011924586007696	0,000419107964	-1,2140669143121347	0,045298468903312685	1,2140669143121347
1	0	0	1	0	0	1	97680,49	-0,200000003	2,09400535	-0,0005559055404274	-0,20012203982568976	0,000419056625	-1,2274086457723146	0,045796266842240723	1,2274086457723146
1	0	0	1	0	0	1	97920,49	-0,200000003	2,09358644	-0,00055590389057662758	-0,20012144514565302	0,000418971555	-1,2407503556726818	0,046294063976743168	1,2407503556726818
1	0	0	1	0	0	1	98160,50	-0,200000003	2,09330058	-0,0005558868846678071	-0,20011532388728355	0,000418901531	-1,2540919326874856	0,046791856153106566	1,2540919326874856
1	0	0	1	0	0	1	98400,50	-0,200000003	2,09295774	-0,00055588531846470304	-0,20011475931779885	0,00041883174	-1,2674332456506434	0,047289638477348045	1,2674332456506434
1	0	0	1	0	0	1	98640,50	-0,200000003	2,09229112	-0,00055589423950844346	-0,20011797157759008	0,000418705051	-1,2807745815045042	0,047787421655672422	1,2807745815045042
1	0	0	1	0	0	1	98880,51	-0,200000003	2,09158635	-0,0005559000654410985	-0,20012006812407981	0,000418568408	-1,2941161767464906	0,048285214512116518	1,2941161767464906
1	0	0	1	0	0	1	99120,51	-0,200000003	2,09088159	-0,00055590190905084211	-0,20012073255596266	0,000418428768	-1,3074578705693181	0,048783011046744333	1,3074578705693181
1	0	0	1	0	0	1	99360,52	-0,200000003	2,09017682	-0,00055590343310104467	-0,20012128046002797	0,000418288866	-1,3207994552987082	0,049280803510949325	1,3207994552987082
1	0	0	1	0	0	1	99600,52	-0,200000003	2,08970046	-0,00055590321276171334	-0,20012120175214006	0,000418193376	-1,3341411639684147	0,049778600599534163	1,3341411639684147
1	0	0	1	0	0	1	99840,53	-0,200000003	2,088691	-0,0005559058091723257	-0,20012213609902566	0,000417993317	-1,3474828597352672	0,050276397206696173	1,3474828597352672
1	0	0	1	0	0	1	100080,53	-0,200000003	2,08781481	-0,00055589983906845254	-0,20011998692274515	0,000417813484	-1,3608244702928194	0,050774190634584621	1,3608244702928194
1	0	0	1	0	0	1	100320,54	-0,200000003	2,08684325	-0,00055590808789266477	-0,20012295675528083	0,000417625241	-1,3741661925954107	0,05127198823183072	1,3741661925954107
1	0	0	1	0	0	1	100560,54	-0,200000003	2,08558607	-0,00055590898388210278	-0,20012327870171302	0,000417374336	-1,3875079555162062	0,051769787344596627	1,3875079555162062
1	0	0	1	0	0	1	100800,55	-0,200000003	2,08451939	-0,00055590445312029786	-0,20012164840286813	0,000417157455	-1,4008496707898541	0,052267584679583398	1,4008496707898541
1	0	0	1	0	0	1	101040,55	-0,200000003	2,0833385	-0,00055589846403482886	-0,20011949163154701	0,00041691665	-1,4141912755992872	0,052765377893001786	1,4141912755992872
1	0	0	1	0	0	1	101280,56	-0,200000003	2,08181453	-0,00055588976496623616	-0,20011636077422749	0,000416605151	-1,4275327532901973	0,053263166363457184	1,4275327532901973
1	0	0	1	0	0	1	101520,56	-0,200000003	2,0803287	-0,00055589689921091002	-0,20011892830374083	0,000416313153	-1,4408742064525214	0,053760953918718048	1,4408742064525214
1	0	0	1	0	0	1	101760,57	-0,200000003	2,0787859	-0,00055588951996713875	-0,2001162725716361	0,000415998889	-1,4542156937630954	0,054258742748096026	1,4542156937630954
1	0	0	1	0	0	1	102000,57	-0,200000003	2,0768621	-0,00055589652001774976	-0,20011879179690128	0,000415619143	-1,4675571499060262	0,054756530414567334	1,4675571499060262
1	0	0	1	0	0	1	102240,58	-0,200000003	2,07510948	-0,00055589336513810694	-0,20011765681048925	0,000415266055	-1,480898617998112	0,055254318526877683	1,480898617998112
1	0	0	1	0	0	1	102480,58	-0,200000003	2,07320476	-0,00055590101643072237	-0,2001204105877312	0,000414890586	-1,4942400016078986	0,055752103487039866	1,4942400016078986
1	0	0	1	0	0	1	102720,59	-0,200000003	2,07086182	-0,0005559042768312825	-0,20012158464187821	0,000414424139	-1,5075815963990544	0,056249896326662854	1,5075815963990544
1	0	0	1	0	0	1	102960,59	-0,200000003	2,06882358	-0,00055590281706965632	-0,20012105914040803	0,000414015172	-1,5209233257323837	0,056747694186235251	1,5209233257323837
1	0	0	1	0	0	1	103200,59	-0,200000003	2,06636643	-0,00055590484156128442	-0,2001217876249897	0,000413524947	-1,53426499980404	0,05724548998392032	1,53426499980404
1	0	0	1	0	0	1	103440,60	-0,200000003	2,06417584	-0,00055590280038863424	-0,20012105343122678	0,000413085043	-1,5476067264529082	0,05774328774333184	1,5476067264529082
1	0	0	1	0	0	1	103680,60	-0,200000003	2,06129956	-0,00055589903457380006	-0,20011969702151706	0,000412506633	-1,5609482768296022	0,058241078925791565	1,5609482768296022
1	0	0	1	0	0	1	103920,61	-0,200000003	2,05861378	-0,0005559027315022217	-0,20012102863260835	0,000411971909	-1,5742898663825318	0,058738871569969293	1,5742898663825318
1	0	0	1	0	0	1	104160,61	-0,200000003	2,05537558	-0,00055590223375790643	-0,20012084870503197	0,000411323505	-1,5876314670457514	0,059236664628686886	1,5876314670457514
1	0	0	1	0	0	1	104400,62	-0,200000003	2,05251837	-0,00055589790442503168	-0,2001192909191599	0,000410748529	-1,6009730297112909	0,059734456269659942	1,6009730297112909
1	0	0	1	0	0	1	104640,62	-0,200000003	2,04878497	-0,00055589141443702906	-0,20011695382416995	0,000409996603	-1,6143144758049722	0,06023224356118025	1,6143144758049722
1	0	0	1	0	0	1	104880,63	-0,200000003	2,04507041	-0,00055589138897673958	-0,20011694540645546	0,000409253233	-1,6276558804443974	0,060730029305986522	1,6276558804443974
1	0	0	1	0	0	1	105120,63	-0,200000003	2,04091811	-0,00055589148260321888	-0,20011697836380442	0,000408422376	-1,6409972326222691	0,061227813093381696	1,6409972326222691
1	0	0	1	0	0	1	105360,64	-0,200000003	2,03691792	-0,00055589446493900486	-0,20011805260052893	0,000407624058	-1,6543387004842752	0,061725601197107456	1,6543387004842752
1	0	0	1	0	0	1	105600,64	-0,200000003	2,03259397	-0,00055589800019065542	-0,20011932492817325	0,000406761334	-1,6676801638368394	0,062223389132579878	1,6676801638368394
1	0	0	1	0	0	1	105840,65	-0,200000003	2,02766037	-0,00055590092974818419	-0,20012037955735885	0,000405776169	-1,6810216989912451	0,062721179747075558	1,6810216989912451
1	0	0	1	0	0	1	106080,65	-0,200000003	2,02291751	-0,0005558909848605593	-0,20011679978772822	0,000404819788	-1,6943631654383232	0,063218967798008448	1,6943631654383232
1	0	0	1	0	0	1	106320,66	-0,200000003	2,0171268	-0,00055588848587373894	-0,2001158995622233	0,000403659156	-1,7077045048302026	0,063716751108341056	1,7077045048302026
1	0	0	1	0	0	1	106560,66	-0,200000003	2,01162195	-0,00055590104363775923	-0,20012042101573904	0,000402566628	-1,7210459868461642	0,06421453974016992	1,7210459868461642
1	0	0	1	0	0	1	106800,67	-0,200000003	2,00520253	-0,00055589766344593638	-0,20011920342524218	0,00040127954	-1,7343874937183334	0,064712329299417331	1,7343874937183334
1	0	0	1	0	0	1	107040,67	-0,200000003	1,99802136	-0,00055589980735629792	-0,20011997596087824	0,000399843993	-1,7477290194547539	0,065210119562515315	1,7477290194547539
1	0	0	1	0	0	1	107280,68	-0,200000003	1,99009728	-0,00055588809942454099	-0,20011576044559136	0,000398249831	-1,7610703627386637	0,065707903018064806	1,7610703627386637
1	0	0	1	0	0	1	107520,68	-0,200000003	1,98184943	-0,00055588587747762605	-0,20011496130365392	0,000396597723	-1,7744116438551664	0,066205684154064768	1,7744116438551664
1	0	0	1	0	0	1	107760,69	-0,200000003	1,97316337	-0,00055589205932451622	-0,2001171859814063	0,000394863891	-1,787753000636048	0,066703468113204416	1,787753000636048
1	0	0	1	0	0	1	108000,69	-0,200000003	1,96398211	-0,00055588804017504051	-0,20011573986166726	0,000393023744	-1,8010944289714253	0,067201254742138522	1,8010944289714253
1	0	0	1	0	0	1	108240,69	-0,200000003	1,95462942	-0,00055589394515504442	-0,20011786498578931	0,000391156267	-1,8144357435433766	0,067699037126406246	1,8144357435433766
1	0	0	1	0	0	1	108480,70	-0,200000003	1,94527674	-0,00055588234312997926	-0,20011368866312822	0,000389276509	-1,8277770879115968	0,068196820622412826	1,8277770879115968
1	0	0	1	0	0	1	108720,70	-0,200000003	1,93523836	-0,00055588176965796282	-0,20011348221029357	0,000387267297	-1,8411182915700077	0,068694598868347226	1,8411182915700077
1	0	0	1	0	0	1	108960,71	-0,200000003	1,92499042	-0,0005558810303782423	-0,20011321576036077	0,00038521603	-1,8544594010964445	0,06919237360209111	1,8544594010964445
1	0	0	1	0	0	1	109200,71	-0,200000003	1,91398048	-0,00055588055453697843	-0,20011304508521792	0,000383012462	-1,8678005736892752	0,069690150688926938	1,8678005736892752
1	0	0	1	0	0	1	109440,72	-0,200000003	1,90331352	-0,00055588361370480723	-0,20011414561607517	0,000380879967	-1,8811417258575779	0,070187927013696179	1,8811417258575779
1	0	0	1	0	0	1	109680,72	-0,200000003	1,89217031	-0,00055588289582067066	-0,20011388793069117	0,000378649565	-1,8944828884855683	0,070685703728730432	1,8944828884855683
1	0	0	1	0	0	1	109920,73	-0,200000003	1,87961757	-0,00055587740070703955	-0,20011190898225136	0,000376133859	-1,9078241161781187	0,071183482871410893	1,9078241161781187
1	0	0	1	0	0	1	110160,73	-0,200000003	1,86576951	-0,00055588318760113587	-0,20011399296725331	0,00037336658	-1,9211652708600851	0,071681259289968294	1,9211652708600851
1	0	0	1	0	0	1	110400,74	-0,200000003	1,85148335	-0,00055588604630033171	-0,20011502133548477	0,000370509631	-1,9345064258773267	0,072179035721035277	1,9345064258773267
1	0	0	1	0	0	1	110640,74	-0,200000003	1,83710194	-0,00055588803732395181	-0,20011573883296598	0,000367633009	-1,947847689232633	0,07267681619434112	1,947847689232633
1	0	0	1	0	0	1	110880,75	-0,200000003	1,82214904	-0,00055589224387705331	-0,2001172524190065	0,000364643463	-1,9611889807688211	0,073174597719113536	1,9611889807688211
1	0	0	1	0	0	1	111120,75	-0,200000003	1,8066057	-0,00055588563038905453	-0,20011487222306854	0,000361528655	-1,9745303542984195	0,073672382303170342	1,9745303542984195
1	0	0	1	0	0	1	111360,76	-0,200000003	1,78951943	-0,00055588620430727802	-0,20011507849408355	0,000358109828	-1,987871643286009	0,07417016373285111	1,987871643286009
1	0	0	1	0	0	1	111600,04	-0,200000003	1,76988065	-0,00051586229134019878	-0,20011472676261792	0,000354179181	-2,0011729002627926	0,074666451514385126	2,0011729002627926
1	1	0	0	0	0	2	111830,05	0,200000003	2,27155399	0,00055534311404327552	0,19991956958377888	0,000454128109	-1,9884001752540246	0,074189883971196582	0,012772725008768338
1	1	0	0	0	0	2	112070,05	0,200000003	2,28991652	0,00055534334445413613	0,19991965327246595	0,000457799324	-1,9750720355122275	0,073692593157555648	0,02610086475056575
1	1	0	0	0	0	2	112310,06	0,200000003	2,29006886	0,0005553443328556087	0,19992000848718627	0,000457830582	-1,9617438291981782	0,07319529986001449	0,039429071064614592
1	1	0	0	0	0	2	112550,06	0,200000003	2,27559233	0,00055533686541434797	0,19991732055237638	0,000454930327	-1,9484155214867635	0,072698002779201318	0,052757378776028768
1	1	0	0	0	0	2	112790,07	0,200000003	2,26124883	0,00055535871428168486	0,19992518602641005	0,000452080596	-1,9350871513340637	0,072200703368619814	0,066085748928728218
1	1	0	0	0	0	2	113030,07	0,200000003	2,25309634	0,00055534629776411584	0,19992071579372154	0,000450440624	-1,9217586579181309	0,071703399358921382	0,07941424234466089
1	1	0	0	0	0	2	113270,07	0,200000003	2,24844861	0,00055534652848955654	0,19992079950722064	0,00044951163	-1,9084302769397917	0,071206099544420723	0,092742623323000986
1	1	0	0	0	0	2	113510,08	0,200000003	2,24561024	0,00055534069021625651	0,19991869702446214	0,000448939478	-1,8951019763351875	0,070708802728772186	0,10607092392760517
1	1	0	0	0	0	2	113750,08	0,200000003	2,24421978	0,00055534263721770714	0,19991939867471011	0,000448663079	-1,8817737410552896	0,070211508350476262	0,11939915920750301
1	1	0	0	0	0	2	113990,09	0,200000003	2,24322939	0,00055532713653064429	0,1999138177952448	0,000448452542	-1,8684456582197683	0,069714219660085018	0,13272724204302413
1	1	0	0	0	0	2	114230,09	0,200000003	2,24300075	0,00055534181994448115	0,19991910446216288	0,000448418694	-1,8551175027481539	0,069216928259543462	0,14605539751463798
1	1	0	0	0	0	2	114470,10	0,200000003	2,2428484	0,00055533520073774784	0,1999167208524223	0,000448382896	-1,8417894405996301	0,068719640341011904	0,15938345966316182
1	1	0	0	0	0	2	114710,10	0,200000003	2,2427721	0,00055533328465372333	0,19991603181821037	0,000448366103	-1,8284613768709686	0,068222352363523277	0,17271152339182298
1	1	0	0	0	0	2	114950,11	0,200000003	2,24298167	0,00055534226742883514	0,19991926480860432	0,00044841526	-1,8151332961427341	0,067725063751757709	0,18603960412005747
1	1	0	0	0	0	2	115190,11	0,200000003	2,24317217	0,00055533911204586432	0,1999181294819953	0,000448450795	-1,8018050708204906	0,067227769744995277	0,1993678294423007
1	1	0	0	0	0	2	115430,12	0,200000003	2,24378157	0,00055534025932186182	0,19991854221187846	0,000448573526	-1,7884769365289942	0,06673047913471241	0,21269596373379722
1	1	0	0	0	0	2	115670,12	0,200000003	2,24410558	0,00055533682634101971	0,19991730631869075	0,000448635546	-1,7751487691441424	0,066233187289671949	0,22602413111864851
1	1	0	0	0	0	2	115910,13	0,200000003	2,24475312	0,00055533871830917069	0,19991798778380554	0,000448766514	-1,761820598609431	0,065735895327105997	0,23935230165335942
1	1	0	0	0	0	2	116150,13	0,200000003	2,24509597	0,00055534604373574253	0,19992062425222115	0,00044884099	-1,7484924720926723	0,06523860500690903	0,25268042817011805
1	1	0	0	0	0	2	116390,14	0,200000003	2,24578166	0,00055534180945820282	0,19991910068950461	0,000448974664	-1,735164254209976	0,064741311277726106	0,26600864605281414
1	1	0	0	0	0	2	116630,14	0,200000003	2,24629593	0,00055534841239866285	0,19992147695401856	0,000449082814	-1,7218360486059238	0,064244018006675891	0,27933685165686573
1	1	0	0	0	0	2	116870,15	0,200000003	2,24715328	0,00055535021573636275	0,19992212688983971	0,000449255662	-1,7085076645753242	0,063746718078291302	0,29266523568746547
1	1	0	0	0	0	2	117110,15	0,200000003	2,24776268	0,00055535374120788442	0,19992339528974925	0,000449380343	-1,6951792848063203	0,063249418308912576	0,30599361545646957
1	1	0	0	0	0	2	117350,16	0,200000003	2,24858189	0,00055534829763985338	0,19992143638641437	0,000449539715	-1,681850902524408	0,062752118445773862	0,31932199773838214
1	1	0	0	0	0	2	117590,16	0,200000003	2,24905801	0,00055534876015782349	0,19992160214716931	0,000449635292	-1,6685225029534106	0,062254817937556134	0,33265039730937952
1	1	0	0	0	0	2	117830,16	0,200000003	2,2495532	0,00055534669702831245	0,19992086017764643	0,000449732615	-1,6551941919650397	0,061757520734475315	0,34597870829775104
1	1	0	0	0	0	2	118070,17	0,200000003	2,25014377	0,00055535288089762131	0,19992308572381782	0,000449855695	-1,6418658994144573	0,061260224219333146	0,35930700084833318
1	1	0	0	0	0	2	118310,17	0,200000003	2,25061989	0,0005553477290645241	0,19992123138914934	0,000449946703	-1,6285374426487594	0,060762921577104256	0,37263545761403136
1	1	0	0	0	0	2	118550,18	0,200000003	2,25140095	0,00055533827890372941	0,19991782944271606	0,000450095191	-1,6152090720066928	0,060265622148263834	0,38596382825609805
1	1	0	0	0	0	2	118790,18	0,200000003	2,25180101	0,00055534414736760992	0,19991994166395258	0,000450179941	-1,6018808784298512	0,059768329325965018	0,39929202183293971
1	1	0	0	0	0	2	119030,19	0,200000003	2,25250578	0,00055533910632878534	0,19991812757981715	0,000450316729	-1,588552640743561	0,059271034857883379	0,41262025951922918
1	1	0	0	0	0	2	119270,19	0,200000003	2,25328684	0,00055534894832803142	0,19992166988710525	0,000450480875	-1,5752243156105738	0,058773737127047898	0,42594858465221594
1	1	0	0	0	0	2	119510,20	0,200000003	2,25401068	0,00055535676946408218	0,19992448618519533	0,000450631924	-1,5618957706936339	0,058276431195777638	0,43927712956915533
1	1	0	0	0	0	2	119750,20	0,200000003	2,25484872	0,00055534301601847008	0,19991953429554643	0,000450788299	-1,548567279328751	0,057779127262606618	0,45260562093403834
1	1	0	0	0	0	2	119990,21	0,200000003	2,25540113	0,00055535014324469696	0,19992210079335574	0,000450904539	-1,5352388069043414	0,057281824036130131	0,46593409335844781
1	1	0	0	0	0	2	120230,21	0,200000003	2,25614405	0,00055534570151815808	0,19992050105748944	0,000451049447	-1,5219103710228336	0,056784522173118432	0,47926252923995565
1	1	0	0	0	0	2	120470,22	0,200000003	2,25681067	0,00055534818002995514	0,19992139404768768	0,000451184722	-1,5085818515089114	0,056287217189668922	0,49259104875387802
1	1	0	0	0	0	2	120710,22	0,200000003	2,25757265	0,00055536467937131718	0,199927332950756	0,000451350468	-1,4952532066599686	0,055789907529801274	0,50591969360282099
1	1	0	0	0	0	2	120950,23	0,200000003	2,25816298	0,0005553557577853401	0,19992412182745626	0,000451461237	-1,4819244325789053	0,055292593048109453	0,5192484676838841
1	1	0	0	0	0	2	121190,23	0,200000003	2,25913453	0,00055536000464939411	0,19992565039134218	0,00045165894	-1,468595816177928	0,054795284449673645	0,53257708408486093
1	1	0	0	0	0	2	121430,24	0,200000003	2,25957274	0,00055535204700132205	0,19992278564577882	0,000451740081	-1,4552672911219312	0,054297979259441875	0,5459056091408576
1	1	0	0	0	0	2	121670,24	0,200000003	2,26042986	0,00055535550821986464	0,1999240320322081	0,000451914239	-1,4419388544101213	0,053800677365450496	0,55923404585266714
1	1	0	0	0	0	2	121910,25	0,200000003	2,26098228	0,00055535257891399994	0,19992297687222096	0,000452022301	-1,4286104620951659	0,053303377127965453	0,57256243816762278
1	1	0	0	0	0	2	122150,25	0,200000003	2,26161075	0,0005553421468842361	0,19991922215843971	0,000452139473	-1,415282133202207	0,052806079256840365	0,58589076706058125
1	1	0	0	0	0	2	122390,25	0,200000003	2,26237273	0,00055535023341659046	0,19992213250984266	0,00045229838	-1,4019537717487034	0,052308780170837587	0,59921912851408461
1	1	0	0	0	0	2	122630,26	0,200000003	2,26296329	0,00055536205895658995	0,19992639036719594	0,000452426088	-1,3886252927213467	0,051811476697996269	0,61254760754144115
1	1	0	0	0	0	2	122870,26	0,200000003	2,26374412	0,00055536524707161722	0,19992753731649722	0,000452584791	-1,3752965933914958	0,051314165005372685	0,62587630687129165
1	1	0	0	0	0	2	123110,27	0,200000003	2,26433468	0,00055535082449846803	0,19992234603986685	0,000452691107	-1,3619679762109464	0,050816856377849997	0,63920492405184102
1	1	0	0	0	0	2	123350,27	0,200000003	2,26509666	0,00055535985853523014	0,1999255974817393	0,0004528508	-1,3486394572168462	0,050319551413795738	0,65253344304594138
1	1	0	0	0	0	2	123590,28	0,200000003	2,26597285	0,00055535803939898816	0,1999249433527271	0,000453024491	-1,3353108418757445	0,049822242854905312	0,66586205838704346
1	1	0	0	0	0	2	123830,28	0,200000003	2,26669669	0,00055535675389071309	0,19992447997377411	0,000453168148	-1,3219822506118018	0,049324935194366061	0,67919064965098675
1	1	0	0	0	0	2	124070,29	0,200000003	2,26749682	0,00055536425829595994	0,19992718178323037	0,000453334244	-1,3086535676786746	0,048827624113526285	0,69251933258411354
1	1	0	0	0	0	2	124310,29	0,200000003	2,26827765	0,00055536950172566707	0,19992906943415094	0,000453494635	-1,2953248757652525	0,048330312697619635	0,7058480244975351
1	1	0	0	0	0	2	124550,30	0,200000003	2,26900148	0,00055537780497057568	0,19993205816386691	0,000453646149	-1,2819960487884707	0,04783299624231744	0,71917685147431706
1	1	0	0	0	0	2	124790,30	0,200000003	2,2697444	0,00055538823268314202	0,19993581272022675	0,000453803194	-1,2686668940954762	0,047335667559482726	0,73250600616731226
1	1	0	0	0	0	2	125030,31	0,200000003	2,2705636	0,00055537416968825786	0,19993074939732758	0,000453955494	-1,2553378877512864	0,046838344411741382	0,74583501251150259
1	1	0	0	0	0	2	125270,31	0,200000003	2,27134442	0,00055535670825507904	0,19992446414806224	0,000454097317	-1,2420091938368824	0,046341032921175405	0,75916370642590707
1	1	0	0	0	0	2	125510,32	0,200000003	2,27201104	0,00055536174989988403	0,19992627835722954	0,000454234716	-1,2286805150112394	0,045843721993591386	0,77249238525155034
1	1	0	0	0	0	2	125750,32	0,200000003	2,27271605	0,00055535748485392992	0,19992474371812384	0,000454372173	-1,2153518933821467	0,045346413200087565	0,78582100688064256
1	1	0	0	0	0	2	125990,33	0,200000003	2,27340174	0,0005553610551506281	0,19992602825709562	0,000454512192	-1,2020231802032846	0,044849100990738758	0,79914972005950426
1	1	0	0	0	0	2	126230,33	0,200000003	2,27423978	0,00055535627078844442	0,19992430666551331	0,000454675814	-1,1886945533339106	0,044351792001712992	0,81247834692887821
1	1	0	0	0	0	2	126470,34	0,200000003	2,27503991	0,00055535753160963462	0,19992475980508186	0,000454836816	-1,1753659953638504	0,043854485583413267	0,82580690489893862
1	1	0	0	0	0	2	126710,34	0,200000003	2,27568746	0,00055535231741683354	0,19992288332159712	0,000454961992	-1,1620375774210608	0,043357184389719264	0,83913532284172838
1	1	0	0	0	0	2	126950,34	0,200000003	2,27644944	0,00055535242779056224	0,19992292277490694	0,000455114438	-1,1487090622570672	0,042859879568571437	0,85246383800572224
1	1	0	0	0	0	2	127190,35	0,200000003	2,27742076	0,00055535316085235942	0,1999231866242273	0,000455309229	-1,1353806551451906	0,04236257877899337	0,86579224511759859
1	1	0	0	0	0	2	127430,35	0,200000003	2,27831602	0,00055536601296895085	0,19992781367878301	0,000455498754	-1,1220520747871714	0,041865271525368787	0,87912082547561792
1	1	0	0	0	0	2	127670,36	0,200000003	2,27894473	0,00055535772731072371	0,19992483025608144	0,000455617643	-1,1087234433140112	0,041367962364569568	0,89244945694877837
1	1	0	0	0	0	2	127910,36	0,200000003	2,27970672	0,00055536543790333798	0,1999276067616599	0,000455776317	-1,0953946828634814	0,04087064839145129	0,90577821739930803
1	1	0	0	0	0	2	128150,37	0,200000003	2,28079247	0,00055537663018786253	0,19993163515735043	0,00045600257	-1,0820658996868002	0,040373333570389734	0,91910700057598912
1	1	0	0	0	0	2	128390,37	0,200000003	2,28164959	0,00055537143103530016	0,19992976424420355	0,000456169655	-1,0687370566949515	0,039876016517543853	0,93243584356783821
1	1	0	0	0	0	2	128630,38	0,200000003	2,282583	0,00055538326802849773	0,1999340247350759	0,000456366019	-1,0554080735647394	0,039378694235947219	0,94576482669805005
1	1	0	0	0	0	2	128870,38	0,200000003	2,28361154	0,00055537384794072973	0,1999306343132552	0,000456563896	-1,0420790216145813	0,038881369386585875	0,95909387864820838
1	1	0	0	0	0	2	129110,39	0,200000003	2,28458309	0,00055536324620164102	0,19992681701987011	0,000456749432	-1,0287502550837389	0,03838405518660295	0,97242264517905101
1	1	0	0	0	0	2	129350,39	0,200000003	2,28544021	0,00055535765724380813	0,19992480577725357	0,000456916197	-1,0154216148764312	0,037886745699920954	0,9857512853863584
1	1	0	0	0	0	2	129590,40	0,200000003	2,28644967	0,00055537172143161293	0,19992986818898461	0,000457129587	-1,0020927685720003	0,037389428523478182	0,99908013169078912
1	1	0	0	0	0	2	129830,40	0,200000003	2,28734493	0,0005553655301514599	0,19992763965379869	0,000457303482	-0,98876412548279923	0,036892118929268864	1,0124087747799904
1	1	0	0	0	0	2	130070,41	0,200000003	2,28810692	0,00055536697291665606	0,19992815908322566	0,000457457005	-0,9754354687636512	0,036394808826507891	1,0257374314991381
1	1	0	0	0	0	2	130310,41	0,200000003	2,28894496	0,0005553616077130039	0,1999262272687153	0,000457620132	-0,96210689872134874	0,03589750195777657	1,0390660015414406
1	1	0	0	0	0	2	130550,42	0,200000003	2,28989744	0,00055535175367444755	0,19992268053660928	0,000457802438	-0,94877827397966003	0,035400193048137613	1,0523946262831285
1	1	0	0	0	0	2	130790,42	0,200000003	2,29096413	0,00055534938214967648	0,19992182605748336	0,000458013732	-0,93544983150859878	0,034902890939260819	1,0657230687541899
1	1	0	0	0	0	2	131030,43	0,200000003	2,29191661	0,00055535692542129094	0,19992454232868099	0,000458210387	-0,92212145875610688	0,034405591431677587	1,0790514415066811
1	1	0	0	0	0	2	131270,43	0,200000003	2,29311657	0,00055533631379240083	0,19992104168517978	0,000458442257	-0,90879324100193818	0,033908297707290202	1,0923796592608496
1	1	0	0	0	0	2	131510,43	0,200000003	2,2941072	0,00055534933382852211	0,19992572889745008	0,000458651048	-0,8954649270644329	0,033411000394173203	1,105707973198355
1	1	0	0	0	0	2	131750,43	0,200000003	2,29542136	0,00055534889325747885	0,1999255702918993	0,000458913419	-0,8821365145226697	0,032913699401998765	1,1190363857401178
1	1	0	0	0	0	2	131990,43	0,200000003	2,29645014	0,00055534881938000525	0,19992554369601299	0,000459119037	-0,8688081259686912	0,032416399304840826	1,1323647742940963
1	1	0	0	0	0	2	132230,43	0,200000003	2,29803109	0,00055534935910916992	0,19992573799848186	0,000459435571	-0,85547976354361882	0,031919100182587501	1,1456931367191685
1	1	0	0	0	0	2	132470,43	0,200000003	2,29860258	0,00055534594372080435	0,19992450845886262	0,00045954698	-0,84215144008060454	0,03142180251406096	1,159021460182183
1	1	0	0	0	0	2	132710,43	0,200000003	2,30006909	0,00055534762954960262	0,19992511535713507	0,000459841569	-0,82882305121848589	0,030924502405405894	1,1723498490443021
1	1	0	0	0	0	2	132950,43	0,200000003	2,30111694	0,00055534882281803418	0,1999255449337032	0,000460052048	-0,81549466987472026	0,030427202577270688	1,1856782303880669
1	1	0	0	0	0	2	133190,43	0,200000003	2,30265975	0,00055534655869338253	0,19992472984895616	0,000460358628	-0,80216636251296589	0,029929905509503795	1,1990065377498211
1	1	0	0	0	0	2	133430,43	0,200000003	2,30366921	0,00055535479495260448	0,19992769490181213	0,000460567273	-0,78883795354620915	0,029432604650717658	1,2123349467165776
1	1	0	0	0	0	2	133670,43	0,200000003	2,30500269	0,0005553474865232905	0,19992506386767072	0,00046082781	-0,77550960786418765	0,028935306153170074	1,2256632923985994
1	1	0	0	0	0	2	133910,43	0,200000003	2,30629802	0,00055535102288673325	0,19992633695831094	0,000461089716	-0,76218112856872781	0,028438002670325462	1,238991771694059
1	1	0	0	0	0	2	134150,43	0,200000003	2,30761242	0,00055534995508111187	0,19992595254834742	0,000461351621	-0,74885270655265792	0,027940701324651904	1,2523201937101286
1	1	0	0	0	0	2	134390,43	0,200000003	2,30902195	0,00055536359809173478	0,19993086403140317	0,000461644755	-0,73552416287146534	0,027443395439489037	1,2656487373913213
1	1	0	0	0	0	2	134630,43	0,200000003	2,31016469	0,00055535387380172813	0,19992736328754851	0,000461865129	-0,7221958015143895	0,026946096357084102	1,2789770987483979
1	1	0	0	0	0	2	134870,43	0,200000003	2,31184101	0,00055534331281152045	0,19992356133166861	0,0004621915	-0,70886757050515878	0,026448802138132528	1,2923053297576288
1	1	0	0	0	0	2	135110,43	0,200000003	2,31298399	0,00055535618102053798	0,19992819388619011	0,000462430704	-0,69553921973476467	0,025951503450730922	1,3056336805280227
1	1	0	0	0	0	2	135350,43	0,200000003	2,31431723	0,00055534723629636896	0,19992497378599309	0,000462689815	-0,68221083358757594	0,025454203443373546	1,3189620666752109
1	1	0	0	0	0	2	135590,43	0,200000003	2,31593633	0,00055535110088768928	0,19992636503865072	0,000463016739	-0,66888246170270797	0,024956903968162528	1,3322904385600795
1	1	0	0	0	0	2	135830,43	0,200000003	2,31704116	0,00055535669686810835	0,1999283795912864	0,000463242293	-0,65555397381195507	0,024459600164615981	1,3456189264508325
1	1	0	0	0	0	2	136070,43	0,200000003	2,31812692	0,00055534917330079616	0,19992567110747776	0,000463453092	-0,64222547685504576	0,023962296022798941	1,3589474234077426
1	1	0	0	0	0	2	136310,43	0,200000003	2,31917453	0,00055534229783299891	0,19992319593945808	0,00046365679	-0,62889708585094784	0,023464995834223754	1,3722758144118408
1	1	0	0	0	0	2	136550,43	0,200000003	2,32046986	0,00055535032747106419	0,19992608660870925	0,00046392245	-0,61556867936310528	0,022967695067929235	1,385604220899683
1	1	0	0	0	0	2	136790,43	0,200000003	2,32153654	0,0005553480031771792	0,19992524986304157	0,000464133773	-0,60224028032169523	0,02247039457947112	1,3989326199410934
1	1	0	0	0	0	2	137030,43	0,200000003	2,32252717	0,00055534690769016749	0,19992485548777904	0,000464330922	-0,58891181566616563	0,021973091642861994	1,4122610845966226
1	1	0	0	0	0	2	137270,43	0,200000003	2,32340336	0,00055534746214747424	0,19992505509237827	0,000464506535	-0,5755834337992992	0,021475791795209197	1,425589466463489
1	1	0	0	0	0	2	137510,43	0,200000003	2,32422233	0,00055534720760666662	0,19992496345770186	0,000464670069	-0,56225514550101754	0,020978495438726099	1,4389177547617709
1	1	0	0	0	0	2	137750,43	0,200000003	2,32509851	0,0005553587277241879	0,19992911069936064	0,000464854878	-0,54892672110626182	0,020481194004300579	1,452246179156527
1	1	0	0	0	0	2	137990,43	0,200000003	2,32563186	0,00055534779429187379	0,19992517466434339	0,000464952347	-0,53559826059283245	0,019983891222238778	1,4655746396699558
1	1	0	0	0	0	2	138230,43	0,200000003	2,32620335	0,0005553597747253047	0,19992948761970368	0,00046507665	-0,52226979449302227	0,019486588231741594	1,4789031057697664
1	1	0	0	0	0	2	138470,43	0,200000003	2,32669854	0,00055536022897892531	0,19992965115098154	0,000465176039	-0,50894124528980698	0,018989282140544637	1,4922316549729821
1	1	0	0	0	0	2	138710,43	0,200000003	2,3274796	0,00055534602235423194	0,19992453676689216	0,000465320278	-0,49561267452718579	0,018491975244937254	1,5055602257356032
1	1	0	0	0	0	2	138950,43	0,200000003	2,32751775	0,0005553512247693207	0,19992640963603107	0,000465332269	-0,48228423764966195	0,017994673344762867	1,518888662613127
1	1	0	0	0	0	2	139190,43	0,200000003	2,32774639	0,0005553473893983497	0,19992502890269754	0,00046537476	-0,46895574879763053	0,017497369505349722	1,532217151465159
1	1	0	0	0	0	2	139430,43	0,200000003	2,32795572	0,00055535615924331872	0,19992818604639238	0,000465423975	-0,45562725151646733	0,017000065351434339	1,5455456487463222
1	1	0	0	0	0	2	139670,43	0,200000003	2,32860351	0,00055535355358488026	0,19992724800950131	0,000465551304	-0,44229873974259539	0,016502760656776502	1,5588741605201936
1	1	0	0	0	0	2	139910,43	0,200000003	2,32875586	0,00055534184606621664	0,19992303330344186	0,000465571939	-0,42897025907828346	0,016005457122858179	1,572202641184505
1	1	0	0	0	0	2	140150,43	0,200000003	2,32904148	0,00055533797691762445	0,19992164041016659	0,000465625781	-0,41564200119456832	0,015508161901183456	1,5855308990682208
1	1	0	0	0	0	2	140390,43	0,200000003	2,32911777	0,0005553438122678135	0,19992374113590598	0,00046564595	-0,40231380016327238	0,015010868800748931	1,5988591000995168
1	1	0	0	0	0	2	140630,43	0,200000003	2,3294034	0,00055534568363096979	0,19992441482653683	0,000465704623	-0,38898549586179526	0,014513571847165098	1,6121874044009939
1	1	0	0	0	0	2	140870,43	0,200000003	2,3295939	0,00055533893929090758	0,19992198686449434	0,000465737045	-0,37565717484061594	0,014016274269746693	1,6255157254221731
1	1	0	0	0	0	2	141110,43	0,200000003	2,32976532	0,00055534742748323411	0,19992504261325379	0,00046577843	-0,36232893097095117	0,013518979570955029	1,6388439692918378
1	1	0	0	0	0	2	141350,43	0,200000003	2,32997489	0,00055533741590215098	0,19992143844462774	0,000465811929	-0,34900085105294829	0,013021690989420306	1,652172049209841
1	1	0	0	0	0	2	141590,43	0,200000003	2,33026075	0,0005553416350094809	0,19992295732302886	0,00046587261	-0,33567272611779245	0,01252440072823508	1,6655001741449965
1	1	0	0	0	0	2	141830,43	0,200000003	2,33048916	0,00055534610374851354	0,19992456606882893	0,000465922029	-0,32234446297078598	0,012027105310179882	1,6788284372920029
1	1	0	0	0	0	2	142070,43	0,200000003	2,33077502	0,00055534972294999488	0,19992586898115837	0,000465982215	-0,30901611109114778	0,011529806581390886	1,692156789171641
1	1	0	0	0	0	2	142310,43	0,200000003	2,33094645	0,00055534599907779027	0,19992452838737446	0,000466013356	-0,2956878649041271	0,011032511796135557	1,7054850353586614
1	1	0	0	0	0	2	142550,43	0,200000003	2,33144164	0,00055534058453059859	0,19992257915069043	0,000466107827	-0,28235964352409366	0,010535217936462275	1,718813256738695
1	1	0	0	0	0	2	142790,43	0,200000003	2,33136535	0,00055535214561472333	0,19992674114032416	0,000466102269	-0,26903133907029526	0,010037920977195131	1,7321415611924941
1	1	0	0	0	0	2	143030,43	0,200000003	2,33172727	0,00055535408059010899	0,19992743773135398	0,00046617625	-0,25570289396423341	0,0095406187700029261	1,7454700062985558
1	1	0	0	0	0	2	143270,43	0,200000003	2,33207035	0,00055535890241298413	0,19992917358731744	0,000466248894	-0,24237424592254298	0,0090433089910095706	1,7587986543402467
1	1	0	0	0	0	2	143510,43	0,200000003	2,33229876	0,00055535940913276538	0,19992935600641014	0,000466294994	-0,22904555200478422	0,008545997500318423	1,7721273482580054
1	1	0	0	0	0	2	143750,43	0,200000003	2,33250833	0,00055535414459390771	0,19992746077271792	0,00046633248	-0,21571696507718982	0,0080486900015741594	1,7854559351856
1	1	0	0	0	0	2	143990,43	0,200000003	2,33292747	0,00055536069217075904	0,19992981790001558	0,00046642177	-0,20238833234271398	0,0075513807937135603	1,7987845679200762
1	1	0	0	0	0	2	144230,43	0,200000003	2,33313704	0,00055534359355270861	0,19992366239848054	0,000466449303	-0,18905992164205747	0,007054079870233289	1,8121129786207325
1	1	0	0	0	0	2	144470,43	0,200000003	2,33346081	0,00055534834709349606	0,19992537367289629	0,000466518017	-0,17573154194941114	0,0065567801037035686	1,8254413583133782
1	1	0	0	0	0	2	144710,43	0,200000003	2,33389878	0,00055535049401885939	0,19992614656590611	0,000466607395	-0,16240316608756694	0,0060594804801062234	1,838769734175223
1	1	0	0	0	0	2	144950,43	0,200000003	2,33429885	0,00055535350775553126	0,19992723151093827	0,000466689904	-0,14907479436301766	0,0055621810108769165	1,8520981058997728
1	1	0	0	0	0	2	145190,43	0,200000003	2,33466077	0,00055535036630183462	0,19992610058778442	0,000466759637	-0,13574640219951827	0,0050648807790429005	1,8654264980632723
1	1	0	0	0	0	2	145430,43	0,200000003	2,33513689	0,00055534887935635117	0,19992556528749414	0,000466853555	-0,1224180695305301	0,0045675827670290893	1,8787548307322605
1	1	0	0	0	0	2	145670,43	0,200000003	2,33547997	0,00055534852608044941	0,19992543810818938	0,000466921862	-0,10908972420548146	0,0040702842828006445	1,8920831760573091
1	1	0	0	0	0	2	145910,43	0,200000003	2,3359561	0,00055535034848170144	0,19992609417253744	0,000467018574	-0,095761353908595917	0,0035729848668393907	1,9054115463541949
1	1	0	0	0	0	2	146150,43	0,200000003	2,33647037	0,0005553452700078487	0,19992426592223654	0,000467117119	-0,082433094893708813	0,0030756896029591187	1,9187398053690819
1	1	0	0	0	0	2	146390,43	0,200000003	2,33692741	0,00055535213906980218	0,19992673878415286	0,000467214268	-0,069104752565849165	0,0025783912305598259	1,9320681476969418
1	1	0	0	0	0	2	146630,43	0,200000003	2,33746099	0,00055534890041086413	0,19992557286711763	0,000467318227	-0,055776345613887744	0,0020810904469484077	1,9453965546489037
1	1	0	0	0	0	2	146870,43	0,200000003	2,33791804	0,00055535217086474106	0,19992675023032909	0,000467412348	-0,042447937705217978	0,0015837896276409152	1,9587249625575734
1	1	0	0	0	0	2	147110,43	0,200000003	2,33843231	0,00055536063368949626	0,19992979684676429	0,000467522303	-0,02911930831843616	0,0010864805446872813	1,9720535919443552
1	1	0	0	0	0	2	147350,43	0,200000003	2,33915615	0,00055535051237046714	0,1999261531724839	0,000467658479	-0,015790820336240048	0,00058917673772886029	1,985382079926551
1	1	0	0	0	0	2	147590,43	0,200000003	2,33967042	0,00055535092857645619	0,19992630300661654	0,000467761653	-0,0024623924156353018	9,1875171749167104E-005	1,9987105078471558
1	1	0	0	0	0	2	147600,04	0,200000003	2,33965135	0,00053372646096431546	0,19992663921173802	0,000467758626	-0,0019286659546709862	7,1961119887729664E-005	1,9992442343081203