File: Experimentelles/Rohdaten/Batterietests/AlteZelle/150511_LLTO_LTO_Tests/ZView-Export/LLTO_LP30_LTO_05_GCPL_C01_loop3.txt
EC-Lab ASCII FILE
Nb header lines : 3
mode	ox/red	error	control changes	Ns changes	counter inc.	Ns	time/s	control/V/mA	Ewe/V	dq/mA.h	<I>/mA	P/W	(Q-Qo)/mA.h	x	Capacity/mA.h
1	0	0	1	1	0	1	125477,97	-0,0100000007	2,77698374	0	0	0	0	0	0
1	0	0	1	0	0	1	125617,97	-0,0100000007	2,48084068	-2,7758351593433568E-005	-0,0099928090626905613	2,47905664E-005	-0,00038847429021261421	1,4494498077070845E-005	0,00038847429021261421
1	0	0	1	0	0	1	125757,97	-0,0100000007	2,31114435	-2,775698596616793E-005	-0,0099923174802093914	2,30936876E-005	-0,00077707773803065626	2,8993815198054451E-005	0,00077707773803065626
1	0	0	1	0	0	1	125897,98	-0,0100000007	2,17322183	-2,7757538729295549E-005	-0,009992516469505193	2,17159541E-005	-0,001165681764694808	4,3493153916564678E-005	0,001165681764694808
1	0	0	1	0	0	1	126037,98	-0,0100000007	2,05273294	-2,7757316384257539E-005	-0,0099924363948694131	2,05118031E-005	-0,0015542815617396371	5,7992334822291187E-005	0,0015542815617396371
1	0	0	1	0	0	1	126177,98	-0,0100000007	1,94417834	-2,7756450396238102E-005	-0,0099921246825670669	1,94264721E-005	-0,0019428807350862234	7,2491492456997683E-005	0,0019428807350862234
1	0	0	1	0	0	1	126317,98	-0,0100000007	1,84419739	-2,7756564516263706E-005	-0,0099921657494936282	1,84275268E-005	-0,0023314718265947856	8,6990348547461363E-005	0,0023314718265947856
1	0	0	1	0	0	1	126457,99	-0,0100000007	1,75063241	-2,7756453468050394E-005	-0,0099921257511748045	1,7492539E-005	-0,0027200642883822083	0,0001014892557648717	0,0027200642883822083
1	0	0	1	0	0	1	126597,99	-0,0100000007	1,66193652	-2,7757082560824026E-005	-0,0099923522573207629	1,66066548E-005	-0,0031086637996177978	0,0001159884260066712	0,0031086637996177978
1	0	0	1	0	0	1	126737,99	-0,0100000007	1,57692599	-2,7756607841389875E-005	-0,009992181335994473	1,57569302E-005	-0,0034972550659633926	0,00013048728862053965	0,0034972550659633926
1	0	0	1	0	0	1	126878,00	-0,0100000007	1,49506617	-2,7756240921664154E-005	-0,0099920492359881037	1,49387752E-005	-0,0038858495443126976	0,00014498627107858509	0,0038858495443126976
1	0	0	1	0	0	1	127018,00	-0,0100000007	1,41608965	-2,7756258270134112E-005	-0,0099920555184200998	1,41496466E-005	-0,0042744388901254944	0,00015948506203479264	0,0042744388901254944
1	0	0	1	0	0	1	127158,00	-0,0100000007	1,33974814	-2,7755676534130342E-005	-0,0099918460622365274	1,33865569E-005	-0,0046630289619116902	0,00017398388007804381	0,0046630289619116902
1	0	0	1	0	0	1	127298,00	-0,0100000007	1,26560271	-2,7756659865172371E-005	-0,0099922000582535923	1,26461555E-005	-0,0050516225350364077	0,00018848282876094282	0,0050516225350364077
1	0	0	1	0	0	1	127438,01	-0,0100000007	1,19367218	-2,7756357483048406E-005	-0,0099920912343634419	1,19272818E-005	-0,0054402174453627699	0,00020298182733663306	0,0054402174453627699
1	0	0	1	0	0	1	127578,01	-0,0100000007	1,12307835	-2,7756527681162374E-005	-0,0099921524672507418	1,12219705E-005	-0,0058288099077784205	0,00021748073457748339	0,0058288099077784205
1	0	0	1	0	0	1	127718,01	-0,0100000007	1,05349648	-2,7756131680320122E-005	-0,0099920099257010637	1,05265472E-005	-0,0062173999328831066	0,00023197955087898464	0,0062173999328831066
1	0	0	1	0	0	1	127858,02	-0,0100000007	0,986205995	-2,7758902195685856E-005	-0,0099930073128097638	9,85516363E-006	-0,0066059987260140429	0,00024647869432733402	0,0066059987260140429
1	0	0	1	0	0	1	127998,02	-0,0100000007	0,921970725	-2,7758525480619734E-005	-0,0099928716609566387	9,21313494E-006	-0,0069946163038765542	0,00026097853865927482	0,0069946163038765542
1	1	0	0	0	0	2	128127,91	0,0100000007	1,10229659	2,7796165612888419E-005	0,010006421877909653	1,10300443E-005	-0,0069107456321450304	0,00025784921113165424	0,00022236782028469149
1	1	0	0	0	0	2	128267,92	0,0100000007	1,30328965	2,7796102092032218E-005	0,010006398976023542	1,30412363E-005	-0,0065216001775644966	0,00024332967100962624	0,00061151327486522496
1	1	0	0	0	0	2	128407,92	0,0100000007	1,45755732	2,7796514728882662E-005	0,010006547524566971	1,45851163E-005	-0,006132454104324073	0,00022881010780456595	0,0010006593481056496
1	1	0	0	0	0	2	128547,92	0,0100000007	1,59087801	2,77964625154208E-005	0,010006528760709136	1,59191659E-005	-0,0057433060353352211	0,00021429047013544845	0,0013898074170945003
1	1	0	0	0	0	2	128687,93	0,0100000007	1,7102021	2,7796190738471018E-005	0,01000643088578101	1,71130196E-005	-0,0053541576783533862	0,0001997708217209256	0,0017789557740763347
1	1	0	0	0	0	2	128827,93	0,0100000007	1,81894755	2,7795596281118275E-005	0,01000621690062339	1,82007843E-005	-0,0049650131015641952	0,00018525131435047277	0,0021681003508655251
1	1	0	0	0	0	2	128967,93	0,0100000007	1,9172672	2,779666369413543E-005	0,010006601183615211	1,91853287E-005	-0,0045758607274847443	0,0001707315160526368	0,0025572527249449763
1	1	0	0	0	0	2	129107,93	0,0100000007	2,00666976	2,7796756181038086E-005	0,010006634440848843	2,00800114E-005	-0,0041867097682459213	0,00015621177054440691	0,0029464036841838003
1	1	0	0	0	0	2	129247,94	0,0100000007	2,08704019	2,7797531411155232E-005	0,010006913543920027	2,08848305E-005	-0,0037975580045441606	0,00014169199502058323	0,0033355554478855597
1	1	0	0	0	0	2	129387,94	0,0100000007	2,15862703	2,7796701192700611E-005	0,010006614682831914	2,16005483E-005	-0,0034084108303846291	0,00012717239073875082	0,0037247026220450912
1	1	0	0	0	0	2	129527,94	0,0100000007	2,22166562	2,7798022926060688E-005	0,010007090460276605	2,22324088E-005	-0,003019245303315568	0,0001126521016851881	0,004113868149114153
1	1	0	0	0	0	2	129667,94	0,0100000007	2,27725101	2,7797521583373763E-005	0,010006910015774069	2,27882465E-005	-0,0026300820707545219	9,813189824280439E-005	0,0045030313816751987
1	1	0	0	0	0	2	129807,95	0,0100000007	2,32638216	2,7797021640516403E-005	0,010006730034892931	2,32794791E-005	-0,0022409236369249318	8,3611873847543309E-005	0,0048921898155047885
1	1	0	0	0	0	2	129947,95	0,0100000007	2,36898279	2,7797559792020669E-005	0,010006923735317566	2,37062304E-005	-0,001851761845118719	6,9091724161659584E-005	0,0052813516073110003
1	1	0	0	0	0	2	130087,95	0,0100000007	2,40617967	2,7797443870920688E-005	0,010006882041722269	2,40783556E-005	-0,001462601024278689	5,4571610703829613E-005	0,0056705124281510304
1	1	0	0	0	0	2	130227,96	0,0100000007	2,43867922	2,7797315158932986E-005	0,010006835689183381	2,44034618E-005	-0,0010734401616086672	4,00514956852664E-005	0,0060596732908210509
1	1	0	0	0	0	2	130367,96	0,0100000007	2,46699691	2,7796633013317155E-005	0,010006590101578672	2,46862273E-005	-0,00068428241592825754	2,5531496965776458E-005	0,0064488310365014618
1	1	0	0	0	0	2	130507,96	0,0100000007	2,49204946	2,7798026591280682E-005	0,010007091816920938	2,49381683E-005	-0,00029511632898102259	1,1011187022406307E-005	0,0068379971234486963
1	1	0	0	0	0	2	130647,96	0,0100000007	2,51418042	2,7797098969264576E-005	0,010006757852189598	2,51587953E-005	9,4047807834534848E-005	-3,5090501589289728E-006	0,007227161260264256
1	1	0	0	0	0	2	130787,97	0,0100000007	2,53388643	2,7796961170879917E-005	0,010006708235849814	2,53558628E-005	0,00048321069950171584	-1,8029240882104208E-005	0,0076163241519314355
1	1	0	0	0	0	2	130927,97	0,0100000007	2,55135822	2,7797120421400499E-005	0,010006765602239714	2,55308441E-005	0,00087236788322337754	-3,2549218634157702E-005	0,008005481335653097
1	1	0	0	0	0	2	131067,97	0,0100000007	2,56699705	2,7796802939019267E-005	0,010006651273622349	2,56870444E-005	0,0012615268987582886	-4,7069264733626438E-005	0,008394640351188009
1	1	0	0	0	0	2	131207,97	0,0100000007	2,58066893	2,7797190710126112E-005	0,010006987089930259	2,58247201E-005	0,0016506777855668621	-6,1589007539386317E-005	0,008783791237996585
1	1	0	0	0	0	2	131347,97	0,0100000007	2,59266067	2,7796412749888582E-005	0,010006707024288568	2,59439948E-005	0,002039832721348913	-7,6108901417790541E-005	0,0091729461737786355
1	1	0	0	0	0	2	131487,97	0,0100000007	2,60335374	2,779627566251697E-005	0,01000665767284251	2,60508696E-005	0,0024289803012897245	-9,0628520839868083E-005	0,009562093753719447
1	1	0	0	0	0	2	131627,97	0,0100000007	2,61288214	2,77969697228012E-005	0,010006907534505739	2,61468704E-005	0,0028181362262298442	-0,00010514845162508982	0,0099512496786595686
1	1	0	0	0	0	2	131767,97	0,0100000007	2,6210165	2,7797250471647002E-005	0,010007008604074413	2,62285339E-005	0,003207293754919648	-0,00011966844224836851	0,010340407207349371
1	1	0	0	0	0	2	131907,97	0,0100000007	2,62840629	2,779656826218383E-005	0,010006763008706098	2,63018392E-005	0,0035964526096988147	-0,00013418848234982429	0,010729566062128536
1	1	0	0	0	0	2	132047,97	0,0100000007	2,63478398	2,7796646338577069E-005	0,010006791116203267	2,6365733E-005	0,0039856063381229734	-0,00014870833118008221	0,01111871979055269
1	1	0	0	0	0	2	132187,97	0,0100000007	2,64043593	2,7796783211847974E-005	0,010006840390573085	2,64224218E-005	0,0043747606472998637	-0,00016322820167900547	0,011507874099729582
1	1	0	0	0	0	2	132327,97	0,0100000007	2,64555335	2,7797592339519827E-005	0,010007131676489373	2,64744012E-005	0,0047639180943202829	-0,0001777481892550896	0,01189703154675
1	1	0	0	0	0	2	132467,97	0,0100000007	2,65019345	2,779657317413431E-005	0,010006764777007994	2,65198632E-005	0,0051530757132244595	-0,00019226818324438781	0,012286189165654179
1	1	0	0	0	0	2	132607,97	0,0100000007	2,65424156	2,7796689416851021E-005	0,010006806624379464	2,65604813E-005	0,0055422304137406131	-0,00020678806834470512	0,012675343866170338
1	1	0	0	0	0	2	132747,97	0,0100000007	2,6580224	2,7797019122944522E-005	0,010006925318554552	2,65986309E-005	0,0059313873724351309	-0,00022130803770069331	0,013064500824864858
1	1	0	0	0	0	2	132887,97	0,0100000007	2,66130686	2,7796517972058304E-005	0,010006744904263741	2,6631018E-005	0,0063205479264472589	-0,00023582814120281552	0,013453661378876987
1	1	0	0	0	0	2	133027,97	0,0100000007	2,6644001	2,7796656054289392E-005	0,010006794613859155	2,66621046E-005	0,0067096997412790413	-0,00025034791863436902	0,01384281319370877
1	1	0	0	0	0	2	133167,97	0,0100000007	2,66714978	2,7796453890804614E-005	0,010006721835016022	2,66894258E-005	0,0070988559188981504	-0,00026486785884738358	0,01423196937132788
1	1	0	0	0	0	2	133307,97	0,0100000007	2,66957474	2,779739675184505E-005	0,01000706126493747	2,67145988E-005	0,0074880120399031962	-0,0002793877969480513	0,014621125492332925
1	1	0	0	0	0	2	133447,97	0,0100000007	2,67182803	2,7797164064159408E-005	0,010006977497383747	2,67369232E-005	0,0078771747460078707	-0,00029390798074763994	0,0150102881984376
1	1	0	0	0	0	2	133587,97	0,0100000007	2,67404294	2,779699300141591E-005	0,010006915914805723	2,67589221E-005	0,0082663340133566784	-0,00030842803624262374	0,01539944746578641
1	1	0	0	0	0	2	133727,97	0,0100000007	2,67557073	2,7796935297859213E-005	0,010006895141528562	2,67741561E-005	0,0086554923329492595	-0,00032294805637554842	0,015788605785378992
1	1	0	0	0	0	2	133867,97	0,0100000007	2,67723179	2,7797999302442704E-005	0,010007278183118688	2,6791804E-005	0,0090446571027599872	-0,00033746831717478458	0,016177770555189718
1	1	0	0	0	0	2	134007,97	0,0100000007	2,67910314	2,7797020961271805E-005	0,010006925980352272	2,68095864E-005	0,0094338215577185958	-0,00035198856622646483	0,016566935010148323
1	1	0	0	0	0	2	134147,97	0,0100000007	2,68065	2,7797802447807043E-005	0,010007207315460938	2,68258209E-005	0,0098229867218582861	-0,00036650884173864474	0,016956100174288013
1	1	0	0	0	0	2	134287,97	0,0100000007	2,6819675	2,7796500611429414E-005	0,01000673865443832	2,6837748E-005	0,010212141866398256	-0,00038102874340608762	0,017345255318827994
1	1	0	0	0	0	2	134427,97	0,0100000007	2,68334222	2,7796123758682774E-005	0,010006602987470755	2,68511394E-005	0,01060128948058659	-0,0003955483641059863	0,017734402933016326
1	1	0	0	0	0	2	134567,97	0,0100000007	2,68454528	2,7796095911102989E-005	0,0100065929623436	2,6863152E-005	0,010990442764921533	-0,00041006819636667846	0,018123556217351267
1	1	0	0	0	0	2	134707,97	0,0100000007	2,68569088	2,7796159740796106E-005	0,010006615941029528	2,68746771E-005	0,01137959146855177	-0,00042458785771511936	0,018512704920981501
1	1	0	0	0	0	2	134847,97	0,0100000007	2,68670297	2,7796846371609715E-005	0,010006863128083754	2,68854692E-005	0,011768739778860838	-0,0004391075043882185	0,018901853231290566
1	1	0	0	0	0	2	134987,97	0,0100000007	2,68777227	2,779565413855016E-005	0,010006433924249467	2,68950153E-005	0,012157884761031253	-0,00045362702688398989	0,019290998213460979
1	1	0	0	0	0	2	135127,97	0,0100000007	2,68853617	2,779561635820816E-005	0,010006420323328474	2,69026223E-005	0,012547022919079754	-0,00046814629476259744	0,019680136371509478
1	1	0	0	0	0	2	135267,97	0,0100000007	2,68933797	2,7795555040395507E-005	0,010006398248919373	2,69105876E-005	0,012936161725454029	-0,00048266558683111136	0,020069275177883754
1	1	0	0	0	0	2	135407,97	0,0100000007	2,69015908	2,7795372001930243E-005	0,010006332355082187	2,69186257E-005	0,013325293277585928	-0,00049718460823408877	0,020458406730015648
1	1	0	0	0	0	2	135547,97	0,0100000007	2,69077015	2,7795158062595872E-005	0,010006255336933866	2,69245338E-005	0,013714428978222474	-0,00051170378442335232	0,020847542430652192
1	1	0	0	0	0	2	135687,97	0,0100000007	2,69136214	2,7794696295892611E-005	0,010006089100946702	2,6930009E-005	0,014103558697606595	-0,00052622273744404595	0,021236672150036304
1	1	0	0	0	0	2	135827,97	0,0100000007	2,69195414	2,7794358240337008E-005	0,010005967400965725	2,6935606E-005	0,014492686701031715	-0,00054074162644000218	0,021625800153461421
1	1	0	0	0	0	2	135967,97	0,0100000007	2,69245052	2,7795206344272528E-005	0,010006272718334742	2,6941394E-005	0,014881815353046019	-0,0005552605396356928	0,022014928805475728
1	1	0	0	0	0	2	136107,97	0,0100000007	2,69275618	2,779425033580305E-005	0,010005928555339578	2,69435259E-005	0,015270937828426611	-0,00056977922237287507	0,02240405128085632
1	1	0	0	0	0	2	136247,97	0,0100000007	2,69311881	2,7794117524650778E-005	0,01000588074333224	2,69470256E-005	0,015660060663976397	-0,0005842979185484544	0,022793174116406109
1	1	0	0	0	0	2	136387,97	0,0100000007	2,69342446	2,7794283521309907E-005	0,010005940502120176	2,69502452E-005	0,016049180892019478	-0,00059881651743445261	0,02318229434444919
1	1	0	0	0	0	2	136527,97	0,0100000007	2,69367266	2,7793794736317878E-005	0,010005764539550578	2,69522552E-005	0,016438296787679405	-0,00061333495467341043	0,023571410240109117
1	1	0	0	0	0	2	136667,97	0,0100000007	2,69403553	2,7794177333255197E-005	0,010005902274426462	2,6956257E-005	0,016827411937095075	-0,00062785336406899162	0,023960525389524787
1	1	0	0	0	0	2	136807,97	0,0100000007	2,69407368	2,7794029836956829E-005	0,010005849175767357	2,69564953E-005	0,017216528161230448	-0,00064237181356380979	0,02434964161366016
1	1	0	0	0	0	2	136947,97	0,0100000007	2,69426465	2,7792964834202496E-005	0,010005465774835786	2,6957372E-005	0,017605638417474877	-0,00065689004038859328	0,024738751869904589
1	1	0	0	0	0	2	137087,97	0,0100000007	2,69443631	2,7793528085884947E-005	0,010005668545409742	2,69596367E-005	0,017994750776672067	-0,00067140834567737152	0,025127864229101779
1	1	0	0	0	0	2	137227,97	0,0100000007	2,69460821	2,7793604814861386E-005	0,010005696167836938	2,69614302E-005	0,018383860694931462	-0,00068592655989147866	0,025516974147361174
1	1	0	0	0	0	2	137367,97	0,0100000007	2,69485641	2,7793579015001242E-005	0,010005686879888739	2,69638895E-005	0,018772966412314378	-0,00070044461736523635	0,02590607986474409
1	1	0	0	0	0	2	137507,97	0,0100000007	2,69500923	2,7793421626608406E-005	0,010005630220076184	2,69652664E-005	0,019162072935964566	-0,00071496270492190989	0,026295186388394275
1	1	0	0	0	0	2	137647,97	0,0100000007	2,69495201	2,7792944163084032E-005	0,010005458333234302	2,69642296E-005	0,019551180067749709	-0,00072948081516891648	0,026684293520179421
1	1	0	0	0	0	2	137787,97	0,0100000007	2,69518113	2,7793286843380579E-005	0,010005581698121757	2,69668544E-005	0,019940281669009798	-0,00074399871906459725	0,02707339512143951
1	1	0	0	0	0	2	137927,97	0,0100000007	2,69512391	2,7793158660798019E-005	0,010005535552399258	2,69661577E-005	0,020329385292545955	-0,00075851669841411699	0,027462498744975667
1	1	0	0	0	0	2	138067,97	0,0100000007	2,6952765	2,7793159642412019E-005	0,01000553590578024	2,69676857E-005	0,020718490767806726	-0,00077303474685397197	0,027851604220236438
1	1	0	0	0	0	2	138207,97	0,0100000007	2,69531488	2,779262367548007E-005	0,010005342957714928	2,69675493E-005	0,02110759564600255	-0,00078755277301653094	0,028240709098432262
1	1	0	0	0	0	2	138347,97	0,0100000007	2,69556308	2,7793371592027446E-005	0,010005612207629856	2,6970758E-005	0,021496703064828707	-0,00080207089397342349	0,028629816517258419
1	1	0	0	0	0	2	138487,97	0,0100000007	2,69552493	2,7793430920742038E-005	0,010005633565963766	2,69704342E-005	0,021885810234472163	-0,00081658900563297446	0,029018923686901875
1	1	0	0	0	0	2	138627,97	0,0100000007	2,69567752	2,7793177702929824E-005	0,010005542407565635	2,69717166E-005	0,022274917271632762	-0,00083110711234941197	0,029408030724062477
1	1	0	0	0	0	2	138767,97	0,0100000007	2,69571567	2,7792937194928531E-005	0,010005455824698714	2,69718639E-005	0,02266402175505791	-0,0008456251237825463	0,029797135207487622
1	1	0	0	0	0	2	138907,97	0,0100000007	2,69592571	2,7792710334631718E-005	0,010005374155004643	2,69737448E-005	0,023053125036783622	-0,00086014309037865882	0,030186238489213331
1	1	0	0	0	0	2	139047,97	0,0100000007	2,6959641	2,7792804735298784E-005	0,010005408139239467	2,69742213E-005	0,023442227827216141	-0,00087466103864396198	0,030575341279645856
1	1	0	0	0	0	2	139187,97	0,0100000007	2,69611669	2,7793423749402995E-005	0,010005630984282115	2,69763495E-005	0,023831333302947498	-0,00088917908710137498	0,03096444675537721
1	1	0	0	0	0	2	139327,97	0,0100000007	2,69617414	2,7793469811686211E-005	0,010005647566701478	2,6976968E-005	0,024220441440549693	-0,000903697234876768	0,031353554892979405
1	1	0	0	0	0	2	139467,97	0,0100000007	2,69630766	2,779406556994137E-005	0,010005862039639779	2,69788816E-005	0,024609553793558454	-0,00091821553993464768	0,03174266724598816
1	1	0	0	0	0	2	139607,97	0,0100000007	2,69632673	2,779420471186232E-005	0,010005912130723485	2,6979209E-005	0,024998668688874086	-0,00093273393984941478	0,032131782141303808
1	1	0	0	0	0	2	139747,97	0,0100000007	2,69634581	2,7794087268929514E-005	0,01000586985127429	2,69792854E-005	0,025387785286660842	-0,00094725240328566848	0,032520898739090566
1	1	0	0	0	0	2	139887,97	0,0100000007	2,69640326	2,7794018243905158E-005	0,01000584500226941	2,69797929E-005	0,025776898341364451	-0,0009617707345247264	0,032910011793794176
1	1	0	0	0	0	2	140027,97	0,0100000007	2,69646049	2,7794181695880576E-005	0,010005903844971354	2,69805241E-005	0,026166017516626938	-0,00097628929413006528	0,033299130969056659
1	1	0	0	0	0	2	140167,97	0,0100000007	2,69665146	2,7794151239459299E-005	0,01000589288066141	2,6982405E-005	0,026555135287658947	-0,0009908078013416768	0,033688248740088672
1	1	0	0	0	0	2	140307,97	0,0100000007	2,6967659	2,7793943748602438E-005	0,010005818183964626	2,6983349E-005	0,026944250073634458	-0,0010053261971768171	0,034077363526064192
1	1	0	0	0	0	2	140447,97	0,0100000007	2,69689965	2,7793258313813971E-005	0,010005571427479387	2,6984022E-005	0,027333364195627584	-0,0010198445682378816	0,034466477648057318
1	1	0	0	0	0	2	140587,97	0,0100000007	2,6971097	2,7794470267887747E-005	0,01000600773087768	2,69872999E-005	0,027722482182786861	-0,0010343630835134923	0,034855595635216589
1	1	0	0	0	0	2	140727,97	0,0100000007	2,69714785	2,779386722870792E-005	0,010005790636806909	2,69870961E-005	0,028111592444433114	-0,001048881310539825	0,035244705896862848
1	1	0	0	0	0	2	140867,97	0,0100000007	2,69722438	2,7794559550833786E-005	0,010006039872733226	2,6988535E-005	0,02850071551934392	-0,0010634000156462858	0,03563382897177367
1	1	0	0	0	0	2	141007,97	0,0100000007	2,69735789	2,7794613265742858E-005	0,010006059210097467	2,69899228E-005	0,028889837207275405	-0,0010779186690026829	0,036022950659705146
1	1	0	0	0	0	2	141147,97	0,0100000007	2,69741511	2,7794711553284688E-005	0,01000609459360699	2,69905904E-005	0,029278961043331322	-0,0010924374025084912	0,036412074495761075
1	1	0	0	0	0	2	141287,97	0,0100000007	2,69747257	2,7794411320135824E-005	0,010005986509690309	2,69908742E-005	0,02966809066218729	-0,0011069563517783445	0,036801204114617043
1	1	0	0	0	0	2	141427,97	0,0100000007	2,69772077	2,7795008851939606E-005	0,010006201621106013	2,69939374E-005	0,03005721648203175	-0,0011214751593019701	0,037190329934461504
1	1	0	0	0	0	2	141567,97	0,0100000007	2,69762516	2,7794854130802883E-005	0,010006145921505507	2,69928314E-005	0,030446341241551898	-0,0011359939272634704	0,037579454693981638
1	1	0	0	0	0	2	141707,97	0,0100000007	2,69791174	2,7795000373334106E-005	0,010006198568808512	2,699584E-005	0,030835464894629926	-0,0011505126539421277	0,03796857834705968
1	1	0	0	0	0	2	141847,97	0,0100000007	2,69796896	2,7794544317397392E-005	0,010006034388696982	2,6995971E-005	0,031224587944520134	-0,0011650313581150362	0,038357701396949875
1	1	0	0	0	0	2	141987,97	0,0100000007	2,69812179	2,7794887250392803E-005	0,010006157844556014	2,69978318E-005	0,031613715673988141	-0,0011795502368892842	0,038746829126417888
1	1	0	0	0	0	2	142127,97	0,0100000007	2,69815993	2,7794604605581197E-005	0,010006056092439757	2,69979391E-005	0,032002842238916531	-0,001194069072212993	0,039135955691346272
1	1	0	0	0	0	2	142267,97	0,0100000007	2,69724345	2,7794797155540438E-005	0,010006125410414237	2,6988957E-005	0,032391970941405568	-0,0012085879872919638	0,039525084393835315
1	1	0	0	0	0	2	142407,97	0,0100000007	2,69703341	2,7795029596994733E-005	0,010006209089324693	2,69870798E-005	0,032781101862001427	-0,0012231069851314826	0,039914215314431174
1	1	0	0	0	0	2	142547,97	0,0100000007	2,69722438	2,7794653455312883E-005	0,010006073678340411	2,69886259E-005	0,033170227156001958	-0,0012376257730351645	0,040303340608431699
1	1	0	0	0	0	2	142687,97	0,0100000007	2,69731975	2,7793954486079101E-005	0,010005822049455621	2,69889006E-005	0,03355935163316688	-0,0012521445304616118	0,040692465085596627
1	1	0	0	0	0	2	142827,97	0,0100000007	2,69739604	2,7794923615797114E-005	0,010006170936099517	2,6990605E-005	0,033948481958930624	-0,0012666635061071445	0,041081595411360365
1	1	0	0	0	0	2	142967,97	0,0100000007	2,69739604	2,7794649283970813E-005	0,010006072176657501	2,69903394E-005	0,034337604293125254	-0,0012811821835764885	0,041470717745554995
1	1	0	0	0	0	2	143107,97	0,0100000007	2,69739604	2,7794246384460067E-005	0,010005927132856326	2,69899483E-005	0,034726725524228659	-0,0012957008198880162	0,041859838976658406
1	1	0	0	0	0	2	143247,97	0,0100000007	2,69724345	2,7794723393136842E-005	0,010006098855953098	2,69888842E-005	0,035115850280065274	-0,0013102195877120786	0,042248963732495014
1	1	0	0	0	0	2	143387,97	0,0100000007	2,69718599	2,7794576662799552E-005	0,010006046033039936	2,69881675E-005	0,035504975536952237	-0,0013247383742310034	0,042638088989381978
1	1	0	0	0	0	2	143527,97	0,0100000007	2,69707155	2,7794219238476621E-005	0,010005917360303816	2,69866759E-005	0,03589409692390329	-0,0013392570163574162	0,04302721037633303
1	1	0	0	0	0	2	143667,97	0,0100000007	2,69722438	2,7793957031228477E-005	0,010005822965709251	2,69879492E-005	0,036283209122183718	-0,0013537753156421739	0,043416322574613459
1	1	0	0	0	0	2	143807,97	0,0100000007	2,69703341	2,7794421361604083E-005	0,010005990124618317	2,69864904E-005	0,036672326075374387	-0,0013682937923390254	0,043805439527804128
1	1	0	0	0	0	2	143947,97	0,0100000007	2,69701433	2,7795047160910653E-005	0,010006215412333432	2,6986907E-005	0,037061450785894957	-0,0013828125584722854	0,044194564238324698
1	1	0	0	0	0	2	144087,97	0,0100000007	2,69672775	2,7793973858468237E-005	0,010005829023514616	2,69829961E-005	0,037450576203830138	-0,001397331351000136	0,044583689656259885
1	1	0	0	0	0	2	144227,97	0,0100000007	2,69686151	2,779398000612855E-005	0,010005831236671986	2,69843404E-005	0,037839691861488768	-0,0014118497793589453	0,044972805313918515
1	1	0	0	0	0	2	144367,97	0,0100000007	2,69663239	2,7794856741920944E-005	0,010006146861507862	2,69828997E-005	0,038228811652224518	-0,001426368361928419	0,045361925104654259
1	1	0	0	0	0	2	144507,97	0,0100000007	2,69621229	2,7794186926860778E-005	0,010005905728123933	2,69780467E-005	0,038617935443524122	-0,001440887093764309	0,045751048895953862
1	1	0	0	0	0	2	144647,97	0,0100000007	2,69552493	2,7794596553987098E-005	0,010006053193866333	2,69715656E-005	0,039007057566906534	-0,0014554057633679661	0,046140171019336275
1	1	0	0	0	0	2	144787,97	0,0100000007	2,69569659	2,7794719085666454E-005	0,010006097305264	2,69734028E-005	0,039396186448844058	-0,0014699246851424013	0,046529299901273805
1	1	0	0	0	0	2	144927,97	0,0100000007	2,6956203	2,7794571286170848E-005	0,010006044097453906	2,69724951E-005	0,03978530782034352	-0,0014844433266922944	0,046918421272773267
1	1	0	0	0	0	2	145067,97	0,0100000007	2,6954484	2,7794584213652544E-005	0,010006048751346589	2,69707889E-005	0,040174434988529997	-0,0014989621845243738	0,047307548440959738
1	1	0	0	0	0	2	145207,97	0,0100000007	2,69550562	2,7794807270893622E-005	0,010006129051940814	2,69715765E-005	0,040563560844812032	-0,0015134809934075347	0,047696674297241773
1	1	0	0	0	0	2	145347,97	0,0100000007	2,69552493	2,7793992413000928E-005	0,010005835703145341	2,69709799E-005	0,040952679245260128	-0,0015279995241035069	0,048085792697689875
1	1	0	0	0	0	2	145487,97	0,0100000007	2,69535303	2,7794297800244144E-005	0,010005945642535696	2,69695556E-005	0,041341796141244896	-0,0015425179986659293	0,048474909593674643
1	1	0	0	0	0	2	145627,97	0,0100000007	2,6953721	2,7793534836421408E-005	0,010005670975602488	2,69690063E-005	0,041730908539576781	-0,0015570363054148755	0,048864021992006528
1	1	0	0	0	0	2	145767,97	0,0100000007	2,69552493	2,779462825310313E-005	0,01000606460554632	2,69715965E-005	0,042120029853237018	-0,0015715549448067094	0,049253143305666765
1	1	0	0	0	0	2	145907,97	0,0100000007	2,69550562	2,7794623834753619E-005	0,010006063014940744	2,69713983E-005	0,042509153651852051	-0,0015860736769155482	0,049642267104281798
1	1	0	0	0	0	2	146047,97	0,0100000007	2,69556308	2,779475612571049E-005	0,010006110639677768	2,69721022E-005	0,042898279191914944	-0,0016005924740001475	0,050031392644344691
1	1	0	0	0	0	2	146187,97	0,0100000007	2,69556308	2,7794402976313398E-005	0,010005983505914706	2,69717602E-005	0,043287407125055014	-0,0016151113603736736	0,050420520577484755
1	1	0	0	0	0	2	146327,97	0,0100000007	2,69558215	2,7794715440832077E-005	0,01000609599312383	2,69722532E-005	0,04367652901780073	-0,0016296300213719658	0,050809642470230477
1	1	0	0	0	0	2	146467,97	0,0100000007	2,69558215	2,779548682572527E-005	0,01000637369164193	2,69730026E-005	0,044065658866192544	-0,0016441489792061098	0,051198772318622285
1	1	0	0	0	0	2	146607,97	0,0100000007	2,69541025	2,7795592669294112E-005	0,010006411795320752	2,69713855E-005	0,04445478940334592	-0,0016586679627388739	0,051587902855775661
1	1	0	0	0	0	2	146747,97	0,0100000007	2,69542933	2,7795682464726269E-005	0,01000644412167127	2,69716638E-005	0,0448439302078152	-0,0016731873293589987	0,051977043660244941
1	1	0	0	0	0	2	146887,97	0,0100000007	2,69533396	2,7796316309366374E-005	0,010006672305706005	2,69713237E-005	0,045233074988289594	-0,0016877068443292205	0,052366188440719334
1	1	0	0	0	0	2	147027,98	0,0100000007	2,69533396	2,7796032855545894E-005	0,010006570262346598	2,6971049E-005	0,045622218940958541	-0,0017022263284129078	0,052755332393388282
1	1	0	0	0	0	2	147167,98	0,0100000007	2,69531488	2,7796320299307507E-005	0,010006673742084589	2,69711363E-005	0,046011362400514688	-0,0017167457940978938	0,053144475852944435
1	1	0	0	0	0	2	147307,98	0,0100000007	2,69523835	2,7794814930866576E-005	0,010006131809530646	2,69689099E-005	0,046400500259870451	-0,0017312650508318736	0,053533613712300192
1	1	0	0	0	0	2	147447,98	0,0100000007	2,6952765	2,779471367835585E-005	0,010006095358632486	2,69691936E-005	0,04678962690442416	-0,0017457838891265104	0,053922740356853907
1	1	0	0	0	0	2	147587,98	0,0100000007	2,69529557	2,7795003302809264E-005	0,010006199623419403	2,69696648E-005	0,047178750034964832	-0,0017603025963085962	0,054311863487394579
1	1	0	0	0	0	2	147727,98	0,0100000007	2,69518113	2,7794468220530285E-005	0,01000600699382911	2,69680004E-005	0,047567872035048474	-0,0017748212613118102	0,054700985487478221
1	1	0	0	0	0	2	147867,98	0,0100000007	2,69516206	2,779525716820111E-005	0,010006291014946168	2,69685752E-005	0,04795700116769488	-0,0017893401924405306	0,055090114620124621
1	1	0	0	0	0	2	148007,98	0,0100000007	2,69510484	2,7793923812659664E-005	0,010005811007026352	2,69667089E-005	0,048346127185665952	-0,0018038590073565267	0,055479240638095693
1	1	0	0	0	0	2	148147,98	0,0100000007	2,69495201	2,7794886151380426E-005	0,010006157448911619	2,69661141E-005	0,048735253927384851	-0,0018183778492765277	0,055868367379814592
1	1	0	0	0	0	2	148287,98	0,0100000007	2,69500923	2,7795278804118019E-005	0,010006298803875037	2,69670672E-005	0,04912438541042679	-0,0018328968681016659	0,056257498862856531
1	1	0	0	0	0	2	148427,98	0,0100000007	2,69487572	2,7795835857227859E-005	0,010006499342963202	2,69662723E-005	0,049513521174379347	-0,001847416046653335	0,056646634626809094
1	1	0	0	0	0	2	148567,98	0,0100000007	2,69499016	2,7796102663295136E-005	0,010006595393132394	2,69676766E-005	0,049902665276964563	-0,0018619355363306	0,057035778729394304
1	1	0	0	0	0	2	148707,98	0,0100000007	2,69493294	2,7795584359723664E-005	0,010006408803875858	2,69666016E-005	0,050291807993779597	-0,0018764549743029158	0,057424921446209338
1	1	0	0	0	0	2	148847,98	0,0100000007	2,69495201	2,7795482519703606E-005	0,010006372141474373	2,69666925E-005	0,050680946486030106	-0,0018909742546510496	0,05781405993845984
1	1	0	0	0	0	2	148987,98	0,0100000007	2,69497108	2,7795587980757568E-005	0,010006410107447861	2,69669854E-005	0,051070085786601389	-0,0019054935651587184	0,05820319923903113
1	1	0	0	0	0	2	149127,98	0,0100000007	2,69493294	2,779538851024376E-005	0,010006338298074125	2,69664106E-005	0,051459224609565626	-0,0019200128578462262	0,058592338061995366
1	1	0	0	0	0	2	149267,98	0,0100000007	2,69504738	2,7795400158502163E-005	0,010006342491446493	2,69675675E-005	0,051848363178568224	-0,0019345321410580835	0,058981476630997965
1	1	0	0	0	0	2	149407,98	0,0100000007	2,69481826	2,7796070212757005E-005	0,010006583710940496	2,69659249E-005	0,052237507643960646	-0,0019490516442721734	0,059370621096390387
1	1	0	0	0	0	2	149547,98	0,0100000007	2,69481826	2,7795378891388989E-005	0,010006334835286947	2,69652537E-005	0,052626648449627277	-0,0019635710109369731	0,059759761902057024
1	1	0	0	0	0	2	149687,98	0,0100000007	2,69483733	2,7795165419423331E-005	0,010006257985391336	2,69652373E-005	0,053015781217755866	-0,0019780900777104221	0,060148894670185613
1	1	0	0	0	0	2	149827,98	0,0100000007	2,69468474	2,7795104420847363E-005	0,010006236025907421	2,69636512E-005	0,053404911405466752	-0,0019926090482050166	0,060538024857896486
1	1	0	0	0	0	2	149967,98	0,0100000007	2,69468474	2,7795707600242973E-005	0,010006453170455869	2,69642369E-005	0,053794042032198355	-0,002007128035080065	0,060927155484628096
1	1	0	0	0	0	2	150107,98	0,0100000007	2,69457006	2,7794788816115923E-005	0,01000612240822188	2,69621978E-005	0,054183168431458259	-0,0020216468642224602	0,061316281883888
1	1	0	0	0	0	2	150247,98	0,0100000007	2,69451284	2,779485409225648E-005	0,010006145907628805	2,69616885E-005	0,054572297839634112	-0,0020361658056315549	0,061705411292063859
1	1	0	0	0	0	2	150387,98	0,0100000007	2,69451284	2,7795695025370352E-005	0,010006448643502434	2,69625052E-005	0,054961430230092141	-0,0020506848583136074	0,062094543682521882
1	1	0	0	0	0	2	150527,98	0,0100000007	2,69458914	2,7795101671117462E-005	0,010006235036004814	2,69626926E-005	0,055350564072780134	-0,0020652039651803123	0,062483677525209882
1	1	0	0	0	0	2	150667,98	0,0100000007	2,69455099	2,7795007089877296E-005	0,010006200986763682	2,69622196E-005	0,055739695645145734	-0,0020797229873382365	0,062872809097575488
1	1	0	0	0	0	2	150807,98	0,0100000007	2,69458914	2,7795058157346726E-005	0,010006219371049802	2,69626507E-005	0,056128822086729805	-0,0020942418180598032	0,063261935539159565
1	1	0	0	0	0	2	150947,98	0,0100000007	2,69462729	2,7795150358799018E-005	0,01000625256356743	2,69631219E-005	0,056517949992162861	-0,0021087607033995437	0,063651063444592653
1	1	0	0	0	0	2	151087,98	0,0100000007	2,69443631	2,7795220736155491E-005	0,010006277899411798	2,69612792E-005	0,0569070839932872	-0,0021232798161777219	0,064040197445716966
1	1	0	0	0	0	2	151227,98	0,0100000007	2,69451284	2,7795450525047878E-005	0,010006360623400114	2,69622669E-005	0,057296221020767898	-0,0021377990418733245	0,064429334473197658
1	1	0	0	0	0	2	151367,98	0,0100000007	2,69441724	2,7796276763598954E-005	0,010006658069231962	2,69621123E-005	0,057685360054257498	-0,0021523183424158163	0,064818473506687232
1	1	0	0	0	0	2	151507,98	0,0100000007	2,69457006	2,7796276797850925E-005	0,01000665808156267	2,69636421E-005	0,058074507283653402	-0,0021668379487585926	0,065207620736083149
1	1	0	0	0	0	2	151647,98	0,0100000007	2,69441724	2,7796946881028512E-005	0,010006899311468858	2,69627617E-005	0,058463660483467827	-0,0021813577778657104	0,065596773935897549
1	1	0	0	0	0	2	151787,98	0,0100000007	2,69434094	2,7796833179684147E-005	0,01000685837899129	2,69618886E-005	0,058852816650447821	-0,0021958777176817648	0,065985930102877555
1	1	0	0	0	0	2	151927,98	0,0100000007	2,69458914	2,7796922038050576E-005	0,0100068903679982	2,69644588E-005	0,059241973847552794	-0,002210397695933168	0,066375087299982502
1	1	0	0	0	0	2	152067,98	0,0100000007	2,69460821	2,779689776809472E-005	0,010006881630815459	2,69646262E-005	0,059631127665160858	-0,0022249175480909978	0,066764241117590554
1	1	0	0	0	0	2	152207,98	0,0100000007	2,69474196	2,7797260786510176E-005	0,010007012317424576	2,6966316E-005	0,060020290202603789	-0,0022394377255975898	0,067153403655033485
1	1	0	0	0	0	2	152347,98	0,0100000007	2,69491386	2,7797075242735446E-005	0,010006945521676122	2,69678567E-005	0,060409452028612762	-0,0022539578765596243	0,067542565481042483
1	1	0	0	0	0	2	152487,98	0,0100000007	2,69500923	2,7797407492633078E-005	0,010007065131620557	2,69691336E-005	0,060798612542682496	-0,0022684779785714422	0,067931725995112166
1	1	0	0	0	0	2	152627,98	0,0100000007	2,69504738	2,7796708533592109E-005	0,010006813506405178	2,69688371E-005	0,06118777100893728	-0,0022829980041765306	0,068320884461366925
1	1	0	0	0	0	2	152767,98	0,0100000007	2,69514298	2,7797212164331645E-005	0,010006994813443043	2,69702814E-005	0,061576927201552077	-0,0022975179449490544	0,068710040653981734
1	1	0	0	0	0	2	152907,98	0,0100000007	2,69533396	2,7796660190551648E-005	0,010006796102913334	2,69716566E-005	0,061966083608287667	-0,002312037893710713	0,069099197060717325
1	1	0	0	0	0	2	153047,98	0,0100000007	2,6952765	2,7796141650631197E-005	0,010006609428571179	2,69705797E-005	0,062355235173232397	-0,0023265576618186448	0,069488348625662067
1	1	0	0	0	0	2	153187,98	0,0100000007	2,69523835	2,7796765680683568E-005	0,010006834079354885	2,69708034E-005	0,062744387055140506	-0,0023410774417529059	0,069877500507570163
1	1	0	0	0	0	2	153327,98	0,0100000007	2,69542933	2,7795544997840707E-005	0,01000639463360021	2,69715292E-005	0,063133533509299149	-0,0023555970191705376	0,070266646961728806
1	1	0	0	0	0	2	153467,98	0,0100000007	2,69535303	2,779575394197471E-005	0,010006469853476682	2,6970969E-005	0,063522675606161331	-0,0023701164340115792	0,070655789058590989
1	1	0	0	0	0	2	153607,98	0,0100000007	2,69539118	2,7795952597063859E-005	0,010006541369297589	2,69715438E-005	0,063911819405271757	-0,0023846359123657917	0,071044932857701414
1	1	0	0	0	0	2	153747,98	0,0100000007	2,69546747	2,7795992251019926E-005	0,010006555644719536	2,69723459E-005	0,064300959728582477	-0,0023991552610332442	0,071434073181012134
1	1	0	0	0	0	2	153887,98	0,0100000007	2,6953721	2,7796462057572269E-005	0,010006724775051918	2,69718475E-005	0,064690105845311949	-0,0024136748258609389	0,071823219297741606
1	1	0	0	0	0	2	154027,98	0,0100000007	2,69525743	2,7797037216524285E-005	0,010006931832242248	2,69712582E-005	0,065079261368897766	-0,0024281947416710925	0,072212374821327437
1	1	0	0	0	0	2	154167,98	0,0100000007	2,69548655	2,7797123275645488E-005	0,010006962813521034	2,69736338E-005	0,065468420382670298	-0,0024427147877048042	0,072601533835099955
1	1	0	0	0	0	2	154307,98	0,0100000007	2,6937108	2,779704548879009E-005	0,010006934810257472	2,69557877E-005	0,065857579228942272	-0,0024572348274888448	0,07299069268137193
1	1	0	0	0	0	2	154447,98	0,0100000007	2,69441724	2,7797056449628954E-005	0,010006938756158845	2,6962869E-005	0,066246736246956659	-0,0024717547990581373	0,07337984969938633
1	1	0	0	0	0	2	154587,98	0,0100000007	2,69470382	2,7797089909203347E-005	0,010006950801603742	2,69657685E-005	0,066635894216900595	-0,002486274806145201	0,073769007669330253
1	1	0	0	0	0	2	154727,98	0,0100000007	2,69493294	2,7797326496595312E-005	0,010007035973051523	2,69682914E-005	0,067025048840572915	-0,0025007946883783718	0,074158162293002586
1	1	0	0	0	0	2	154867,98	0,0100000007	2,69420719	2,7796854783315213E-005	0,010006866156297256	2,69605716E-005	0,067414206876811123	-0,0025153146979389638	0,074547320329240794
1	1	0	0	0	0	2	155007,98	0,0100000007	2,69403553	2,7796555360313504E-005	0,010006758364033507	2,69585635E-005	0,067803359964964467	-0,0025298345228798566	0,074936473417394125
1	1	0	0	0	0	2	155147,98	0,0100000007	2,6940546	2,7797445028140726E-005	0,010007078644401197	2,69596167E-005	0,068192521822014835	-0,0025443546750000874	0,075325635274444493
1	1	0	0	0	0	2	155287,98	0,0100000007	2,69418812	2,7797380282595338E-005	0,010007055336008502	2,696089E-005	0,068581686814319526	-0,0025588749441008726	0,075714800266749197
1	1	0	0	0	0	2	155427,98	0,0100000007	2,6941309	2,7797574173969526E-005	0,01000712513689229	2,69605043E-005	0,068970851184313126	-0,0025733951899823939	0,076103964636742784
1	1	0	0	0	0	2	155567,98	0,0100000007	2,693959	2,7797273164511555E-005	0,010007016773504374	2,69584925E-005	0,069360016988062016	-0,0025879154893592534	0,076493130440491674
1	1	0	0	0	0	2	155707,98	0,0100000007	2,69401622	2,7797490447500928E-005	0,01000709499536831	2,69592765E-005	0,06974918189466647	-0,0026024357552624474	0,076882295347096128
1	1	0	0	0	0	2	155847,98	0,0100000007	2,69386363	2,7797641673280547E-005	0,010007149436640454	2,69578959E-005	0,070138347404609434	-0,0026169560436770122	0,077271460857039091
1	1	0	0	0	0	2	155987,98	0,0100000007	2,69374895	2,7797139076050371E-005	0,010006968501665901	2,69562606E-005	0,070527510946370931	-0,0026314762586560803	0,077660624398800589
1	1	0	0	0	0	2	156127,98	0,0100000007	2,6937108	2,7797317302785814E-005	0,010007032663280621	2,69560514E-005	0,07091667235077751	-0,0026459963938875626	0,078049785803207168
1	1	0	0	0	0	2	156267,98	0,0100000007	2,69350076	2,7797424431735027E-005	0,010007071229696304	2,69540542E-005	0,071305833301962842	-0,0026605165122087514	0,078438946754392499
1	1	0	0	0	0	2	156407,98	0,0100000007	2,69350076	2,779708846606728E-005	0,01000695028207484	2,69537286E-005	0,071694993309947776	-0,002675036595337865	0,078828106762377434
1	1	0	0	0	0	2	156547,98	0,0100000007	2,69344354	2,7797308638691904E-005	0,010007029544207301	2,69533684E-005	0,072084156064045862	-0,002689556780928152	0,07921726951647552
1	1	0	0	0	0	2	156687,98	0,0100000007	2,693367	2,7795696970437552E-005	0,010006449343726515	2,69510401E-005	0,072473310204076378	-0,0027040766451159968	0,079606423656506035
1	1	0	0	0	0	2	156827,98	0,0100000007	2,69330978	2,7795406565691037E-005	0,010006344798500082	2,6950187E-005	0,072862449625056806	-0,0027185959601162928	0,079995563077486464
1	1	0	0	0	0	2	156967,98	0,0100000007	2,69323349	2,77948382209676E-005	0,010006140193965701	2,69488719E-005	0,073251582626261197	-0,002733115035586113	0,080384696078690854
1	1	0	0	0	0	2	157107,98	0,0100000007	2,69302344	2,7795227944437002E-005	0,010006280494392736	2,69471475E-005	0,073640714330536026	-0,0027476340626657478	0,080773827782965683
1	1	0	0	0	0	2	157247,98	0,0100000007	2,69288969	2,7794981720288179E-005	0,010006191853713027	2,69455704E-005	0,07402984527134624	-0,0027621530612594909	0,081162958723775898
1	1	0	0	0	0	2	157387,98	0,0100000007	2,69279432	2,7794728695621917E-005	0,010006100764847427	2,69443717E-005	0,074418970997462413	-0,0027766718652859888	0,081552084449892083
1	1	0	0	0	0	2	157527,98	0,0100000007	2,69267964	2,7793963047313606E-005	0,010005825131499562	2,69424818E-005	0,074808091373178547	-0,0027911904696818669	0,081941204825608205
1	1	0	0	0	0	2	157667,98	0,0100000007	2,69248867	2,7794008203006038E-005	0,010005841387546291	2,69406137E-005	0,07519720875693888	-0,0028057089624438518	0,082330322209368538
1	1	0	0	0	0	2	157807,98	0,0100000007	2,69227862	2,7794388630220461E-005	0,010005978341322056	2,6938882E-005	0,075586325172527795	-0,0028202274190820592	0,082719438624957453
1	1	0	0	0	0	2	157947,98	0,0100000007	2,69210672	2,7794503416969542E-005	0,010006019664545261	2,69372722E-005	0,07597544842535424	-0,0028347461308267914	0,083108561877783898
1	1	0	0	0	0	2	158087,98	0,0100000007	2,69193506	2,7794582734401856E-005	0,010006048218816426	2,69356315E-005	0,076364570635070464	-0,0028492648036516787	0,083497684087500122
1	1	0	0	0	0	2	158227,98	0,0100000007	2,6918776	2,7795409148196794E-005	0,010006345727736054	2,69358588E-005	0,076753703448220314	-0,0028637838721049315	0,083886816900649971
1	1	0	0	0	0	2	158367,98	0,0100000007	2,69178224	2,7795479537143062E-005	0,010006371067752746	2,69349712E-005	0,077142841712941645	-0,0028783031439636458	0,084275955165371302
1	1	0	0	0	0	2	158507,98	0,0100000007	2,69180131	2,7796516130678358E-005	0,010006744241367062	2,69361681E-005	0,077531983268106573	-0,0028928225385932346	0,084665096720536243
1	1	0	0	0	0	2	158647,98	0,0100000007	2,69182038	2,7796788761909638E-005	0,010006842388594968	2,69366228E-005	0,077921132702211482	-0,0029073422271966682	0,085054246154641152
1	1	0	0	0	0	2	158787,98	0,0100000007	2,69185853	2,7797185477645446E-005	0,010006985206237515	2,69373886E-005	0,078310292990887962	-0,0029218623207987603	0,085443406443317619
1	1	0	0	0	0	2	158927,98	0,0100000007	2,69180131	2,7797534023566794E-005	0,010007110682749566	2,6937154E-005	0,07869945565033847	-0,0029363825028576192	0,085832569102768128
1	1	0	0	0	0	2	159067,98	0,0100000007	2,69189668	2,7797514828232429E-005	0,010007103772430277	2,69380889E-005	0,079088623506711424	-0,0029509028788206419	0,086221736959141082
1	1	0	0	0	0	2	159207,98	0,0100000007	2,69183946	2,7797679876184298E-005	0,010007163189683653	2,6937676E-005	0,079477788686657766	-0,0029654231549225894	0,086610902139087424
1	1	0	0	0	0	2	159347,98	0,0100000007	2,69178224	2,7797154415347098E-005	0,010006974023811859	2,69365955E-005	0,079866951625504973	-0,0029799433474061146	0,08700006507793463
1	1	0	0	0	0	2	159487,98	0,0100000007	2,69162941	2,779642749639849E-005	0,010006712333031306	2,69343618E-005	0,080256102092244902	-0,0029944630745385485	0,08738921554467456
1	1	0	0	0	0	2	159627,98	0,0100000007	2,69178224	2,7795303649682966E-005	0,010006307748277019	2,6934802E-005	0,080645236419899546	-0,0030089821995000115	0,087778349872329203
1	1	0	0	0	0	2	159767,98	0,0100000007	2,69170594	2,7795045081370819E-005	0,01000621466369921	2,6933787E-005	0,081034365426118336	-0,0030235011259115475	0,088167478878547994
1	1	0	0	0	0	2	159907,98	0,0100000007	2,69162941	2,7795493427457082E-005	0,010006376068265008	2,6933456E-005	0,081423495941353011	-0,0030380201086264954	0,088556609393782669
1	1	0	0	0	0	2	160047,98	0,0100000007	2,69155312	2,7795031158098333E-005	0,010006209651321898	2,69322445E-005	0,081812628070113242	-0,0030525391515442515	0,088945741522542912
1	1	0	0	0	0	2	160187,98	0,0100000007	2,69157219	2,7794545450765226E-005	0,010006034796709338	2,69319644E-005	0,082201754630202726	-0,0030670579866874144	0,089334868082632384
1	1	0	0	0	0	2	160327,98	0,0100000007	2,69155312	2,7794924315582547E-005	0,010006171188022235	2,69321408E-005	0,082590879868964966	-0,0030815767725300813	0,089723993321394624
1	1	0	0	0	0	2	160467,98	0,0100000007	2,69141936	2,7794981815386563E-005	0,010006191887948442	2,69308584E-005	0,08298000929673289	-0,003096095714670183	0,09011312274916256
1	1	0	0	0	0	2	160607,98	0,0100000007	2,69124746	2,7793677591666992E-005	0,010005722367482858	2,69278753E-005	0,083369127123592384	-0,003110614223964793	0,090502240576022042
1	1	0	0	0	0	2	160747,98	0,0100000007	2,69126678	2,7793941086727296E-005	0,010005817225689725	2,69283228E-005	0,083758241074445901	-0,0031251325886404083	0,090891354526875558
1	1	0	0	0	0	2	160887,98	0,0100000007	2,69117117	2,7794195801330109E-005	0,010005908922932392	2,69276134E-005	0,084147362531358618	-0,0031396512333771853	0,091280475983788275
1	1	0	0	0	0	2	161027,98	0,0100000007	2,6911521	2,7794183795599059E-005	0,010005904600869888	2,69274115E-005	0,084536482786365466	-0,0031541698332692378	0,091669596238795123
1	1	0	0	0	0	2	161167,98	0,0100000007	2,69086576	2,7793318295540909E-005	0,010005593020897706	2,6923708E-005	0,084925597056087206	-0,003168688209842256	0,092058710508516864
1	1	0	0	0	0	2	161307,98	0,0100000007	2,69078922	2,7793814036219069E-005	0,01000577148751392	2,69234224E-005	0,085314709470387661	-0,0031832065171870112	0,092447822922817318
1	1	0	0	0	0	2	161447,98	0,0100000007	2,69069386	2,7794319575186822E-005	0,010005953481513835	2,69229567E-005	0,085703824831043162	-0,0031977249344642342	0,092836938283472819
1	1	0	0	0	0	2	161587,98	0,0100000007	2,69063663	2,7793948067196957E-005	0,01000581973865841	2,69220254E-005	0,086092941731213094	-0,0032122434091828109	0,093226055183642752
1	1	0	0	0	0	2	161727,98	0,0100000007	2,69061732	2,7793746964954253E-005	0,010005747341862365	2,6921638E-005	0,086482056344319411	-0,0032267617985679693	0,093615169796749069
1	1	0	0	0	0	2	161867,98	0,0100000007	2,69054103	2,7793305885822826E-005	0,010005588553399894	2,69204465E-005	0,086871168892395008	-0,0032412801109040544	0,094004282344824666
1	1	0	0	0	0	2	162007,98	0,0100000007	2,69048381	2,7793602062285776E-005	0,010005695176909874	2,6920161E-005	0,08726028420347927	-0,0032557985263317088	0,094393397655908928
1	1	0	0	0	0	2	162147,98	0,0100000007	2,69044566	2,7793671142361642E-005	0,010005720045733296	2,69198463E-005	0,087649395805880064	-0,0032703168033833952	0,094782509258309722
1	1	0	0	0	0	2	162287,98	0,0100000007	2,69033098	2,7794197648763658E-005	0,010005909588008365	2,69192078E-005	0,08803851090959543	-0,0032848352110738368	0,095171624362025088
1	1	0	0	0	0	2	162427,98	0,0100000007	2,69029284	2,7793869881528534E-005	0,010005791591822181	2,69185093E-005	0,088427626157254874	-0,0032993536241350253	0,095560739609684531
1	1	0	0	0	0	2	162567,98	0,0100000007	2,69019723	2,7793320448344781E-005	0,010005593795906978	2,69170214E-005	0,088816736241699213	-0,0033138718445497165	0,09594984969412887
1	1	0	0	0	0	2	162707,98	0,0100000007	2,68987274	2,7793447714298963E-005	0,010005639611643317	2,69138964E-005	0,089205845274542272	-0,0033283900257277498	0,09633895872697193
1	1	0	0	0	0	2	162847,98	0,0100000007	2,68983459	2,7793973120757274E-005	0,010005828757938714	2,69140237E-005	0,089594960384045261	-0,003342908433634135	0,096728073836474918
1	1	0	0	0	0	2	162987,98	0,0100000007	2,68989182	2,7793708757859552E-005	0,010005733587310422	2,69143402E-005	0,089984074863266509	-0,0033574268180238618	0,097117188315696166
1	1	0	0	0	0	2	163127,98	0,0100000007	2,68992996	2,7793483597795581E-005	0,010005652529700078	2,69145039E-005	0,090373187670759219	-0,0033719451400391482	0,097506301123188877
1	1	0	0	0	0	2	163267,98	0,0100000007	2,68973899	2,7793718900790234E-005	0,010005737238764898	2,69128213E-005	0,090762301171005133	-0,0033864634879019885	0,09789541462343479
1	1	0	0	0	0	2	163407,98	0,0100000007	2,6894145	2,7793774033844886E-005	0,010005757086661467	2,6909629E-005	0,09115140749046217	-0,0034009815678399411	0,09828452094289184
1	1	0	0	0	0	2	163547,98	0,0100000007	2,6894145	2,779414658413993E-005	0,010005891204746698	2,69099892E-005	0,091540523620902784	-0,0034155000138388819	0,098673637073332442
1	1	0	0	0	0	2	163687,98	0,0100000007	2,6895864	2,7793536280540544E-005	0,010005671495485296	2,69111188E-005	0,091929635516645056	-0,0034300183018355341	0,099062748969074714
1	1	0	0	0	0	2	163827,98	0,0100000007	2,68962455	2,779415428167623E-005	0,010005893975859333	2,69120974E-005	0,092318751749932915	-0,0034445367516718438	0,099451865202362573
1	1	0	0	0	0	2	163967,98	0,0100000007	2,68952894	2,779389112033985E-005	0,010005799237793059	2,69108859E-005	0,092707867221704077	-0,0034590551730949421	0,099840980674133734
1	1	0	0	0	0	2	164047,92	0,0100000007	2,6894908	2,7626558579659712E-005	0,010005995746118842	2,69110333E-005	0,092930052311147213	-0,0034673451975130957	0,10006316576357688