File: Experimentelles/Rohdaten/Batterietests/AlteZelle/150511_LLTO_LTO_Tests/ZView-Export/LLTO_LP30_LTO_02_CV_C01_loop2.txt
EC-Lab ASCII FILE
Nb header lines : 3
mode	ox/red	error	control changes	counter inc.	time/s	control/V	Ewe/V	<I>/mA	cycle number	(Q-Qo)/C	P/W
2	1	0	0	0	2172,09	0,271191865	0,271680713	-0,58279323577880858	3	0	0,000158333685
2	1	0	0	0	2173,52	0,285492867	0,28607586	-0,29514067519145734	3	-0,00056702795	8,44326205E-005
2	1	0	1	0	2174,97	0,299993992	0,300170332	-0,18681670411024266	3	-0,000907693931	5,60768312E-005
2	1	0	1	0	2176,42	0,314495087	0,314876318	-0,12237371818628186	3	-0,0011271988	3,85325875E-005
2	1	0	0	0	2177,87	0,328996241	0,329181314	-0,081554037654617331	3	-0,0012720424	2,68460644E-005
2	1	0	0	0	2179,32	0,343497306	0,343997568	-0,05431477436407783	3	-0,00136836164	1,86841498E-005
2	1	0	1	0	2180,81	0,358398467	0,35866347	-0,03497262533831735	3	-0,00143338984	1,25434035E-005
2	1	0	1	0	2182,26	0,372899562	0,373309314	-0,021289840694710931	3	-0,0014730196	7,94769585E-006
2	1	0	0	0	2183,71	0,387400687	0,387624323	-0,010836285354647174	3	-0,00149542314	4,2004076E-006
2	1	0	0	0	2185,20	0,402301043	0,402620703	-0,0022807735084765939	3	-0,00150447094	9,18286617E-007
2	1	0	1	0	2186,65	0,416802883	0,417256862	0,0046331793795009946	3	-0,00150243728	1,9332258E-006
2	1	0	0	0	2188,14	0,431704044	0,432093143	0,010253217066444141	3	-0,00149102509	4,43034469E-006
2	1	0	0	0	2189,59	0,446205109	0,446668804	0,014728844650865824	3	-0,00147217384	6,57891542E-006
2	1	0	1	0	2191,04	0,460706264	0,461053967	0,019198771895996032	3	-0,00144691893	8,85166992E-006
2	1	0	1	0	2192,49	0,475207329	0,475529432	0,023016617109533398	3	-0,00141565141	1,09450784E-005
2	1	0	0	0	2193,95	0,489708483	0,489804357	0,026518412526153722	3	-0,0013792126	1,2988834E-005
2	1	0	0	0	2195,40	0,504209518	0,50467068	0,02944632164629479	3	-0,00133802777	1,4860695E-005
2	1	0	1	0	2196,85	0,518710673	0,519306481	0,032315115541374842	3	-0,00129266432	1,67814487E-005
2	1	0	0	0	2198,30	0,533211768	0,533411026	0,03475410445632096	3	-0,001243431	1,85382232E-005
2	1	0	0	0	2199,75	0,547712922	0,548117042	0,037230916117550733	3	-0,00119062979	2,04069001E-005
2	1	0	1	0	2201,20	0,562213957	0,562692702	0,039061656794122656	3	-0,00113459479	2,19797093E-005
2	1	0	1	0	2202,65	0,576715112	0,577458858	0,041302049978791386	3	-0,00107541087	2,38502344E-005
2	1	0	0	0	2204,10	0,591216207	0,591914237	0,043354634515708339	3	-0,00101326231	2,56622261E-005
2	1	0	0	0	2205,55	0,605717361	0,606038749	0,045352532411925382	3	-0,000948193891	2,74853919E-005
2	1	0	1	0	2207,00	0,620218456	0,620634496	0,047302115495161402	3	-0,000880366017	2,93573248E-005
2	1	0	1	0	2208,45	0,634719551	0,634909391	0,049254672058547386	3	-0,00080971251	3,1272255E-005
2	1	0	0	0	2209,90	0,649220645	0,649705589	0,05132434222226345	3	-0,000736269227	3,33457137E-005
2	1	0	1	0	2211,35	0,66372174	0,664191067	0,05288005336963897	3	-0,000660047866	3,51224589E-005
2	1	0	1	0	2212,80	0,678222895	0,678456008	0,055174422469766227	3	-0,000581009372	3,74334195E-005
2	1	0	0	0	2214,25	0,69272393	0,693242192	0,057092393554436627	3	-0,000499126909	3,95788556E-005
2	1	0	0	0	2215,70	0,707225084	0,707567215	0,059144451535151578	3	-0,000414371461	4,18486743E-005
2	1	0	1	0	2217,15	0,721726179	0,722363412	0,060980634317578048	3	-0,000326854934	4,4050179E-005
2	1	0	1	0	2218,60	0,736227334	0,736367702	0,062783995565647514	3	-0,000236614855	4,62321077E-005
2	1	0	0	0	2220,05	0,750728369	0,751314223	0,064549514965619891	3	-0,00014370658	4,84969678E-005
2	1	0	0	0	2221,50	0,765229523	0,765729487	0,066249662156527053	3	-4,83447402E-005	5,07293189E-005
2	1	0	1	0	2222,95	0,779730618	0,780074716	0,067570441965168922	3	4,94285523E-005	5,27099946E-005
2	1	0	0	0	2224,40	0,794231653	0,794419706	0,069129101272361997	3	0,000149406071	5,49175202E-005
2	1	0	0	0	2225,85	0,808732808	0,808985412	0,070516302463753626	3	0,000251435442	5,70466618E-005
2	1	0	1	0	2227,30	0,823233902	0,823571026	0,071762183894558349	3	0,00035527625	5,9101254E-005
2	1	0	1	0	2228,75	0,837734938	0,83818686	0,072720458925080384	3	0,000460765179	6,09533345E-005
2	1	0	0	0	2230,20	0,852236032	0,852852762	0,073748511689093914	3	0,00056771806	6,28966227E-005
2	1	0	0	0	2231,65	0,866737306	0,867097497	0,074626086803618714	3	0,000675924413	6,4708096E-005
2	1	0	1	0	2233,10	0,881238341	0,88165313	0,075071039590208333	3	0,000785185781	6,61866143E-005
2	1	0	1	0	2234,55	0,895739436	0,89622885	0,075878361860910899	3	0,000895250647	6,8004374E-005
2	1	0	1	0	2235,96	0,909840465	0,910413504	0,07611643491933737	3	0,0010030889	6,92974281E-005
2	1	0	0	0	2237,41	0,924341619	0,924788773	0,076595426071435098	3	0,00111451547	7,08345906E-005
2	1	0	0	0	2238,86	0,938842714	0,93935436	0,076954595065520269	3	0,00122646394	7,22876357E-005
2	1	0	1	0	2240,31	0,953343868	0,954040289	0,077409431415920461	3	0,00133879331	7,38517192E-005
2	1	0	1	0	2241,76	0,967844903	0,968345344	0,077503098058514291	3	0,00145139708	7,50497638E-005
2	1	0	0	0	2243,21	0,982346058	0,98285085	0,077702885124987686	3	0,00156425126	7,63703501E-005
2	1	0	0	0	2244,66	0,996847153	0,997456491	0,077345584907258406	3	0,00167723978	7,71488558E-005
2	1	0	1	0	2246,11	1,01134825	1,01187181	0,077671632733351706	3	0,00179037091	7,85937373E-005
2	1	0	1	0	2247,56	1,02584946	1,02629697	0,07771586500651529	3	0,00190359552	7,97595567E-005
2	1	0	0	0	2249,01	1,04035044	1,04088271	0,077842370509945805	3	0,00201696297	8,10247802E-005
2	1	0	1	0	2250,46	1,05485153	1,05526793	0,077869363575397837	3	0,00213042903	8,21730428E-005
2	1	0	1	0	2251,91	1,06935263	1,06984365	0,077950145156743706	3	0,00224399543	8,3394465E-005
2	1	0	0	0	2253,36	1,08385372	1,08423889	0,077973141761807027	3	0,00235769688	8,45415125E-005
2	1	0	0	0	2254,81	1,0983547	1,09880447	0,078091134259011379	3	0,00247149379	8,58068888E-005
2	1	0	1	0	2256,26	1,11285603	1,11314964	0,077846729060790259	3	0,00258533889	8,66550618E-005
2	1	0	1	0	2257,71	1,12735713	1,12767518	0,077997481935502272	3	0,00269918237	8,79558211E-005
2	1	0	0	0	2259,16	1,14185822	1,14221072	0,077995126368478157	3	0,00281302887	8,90868687E-005
2	1	0	0	0	2260,61	1,15635931	1,15686655	0,078089541445175322	3	0,00292680599	9,03391774E-005
2	1	0	1	0	2262,06	1,17086041	1,17155254	0,07806822011480064	3	0,00304054958	9,14610209E-005
2	1	0	0	0	2263,51	1,1853615	1,18575728	0,07809359328045184	3	0,00315421424	9,26000503E-005
2	1	0	0	0	2264,96	1,1998626	1,20032299	0,078050336005010995	3	0,00326773897	9,36856159E-005
2	1	0	1	0	2266,41	1,21436369	1,21489859	0,077330292183129869	3	0,00338102435	9,39484598E-005
2	1	0	1	0	2267,86	1,22886467	1,22940409	0,077068246590594419	3	0,00349369831	9,47480148E-005
2	1	0	0	0	2269,31	1,243366	1,24394977	0,076126234722323712	3	0,00360541022	9,46972141E-005
2	1	0	0	0	2270,76	1,25786698	1,25851536	0,074975060260233702	3	0,00371554517	9,43572668E-005
2	1	0	1	0	2272,21	1,27236819	1,27283037	0,073272695551470874	3	0,00382380118	9,32637122E-005
2	1	0	1	0	2273,66	1,28686929	1,28712535	0,072369568457361779	3	0,00393012678	9,31487084E-005
2	1	0	0	0	2275,11	1,30137026	1,30206192	0,071098545410980813	3	0,00403471431	9,25747081E-005
2	1	0	0	0	2276,56	1,31587064	1,31646621	0,070178994331230643	3	0,00413779588	9,23882762E-005
2	1	0	1	0	2278,01	1,33037257	1,33075213	0,069323742451767309	3	0,00423966069	9,22527179E-005
2	1	0	0	0	2279,46	1,34487355	1,34534776	0,069184472338141184	3	0,00434090057	9,30771785E-005
2	1	0	0	0	2280,91	1,35937476	1,35997355	0,069203710183501248	3	0,00444194069	9,41152175E-005
2	1	0	1	0	2282,36	1,37387598	1,37434888	0,069575218658428634	3	0,00454332633	9,56206204E-005
2	1	0	1	0	2283,81	1,38837695	1,38898456	0,070094020668572506	3	0,00464516645	9,73595161E-005
2	1	0	0	0	2285,26	1,40287817	1,40353012	0,070486321637872307	3	0,00474759191	9,8929675E-005
2	1	0	0	0	2286,71	1,41737926	1,41783524	0,071062488345584602	3	0,00485059619	0,0001007549
2	1	0	1	0	2288,16	1,43188024	1,43226039	0,071097493094081754	3	0,00495426636	0,000101830126
2	1	0	1	0	2289,61	1,44638109	1,44673574	0,072114313296405056	3	0,00505884597	0,000104330356
2	1	0	0	0	2291,06	1,46088254	1,46146202	0,072626927712311603	3	0,00516432943	0,000106141495
2	1	0	1	0	2292,51	1,47538352	1,47573686	0,073301495246899213	3	0,00527072093	0,000108173721
2	1	0	1	0	2293,96	1,48988473	1,49034262	0,073846248327754662	3	0,00537794083	0,000110056208
2	1	0	0	0	2295,41	1,50438583	1,50497854	0,074274552345741094	3	0,00548590906	0,000111781606
2	1	0	0	0	2296,86	1,51888692	1,5194639	0,074853902818479706	3	0,00559457252	0,000113737806
2	1	0	1	0	2298,31	1,53338814	1,53384912	0,0754542145296	3	0,00570413098	0,000115735384
2	1	0	1	0	2299,76	1,54788911	1,54852498	0,075927532995895386	3	0,00581460493	0,000117575684
2	1	0	0	0	2301,21	1,56239021	1,56282997	0,076973316531317786	3	0,00592632545	0,000120296208
2	1	0	0	0	2302,66	1,57689202	1,57762706	0,07799929921071991	3	0,00603946624	0,000123053804
2	1	0	1	0	2304,11	1,5913924	1,59189105	0,079266767095153459	3	0,00615418795	0,000126184052
2	1	0	0	0	2305,56	1,60589337	1,60624623	0,080451108418249766	3	0,00627072947	0,000129224296
2	1	0	0	0	2307,01	1,62039471	1,62091208	0,0820127794092208	3	0,00638920581	0,0001329355
2	1	0	1	0	2308,46	1,6348958	1,63520694	0,083491497207432704	3	0,00650963373	0,000136525879
2	1	0	1	0	2309,91	1,64939678	1,64997315	0,08459811882736768	3	0,00663218554	0,000139584619
2	1	0	0	0	2311,36	1,66389811	1,66444862	0,086377943613721536	3	0,00675677229	0,000143771642
2	1	0	0	0	2312,81	1,67839909	1,6789341	0,087836512480862221	3	0,00688359933	0,000147471714
2	1	0	1	0	2314,26	1,69290018	1,69343948	0,08954613729535255	3	0,00701270811	0,000151640968
2	1	0	1	0	2315,71	1,70740128	1,7080152	0,090977633177923738	3	0,00714412378	0,000155391186
2	1	0	0	0	2317,17	1,72190237	1,72230017	0,092675532000915379	3	0,00727785286	0,000159615083
2	1	0	1	0	2318,62	1,73640358	1,73705626	0,094194998809446592	3	0,00741391955	0,000163622011
2	1	0	1	0	2320,07	1,75090468	1,75156176	0,095927094322784563	3	0,00755235646	0,000168022234
2	1	0	0	0	2321,52	1,76540565	1,76587677	0,097268105950206515	3	0,00769319152	0,000171763488
2	1	0	0	0	2323,01	1,78030682	1,78088355	0,099038403209609434	3	0,00784048624	0,000176375863
2	1	0	1	0	2324,46	1,79480791	1,79526877	0,10091764914492752	3	0,0079863118	0,000181174299
2	1	0	1	0	2325,91	1,80930901	1,80975413	0,10270762699656144	3	0,0081347134	0,000185875557
2	1	0	0	0	2327,36	1,82381022	1,82449031	0,10457691061310426	3	0,00828552339	0,000190799561
2	1	0	0	0	2328,81	1,83831155	1,83880568	0,10616824465564379	3	0,00843883026	0,000195222776
2	1	0	1	0	2330,26	1,85281241	1,85334086	0,10791146289557174	3	0,00859451387	0,000199996721
2	1	0	0	0	2331,71	1,86731339	1,86775625	0,10904601647052893	3	0,00875260774	0,000203671385
2	1	0	0	0	2333,16	1,88181472	1,88233173	0,11097660715070829	3	0,00891319104	0,000208894795
2	1	0	1	0	2334,61	1,89631581	1,89682722	0,11270937602967002	3	0,00907611847	0,000213790219
2	1	0	1	0	2336,06	1,91081679	1,91145289	0,11431277970162501	3	0,00924147479	0,000218503497
2	1	0	0	0	2337,51	1,92531788	1,9259584	0,11590769883090013	3	0,00940912124	0,000223233408
2	1	0	0	0	2338,96	1,93981898	1,94033384	0,11742918624077014	3	0,00957899261	0,000227851822
2	1	0	1	0	2340,41	1,95432019	1,95492947	0,11883786196509994	3	0,0097510973	0,000232319639
2	1	0	1	0	2341,86	1,96882129	1,96928453	0,12036498294522291	3	0,00992539059	0,000237032902
2	1	0	0	0	2343,31	1,98332238	1,98393035	0,1213739990489553	3	0,0101016331	0,000240797555
2	1	0	1	0	2344,76	1,9978236	1,998456	0,12270227804159104	3	0,0102797057	0,000245215109
2	1	0	1	0	2346,21	2,01232457	2,01285124	0,12423277980027115	3	0,0104596904	0,00025006209
2	1	0	0	0	2347,66	2,02682567	2,02736664	0,12537927351271083	3	0,0106414203	0,00025418977
2	1	0	0	0	2349,11	2,04132676	2,04173183	0,12655419592435147	3	0,0108247623	0,000258389744
2	1	0	1	0	2350,56	2,05582786	2,05628753	0,12772217140688235	3	0,011009709	0,000262633519
2	1	0	1	0	2352,01	2,07032895	2,07118392	0,12877044205864253	3	0,0111961607	0,000266707269
2	1	0	0	0	2353,46	2,08483005	2,08542848	0,12922227386540341	3	0,0113840755	0,000269483804
2	1	0	1	0	2354,91	2,09933233	2,09984517	0,1302563295285335	3	0,0115730865	0,000273518119
2	1	0	1	0	2356,36	2,11383224	2,11435938	0,13110736920498312	3	0,0117634581	0,000277208106
2	1	0	0	0	2357,81	2,12833333	2,12860441	0,13209916662890522	3	0,0119551066	0,000281186862
2	1	0	0	0	2359,26	2,14283466	2,14353085	0,13272431457880909	3	0,0121478979	0,000284498674
2	1	0	1	0	2360,71	2,15733552	2,15782595	0,13364284792138914	3	0,0123418653	0,000288378011
2	1	0	1	0	2362,16	2,17183661	2,17259192	0,13441942453694866	3	0,0125369309	0,000292038545
2	1	0	0	0	2363,61	2,18633771	2,18696713	0,13525538162017846	3	0,0127331838	0,00029579908
2	1	0	0	0	2365,06	2,2008388	2,20152283	0,1356190093404921	3	0,0129305134	0,000298568339
2	1	0	1	0	2366,51	2,2153399	2,21581769	0,1365245118892443	3	0,0131289456	0,000302513421
2	1	0	1	0	2367,96	2,22984028	2,23051357	0,13743488676076654	3	0,0133285327	0,000306550384
2	1	0	0	0	2369,41	2,24434233	2,24490881	0,13825706807741312	3	0,0135293799	0,000310374511
2	1	0	1	0	2370,86	2,25884342	2,25913358	0,13927902040692675	3	0,0137313977	0,000314649922
2	1	0	1	0	2372,31	2,27334452	2,27400994	0,14020827858864005	3	0,0139347119	0,000318835024
2	1	0	0	0	2373,76	2,28784561	2,28826475	0,14122948263927038	3	0,0141392574	0,000323170447
2	1	0	0	0	2375,21	2,30234671	2,30297089	0,14154994817605848	3	0,0143450322	0,000325985398
2	1	0	1	0	2376,66	2,3168478	2,31766701	0,14282066107261882	3	0,0145521779	0,000331010728
2	1	0	1	0	2378,11	2,33134866	2,33192182	0,14397373221193677	3	0,0147607261	0,000335735473
2	1	0	0	0	2379,56	2,34584999	2,3466177	0,14492574578616723	3	0,014970853	0,000340085331
2	1	0	1	0	2381,01	2,36035228	2,36085415	0,14585511801779738	3	0,0151823144	0,000344342669
2	1	0	1	0	2382,46	2,37485218	2,37550831	0,14686782506760211	3	0,0153952148	0,000348885747
2	1	0	0	0	2383,91	2,38935328	2,38983369	0,1477815368756032	3	0,0156095773	0,000353173295
2	1	0	0	0	2385,36	2,40385437	2,40452957	0,14891053573228397	3	0,015825402	0,000358059799
2	1	0	1	0	2386,81	2,41835546	2,41888452	0,1494553261824567	3	0,0160427205	0,00036151518
2	1	0	1	0	2388,26	2,43285656	2,43343019	0,15058172319550022	3	0,0162613522	0,000366430118
2	1	0	0	0	2389,71	2,44735765	2,44776511	0,15163543265468115	3	0,0164815579	0,000371167931
2	1	0	0	0	2391,16	2,46185899	2,46225071	0,15261326668163126	3	0,0167031959	0,000375772128
2	1	0	1	0	2392,61	2,47636008	2,4769969	0,15362351694299514	3	0,0169262756	0,000380524987
2	1	0	1	0	2394,06	2,49086022	2,49159169	0,1547976002060687	3	0,0171508417	0,000385692401
2	1	0	0	0	2395,51	2,50536227	2,50599766	0,15570941198772403	3	0,0173765384	0,000390207424
2	1	0	1	0	2396,96	2,51986337	2,5205934	0,15647941649270547	3	0,0176037755	0,000394420989
2	1	0	1	0	2398,41	2,53436446	2,53493857	0,15768003836274058	3	0,0178323872	0,000399709214
2	1	0	0	0	2399,86	2,54886556	2,54934382	0,1588953909231352	3	0,0180627294	0,000405078987
2	1	0	0	0	2401,31	2,56336665	2,56419015	0,16015033714938864	3	0,0182947051	0,000410655921
2	1	0	1	0	2402,76	2,57786775	2,57875586	0,16128139768261373	3	0,0185284894	0,00041590535
2	1	0	1	0	2404,21	2,59236884	2,59286046	0,16282177336203584	3	0,0187641419	0,00042217414
2	1	0	0	0	2405,66	2,60686994	2,60730553	0,16427235285906672	3	0,0190019403	0,000428308209
2	1	0	0	0	2407,11	2,62137127	2,6217823	0,16586040132037238	3	0,0192419291	0,000434849877
2	1	0	1	0	2408,56	2,63587213	2,63644695	0,16704409006827814	3	0,0194842778	0,000440402888
2	1	0	0	0	2410,01	2,65037322	2,65099263	0,16903021648370918	3	0,0197291151	0,000448097853
2	1	0	0	0	2411,46	2,66487432	2,665488	0,17063682964847747	3	0,0199762993	0,000454830413
2	1	0	1	0	2412,91	2,67937541	2,67994332	0,17246284754946851	3	0,0202260632	0,000462190656
2	1	0	1	0	2414,36	2,69387674	2,69447899	0,17412276445732701	3	0,0204783231	0,000469170132
2	1	0	0	0	2415,81	2,70837784	2,70881414	0,17597690259572106	3	0,0207330324	0,000476688729
2	1	0	0	0	2417,26	2,72287893	2,72356009	0,17761132675999168	3	0,0209901668	0,000483735115
2	1	0	1	0	2418,71	2,73738003	2,73809576	0,1789488211895024	3	0,0212496109	0,000489978993
2	1	0	0	0	2420,16	2,7518816	2,75244021	0,1807804252133384	3	0,0215114355	0,000497587316
2	1	0	0	0	2421,61	2,76638222	2,76685619	0,18227662627274778	3	0,0217753388	0,000504333235
2	1	0	1	0	2423,06	2,78088331	2,78143191	0,18411158110635926	3	0,0220416375	0,000512093829
2	1	0	1	0	2424,51	2,79538441	2,79598737	0,18564277573023037	3	0,0223102625	0,000519054884
2	1	0	0	0	2425,96	2,8098855	2,81054306	0,18723339024775997	3	0,0225812383	0,000526227523
2	1	0	0	0	2427,41	2,8243866	2,82509851	0,18909835497227757	3	0,0228547417	0,000534221472
2	1	0	1	0	2428,86	2,83888769	2,83950377	0,19115607754793018	3	0,0231311508	0,000542788417
2	1	0	1	0	2430,31	2,85338879	2,85384893	0,1928452225790047	3	0,0234104376	0,000550351106
2	1	0	0	0	2431,76	2,86788988	2,86855483	0,19540454843081533	3	0,0236930251	0,000560528657
2	1	0	0	0	2433,21	2,88239002	2,88325953	0,19787505541786454	3	0,0239790995	0,000570525124
2	1	0	1	0	2434,66	2,89689207	2,89767623	0,20051113112519213	3	0,0242688917	0,000581016357
2	1	0	0	0	2436,11	2,91139293	2,91219163	0,2029360628221184	3	0,024562588	0,000590988726
2	1	0	0	0	2437,56	2,92589426	2,92636657	0,20634036340440342	3	0,0248605162	0,000603827531
2	1	0	1	0	2439,01	2,94039536	2,94104242	0,2095421260067567	3	0,0251628533	0,000616272271
2	1	0	1	0	2440,46	2,95489669	2,95538735	0,21283211753082742	3	0,0254699923	0,000629001355
2	1	0	0	0	2441,91	2,96939778	2,97016358	0,21654476776408592	3	0,025782099	0,000643173407
2	1	0	0	0	2443,36	2,98389888	2,9843986	0,22028177022002682	3	0,0260995552	0,000657408615
2	1	0	1	0	2444,81	2,99839997	2,99898434	0,22426015813834966	3	0,0264224336	0,000672552676
2	1	0	0	0	2446,27	3,01290226	3,01362228	0,22795922039305072	3	0,0267510973	0,000686982996
2	1	0	0	0	2447,72	3,02740216	3,02789497	0,23261002195067616	3	0,027085321	0,000704318692
2	1	0	1	0	2449,17	3,04190326	3,04246044	0,23625864453303258	3	0,0274257306	0,000718807569
2	1	0	1	0	2450,62	3,05640435	3,05710626	0,24063984273622374	3	0,0277721453	0,000735661597
2	1	0	0	0	2452,07	3,07090545	3,0715518	0,24462515643487315	3	0,0281248167	0,00075137883
2	1	0	0	0	2453,52	3,08540654	3,08594704	0,24948035529814659	3	0,0284841191	0,000769883161
2	1	0	1	0	2454,97	3,09990764	3,10056281	0,25448337670726051	3	0,0288505852	0,000789041689
2	1	0	1	0	2456,42	3,11440873	3,11488795	0,2596870167180887	3	0,0292243008	0,000808895973
2	1	0	0	0	2457,87	3,12890959	3,1293931	0,26534155562209616	3	0,0296058655	0,000830358011
2	1	0	0	0	2459,32	3,14341021	3,14412785	0,27105510214114336	3	0,0299956072	0,000852231868
2	1	0	1	0	2460,77	3,15791178	3,1586349	0,27735513378865946	3	0,0303940903	0,000876063597
2	1	0	0	0	2462,22	3,17241287	3,17312026	0,28384327958337997	3	0,0308018625	0,000900668849
2	1	0	0	0	2463,67	3,18691421	3,18773603	0,29061299966027264	3	0,0312192403	0,000926397508
2	1	0	1	0	2465,12	3,2014153	3,20213079	0,29824343385795693	3	0,0316470042	0,00095501449
2	1	0	1	0	2466,57	3,2159164	3,21660662	0,30629482919660755	3	0,0320858918	0,00098522997
2	1	0	0	0	2468,02	3,23041749	3,23120189	0,31496771960519034	3	0,0325368829	0,00101772428
2	1	0	0	0	2469,47	3,24491858	3,2456274	0,32408998153793344	3	0,033000797	0,0010518753
2	1	0	1	0	2470,92	3,25941944	3,25993252	0,33431505357536032	3	0,0334788002	0,0010898445
2	1	0	1	0	2472,37	3,27392173	3,27447915	0,34562352997005299	3	0,0339720994	0,00113173702
2	1	0	0	0	2473,82	3,28842211	3,2888732	0,35689096765903104	3	0,0344821028	0,00117376912
2	1	0	1	0	2475,27	3,3029232	3,30372	0,36995438261268013	3	0,035010118	0,00122222572
2	1	0	1	0	2476,72	3,31742406	3,31806493	0,38429976037392864	3	0,0355579071	0,0012751316
2	1	0	0	0	2478,17	3,33192515	3,33262038	0,39947275491431443	3	0,0361270905	0,00133129105
2	1	0	0	0	2479,62	3,34642625	3,34705591	0,41562777586902202	3	0,0367189683	0,00139112945
2	1	0	1	0	2481,07	3,36092734	3,3617115	0,4325545838413145	3	0,0373348072	0,00145412376
2	1	0	1	0	2482,52	3,37542844	3,37623715	0,45039425976574246	3	0,0379757546	0,00152063789
2	1	0	0	0	2483,97	3,38992953	3,39075279	0,46885878716905882	3	0,0386430733	0,00158978428
2	1	0	1	0	2485,42	3,40443158	3,40488887	0,48781381943192947	3	0,0393377431	0,00166095188
2	1	0	1	0	2486,87	3,41893172	3,41972351	0,50775277847424262	3	0,0400607958	0,00173637411
2	1	0	0	0	2488,32	3,43343258	3,43394828	0,52806436037644832	3	0,0408126861	0,00181334571
2	1	0	0	0	2489,77	3,44793415	3,44854403	0,54827208397910086	3	0,0415936895	0,00189074047
2	1	0	1	0	2491,22	3,46243525	3,4632802	0,56880748473728768	3	0,0424041748	0,0019699398
2	1	0	1	0	2492,67	3,47693634	3,47761536	0,58936502831056358	3	0,0432444029	0,00204958487
2	1	0	0	0	2494,12	3,49143744	3,49210072	0,61066002460817523	3	0,0441150218	0,00213248632
2	1	0	0	0	2495,57	3,50593829	3,50652623	0,63108892568076506	3	0,0450161509	0,00221292977
2	1	0	1	0	2497,02	3,52043986	3,52116132	0,65255474206060173	3	0,045947969	0,00229775044
2	1	0	1	0	2498,47	3,53494048	3,53582597	0,67369610165556275	3	0,0469103903	0,00238207215
2	1	0	0	0	2499,92	3,54944205	3,55032301	0,69443478155881165	3	0,0479033738	0,00246546767
2	1	0	1	0	2501,37	3,56394291	3,56485868	0,71518240155031168	3	0,0489262789	0,00254952419
2	1	0	1	0	2502,82	3,578444	3,57906365	0,73502882368241626	3	0,049978666	0,00263071503
2	1	0	0	0	2504,27	3,5929451	3,59361911	0,75465353081623654	3	0,0510597117	0,0027119373
2	1	0	0	0	2505,72	3,60744619	3,60802436	0,77350865382080154	3	0,0521686114	0,00279083801
2	1	0	1	0	2507,17	3,62194729	3,62274051	0,79138681230445581	3	0,0533044562	0,002866989
2	1	0	1	0	2508,62	3,63644838	3,63704562	0,80861476032683827	3	0,0544657111	0,00294096884
2	1	0	0	0	2510,07	3,65094948	3,65175152	0,82539326511323546	3	0,0556515418	0,00301413122
2	1	0	0	0	2511,52	3,6654501	3,66624689	0,84124072342921958	3	0,0568607487	0,00308419624
2	1	0	1	0	2512,97	3,67995143	3,68055177	0,85661361770083213	3	0,0580925569	0,00315281074
2	1	0	0	0	2514,42	3,69445252	3,69527769	0,87137202577044454	3	0,0593460314	0,00321996165
2	1	0	0	0	2515,87	3,7089541	3,70986366	0,88553063074747661	3	0,0606203265	0,00328519801
2	1	0	1	0	2517,32	3,72345519	3,72405815	0,89926877431571482	3	0,0619154386	0,00334892911
2	1	0	1	0	2518,77	3,73795629	3,73864412	0,91294213508565747	3	0,0632299781	0,00341316569
2	1	0	0	0	2520,22	3,75245714	3,7528789	0,92587723458806797	3	0,0645640641	0,00347470515
2	1	0	0	0	2521,67	3,76695824	3,76769519	0,93844352600474854	3	0,0659166351	0,00353576918
2	1	0	1	0	2523,12	3,78145981	3,78232074	0,95074576449890906	3	0,0672874004	0,00359602552
2	1	0	1	0	2524,57	3,79596043	3,79679561	0,96256159283976307	3	0,0686754435	0,00365464971
2	1	0	0	0	2526,02	3,81046176	3,81131172	0,97443733426432115	3	0,0700809136	0,00371388439
2	1	0	1	0	2527,47	3,82496285	3,82562685	0,98701842532803494	3	0,0715039	0,00377596426
2	1	0	1	0	2528,96	3,83986402	3,8406136	1,0015855034192338	3	0,0729858577	0,00384670286
2	1	0	0	0	2530,41	3,85436511	3,8550086	1,0170324289550373	3	0,0744501948	0,00392066874
2	1	0	0	0	2531,86	3,86886621	3,86969471	1,034370440368848	3	0,0759378523	0,00400269777
2	1	0	1	0	2533,31	3,8833673	3,88401961	1,0544001692906022	3	0,0774528384	0,00409531081
2	1	0	1	0	2534,76	3,89786839	3,89856529	1,0778566136335322	3	0,0789992511	0,00420209439
2	1	0	0	0	2536,21	3,91236949	3,91313076	1,1024674118186008	3	0,0805802867	0,00431409897
2	1	0	1	0	2537,66	3,92687154	3,92735648	1,1283636867937296	3	0,0821987316	0,0044314866
2	1	0	1	0	2539,11	3,94137144	3,9420619	1,1531881047412731	3	0,0838538781	0,00454593869
2	1	0	0	0	2540,56	3,95587254	3,95670772	1,1757560630018525	3	0,085543789	0,00465212297
2	1	0	0	0	2542,01	3,97037363	3,9710629	1,1950573120266198	3	0,0872638449	0,00474564778
2	1	0	1	0	2543,46	3,9848752	3,98569846	1,2120759108414205	3	0,0890103728	0,00483096903
2	1	0	1	0	2544,91	3,9993763	4,00025368	1,228086465969676	3	0,0907803774	0,0049126572
2	1	0	0	0	2546,36	4,01387691	4,01469946	1,2437243337432565	3	0,0925736129	0,00499317935
2	1	0	0	0	2547,81	4,02837849	4,02913475	1,2587077359979374	3	0,0943887383	0,00507150311
2	1	0	1	0	2549,26	4,04287958	4,04362011	1,2746706102043363	3	0,0962261111	0,00515428372
2	1	0	0	0	2550,71	4,05738163	4,05811691	1,2918221022270053	3	0,0980876088	0,00524236495
2	1	0	0	0	2552,16	4,07188177	4,07246113	1,3103914055973256	3	0,099974744	0,00533651793
2	1	0	1	0	2553,61	4,08638287	4,08705616	1,3312931836893149	3	0,101891033	0,00544107007
2	1	0	1	0	2555,06	4,10088396	4,10180235	1,3553876932710382	3	0,103839345	0,00555953244
2	1	0	0	0	2556,51	4,11538506	4,11600733	1,3827711446210725	3	0,105824552	0,00569149619
2	1	0	0	0	2557,96	4,12988615	4,13064289	1,4140020416428616	3	0,10785187	0,00584073737
2	1	0	1	0	2559,41	4,14438725	4,14516878	1,4498000570262448	3	0,109928094	0,00600966578
2	1	0	1	0	2560,86	4,15888786	4,15957308	1,4905769053339136	3	0,112060092	0,00620016363
2	1	0	0	0	2562,31	4,17338943	4,17407894	1,5387751891588106	3	0,114257075	0,00642296905
2	1	0	0	0	2563,76	4,18789053	4,18899727	1,5938600691276861	3	0,11652822	0,00667667529
2	0	0	1	1	2565,15	4,19819164	4,19894981	1,5979618647446189	3	0,118780285	0,00670976145
2	0	0	0	1	2566,60	4,18369007	4,18454504	1,363622261211276	3	0,120914526	0,00570613891
2	0	0	0	1	2568,05	4,16918898	4,16986895	1,1776712800686546	3	0,122751735	0,00491073495
2	0	0	1	1	2569,50	4,15468788	4,15542412	1,0189649704843688	3	0,124340512	0,00423423154
2	0	0	1	1	2570,95	4,14018679	4,1409483	0,88036328616241549	3	0,125713944	0,00364553882
2	0	0	0	1	2572,41	4,12568569	4,12664366	0,75937061182534118	3	0,126900062	0,00313365203
2	0	0	1	1	2573,86	4,11118317	4,11188507	0,65399528959309094	3	0,127922505	0,00268915342
2	0	0	1	1	2575,31	4,0966835	4,0974021	0,5621852308201305	3	0,128801927	0,00230349903
2	0	0	0	1	2576,80	4,08178186	4,08236408	0,4795612814777872	3	0,129576057	0,00195774366
2	0	0	0	1	2578,25	4,06728125	4,06804991	0,41033016595368467	3	0,130218968	0,00166924356
2	0	0	1	1	2579,70	4,05278015	4,05353451	0,34998232739356627	3	0,130767897	0,0014186654
2	0	0	1	1	2581,15	4,03827906	4,03921938	0,29755283356644122	3	0,131235197	0,00120188121
2	0	0	0	1	2582,60	4,02377844	4,0246439	0,25175982542956886	3	0,131631851	0,00101324369
2	0	0	0	1	2584,05	4,00927734	4,00991774	0,21176146141563824	3	0,131966665	0,000849146047
2	0	0	1	1	2585,50	3,99477577	3,99548244	0,17676170476867491	3	0,132247388	0,000706248276
2	0	0	1	1	2586,95	3,98027563	3,98097825	0,14609117421250461	3	0,132480517	0,000581585802
2	0	0	0	1	2588,40	3,96577358	3,96643114	0,11908161481066304	3	0,132671684	0,000472329033
2	0	0	1	1	2589,85	3,95127273	3,95184565	0,094441053476960858	3	0,132825285	0,000373216462
2	0	0	1	1	2591,30	3,93677115	3,93760109	0,072232745529618253	3	0,132945091	0,000284423732
2	0	0	0	1	2592,75	3,92227006	3,92297506	0,051696683998064474	3	0,13303405	0,000202804804
2	0	0	0	1	2594,24	3,9073689	3,90799856	0,03230204365293815	3	0,133095637	0,000126236337
2	0	0	1	1	2595,69	3,8928678	3,89374328	0,014610182988690211	3	0,133128777	5,68883006E-005
2	0	0	1	1	2597,18	3,87796664	3,87859678	-0,0028313162996103907	3	0,133137137	1,09815346E-005
2	0	0	0	1	2598,67	3,86306548	3,86348963	-0,017690986069889392	3	0,133121386	6,83489416E-005
2	0	0	1	1	2600,12	3,84856462	3,84923458	-0,0319456981378608	3	0,133084327	0,000122966492
2	0	0	1	1	2601,57	3,83406353	3,83474922	-0,044990406711197805	3	0,133027583	0,000172526925
2	0	0	0	1	2603,02	3,81956244	3,82031369	-0,056801380686616998	3	0,132953018	0,000216999091
2	0	0	0	1	2604,47	3,80506134	3,80558777	-0,067040199530311155	3	0,132862225	0,00025512735
2	0	0	1	1	2605,92	3,79056025	3,79120278	-0,076886863428323354	3	0,132756963	0,000291493692
2	0	0	1	1	2607,37	3,77605915	3,77654672	-0,085383554881748979	3	0,132638589	0,000322454987
2	0	0	0	1	2608,82	3,76155806	3,76219153	-0,093176481915482778	3	0,132508367	0,00035054778
2	0	0	0	1	2610,31	3,74665689	3,74717474	-0,10002024883093962	3	0,132363692	0,000374793337
2	0	0	1	1	2611,76	3,7321558	3,73301005	-0,10648161425100034	3	0,132213101	0,000397496944
2	0	0	0	1	2613,21	3,71765494	3,71828413	-0,1123070862377064	3	0,132053867	0,000417589647
2	0	0	0	1	2614,66	3,70315385	3,70368838	-0,11788241988203184	3	0,131886169	0,000436599745
2	0	0	1	1	2616,11	3,68865228	3,6893332	-0,12314416033526254	3	0,131710842	0,000454319845
2	0	0	1	1	2617,56	3,67415118	3,6746974	-0,12773231036650645	3	0,131528422	0,000469377585
2	0	0	0	1	2619,01	3,65965009	3,66030216	-0,13228687364608005	3	0,131339192	0,000484209915
2	0	0	0	1	2620,46	3,64514923	3,64603734	-0,13610922886679555	3	0,131143853	0,000496259308
2	0	0	1	1	2621,91	3,63064814	3,63133121	-0,14019960669490227	3	0,130942509	0,000509111211
2	0	0	1	1	2623,36	3,61614656	3,61687613	-0,14390214862457107	3	0,130735606	0,000520476256
2	0	0	0	1	2624,81	3,60164547	3,60213995	-0,14760294056031853	3	0,13052325	0,00053168647
2	0	0	1	1	2626,26	3,58714461	3,58775473	-0,15111544379033216	3	0,130305842	0,000542165129
2	0	0	1	1	2627,71	3,57264352	3,57311916	-0,15440531296189898	3	0,130083635	0,000551708566
2	0	0	0	1	2629,16	3,55814242	3,55893445	-0,15768583072349434	3	0,12985678	0,000561193563
2	0	0	0	1	2630,61	3,54364133	3,54427838	-0,16015479500250285	3	0,129625604	0,000567633193
2	0	0	1	1	2632,06	3,52914023	3,52961254	-0,16299224101627898	3	0,129390404	0,000575299433
2	0	0	1	1	2633,51	3,51463914	3,51534772	-0,16562198063669101	3	0,129151449	0,000582218869
2	0	0	0	1	2634,96	3,50013804	3,50084209	-0,16820836268986272	3	0,128908858	0,000588870898
2	0	0	0	1	2636,41	3,48563695	3,48647666	-0,17047468860012848	3	0,12866272	0,000594356039
2	0	0	1	1	2637,86	3,47113609	3,47172093	-0,17281956997855283	3	0,128413171	0,000599981344
2	0	0	0	1	2639,31	3,45663548	3,45730639	-0,17500537840684704	3	0,128160417	0,000605047215
2	0	0	0	1	2640,76	3,44213343	3,44272995	-0,1771463099479056	3	0,127904505	0,000609866926
2	0	0	1	1	2642,21	3,42763233	3,42831445	-0,1788335463497792	3	0,127645507	0,000613097625
2	0	0	1	1	2643,66	3,41313124	3,4138391	-0,1809272904647511	3	0,127383739	0,000617656682
2	0	0	0	1	2645,11	3,39863038	3,39930391	-0,18293839883214512	3	0,127118975	0,000621863233
2	0	0	0	1	2646,56	3,38412929	3,38485837	-0,18502182187512518	3	0,12685135	0,000626272638
2	0	0	1	1	2648,01	3,36962819	3,37032247	-0,18679566856008067	3	0,126580894	0,000629561662
2	0	0	1	1	2649,46	3,35512662	3,35583711	-0,18878809172504861	3	0,126307711	0,000633542077
2	0	0	0	1	2650,91	3,34062576	3,34139204	-0,19074904685840032	3	0,126031786	0,000637367368
2	0	0	0	1	2652,36	3,32612538	3,32677555	-0,19247565072263261	3	0,125753179	0,000640323269
2	0	0	1	1	2653,81	3,31162357	3,31223083	-0,19440804258920307	3	0,12547186	0,000643924286
2	0	0	0	1	2655,26	3,29712248	3,29780531	-0,19620677029403622	3	0,125187919	0,000647051726
2	0	0	0	1	2656,71	3,28262138	3,28316927	-0,19800630786145846	3	0,124901548	0,000650088245
2	0	0	1	1	2658,16	3,26812029	3,26869392	-0,19959708031577427	3	0,124612585	0,00065242179
2	0	0	1	1	2659,61	3,25361919	3,25410843	-0,20148070661040672	3	0,124321312	0,000655640091
2	0	0	0	1	2661,06	3,2391181	3,23976302	-0,20304524122426938	3	0,124027453	0,000657818455
2	0	0	0	1	2662,51	3,22461677	3,22520757	-0,20477469777688474	3	0,123731196	0,000660440885
2	0	0	1	1	2663,96	3,21011567	3,21084213	-0,2058873931722096	3	0,123432659	0,000661071914
2	0	0	0	1	2665,41	3,19561434	3,19629526	-0,2078833058224312	3	0,12313161	0,000664456398
2	0	0	0	1	2666,86	3,18111348	3,18175125	-0,20947628491558134	3	0,122828223	0,000666501408
2	0	0	1	1	2668,31	3,16661239	3,16726589	-0,21123603684827686	3	0,122522317	0,000669040717
2	0	0	1	1	2669,76	3,15211153	3,15252972	-0,21272218421412048	3	0,122214273	0,000670613023
2	0	0	0	1	2671,21	3,13761044	3,13834453	-0,21440028143115341	3	0,121903777	0,000672861934
2	0	0	0	1	2672,66	3,12310934	3,12365937	-0,21613967643740307	3	0,12159095	0,000675146701
2	0	0	1	1	2674,11	3,10860825	3,10937428	-0,2175745878679063	3	0,121275812	0,000676520809
2	0	0	1	1	2675,56	3,09410715	3,09461832	-0,21902569437709917	3	0,12095847	0,000677800912
2	0	0	0	1	2677,01	3,07960606	3,08021307	-0,22072064131498291	3	0,120638885	0,000679866585
2	0	0	0	1	2678,46	3,06510615	3,06587887	-0,2223608692812369	3	0,12031702	0,000681731501
2	0	0	1	1	2679,91	3,05060387	3,05140257	-0,2238629175505289	3	0,119993016	0,000683095888
2	0	0	0	1	2681,36	3,03610277	3,03673649	-0,22528149552332976	3	0,11966677	0,000684120518
2	0	0	0	1	2682,81	3,02160168	3,02221084	-0,22672223633465683	3	0,119338527	0,000685202423
2	0	0	1	1	2684,26	3,00710058	3,00772548	-0,22799861865739146	3	0,119008213	0,000685757259
2	0	0	1	1	2685,71	2,99259949	2,99320984	-0,22902133424455952	3	0,118676066	0,000685508887
2	0	0	0	1	2687,16	2,97809839	2,97872472	-0,23044024547561958	3	0,118341975	0,000686418032
2	0	0	0	1	2688,61	2,96359706	2,96418905	-0,23182331871551741	3	0,118005879	0,000687168154
2	0	0	1	1	2690,06	2,94909596	2,94950294	-0,23302458498316493	3	0,117668055	0,000687306689
2	0	0	0	1	2691,51	2,93459415	2,93506765	-0,23413862007651763	3	0,11732839	0,000687212683
2	0	0	0	1	2692,96	2,92009377	2,92056227	-0,23530322530617421	3	0,116987318	0,000687217747
2	0	0	1	1	2694,41	2,90559268	2,90616703	-0,2360964382532993	3	0,116644666	0,000686135667
2	0	0	1	1	2695,86	2,89109159	2,89185214	-0,23719891471167376	3	0,116300657	0,000685944164
2	0	0	0	1	2697,31	2,87659049	2,87738633	-0,23800132283941002	3	0,115955316	0,000684821745
2	0	0	0	1	2698,76	2,8620894	2,86275053	-0,23887441214174032	3	0,115608677	0,000683837861
2	0	0	1	1	2700,21	2,8475883	2,84797454	-0,23962422840607699	3	0,115261041	0,00068244373
2	0	0	1	1	2701,66	2,83308721	2,83364964	-0,24024797005889286	3	0,114912398	0,000680778583
2	0	0	0	1	2703,12	2,81858611	2,81914425	-0,24094850748466979	3	0,114563033	0,000679268618
2	0	0	1	1	2704,57	2,80408597	2,80489945	-0,24110941796196416	3	0,114213064	0,000676287687
2	0	0	1	1	2706,02	2,78958392	2,79007292	-0,24135224133109114	3	0,113862932	0,000673390343
2	0	0	0	1	2707,47	2,77508283	2,77567768	-0,2406959137879312	3	0,113512754	0,000668094261
2	0	0	0	1	2708,92	2,76058173	2,76102185	-0,2405512416735287	3	0,113162898	0,000664167223
2	0	0	1	1	2710,37	2,7460804	2,74684739	-0,2402141427155584	3	0,11281351	0,000659831567
2	0	0	1	1	2711,82	2,73157954	2,73225117	-0,23971550927187037	3	0,112464905	0,000654962962
2	0	0	0	1	2713,27	2,71707845	2,71763587	-0,23895566724240736	3	0,112117253	0,000649394467
2	0	0	0	1	2714,72	2,70257711	2,70326042	-0,23817659642857869	3	0,111770667	0,000643853389
2	0	0	1	1	2716,17	2,68807602	2,6888051	-0,23733897204510934	3	0,111425221	0,000638158235
2	0	0	1	1	2717,62	2,67357588	2,67416978	-0,23645672355159075	3	0,111081019	0,00063232542
2	0	0	0	1	2719,07	2,65907383	2,65962386	-0,23527711327187738	3	0,110738136	0,000625748653
2	0	0	1	1	2720,52	2,64457273	2,64524865	-0,2343879739443464	3	0,110396542	0,0006200145
2	0	0	1	1	2721,97	2,63007164	2,63069296	-0,23364410696861702	3	0,110056423	0,000614645891
2	0	0	0	1	2723,42	2,61557055	2,6160171	-0,23278121169035693	3	0,109717809	0,000608959643
2	0	0	0	1	2724,87	2,60106945	2,60149145	-0,23149265954271046	3	0,109380715	0,00060222618
2	0	0	1	1	2726,32	2,58656836	2,58705616	-0,23052745607371162	3	0,109045312	0,000596387486
2	0	0	1	1	2727,77	2,57206726	2,57289147	-0,22937334569481526	3	0,108711533	0,000590152747
2	0	0	0	1	2729,22	2,55756617	2,55822563	-0,22781494741017648	3	0,108379275	0,000582802051
2	0	0	1	1	2730,67	2,54306436	2,54346752	-0,22679113403445328	3	0,108048797	0,000576835882
2	0	0	1	1	2732,12	2,52856398	2,52903414	-0,22551373097424765	3	0,10772001	0,000570331933
2	0	0	0	1	2733,57	2,51406288	2,51481938	-0,224335573070372	3	0,107393064	0,000564163434
2	0	0	0	1	2735,02	2,49956179	2,50020361	-0,22260635850640643	3	0,107067995	0,000556561223
2	0	0	1	1	2736,47	2,48506069	2,48565817	-0,22192380189274806	3	0,106744856	0,000551626727
2	0	0	1	1	2737,92	2,4705596	2,47108245	-0,22052122186869338	3	0,106423438	0,000544926093
2	0	0	0	1	2739,37	2,4560585	2,45661712	-0,21936436843437469	3	0,106103852	0,000538894266
2	0	0	0	1	2740,82	2,44155717	2,44212151	-0,21766411427718822	3	0,105786115	0,000531562197
2	0	0	1	1	2742,27	2,42705607	2,42776632	-0,21648425344998669	3	0,10547033	0,000525573152
2	0	0	1	1	2743,72	2,41255617	2,41324186	-0,2151849624895217	3	0,105156556	0,00051929336
2	0	0	0	1	2745,17	2,39805388	2,39864516	-0,21396193575734922	3	0,104844637	0,000513218751
2	0	0	1	1	2746,62	2,38355279	2,38399911	-0,21268720552325293	3	0,104534879	0,000507046119
2	0	0	1	1	2748,07	2,36905169	2,36971426	-0,21123248944059014	3	0,104227133	0,000500560622
2	0	0	0	1	2749,52	2,3545506	2,35523891	-0,20987765048630534	3	0,103921302	0,000494312029
2	0	0	0	1	2750,97	2,34004951	2,34064317	-0,20795013903019389	3	0,103617668	0,000486737059
2	0	0	1	1	2752,42	2,32554841	2,32606745	-0,20681258384138346	3	0,103316084	0,000481060008
2	0	0	1	1	2753,87	2,31104732	2,31161213	-0,20537226282370736	3	0,103016548	0,000474741013
2	0	0	0	1	2755,32	2,29654646	2,29716706	-0,20400030398741363	3	0,102719009	0,000468622777
2	0	0	1	1	2756,77	2,28204417	2,28238916	-0,20250407405558858	3	0,102423564	0,0004621931
2	0	0	1	1	2758,22	2,26754403	2,26815581	-0,20119597002242982	3	0,102130152	0,000456343812
2	0	0	0	1	2759,67	2,25304294	2,25391102	-0,19993237863915648	3	0,101838678	0,000450629799
2	0	0	0	1	2761,12	2,23854184	2,23931527	-0,19861102174036176	3	0,101549178	0,000444752688
2	0	0	1	1	2762,57	2,22404075	2,2245791	-0,19703493593260736	3	0,101261474	0,00043831981
2	0	0	1	1	2764,02	2,20953965	2,21011376	-0,19590945999759014	3	0,10097564	0,000432982197
2	0	0	0	1	2765,47	2,19503856	2,19568849	-0,19476016028784182	3	0,100691572	0,000427632651
2	0	0	0	1	2766,92	2,18053722	2,1809423	-0,1937638813008864	3	0,10040921	0,000422587851
2	0	0	1	1	2768,37	2,16603613	2,16645694	-0,19281669314174634	3	0,100128323	0,000417729054
2	0	0	1	1	2769,82	2,15153599	2,15205169	-0,19184265711763149	3	0,0998488963	0,000412855326
2	0	0	0	1	2771,27	2,13703394	2,13749599	-0,19109236142442886	3	0,0995708555	0,000408459164
2	0	0	1	1	2772,72	2,12253284	2,12301087	-0,18978204384135734	3	0,0992940366	0,000402909354
2	0	0	1	1	2774,17	2,10803175	2,10873556	-0,18919566417268163	3	0,0990184471	0,000398963632
2	0	0	0	1	2775,62	2,09353065	2,09402966	-0,18854949867818506	3	0,0987438038	0,000394828239
2	0	0	0	1	2777,07	2,0790298	2,07969451	-0,18798805218345248	3	0,0984703079	0,000390957721
2	0	0	1	1	2778,52	2,06452847	2,06508875	-0,1873036596613633	3	0,0981975421	0,000386798667
2	0	0	1	1	2779,97	2,05002761	2,05053329	-0,18699873646255603	3	0,0979256034	0,000383447128
2	0	0	0	1	2781,42	2,03552651	2,03617811	-0,18640756288853754	3	0,0976542979	0,000379559002
2	0	0	0	1	2782,87	2,02102447	2,02157211	-0,18599428074820522	3	0,0973836333	0,000376000855
2	0	0	1	1	2784,32	2,00652409	2,00713682	-0,18518392330346022	3	0,0971136764	0,000371689472
2	0	0	0	1	2785,77	1,99202311	1,99252141	-0,18498431514793402	3	0,0968442261	0,000368585199
2	0	0	0	1	2787,22	1,9775219	1,97811627	-0,18455259381638202	3	0,0965754837	0,000365066488
2	0	0	1	1	2788,67	1,9630208	1,96351051	-0,184203165428092	3	0,0963072255	0,000361684855
2	0	0	1	1	2790,12	1,94851971	1,94905508	-0,18391296213182323	3	0,0960396454	0,000358456484
2	0	0	0	1	2791,57	1,93401849	1,93472981	-0,18346724263392477	3	0,0957726762	0,000354959542
2	0	0	0	1	2793,02	1,9195174	1,92026472	-0,18316469818819382	3	0,0955063626	0,00035172471
2	0	0	1	1	2794,47	1,9050163	1,90574896	-0,18223398985962074	3	0,0952406824	0,000347292225
2	0	0	1	1	2795,92	1,89051533	1,89114332	-0,18210751807782886	3	0,094975628	0,000344391417
2	0	0	0	1	2797,37	1,87601423	1,87652755	-0,18169124094614109	3	0,0947112292	0,000340948609
2	0	0	1	1	2798,82	1,86151314	1,86192179	-0,18139331997372256	3	0,0944472998	0,000337740174
2	0	0	1	1	2800,27	1,84701192	1,84740627	-0,1810314911417663	3	0,0941839591	0,000334438722
2	0	0	0	1	2801,72	1,83251083	1,83304119	-0,18075227454149402	3	0,0939209759	0,000331326359
2	0	0	0	1	2803,17	1,81800973	1,81868589	-0,18048226806179888	3	0,0936584249	0,000328240567
2	0	0	1	1	2804,62	1,80350852	1,80379963	-0,18041272868867965	3	0,0933961198	0,000325428409
2	0	0	1	1	2806,07	1,78900743	1,78950465	-0,17991052486468083	3	0,0931341276	0,000321950734
2	0	0	0	1	2807,52	1,77450645	1,77500916	-0,17994732793886214	3	0,0928722173	0,000319408166
2	0	0	0	1	2808,97	1,76000535	1,76058388	-0,18002967361826416	3	0,0926103294	0,000316957332
2	0	0	1	1	2810,42	1,74550426	1,74612844	-0,18010247917845891	3	0,0923483893	0,000314482051
2	0	0	0	1	2811,87	1,73100317	1,73158288	-0,18011055847940384	3	0,0920862854	0,000311876356
2	0	0	0	1	2813,32	1,71650195	1,71723783	-0,18056228675413872	3	0,0918240324	0,000310068397
2	0	0	1	1	2814,77	1,70200086	1,70256197	-0,18075469283697533	3	0,091561459	0,000307746057
2	0	0	1	1	2816,22	1,68749988	1,68785596	-0,18077599443495363	3	0,0912985727	0,000305123831
2	0	0	0	1	2817,67	1,67299855	1,67343056	-0,18141376906229834	3	0,0910352245	0,000303583336
2	0	0	0	1	2819,12	1,65849745	1,65898514	-0,18179434848328381	3	0,0907712951	0,000301594118
2	0	0	1	1	2820,57	1,64399648	1,64453995	-0,18224679996880467	3	0,090506725	0,000299712148
2	0	0	1	1	2822,02	1,62949538	1,62992394	-0,1828012071006624	3	0,0902414098	0,000297952065
2	0	0	0	1	2823,47	1,61499429	1,61548889	-0,18358896936600445	3	0,0899751708	0,000296585931
2	0	0	1	1	2824,92	1,60049319	1,60086298	-0,18419852398801638	3	0,0897078738	0,000294876605
2	0	0	1	1	2826,37	1,58599198	1,58648789	-0,18509780274083322	3	0,089439474	0,000293655408
2	0	0	0	1	2827,82	1,57149088	1,57186198	-0,18566085421480259	3	0,0891698524	0,000291833247
2	0	0	0	1	2829,27	1,55698991	1,55733657	-0,18687267329854262	3	0,0888988301	0,000291023636
2	0	0	1	1	2830,72	1,54248869	1,54293132	-0,18798427113021443	3	0,0886261985	0,000290046824
2	0	0	1	1	2832,17	1,5279876	1,52842581	-0,18926481863794266	3	0,0883518457	0,000289277232
2	0	0	0	1	2833,63	1,51348662	1,51401043	-0,19053149584215114	3	0,08807569	0,000288466661
2	0	0	0	1	2835,08	1,49898553	1,49937475	-0,19192427780944765	3	0,0877976269	0,000287766423
2	0	0	1	1	2836,53	1,48448443	1,48497951	-0,19352909464699587	3	0,0875174701	0,000287386734
2	0	0	0	1	2837,98	1,46998334	1,47026348	-0,19465552685627152	3	0,0872352123	0,000286194903
2	0	0	0	1	2839,43	1,45548213	1,45599854	-0,19642808140876378	3	0,086950846	0,000285999005
2	0	0	1	1	2840,88	1,44098103	1,44145298	-0,19816128870782755	3	0,0866641328	0,000285640184
2	0	0	1	1	2842,33	1,42647994	1,42691743	-0,19983214799625283	3	0,08637508	0,000285143964
2	0	0	0	1	2843,78	1,41197872	1,4125824	-0,20140321863194365	3	0,0860837027	0,000284498645
2	0	0	0	1	2845,23	1,39747763	1,3982774	-0,20295409454653779	3	0,0857899562	0,000283786125
2	0	0	1	1	2846,68	1,38297665	1,3835212	-0,20457848052804726	3	0,0854938701	0,000283038651
2	0	0	1	1	2848,13	1,36847556	1,36889541	-0,20616720857409155	3	0,0851954818	0,000282221357
2	0	0	0	1	2849,58	1,35397434	1,35451019	-0,20740217079098032	3	0,0848947614	0,000280928361
2	0	0	1	1	2851,03	1,33947325	1,33981419	-0,20920873852446675	3	0,0845917687	0,000280300825
2	0	0	1	1	2852,48	1,32497203	1,325369	-0,21065453463234006	3	0,084286578	0,000279194996
2	0	0	0	1	2853,93	1,31047106	1,31071293	-0,21199515834450765	3	0,0839792192	0,000277864805
2	0	0	0	1	2855,38	1,29596996	1,29621756	-0,21342002631475498	3	0,0836698785	0,000276638777
2	0	0	1	1	2856,83	1,28146875	1,28178227	-0,21475336599784621	3	0,0833586082	0,000275267055
2	0	0	1	1	2858,28	1,26696777	1,26738703	-0,21574757387861654	3	0,0830457062	0,000273435668
2	0	0	0	1	2859,73	1,25246668	1,25294161	-0,21682496384407126	3	0,082731165	0,000271669007
2	0	0	0	1	2861,18	1,23796546	1,23847628	-0,21796462785763104	3	0,0824151561	0,000269944023
2	0	0	1	1	2862,63	1,22346449	1,22387064	-0,21910034275303302	3	0,0820976272	0,00026815047
2	0	0	0	1	2864,08	1,20896316	1,20956552	-0,22004099849922109	3	0,0817787647	0,000266154006
2	0	0	0	1	2865,53	1,19446218	1,19505012	-0,22068440262228339	3	0,0814586729	0,000263728929
2	0	0	1	1	2866,98	1,17996109	1,18037415	-0,22174181657222381	3	0,0811372995	0,000261738314
2	0	0	1	1	2868,43	1,16545999	1,16584849	-0,22255905011358394	3	0,0808145776	0,000259470136
2	0	0	0	1	2869,88	1,15095878	1,15152347	-0,22371516353450803	3	0,080490388	0,000257613254
2	0	0	0	1	2871,33	1,1364578	1,13682747	-0,22464329431143958	3	0,0801645443	0,00025538067
2	0	0	1	1	2872,78	1,12195671	1,1223321	-0,22633008728735082	3	0,0798365846	0,000254017534
2	0	0	1	1	2874,23	1,10745549	1,10792685	-0,22824243254338672	3	0,079506211	0,000252875907
2	0	0	0	1	2875,68	1,0929544	1,09334111	-0,23062655989391123	3	0,0791727677	0,000252153492
2	0	0	1	1	2877,13	1,07845318	1,07906628	-0,23325084134315478	3	0,0788356736	0,000251693127
2	0	0	1	1	2878,58	1,06395221	1,06435025	-0,2362721305495752	3	0,0784944072	0,000251476304
2	0	0	0	1	2880,03	1,04945111	1,04989481	-0,23981309720935907	3	0,0781483576	0,000251778518
2	0	0	0	1	2881,48	1,03495002	1,03536928	-0,24342233850620688	3	0,0777971521	0,000252032012
2	0	0	1	1	2882,93	1,02044892	1,02097404	-0,24750115900921354	3	0,0774403065	0,000252692262
2	0	0	1	1	2884,38	1,00594783	1,00636828	-0,25197560254795005	3	0,0770773664	0,000253580249
2	0	0	0	1	2885,83	0,991446793	0,991842866	-0,25670837657526134	3	0,0767078474	0,000254614366
2	0	0	0	1	2887,28	0,976945698	0,97733736	-0,26158181927167146	3	0,0763316378	0,000255653693
2	0	0	1	1	2888,73	0,962444544	0,962791741	-0,26654735044576227	3	0,0759481937	0,000256629573
2	0	0	0	1	2890,18	0,947943389	0,948246181	-0,27164251140008445	3	0,0755573139	0,000257583975
2	0	0	0	1	2891,63	0,933442354	0,933840871	-0,27729049914827098	3	0,0751587972	0,000258945191
2	0	0	1	1	2893,08	0,918941259	0,919405639	-0,28229367833894938	3	0,0747522935	0,000259542401
2	0	0	1	1	2894,53	0,904440105	0,90506047	-0,28798461402766317	3	0,0743378475	0,000260643486
2	0	0	0	1	2895,98	0,889938951	0,890314341	-0,29371145437471642	3	0,0739152953	0,00026149553
2	0	0	0	1	2897,43	0,875437856	0,875979245	-0,29909212460430989	3	0,0734846666	0,000261998503
2	0	0	1	1	2898,88	0,860936821	0,861383557	-0,3046206898676855	3	0,073046051	0,000262395246
2	0	0	1	1	2900,33	0,846435726	0,846707702	-0,3100041738556071	3	0,0725996643	0,000262482936
2	0	0	0	1	2901,78	0,831934571	0,832472801	-0,31507154391147373	3	0,0721456036	0,000262288493
2	0	0	1	1	2903,23	0,817433417	0,817706704	-0,32010983745567456	3	0,0716841742	0,000261755951
2	0	0	1	1	2904,68	0,802932382	0,803281426	-0,32456348409565728	3	0,0712158754	0,000260715809
2	0	0	0	1	2906,13	0,788431287	0,788906217	-0,32920754615527814	3	0,0707408413	0,000259713881
2	0	0	0	1	2907,58	0,773930192	0,774450898	-0,33385352402304582	3	0,070259437	0,000258553162
2	0	0	1	1	2909,03	0,759429038	0,760035634	-0,3376279781417312	3	0,0697718114	0,000256609288
2	0	0	1	1	2910,48	0,744927943	0,745319664	-0,34177029443283802	3	0,0692786202	0,000254728133
2	0	0	0	1	2911,93	0,730426848	0,730733871	-0,34539798879995942	3	0,0687798932	0,000252394006
2	0	0	0	1	2913,38	0,715925753	0,71629858	-0,34882465098053408	3	0,068276085	0,000249862613
2	0	0	1	1	2914,83	0,701424658	0,702053726	-0,3516619761163984	3	0,0677674115	0,000246885611
2	0	0	0	1	2916,28	0,686923504	0,687277496	-0,35485854907892653	3	0,0672541782	0,000243886301
2	0	0	0	1	2917,73	0,672422409	0,672882318	-0,35791760892607296	3	0,0667366609	0,000240836423
2	0	0	1	1	2919,18	0,657921314	0,658366799	-0,36083781121609126	3	0,0662146881	0,00023756364
2	0	0	1	1	2920,63	0,643420219	0,643720984	-0,36364763850967206	3	0,0656887516	0,000234087609
2	0	0	0	1	2922,08	0,628919065	0,629135311	-0,36660781200043814	3	0,0651584417	0,000230645921
2	0	0	0	1	2923,53	0,61441797	0,614679873	-0,3695627841322375	3	0,0646238178	0,000227162804
2	0	0	1	1	2924,98	0,599916875	0,60035485	-0,37278646215175667	3	0,0640847087	0,000223804163
2	0	0	1	1	2926,43	0,585415781	0,586009741	-0,37588158963869133	3	0,0635409728	0,000220270274
2	0	0	0	1	2927,88	0,570914626	0,571554422	-0,37950990092940717	3	0,0629922301	0,000216910557
2	0	0	1	1	2929,33	0,556413591	0,556778252	-0,38326969238308582	3	0,0624382608	0,000213396226
2	0	0	1	1	2930,78	0,541912436	0,542423129	-0,38744221293988358	3	0,0618788302	0,000210157625
2	0	0	0	1	2932,23	0,527411342	0,527737141	-0,39170423010364109	3	0,0613133721	0,000206716868
2	0	0	0	1	2933,68	0,512910247	0,513291776	-0,39615843755503552	3	0,0607417189	0,000203344869
2	0	0	1	1	2935,13	0,498409122	0,498946756	-0,40094026224687872	3	0,0601632781	0,000200047842
2	0	0	1	1	2936,58	0,483908027	0,484270811	-0,40541644611706483	3	0,059577845	0,000196331355
2	0	0	0	1	2938,03	0,469406903	0,469725251	-0,4111302358408793	3	0,0589848086	0,000193118249
2	0	0	0	1	2939,48	0,454906315	0,455218166	-0,41703073285358093	3	0,0583836697	0,000189839964
2	0	0	1	1	2940,93	0,440404683	0,440874636	-0,42298434767872275	3	0,0577740185	0,00018648307
2	0	0	0	1	2942,38	0,425903589	0,426399171	-0,42964936699718413	3	0,0571549349	0,000183202137
2	0	0	0	1	2943,83	0,411402464	0,411823511	-0,43713231819371501	3	0,0565257147	0,000180021365
2	0	0	1	1	2945,28	0,396901369	0,397277921	-0,44510577246546746	3	0,0558854006	0,000176830697
2	0	0	1	1	2946,73	0,382400304	0,382772446	-0,45372475388770362	3	0,0552330501	0,000173673339
2	0	0	0	1	2948,18	0,36789915	0,368156701	-0,4630232364870617	3	0,0545674711	0,000170465108
2	0	0	0	1	2949,63	0,353398055	0,353821635	-0,47374852901945453	3	0,05388733	0,000167622478
2	0	0	1	1	2951,08	0,33889696	0,339506596	-0,48572311627989075	3	0,0531910136	0,000164906203
2	0	0	1	1	2952,53	0,324395835	0,324630201	-0,49884514665852109	3	0,0524764732	0,000161940203
2	0	0	0	1	2953,98	0,309894741	0,310164809	-0,51413450591886976	3	0,0517413877	0,000159466435
2	0	0	1	1	2955,43	0,295393646	0,295689344	-0,53159849500904243	3	0,0509828292	0,000157188013
2	0	0	1	1	2956,88	0,280892521	0,281334251	-0,55131419592847661	3	0,0501977019	0,000155103568
2	0	0	0	1	2957,91	0,270591825	0,270397574	-0,5682066082954407	3	0,0496269912	0,000153641682