File: Experimentelles/Rohdaten/Batterietests/AlteZelle/150511_LLTO_LTO_Tests/ZView-Export/LLTO_LP30_LTO_02_CV_C01_loop3.txt
EC-Lab ASCII FILE
Nb header lines : 3
mode	ox/red	error	control changes	counter inc.	time/s	control/V	Ewe/V	<I>/mA	cycle number	(Q-Qo)/C	P/W
2	1	0	0	0	2958,08	0,270991862	0,271520317	-0,61628895998001101	4	0	0,000167334976
2	1	0	0	0	2959,51	0,285292834	0,285614729	-0,32161780889146054	4	-0,000611660886	9,1858783E-005
2	1	0	1	0	2960,96	0,299793988	0,300190389	-0,2031107244547457	4	-0,000983166508	6,09718882E-005
2	1	0	1	0	2962,41	0,314295053	0,314505398	-0,13073520354616136	4	-0,00122032606	4,11169276E-005
2	1	0	0	0	2963,86	0,328796208	0,328950763	-0,084353561299697958	4	-0,00137308508	2,77481686E-005
2	1	0	0	0	2965,31	0,343297303	0,343807131	-0,053513173382574246	4	-0,00147073949	1,83982102E-005
2	1	0	1	0	2966,80	0,358198434	0,358643413	-0,0319970627994432	4	-0,00153291144	1,14755358E-005
2	1	0	1	0	2968,25	0,372699559	0,373178989	-0,017305217120641203	4	-0,0015674975	6,45794353E-006
2	1	0	0	0	2969,70	0,387200654	0,387604296	-0,0063741328364509734	4	-0,00158382696	2,47064122E-006
2	1	0	0	0	2971,19	0,402101576	0,402469724	0,0022629967248433933	4	-0,00158629718	9,10787662E-007
2	1	0	1	0	2972,64	0,41660288	0,417196691	0,0090217768592992934	4	-0,00157786405	3,76385537E-006
2	1	0	0	0	2974,13	0,431503981	0,431922704	0,014270465209847261	4	-0,00156016171	6,16373791E-006
2	1	0	0	0	2975,58	0,446005106	0,446588576	0,018723031074235478	4	-0,00153546256	8,36149138E-006
2	1	0	1	0	2977,03	0,460506231	0,460853517	0,022917859692825059	4	-0,00150464184	1,05617764E-005
2	1	0	1	0	2978,48	0,475007325	0,475268811	0,026710125025905085	4	-0,00146807614	1,26944897E-005
2	1	0	0	0	2979,93	0,48950845	0,489974797	0,030070327232048544	4	-0,0014264686	1,47337023E-005
2	1	0	0	0	2981,38	0,504009545	0,504470289	0,032987107571291974	4	-0,00138025358	1,66410155E-005
2	1	0	1	0	2982,83	0,51851064	0,51893568	0,035904443473555149	4	-0,00132981176	1,86320976E-005
2	1	0	0	0	2984,28	0,533011794	0,533370912	0,038453652872703968	4	-0,00127541786	2,05100605E-005
2	1	0	0	0	2985,73	0,547512889	0,54785639	0,040964403471055789	4	-0,00121732091	2,24426094E-005
2	1	0	1	0	2987,18	0,562013984	0,562211514	0,043002619553590246	4	-0,00115573127	2,41765683E-005
2	1	0	1	0	2988,63	0,576515079	0,577107966	0,045518976413101434	4	-0,00109067454	2,62693648E-005
2	1	0	0	0	2990,08	0,591016173	0,591593444	0,047825925187983853	4	-0,00102227915	2,82935034E-005
2	1	0	0	0	2991,53	0,605517328	0,606058776	0,050180841508942394	4	-0,000950519054	3,04125388E-005
2	1	0	1	0	2992,98	0,620018423	0,620433986	0,052487491727030374	4	-0,000875466387	3,25650253E-005
2	1	0	1	0	2994,43	0,634519517	0,634899437	0,054851143038831654	4	-0,000797037967	3,48249596E-005
2	1	0	0	0	2995,88	0,649020612	0,649645448	0,057134410250000653	4	-0,000715218834	3,71171081E-005
2	1	0	1	0	2997,33	0,663521767	0,664060771	0,059353306210444378	4	-0,000630014809	3,94142007E-005
2	1	0	1	0	2998,78	0,678022861	0,678586304	0,061844802519772198	4	-0,000541435264	4,19670359E-005
2	1	0	0	0	3000,23	0,692523956	0,692801058	0,064257246597359424	4	-0,000449491636	4,45174883E-005
2	1	0	0	0	3001,68	0,707025051	0,707386792	0,066622568177990387	4	-0,000354179036	4,71279236E-005
2	1	0	1	0	3003,13	0,721526146	0,721882224	0,068795385828706918	4	-0,000255691557	4,96621651E-005
2	1	0	1	0	3004,58	0,7360273	0,736357689	0,070705408055800832	4	-0,000154180423	5,20644717E-005
2	1	0	0	0	3006,03	0,750528395	0,751063645	0,072558401327114547	4	-4,98248774E-005	5,44959767E-005
2	1	0	0	0	3007,48	0,76502949	0,765609264	0,074257137467308659	4	5,70931225E-005	5,68519536E-005
2	1	0	1	0	3008,93	0,779530585	0,779904246	0,075500099958541619	4	0,000166399434	5,8882848E-005
2	1	0	0	0	3010,38	0,794031739	0,794179082	0,077045316303459008	4	0,000277849816	6,11877767E-005
2	1	0	0	0	3011,83	0,808532774	0,808995366	0,078344134148210061	4	0,000391227804	6,33800446E-005
2	1	0	1	0	3013,28	0,823033869	0,82341069	0,079449803277384435	4	0,000506281853	6,54198157E-005
2	1	0	1	0	3014,73	0,837534904	0,837835908	0,080309265060350016	4	0,000622808526	6,72859896E-005
2	1	0	0	0	3016,18	0,852036059	0,852622151	0,081167379995653158	4	0,000740608608	6,92051035E-005
2	1	0	0	0	3017,63	0,866537213	0,86690706	0,08183276725079241	4	0,000859496358	7,09414016E-005
2	1	0	1	0	3019,08	0,881038308	0,881412506	0,082430541903401216	4	0,000979333883	7,26553117E-005
2	1	0	1	0	3020,53	0,895539343	0,896078527	0,082826160457140582	4	0,00109983957	7,42187403E-005
2	1	0	1	0	3021,91	0,909340441	0,909922361	0,083282493539930496	4	0,00121522136	7,57806047E-005
2	1	0	1	0	3023,36	0,923842311	0,9243294	0,083528912173889805	4	0,00133690843	7,72082276E-005
2	1	0	0	0	3024,81	0,93834275	0,938762903	0,083937892709703424	4	0,00145905954	7,8797777E-005
2	1	0	1	0	3026,26	0,952843845	0,953438878	0,084153377121158784	4	0,00158157374	8,02350987E-005
2	1	0	1	0	3027,71	0,96734488	0,967773855	0,084312059625517466	4	0,00170438958	8,15950043E-005
2	1	0	0	0	3029,16	0,981845975	0,982269406	0,084546076095042278	4	0,00182748539	8,30470235E-005
2	1	0	0	0	3030,61	0,996347189	0,996945322	0,084526966267730816	4	0,00195078924	8,42687659E-005
2	1	0	1	0	3032,06	1,01084828	1,01145077	0,084812216053251034	4	0,00207429472	8,57833802E-005
2	1	0	1	0	3033,51	1,02534926	1,02550507	0,085084209723087718	4	0,00219797273	8,72542878E-005
2	1	0	0	0	3034,96	1,03985035	1,04020107	0,085257181199267392	4	0,00232189219	8,86846101E-005
2	1	0	0	0	3036,41	1,05435121	1,05483568	0,085402288171036006	4	0,0024460007	9,00853775E-005
2	1	0	1	0	3037,86	1,06885254	1,06918204	0,085584672129092045	4	0,00257035834	9,15055934E-005
2	1	0	0	0	3039,31	1,08335364	1,08377767	0,085744590013443174	4	0,00269502518	9,29280723E-005
2	1	0	0	0	3040,76	1,09785485	1,09841347	0,085981274954974656	4	0,00282000541	9,44429921E-005
2	1	0	1	0	3042,21	1,11235583	1,11269855	0,085909394527940557	4	0,00294536632	9,55912619E-005
2	1	0	1	0	3043,66	1,12685716	1,12758493	0,08635041775414665	4	0,00307106925	9,73674323E-005
2	1	0	0	0	3045,11	1,14135826	1,14177966	0,086633245499494029	4	0,00319719478	9,89160762E-005
2	1	0	0	0	3046,56	1,15585923	1,15635526	0,087017936767854848	4	0,00332374219	0,000100623649
2	1	0	1	0	3048,01	1,17036033	1,17091095	0,087237169228804531	4	0,00345079741	0,000102146958
2	1	0	1	0	3049,46	1,18486214	1,18517709	0,087846879853422208	4	0,00357846171	0,000104114108
2	1	0	0	0	3050,91	1,19936252	1,19979167	0,088271749690951078	4	0,003706811	0,000105907711
2	1	0	1	0	3052,36	1,21386373	1,21449769	0,088794758174723712	4	0,00383594516	0,000107841028
2	1	0	1	0	3053,81	1,22836483	1,22873235	0,089079952876393971	4	0,00396562275	0,000109455417
2	1	0	0	0	3055,26	1,2428658	1,24357879	0,089154987887013594	4	0,00409559114	0,000110871253
2	1	0	0	0	3056,71	1,25736713	1,25803411	0,088764734760237222	4	0,00422506686	0,000111669062
2	1	0	1	0	3058,16	1,27186811	1,27248955	0,087358371374042125	4	0,0043535321	0,000111162612
2	1	0	1	0	3059,61	1,2863692	1,28687465	0,086795082665048768	4	0,00448043924	0,000111694389
2	1	0	0	0	3061,06	1,3008703	1,30149055	0,085608075489289613	4	0,00460585114	0,0001114181
2	1	0	1	0	3062,51	1,31537223	1,31592703	0,084586030041659994	4	0,00472969422	0,00011130904
2	1	0	1	0	3063,96	1,32987249	1,33040118	0,083045841136481779	4	0,00485186232	0,000110484289
2	1	0	0	0	3065,41	1,3443737	1,34466624	0,082047198840882854	4	0,00497235544	0,000110326102
2	1	0	0	0	3066,86	1,35887468	1,35933197	0,080688796471804378	4	0,00509098265	0,000109682864
2	1	0	1	0	3068,31	1,37337577	1,3739779	0,079379779771746368	4	0,00520774443	0,000109066066
2	1	0	1	0	3069,76	1,38787711	1,38826275	0,078107104966572134	4	0,00532250339	0,000108433182
2	1	0	0	0	3071,21	1,40237808	1,40285861	0,077067929145414605	4	0,00543562742	0,000108115411
2	1	0	0	0	3072,66	1,41687918	1,41732395	0,076479659978455514	4	0,00554757705	0,000108396453
2	1	0	1	0	3074,12	1,43138039	1,43211007	0,076040484244004006	4	0,0056587779	0,000108898341
2	1	0	0	0	3075,57	1,44588172	1,44634593	0,075703850369000064	4	0,00576954847	0,000109493958
2	1	0	0	0	3077,02	1,46038246	1,4607302	0,075997839177337485	4	0,0058802967	0,000111012341
2	1	0	1	0	3078,47	1,47488368	1,47537601	0,076445214333943846	4	0,00599136809	0,000112785434
2	1	0	1	0	3079,92	1,48938465	1,49003184	0,076918929349631514	4	0,00610289536	0,000114611656
2	1	0	0	0	3081,37	1,50388575	1,50454736	0,077560462523251661	4	0,00621513743	0,000116693387
2	1	0	0	0	3082,82	1,51838696	1,51895273	0,078086863000256243	4	0,00632828567	0,000118610253
2	1	0	1	0	3084,27	1,53288805	1,53354836	0,079002991454520269	4	0,00644251099	0,00012115491
2	1	0	1	0	3085,72	1,54738927	1,54786336	0,079475923344337613	4	0,0065580653	0,000123017875
2	1	0	0	0	3087,17	1,56189024	1,56254935	0,080784485947030477	4	0,00667504314	0,000126229745
2	1	0	0	0	3088,62	1,57639086	1,57695413	0,08192204943402537	4	0,00679367967	0,00012918732
2	1	0	1	0	3090,07	1,59089243	1,59130943	0,083261698154576986	4	0,00691403681	0,00013249513
2	1	0	0	0	3091,52	1,60539353	1,60573494	0,084468985325656614	4	0,00703632319	0,000135634808
2	1	0	0	0	3092,97	1,6198945	1,62059116	0,086031032842583514	4	0,00716062076	0,000139421129
2	1	0	1	0	3094,42	1,6343956	1,6347158	0,087429367801329984	4	0,00728700776	0,000142922174
2	1	0	1	0	3095,87	1,64889693	1,64929152	0,088963883890149197	4	0,00741556892	0,000146727383
2	1	0	0	0	3097,32	1,66339791	1,66377676	0,090267391079881459	4	0,00754633872	0,000150184787
2	1	0	0	0	3098,77	1,677899	1,67839265	0,092062332512190208	4	0,00767947454	0,000154516747
2	1	0	1	0	3100,22	1,69240022	1,69288826	0,093811837413037888	4	0,00781498384	0,000158812953
2	1	0	1	0	3101,67	1,70690131	1,70735359	0,095563583774492147	4	0,00795294344	0,000163160832
2	1	0	0	0	3103,12	1,72140241	1,7219193	0,097470225164822182	4	0,00809328258	0,000167835868
2	1	0	1	0	3104,61	1,73630357	1,73694599	0,098796506606352525	4	0,00824003574	0,000171604202
2	1	0	1	0	3106,06	1,75080466	1,75149155	0,10069820960052306	4	0,00838538352	0,000176372065
2	1	0	0	0	3107,51	1,76530564	1,76567614	0,10202258798138538	4	0,00853323843	0,000180138843
2	1	0	0	0	3108,96	1,77980673	1,78036213	0,10403114906512157	4	0,00868363027	0,000185213124
2	1	0	1	0	3110,41	1,79430795	1,79493773	0,1057258042274043	4	0,00883653853	0,000189771235
2	1	0	1	0	3111,86	1,80880904	1,80928314	0,10754114990898733	4	0,00899205077	0,000194572393
2	1	0	0	0	3113,31	1,82331014	1,82388866	0,10927880338082696	4	0,00915005617	0,000199312373
2	1	0	0	0	3114,76	1,83781135	1,83838415	0,11099882163883467	4	0,00931065157	0,00020405848
2	1	0	1	0	3116,21	1,85231245	1,85285974	0,11284799691444869	4	0,00947383326	0,000209091508
2	1	0	0	0	3117,66	1,86681354	1,86718452	0,11442529588627349	4	0,00963954162	0,00021365314
2	1	0	0	0	3119,11	1,88131452	1,88181043	0,11622600622164693	4	0,00980771054	0,000218715315
2	1	0	1	0	3120,56	1,89581561	1,89639604	0,11817620605385549	4	0,00997841172	0,000224108895
2	1	0	1	0	3122,01	1,91031671	1,91082144	0,12000953844593187	4	0,0101516601	0,000229316793
2	1	0	0	0	3123,46	1,92481792	1,92549741	0,12164221890270666	4	0,0103273178	0,000234221778
2	1	0	0	0	3124,91	1,93931901	1,93984246	0,12320339260622814	4	0,0105053568	0,00023899517
2	1	0	1	0	3126,36	1,95382011	1,95426786	0,12476357386913149	4	0,0106857251	0,000243821443
2	1	0	1	0	3127,81	1,96832132	1,96869314	0,12629859118411949	4	0,0108683435	0,000248643162
2	1	0	0	0	3129,26	1,98282242	1,98353934	0,12737157463561744	4	0,0110531328	0,00025264654
2	1	0	1	0	3130,71	1,99732351	1,99770415	0,1289307873230423	4	0,0112399356	0,000257565582
2	1	0	1	0	3132,16	2,01182437	2,01235986	0,13036091761508317	4	0,0114288032	0,00026233308
2	1	0	0	0	3133,61	2,02632546	2,02688551	0,13174998480826661	4	0,0116196573	0,000267042138
2	1	0	0	0	3135,06	2,04082656	2,04136109	0,13282845728099346	4	0,0118123423	0,000271150842
2	1	0	1	0	3136,51	2,05532789	2,0561471	0,13415143045131106	4	0,0120067978	0,000275835075
2	1	0	1	0	3137,96	2,06982899	2,07055211	0,13524517820527126	4	0,0122029353	0,000280032196
2	1	0	0	0	3139,41	2,08433008	2,08513808	0,13638877884174405	4	0,0124007445	0,000284389447
2	1	0	1	0	3140,86	2,09883213	2,09937406	0,13714542969936827	4	0,0125998417	0,000287919567
2	1	0	1	0	3142,31	2,11333227	2,11393857	0,13836136308964309	4	0,012800552	0,000292487413
2	1	0	0	0	3143,76	2,12783337	2,12821341	0,13949879813784061	4	0,0130026899	0,000296883198
2	1	0	0	0	3145,21	2,14233446	2,14297938	0,1403389742675556	4	0,0132062323	0,00030074353
2	1	0	1	0	3146,66	2,15683556	2,15743494	0,14141510174764904	4	0,013411073	0,000305093883
2	1	0	1	0	3148,11	2,17133665	2,17193031	0,14218310953583552	4	0,0136172362	0,00030881181
2	1	0	0	0	3149,56	2,18583775	2,18657613	0,14308538089971989	4	0,0138246631	0,00031286708
2	1	0	0	0	3151,01	2,20033884	2,20091128	0,1435164703677101	4	0,014033271	0,000315867015
2	1	0	1	0	3152,46	2,21483994	2,21547699	0,1446262501024953	4	0,0142431734	0,000320416118
2	1	0	1	0	3153,91	2,22934055	2,22997165	0,14554181992663427	4	0,0144543462	0,00032455413
2	1	0	0	0	3155,36	2,24384236	2,24451804	0,14654116057014698	4	0,0146668963	0,000328914291
2	1	0	1	0	3156,81	2,25834322	2,25883293	0,14741603094929133	4	0,0148807382	0,000332988187
2	1	0	1	0	3158,26	2,27284431	2,27350879	0,1484100788754097	4	0,0150959846	0,00033741162
2	1	0	0	0	3159,71	2,28734541	2,28793406	0,14941547314325955	4	0,015312735	0,000341852749
2	1	0	0	0	3161,16	2,3018465	2,30249977	0,15047225305655389	4	0,0155308964	0,00034646233
2	1	0	1	0	3162,61	2,31634784	2,31688499	0,15121675845390902	4	0,0157506187	0,000350351853
2	1	0	1	0	3164,06	2,33084893	2,33151078	0,15249989655179274	4	0,0159718636	0,000355555152
2	1	0	0	0	3165,51	2,34534979	2,34605646	0,15393668902106582	4	0,0161948521	0,000361144164
2	1	0	1	0	3166,96	2,35985112	2,36036491	0,15509186403312714	4	0,0164194573	0,000366073393
2	1	0	1	0	3168,41	2,37435222	2,37497711	0,15637239565451955	4	0,0166457649	0,000371380855
2	1	0	0	0	3169,86	2,38885331	2,38975334	0,15745441118876125	4	0,0168737937	0,000376277196
2	1	0	0	0	3171,31	2,40335441	2,40415835	0,15874404661978269	4	0,0171035025	0,000381645834
2	1	0	1	0	3172,76	2,4178555	2,41858387	0,15941219551799168	4	0,0173350368	0,000385551772
2	1	0	1	0	3174,21	2,4323566	2,43284869	0,16094586695544378	4	0,0175682958	0,00039155694
2	1	0	0	0	3175,66	2,44685769	2,44743466	0,16212470763518227	4	0,0178033374	0,000396789634
2	1	0	0	0	3177,11	2,46135879	2,46191978	0,1634213453702007	4	0,0180401132	0,000402330246
2	1	0	1	0	3178,56	2,47585988	2,47651577	0,16451119286163341	4	0,0182786994	0,000407414569
2	1	0	1	0	3180,01	2,49036098	2,49086022	0,16579385180548534	4	0,0185189564	0,000412969297
2	1	0	0	0	3181,46	2,50486207	2,50519586	0,16667758095233398	4	0,0187607892	0,00041755999
2	1	0	1	0	3182,91	2,51936316	2,52019238	0,16808539628982534	4	0,0190044977	0,000423607533
2	1	0	1	0	3184,36	2,53386426	2,53426695	0,16900007015404662	4	0,0192498863	0,0004282913
2	1	0	0	0	3185,81	2,54836535	2,54905319	0,17045867128763325	4	0,0194971263	0,000434508227
2	1	0	0	0	3187,26	2,56286669	2,5636487	0,17184451265105315	4	0,0197461378	0,00044054896
2	1	0	1	0	3188,71	2,57736778	2,57814455	0,17314523858173379	4	0,0199971162	0,000446393446
2	1	0	1	0	3190,16	2,59186864	2,59232903	0,17487149344136243	4	0,020249987	0,000453324436
2	1	0	0	0	3191,61	2,60636973	2,60705519	0,17622462935590378	4	0,020504985	0,000459427334
2	1	0	1	0	3193,06	2,62087226	2,62152219	0,17791596429709155	4	0,0207622256	0,000466410653
2	1	0	1	0	3194,51	2,63537216	2,63586545	0,17902146109069405	4	0,0210216902	0,000471876498
2	1	0	0	0	3195,96	2,64987326	2,65025067	0,18090378795750349	4	0,0212836228	0,000479440379
2	1	0	0	0	3197,41	2,66437435	2,66511703	0,18262335700759059	4	0,0215480309	0,000486712612
2	1	0	1	0	3198,86	2,67887545	2,67959261	0,18441070907283574	4	0,0218149591	0,000494145555
2	1	0	1	0	3200,31	2,69337654	2,69403791	0,1859844789917896	4	0,0220841467	0,000501049217
2	1	0	0	0	3201,76	2,70787764	2,70856357	0,18752423902818282	4	0,0223557632	0,00050792133
2	1	0	0	0	3203,21	2,72237873	2,72283816	0,18916662506914326	4	0,0226296	0,000515070104
2	1	0	1	0	3204,67	2,73687983	2,73758411	0,19068198398842106	4	0,0229057204	0,000522007991
2	1	0	1	0	3206,12	2,75138021	2,7519474	0,1919955716806503	4	0,0231840927	0,000528361707
2	1	0	0	0	3207,57	2,76588202	2,76657534	0,19346719813377923	4	0,0234646332	0,000535241561
2	1	0	1	0	3209,02	2,78038311	2,78100085	0,1951154300089304	4	0,0237473994	0,000542616181
2	1	0	1	0	3210,47	2,79488444	2,79567647	0,19688037705297302	4	0,0240324438	0,000550413853
2	1	0	0	0	3211,92	2,80938554	2,81009197	0,19858741830103037	4	0,0243199859	0,000558048894
2	1	0	0	0	3213,37	2,82388663	2,82457757	0,20063779417735805	4	0,0246100631	0,000566717004
2	1	0	1	0	3214,82	2,83838749	2,83918309	0,20272149556937213	4	0,0249028839	0,000575563463
2	1	0	1	0	3216,27	2,85288858	2,85361838	0,20421681607452458	4	0,0251986366	0,000582756882
2	1	0	0	0	3217,72	2,86738968	2,86817408	0,20662376680411309	4	0,0254974347	0,000592632918
2	1	0	0	0	3219,17	2,88189125	2,88269019	0,20897051698595741	4	0,025799619	0,000602397253
2	1	0	1	0	3220,62	2,89639211	2,89710498	0,21153912033575261	4	0,0261052866	0,000612851058
2	1	0	0	0	3222,07	2,9108932	2,91155028	0,21373800009799472	4	0,0264147092	0,000622308929
2	1	0	0	0	3223,52	2,92539406	2,92617583	0,21711825261203011	4	0,0267279129	0,0006353262
2	1	0	1	0	3224,97	2,93989539	2,94031072	0,21991691815977267	4	0,0270455126	0,000646624074
2	1	0	1	0	3226,42	2,95439649	2,95479608	0,22321845365998618	4	0,0273674689	0,000659565034
2	1	0	0	0	3227,87	2,96889758	2,96944189	0,22598956843527661	4	0,0276941117	0,00067106291
2	1	0	0	0	3229,32	2,98339868	2,9840076	0,22965537904140864	4	0,028025616	0,000685293402
2	1	0	1	0	3230,77	2,99789977	2,998523	0,23321370695096701	4	0,028362276	0,000699296652
2	1	0	1	0	3232,22	3,01240063	3,0130291	0,23713017523666614	4	0,0287042893	0,00071448012
2	1	0	0	0	3233,67	3,0269022	3,02751398	0,24119165586307651	4	0,0290518366	0,00073021109
2	1	0	1	0	3235,12	3,04140329	3,04209971	0,24518893286585808	4	0,0294051059	0,000745889207
2	1	0	1	0	3236,57	3,05590439	3,05668521	0,24958118734260387	4	0,0297643021	0,000762891141
2	1	0	0	0	3238,02	3,07040548	3,07100034	0,25349530368112074	4	0,030129781	0,000778484158
2	1	0	0	0	3239,47	3,08490634	3,08549595	0,2583357283535097	4	0,0305017997	0,000797093846
2	1	0	1	0	3240,92	3,09940743	3,10000134	0,26341991840551149	4	0,0308808796	0,000816602085
2	1	0	1	0	3242,37	3,11390877	3,11449671	0,26871708307104813	4	0,0312673487	0,00083691848
2	1	0	0	0	3243,82	3,12840962	3,12923265	0,2743441488904257	4	0,0316616334	0,000858486688
2	1	0	0	0	3245,27	3,14291072	3,1435678	0,2799983426213144	4	0,0320642069	0,00088019378
2	1	0	1	0	3246,72	3,15741181	3,15806341	0,28625225850070512	4	0,0324754491	0,000904002809
2	1	0	0	0	3248,17	3,17191291	3,17258859	0,29271852287153478	4	0,0328958966	0,000928675465
2	1	0	0	0	3249,62	3,186414	3,18717456	0,29942548267232896	4	0,0333260633	0,000954321295
2	1	0	1	0	3251,07	3,20091534	3,20154977	0,30693126136126605	4	0,0337666422	0,000982655678
2	1	0	1	0	3252,52	3,21541643	3,21609545	0,31484893981056851	4	0,0342183411	0,00101258419
2	1	0	0	0	3253,97	3,22991753	3,23053074	0,32349600363522771	4	0,03468211	0,00104506384
2	1	0	0	0	3255,42	3,24441862	3,24473524	0,3328205717261872	4	0,0351588242	0,00107991463
2	1	0	1	0	3256,87	3,25891972	3,25933123	0,34298016689717683	4	0,035649661	0,00111788593
2	1	0	0	0	3258,32	3,27342153	3,2739687	0,35393504374289722	4	0,0361555703	0,00115877227
2	1	0	0	0	3259,77	3,28792167	3,28860283	0,36541628123571578	4	0,0366778597	0,00120170903
2	1	0	1	0	3261,22	3,30242276	3,30313849	0,37841295489730963	4	0,0372178778	0,00124995038
2	1	0	1	0	3262,67	3,31692386	3,31765366	0,39196156291291117	4	0,0377770402	0,00130039267
2	1	0	0	0	3264,12	3,33142495	3,33208919	0,40668876981362701	4	0,0383568592	0,00135512324
2	1	0	0	0	3265,57	3,34592605	3,34648442	0,42207193886861114	4	0,038958475	0,0014124572
2	1	0	1	0	3267,02	3,36042738	3,36117029	0,43831546138972045	4	0,0395829603	0,00147325289
2	1	0	1	0	3268,47	3,37492847	3,37572598	0,45485341300567072	4	0,0402311273	0,00153546047
2	1	0	0	0	3269,92	3,38942957	3,3902216	0,47248852392658656	4	0,0409041047	0,00160184084
2	1	0	0	0	3271,37	3,40392995	3,40467501	0,4901560185149143	4	0,0416028574	0,0016688219
2	1	0	1	0	3272,82	3,41843176	3,41882133	0,50878749058271565	4	0,0423283689	0,00173945352
2	1	0	0	0	3274,27	3,43293285	3,43340707	0,5276517999979351	4	0,0430810153	0,00181164336
2	1	0	0	0	3275,72	3,44743371	3,44785261	0,54673713104178502	4	0,0438608974	0,00188506907
2	1	0	1	0	3277,17	3,46193528	3,46256852	0,56585657332713434	4	0,0446684957	0,00195931713
2	1	0	1	0	3278,62	3,47643638	3,47706366	0,58533956063911142	4	0,0455040634	0,00203526299
2	1	0	0	0	3280,07	3,49093747	3,4916296	0,60532086621969894	4	0,0463682637	0,00211355626
2	1	0	0	0	3281,52	3,50543857	3,50612497	0,62510401196777754	4	0,0472612679	0,00219169282
2	1	0	1	0	3282,97	3,51993942	3,5206604	0,64603561985616858	4	0,048183877	0,00227447203
2	1	0	1	0	3284,42	3,53444123	3,53523588	0,66681235870763366	4	0,0491365083	0,00235733902
2	1	0	0	0	3285,87	3,54894161	3,54989195	0,68766598217189133	4	0,050119061	0,00244113989
2	1	0	1	0	3287,32	3,56344271	3,56413722	0,70822437619790438	4	0,0511318631	0,00252420898
2	1	0	1	0	3288,77	3,5779438	3,57864237	0,72929971447835482	4	0,0521748029	0,00260990276
2	1	0	0	0	3290,22	3,59244514	3,59290743	0,74939213289568589	4	0,0532478504	0,00269249664
2	1	0	0	0	3291,67	3,60694623	3,60757327	0,76939813280478118	4	0,0543498062	0,00277566025
2	1	0	1	0	3293,12	3,62144732	3,62205863	0,78776353131979789	4	0,05547994	0,0028533258
2	1	0	1	0	3294,57	3,63594842	3,63660455	0,80590447783470336	4	0,056636747	0,00293075596
2	1	0	0	0	3296,02	3,65044951	3,65108991	0,82388161464283981	4	0,0578198358	0,00300806575
2	1	0	0	0	3297,47	3,66495061	3,6657958	0,84066079060236557	4	0,0590275899	0,00308169075
2	1	0	1	0	3298,92	3,6794517	3,67996049	0,85632625066985395	4	0,0602590777	0,00315124681
2	1	0	0	0	3300,37	3,69395256	3,69478679	0,87200191679099955	4	0,0615133792	0,00322186109
2	1	0	0	0	3301,82	3,70845366	3,70929241	0,88670757599174797	4	0,0627894625	0,00328905764
2	1	0	1	0	3303,27	3,72295523	3,72373748	0,90119132989396531	4	0,0640868545	0,00335579994
2	1	0	1	0	3304,72	3,73745632	3,73817253	0,91517180763185024	4	0,0654044375	0,00342107005
2	1	0	0	0	3306,17	3,75195742	3,75235748	0,92904231107483072	4	0,066742599	0,00348609895
2	1	0	0	0	3307,62	3,76645827	3,76704359	0,94212779247512307	4	0,068099767	0,00354903657
2	1	0	1	0	3309,07	3,78095937	3,78167915	0,95448105999579098	4	0,0694760159	0,00360954111
2	1	0	1	0	3310,52	3,79546046	3,7962451	0,96725129894912128	4	0,0708698928	0,00367192295
2	1	0	0	0	3311,97	3,80996156	3,81063032	0,9793865342314039	4	0,0722819939	0,00373208011
2	1	0	1	0	3313,42	3,82446337	3,82517576	0,99155360705131341	4	0,0737116784	0,00379286683
2	1	0	1	0	3314,91	3,83936381	3,84002209	1,005324284856517	4	0,0752004012	0,00386046735
2	1	0	0	0	3316,36	3,85386515	3,85457754	1,0198023393750186	4	0,076669991	0,00393090723
2	1	0	0	0	3317,81	3,86836624	3,86919332	1,0350050482278058	4	0,078160651	0,00400463445
2	1	0	1	0	3319,26	3,88286734	3,88357878	1,0513818012550491	4	0,0796744078	0,00408312399
2	1	0	1	0	3320,71	3,89736843	3,89814448	1,0695448884119597	4	0,0812128335	0,00416924059
2	1	0	0	0	3322,16	3,91186953	3,91251922	1,0890761436894554	4	0,0827785507	0,00426103128
2	1	0	0	0	3323,61	3,92637014	3,92696404	1,1089305714809346	4	0,0843723416	0,00435473071
2	1	0	1	0	3325,06	3,94087172	3,94173098	1,127499598078435	4	0,0859948322	0,0044443002
2	1	0	0	0	3326,51	3,95537257	3,9560461	1,1459873669470291	4	0,0876442865	0,00453357864
2	1	0	0	0	3327,96	3,96987367	3,97074223	1,1632336151475755	4	0,089319095	0,00461890083
2	1	0	1	0	3329,41	3,98437476	3,98527741	1,1792352090900131	4	0,091018267	0,00469957944
2	1	0	1	0	3330,86	3,99887633	3,99981308	1,1945303821315454	4	0,0927399769	0,00477789808
2	1	0	0	0	3332,31	4,01337719	4,01403761	1,2099651861935819	4	0,0944841728	0,00485684583
2	1	0	0	0	3333,76	4,02787781	4,02857113	1,2258603738669435	4	0,0962506831	0,00493846554
2	1	0	1	0	3335,22	4,04237938	4,04335928	1,2421891602377082	4	0,098041147	0,00502261706
2	1	0	1	0	3336,67	4,05687952	4,0576849	1,2598256967632011	4	0,0998557881	0,0051119756
2	1	0	0	0	3338,12	4,07138205	4,07219028	1,2785727574179546	4	0,101697408	0,00520659145
2	1	0	1	0	3339,57	4,08588266	4,08651495	1,300608245544133	4	0,10356839	0,00531495502
2	1	0	1	0	3341,02	4,10038376	4,10100031	1,3245066727201155	4	0,105472185	0,00543180248
2	1	0	0	0	3342,47	4,11488485	4,11587715	1,351142286633451	4	0,107412755	0,00556113571
2	1	0	0	0	3343,92	4,12938595	4,13009214	1,381865513821439	4	0,109394528	0,00570723182
2	1	0	1	0	3345,37	4,14388704	4,14489841	1,416962018857399	4	0,111424074	0,0058731637
2	1	0	0	0	3346,82	4,15838957	4,15920353	1,4571678971826464	4	0,113508634	0,00606065802
2	1	0	0	0	3348,27	4,17288923	4,17363834	1,5041972793017776	4	0,115655944	0,00627797563
2	1	0	1	0	3349,72	4,18739128	4,18837452	1,5569961517693293	4	0,117875569	0,00652128318
2	0	0	1	1	3351,11	4,19869089	4,19977188	1,5739369479318422	4	0,120077685	0,00661017606
2	0	0	0	1	3352,56	4,18419027	4,18509626	1,3345091212540874	4	0,122172251	0,00558504928
2	0	0	0	1	3354,01	4,1696887	4,17062044	1,1497513332093731	4	0,123968028	0,00479517644
2	0	0	1	1	3355,46	4,15518761	4,15596533	0,99140393765022323	4	0,12551631	0,00412024045
2	0	0	1	1	3356,91	4,14068699	4,14155006	0,85398254791895488	4	0,126850531	0,00353681156
2	0	0	0	1	3358,36	4,12618589	4,12695408	0,73382319013277632	4	0,127999067	0,00302845449
2	0	0	0	1	3359,81	4,1116848	4,11256886	0,62936394413312154	4	0,128985032	0,0025883026
2	0	0	1	1	3361,26	4,0971837	4,09821367	0,53804081212729082	4	0,129829541	0,00220500631
2	0	0	0	1	3362,75	4,08228207	4,08293629	0,45608545466149939	4	0,130568326	0,00186216785
2	0	0	0	1	3364,20	4,06778145	4,06837082	0,38776327126349133	4	0,13117817	0,00157756475
2	0	0	1	1	3365,65	4,05328035	4,05397558	0,3279214277087399	4	0,131695032	0,00132938544
2	0	0	1	1	3367,10	4,03877926	4,03978109	0,27615904815805446	4	0,13213113	0,00111562212
2	0	0	0	1	3368,55	4,02427816	4,02528524	0,23104285309091165	4	0,13249737	0,000930013368
2	0	0	0	1	3370,00	4,00977707	4,01045895	0,19218516718440925	4	0,132802635	0,000770750747
2	0	0	1	1	3371,45	3,99527574	3,99577308	0,15784144063945814	4	0,133055016	0,000630698574
2	0	0	1	1	3372,90	3,98077464	3,98148704	0,12797952734693262	4	0,13326101	0,000509548816
2	0	0	0	1	3374,35	3,96627355	3,96697259	0,10157781517288278	4	0,133426264	0,000402956415
2	0	0	1	1	3375,80	3,95177245	3,95255756	0,078276806375166925	4	0,133555517	0,000309393596
2	0	0	1	1	3377,25	3,9372716	3,9378314	0,057209453370887789	4	0,133652613	0,000225281183
2	0	0	0	1	3378,74	3,92237043	3,92299509	0,037543051177635731	4	0,13372229	0,0001472812
2	0	0	0	1	3380,19	3,90786886	3,90850973	0,020451137665077139	4	0,133763507	7,99334739E-005
2	0	0	1	1	3381,68	3,8929677	3,89372325	0,0039669722452041843	4	0,133781135	1,54462923E-005
2	0	0	1	1	3383,17	3,87806654	3,87903786	-0,010706271338373624	4	0,133775726	4,1530031E-005
2	0	0	0	1	3384,62	3,86356544	3,86428118	-0,023670303028969443	4	0,133750066	9,14687043E-005
2	0	0	1	1	3386,07	3,84906363	3,84982371	-0,036110277405691002	4	0,13370584	0,000139018201
2	0	0	1	1	3387,52	3,83456349	3,83516979	-0,04731441964395344	4	0,133644462	0,000181458832
2	0	0	0	1	3388,97	3,8200624	3,82069492	-0,057860289933160166	4	0,133567497	0,000221066512
2	0	0	0	1	3390,42	3,8055613	3,8060689	-0,067198069552735552	4	0,133476108	0,000255760475
2	0	0	1	1	3391,87	3,79106021	3,79167366	-0,075957713027795302	4	0,133371696	0,00028800685
2	0	0	1	1	3393,32	3,77655911	3,77724862	-0,083735055503590669	4	0,133255303	0,000316288118
2	0	0	0	1	3394,77	3,76205802	3,76273298	-0,091004603658802803	4	0,133128017	0,000342426036
2	0	0	0	1	3396,22	3,74755692	3,74819732	-0,097208066746437555	4	0,132990777	0,000364355015
2	0	0	1	1	3397,71	3,73265576	3,73345113	-0,10359037205732147	4	0,132840261	0,000386749598
2	0	0	1	1	3399,16	3,71815515	3,71882606	-0,10932326677752613	4	0,132685378	0,000406554202
2	0	0	0	1	3400,61	3,70365381	3,70439029	-0,11473518093892699	4	0,132522225	0,0004250239
2	0	0	1	1	3402,06	3,68915272	3,68979454	-0,12002595288989437	4	0,132351503	0,000442871096
2	0	0	1	1	3403,51	3,67465162	3,67518878	-0,12470648243712867	4	0,132173598	0,000458319875
2	0	0	0	1	3404,96	3,66015005	3,66077328	-0,12933813373092562	4	0,131988928	0,000473477587
2	0	0	0	1	3406,41	3,64564896	3,64633822	-0,13309662024645741	4	0,131797895	0,000485315308
2	0	0	1	1	3407,86	3,6311481	3,63174224	-0,13745662275080894	4	0,131600797	0,000499207003
2	0	0	1	1	3409,31	3,61664701	3,61740732	-0,14128672870962666	4	0,131397933	0,000511091668
2	0	0	0	1	3410,76	3,60214591	3,60275149	-0,14519511675462128	4	0,131189376	0,000523101946
2	0	0	1	1	3412,21	3,58764362	3,58833671	-0,14890326563818835	4	0,13097544	0,00053431507
2	0	0	1	1	3413,66	3,57314348	3,57365036	-0,15240711280299955	4	0,130756259	0,000544649723
2	0	0	0	1	3415,11	3,55864239	3,55930495	-0,1559461911286535	4	0,130531967	0,000555060047
2	0	0	0	1	3416,56	3,54414129	3,54504991	-0,15893756916436042	4	0,13030301	0,000563441601
2	0	0	1	1	3418,01	3,5296402	3,53027415	-0,16170350966664682	4	0,130069613	0,000570857723
2	0	0	1	1	3419,46	3,5151391	3,51588893	-0,1647066080089039	4	0,12983194	0,000579090149
2	0	0	0	1	3420,91	3,50063801	3,50123262	-0,16752040056356576	4	0,129590169	0,000586527865
2	0	0	0	1	3422,36	3,48613691	3,48673749	-0,17029841290786819	4	0,129344568	0,000593785837
2	0	0	1	1	3423,81	3,47163582	3,47233248	-0,17281503587340374	4	0,129095197	0,000600071275
2	0	0	1	1	3425,26	3,45713592	3,45787835	-0,17522539548717542	4	0,128842428	0,000605908106
2	0	0	0	1	3426,71	3,44263387	3,44319105	-0,17753990374816019	4	0,128586337	0,000611303782
2	0	0	1	1	3428,16	3,42813277	3,42883611	-0,17916353966575162	4	0,128326952	0,000614322431
2	0	0	1	1	3429,61	3,41363168	3,41427016	-0,18132579800051962	4	0,128064826	0,000619095284
2	0	0	0	1	3431,06	3,39913011	3,39971423	-0,18342818781578307	4	0,127799466	0,00062360341
2	0	0	0	1	3432,51	3,38462925	3,38531947	-0,18553915418063616	4	0,12753126	0,000628109323
2	0	0	1	1	3433,96	3,37012815	3,37087393	-0,18737160193268253	4	0,127260104	0,000631606032
2	0	0	1	1	3435,41	3,35562706	3,35632849	-0,18952408681313181	4	0,12698628	0,000636105076
2	0	0	0	1	3436,86	3,34112597	3,34176254	-0,19120031405085114	4	0,126709566	0,000638946076
2	0	0	0	1	3438,31	3,32662439	3,32727647	-0,19325843063622506	4	0,126430094	0,000643024221
2	0	0	1	1	3439,76	3,31212354	3,31260133	-0,19474780423721917	4	0,126147881	0,000645121851
2	0	0	0	1	3441,21	3,29762244	3,29817605	-0,1966732453244432	4	0,125862956	0,000648662972
2	0	0	0	1	3442,66	3,28312135	3,28387117	-0,19836484710685866	4	0,125575647	0,000651404611
2	0	0	1	1	3444,11	3,26862025	3,26904464	-0,20018954939829859	4	0,12528573	0,000654428557
2	0	0	1	1	3445,56	3,25411916	3,25450921	-0,20214516941147488	4	0,124993436	0,000657883298
2	0	0	0	1	3447,01	3,23961806	3,24038482	-0,20384839728164205	4	0,124698594	0,00066054723
2	0	0	0	1	3448,46	3,22511697	3,22563863	-0,20575129085530896	4	0,124401279	0,000663679326
2	0	0	1	1	3449,91	3,21061611	3,21136355	-0,20676527560378144	4	0,124101587	0,000663998479
2	0	0	0	1	3451,36	3,19611526	3,19673824	-0,20861059275974768	4	0,123799495	0,000666873471
2	0	0	0	1	3452,81	3,18161392	3,18214202	-0,21024055344363024	4	0,12349505	0,00066901528
2	0	0	1	1	3454,26	3,16711283	3,16776705	-0,21217367813612054	4	0,123188056	0,000672116759
2	0	0	1	1	3455,71	3,15261126	3,15311122	-0,21380626697403571	4	0,122878663	0,000674154959
2	0	0	0	1	3457,16	3,1381104	3,1388061	-0,21547160452852589	4	0,122566752	0,000676323602
2	0	0	0	1	3458,61	3,1236093	3,12432075	-0,21710928925313078	4	0,122252576	0,000678319077
2	0	0	1	1	3460,07	3,10910821	3,10968494	-0,21880748611874922	4	0,121935941	0,000680422352
2	0	0	1	1	3461,52	3,09460711	3,09517956	-0,2200487138858689	4	0,121616825	0,000681090285
2	0	0	0	1	3462,97	3,08010602	3,08075428	-0,22186890974020022	4	0,121295393	0,000683523598
2	0	0	0	1	3464,42	3,0656054	3,06622839	-0,22358122507903037	4	0,120971404	0,000685551087
2	0	0	1	1	3465,87	3,05110383	3,05165291	-0,22537169007894896	4	0,120645054	0,000687756168
2	0	0	0	1	3467,32	3,03660274	3,03729796	-0,22699242054174374	4	0,12031626	0,000689443608
2	0	0	0	1	3468,77	3,02210164	3,02279234	-0,2288392333624265	4	0,119985186	0,000691733498
2	0	0	1	1	3470,22	3,00760055	3,00804615	-0,23045780315684806	4	0,119651787	0,000693227688
2	0	0	1	1	3471,67	2,99309945	2,99379134	-0,23148475082901587	4	0,119316131	0,000693017035
2	0	0	0	1	3473,12	2,97859836	2,97908521	-0,23326649889349936	4	0,118978344	0,000694920775
2	0	0	0	1	3474,57	2,96409726	2,96479034	-0,23472436346734682	4	0,118638307	0,0006959085
2	0	0	1	1	3476,02	2,94959617	2,95012474	-0,23622623605964054	4	0,118296184	0,000696896866
2	0	0	0	1	3477,47	2,93509412	2,9355669	-0,2374941502198089	4	0,117951944	0,000697179988
2	0	0	0	1	3478,92	2,92059398	2,92110348	-0,23908116707267891	4	0,11760579	0,000698380813
2	0	0	1	1	3480,37	2,90609264	2,90682864	-0,23989016772247894	4	0,117257856	0,000697319629
2	0	0	1	1	3481,82	2,89159155	2,89236331	-0,24129067081958077	4	0,116908386	0,000697900308
2	0	0	0	1	3483,27	2,87709045	2,87763715	-0,24187773070298134	4	0,116557226	0,000696036324
2	0	0	0	1	3484,72	2,8625896	2,86302137	-0,24310075763302573	4	0,11620459	0,00069600268
2	0	0	1	1	3486,17	2,84808826	2,84856606	-0,24385875036629568	4	0,115850598	0,000694647781
2	0	0	1	1	3487,62	2,83358717	2,83419085	-0,24468921683728694	4	0,115495451	0,000693495967
2	0	0	0	1	3489,07	2,81908607	2,81977558	-0,24529827494795152	4	0,115139395	0,000691686058
2	0	0	0	1	3490,52	2,80458593	2,80529141	-0,24581743290911139	4	0,114782572	0,000689589535
2	0	0	1	1	3491,97	2,79008389	2,79052401	-0,24626784600938435	4	0,114425324	0,00068721635
2	0	0	0	1	3493,42	2,77558279	2,77621913	-0,24594790814444422	4	0,114067771	0,000682805316
2	0	0	0	1	3494,87	2,7610817	2,76161337	-0,24590122948090198	4	0,113710396	0,0006790841
2	0	0	1	1	3496,32	2,7465806	2,74730825	-0,24559985295248566	4	0,113353297	0,00067473849
2	0	0	1	1	3497,77	2,73207951	2,73266244	-0,24523190308051923	4	0,112996779	0,000670136011
2	0	0	0	1	3499,22	2,71757841	2,71823716	-0,24475390945250774	4	0,112641014	0,000665299187
2	0	0	0	1	3500,67	2,70307732	2,70357132	-0,24397299267972582	4	0,112286098	0,000659598387
2	0	0	1	1	3502,12	2,68857622	2,68917608	-0,24326517021594096	4	0,111932263	0,000654182862
2	0	0	1	1	3503,57	2,67407489	2,67455935	-0,24252467827913814	4	0,111579537	0,000648646674
2	0	0	0	1	3505,02	2,65957379	2,6599946	-0,24121342009554336	4	0,111227989	0,000641626422
2	0	0	1	1	3506,47	2,6450727	2,64557934	-0,24044384877197622	4	0,110877737	0,000636113284
2	0	0	1	1	3507,92	2,6305716	2,63082337	-0,23957272440505584	4	0,110528775	0,000630273542
2	0	0	0	1	3509,37	2,61607075	2,61657834	-0,2387205890845503	4	0,110181175	0,000624631124
2	0	0	0	1	3510,82	2,60156965	2,60207295	-0,23757465680440326	4	0,109834917	0,000618186605
2	0	0	1	1	3512,27	2,58706832	2,58759761	-0,23683852306567222	4	0,109490111	0,000612842792
2	0	0	1	1	3513,72	2,57256722	2,57328224	-0,23597507233110589	4	0,109146744	0,000607230468
2	0	0	0	1	3515,17	2,55806613	2,55878687	-0,23479131531591334	4	0,10880471	0,000600780942
2	0	0	0	1	3516,62	2,54356503	2,54400063	-0,23394355961742531	4	0,108464174	0,000595152553
2	0	0	1	1	3518,07	2,52906418	2,52959538	-0,23310039409746784	4	0,108124889	0,000589649659
2	0	0	0	1	3519,52	2,51456285	2,5151403	-0,23219334489355514	4	0,107786983	0,000583998859
2	0	0	0	1	3520,97	2,50006175	2,50084519	-0,23066955052005866	4	0,107450455	0,000576868828
2	0	0	1	1	3522,42	2,48556066	2,48618937	-0,23025850369595082	4	0,107115582	0,000572466233
2	0	0	1	1	3523,87	2,47105956	2,47168374	-0,22926810802891805	4	0,106781922	0,000566678238
2	0	0	0	1	3525,32	2,45655847	2,4570682	-0,22838840354234026	4	0,10644953	0,000561165856
2	0	0	0	1	3526,77	2,44205737	2,44268298	-0,22706883773207664	4	0,10611859	0,000554657192
2	0	0	1	1	3528,22	2,42755604	2,42797685	-0,22627472442885254	4	0,105788983	0,000549389806
2	0	0	1	1	3529,67	2,41305494	2,41386247	-0,22516046114859802	4	0,105460823	0,000543506409
2	0	0	0	1	3531,12	2,39855385	2,39937711	-0,22440894700897251	4	0,10513404	0,000538441702
2	0	0	1	1	3532,57	2,38405275	2,38472104	-0,22324999934062429	4	0,1048088	0,000532388978
2	0	0	1	1	3534,02	2,3695519	2,37028575	-0,22207267000340013	4	0,104485072	0,000526375661
2	0	0	0	1	3535,47	2,3550508	2,35551953	-0,22109000237348221	4	0,104162879	0,000520781847
2	0	0	0	1	3536,92	2,34054971	2,34104443	-0,21994159199918339	4	0,103842266	0,000514893036
2	0	0	1	1	3538,37	2,32604837	2,32664871	-0,21882269686708877	4	0,103523307	0,000509123551
2	0	0	1	1	3539,82	2,31154728	2,31214333	-0,21784755572055754	4	0,103206031	0,000503694755
2	0	0	0	1	3541,27	2,29704618	2,29759812	-0,21682525728829382	4	0,102890328	0,000498177309
2	0	0	0	1	3542,72	2,28254533	2,28300214	-0,21575759017529616	4	0,102576353	0,000492575055
2	0	0	1	1	3544,17	2,26804423	2,26864696	-0,21449554098459578	4	0,102263957	0,000486614648
2	0	0	0	1	3545,62	2,2535429	2,25426197	-0,21338213242900928	4	0,101953223	0,000481019233
2	0	0	0	1	3547,07	2,23904181	2,23971629	-0,21222680426823626	4	0,101644129	0,000475327834
2	0	0	1	1	3548,52	2,22454071	2,22514081	-0,21076888241805181	4	0,101336636	0,000468990445
2	0	0	1	1	3549,97	2,21003962	2,21087575	-0,20980329082036954	4	0,101030894	0,000463849021
2	0	0	0	1	3551,42	2,19553852	2,19615936	-0,20876182072485427	4	0,100726552	0,000458474213
2	0	0	0	1	3552,87	2,18103743	2,18163419	-0,20763663427593837	4	0,100423947	0,00045298718
2	0	0	1	1	3554,32	2,16653609	2,16717887	-0,20649780092450486	4	0,10012278	0,000447517668
2	0	0	1	1	3555,77	2,152035	2,15255284	-0,20572579558938787	4	0,0998231471	0,000442835648
2	0	0	0	1	3557,22	2,1375339	2,13820767	-0,20474869656997453	4	0,0995247886	0,000437795243
2	0	0	1	1	3558,67	2,12303305	2,1235218	-0,20394709263928278	4	0,0992276669	0,000433086097
2	0	0	1	1	3560,12	2,10853195	2,10901642	-0,20300061985229469	4	0,0989318565	0,000428131636
2	0	0	0	1	3561,57	2,09403062	2,09442067	-0,20240904988410557	4	0,0986369923	0,000423929712
2	0	0	0	1	3563,02	2,07952976	2,08004546	-0,20187366870231926	4	0,0983434245	0,000419906399
2	0	0	1	1	3564,47	2,06502867	2,06575036	-0,20127489743754355	4	0,0980505124	0,000415783696
2	0	0	1	1	3565,92	2,05052757	2,0511651	-0,20092893531546042	4	0,0977584124	0,000412138412
2	0	0	0	1	3567,37	2,03602648	2,03654909	-0,2003452209755776	4	0,0974669009	0,000408012886
2	0	0	0	1	3568,82	2,02152538	2,02231407	-0,20015357411466554	4	0,0971760899	0,000404773396
2	0	0	1	1	3570,27	2,00702429	2,00756812	-0,19922516479467411	4	0,0968858227	0,00039995808
2	0	0	0	1	3571,72	1,99252307	1,99319291	-0,19906770422433872	4	0,0965961516	0,00039678035
2	0	0	0	1	3573,17	1,97802198	1,97874773	-0,19869020806315053	4	0,0963070393	0,000393157796
2	0	0	1	1	3574,62	1,96352077	1,9640317	-0,19841793730544531	4	0,0960183814	0,000389699126
2	0	0	1	1	3576,07	1,94901967	1,94958627	-0,19796899310313165	4	0,0957303569	0,000385957625
2	0	0	0	1	3577,52	1,93451858	1,93495035	-0,19749862382498896	4	0,095442839	0,000382150029
2	0	0	0	1	3578,97	1,9200176	1,92056537	-0,19707955489866442	4	0,0951560363	0,000378504163
2	0	0	1	1	3580,42	1,90551651	1,90623021	-0,1965775484374409	4	0,0948699191	0,000374722062
2	0	0	1	1	3581,87	1,89101541	1,8916446	-0,19564820469046595	4	0,094584696	0,000370096881
2	0	0	0	1	3583,32	1,87651432	1,87698853	-0,19527253815128144	4	0,0943003595	0,000366524328
2	0	0	1	1	3584,77	1,8620131	1,86243308	-0,19478208874352275	4	0,0940168202	0,000362768595
2	0	0	1	1	3586,22	1,84751201	1,84789765	-0,1941438593591247	4	0,093734324	0,00035875797
2	0	0	0	1	3587,67	1,83301079	1,83356225	-0,19348951906431533	4	0,0934527591	0,000354775082
2	0	0	0	1	3589,12	1,8185097	1,81910706	-0,19275836460292339	4	0,0931722596	0,000350648101
2	0	0	1	1	3590,58	1,8040086	1,80472183	-0,19206282480930304	4	0,0928926617	0,000346619985
2	0	0	1	1	3592,03	1,78950763	1,78972518	-0,19104801401651184	4	0,092614077	0,000341923442
2	0	0	0	1	3593,48	1,77500653	1,77560055	-0,19070283893961427	4	0,0923364162	0,000338612066
2	0	0	0	1	3594,93	1,76050544	1,76113522	-0,19014766967544982	4	0,0920595452	0,000334875745
2	0	0	1	1	3596,38	1,74600422	1,74641919	-0,18966783920768605	4	0,0917834491	0,000331239542
2	0	0	0	1	3597,83	1,73150313	1,73210418	-0,18918085602733027	4	0,0915079564	0,000327680958
2	0	0	0	1	3599,28	1,71700203	1,71738803	-0,18896672230524349	4	0,0912330747	0,000324529188
2	0	0	1	1	3600,73	1,70250082	1,70312333	-0,18859912392993728	4	0,090958558	0,000321207568
2	0	0	1	1	3602,18	1,68799973	1,68868804	-0,18854848074261187	4	0,0906843692	0,000318399572
2	0	0	0	1	3603,63	1,67349875	1,67371118	-0,18821013031993062	4	0,0904103369	0,000315009413
2	0	0	0	1	3605,08	1,65899765	1,65949643	-0,1883191810532785	4	0,0901363865	0,000312515011
2	0	0	1	1	3606,53	1,64449656	1,64512134	-0,1884104050695905	4	0,0898624659	0,000309957977
2	0	0	1	1	3607,98	1,62999535	1,63045537	-0,18860203070410915	4	0,0895884112	0,000307507202
2	0	0	0	1	3609,43	1,61549425	1,6157192	-0,18894794439741725	4	0,0893141106	0,000305286812
2	0	0	1	1	3610,88	1,60099316	1,6016047	-0,18912729566606368	4	0,0890394673	0,000302907167
2	0	0	1	1	3612,33	1,58649206	1,58697915	-0,18956555426120774	4	0,0887644142	0,000300836575
2	0	0	0	1	3613,78	1,57199085	1,57255375	-0,18956170890790736	4	0,0884888023	0,000298095983
2	0	0	0	1	3615,23	1,55748987	1,55815864	-0,19030119618400944	4	0,0882125571	0,000296519458
2	0	0	1	1	3616,68	1,54298878	1,54343247	-0,19088368540785085	4	0,0879354402	0,000294616068
2	0	0	1	1	3618,13	1,52848768	1,52905738	-0,19174399975842483	4	0,0876573026	0,000293187564
2	0	0	0	1	3619,58	1,51398659	1,51460195	-0,19258297560736582	4	0,0873780176	0,000291686563
2	0	0	0	1	3621,03	1,49948549	1,49998617	-0,19347673293668778	4	0,0870974213	0,000290212425
2	0	0	1	1	3622,48	1,4849844	1,48546064	-0,19450254198939776	4	0,086815387	0,000288925861
2	0	0	0	1	3623,93	1,4704833	1,47078478	-0,1956175512168561	4	0,0865317956	0,000287711329
2	0	0	0	1	3625,38	1,45598221	1,45636952	-0,19655057322233917	4	0,0862466544	0,000286250259
2	0	0	1	1	3626,83	1,44148111	1,44194424	-0,19786413526162506	4	0,0859597027	0,000285309041
2	0	0	1	1	3628,28	1,4269799	1,42746878	-0,19920446894442013	4	0,085670948	0,000284358161
2	0	0	0	1	3629,73	1,41247892	1,41301346	-0,20063758765657802	4	0,0853803083	0,000283503614
2	0	0	0	1	3631,18	1,39797771	1,39853799	-0,20198982457319926	4	0,085087806	0,000282490451
2	0	0	1	1	3632,63	1,3834765	1,38392222	-0,20341787463985382	4	0,0847933739	0,000281514513
2	0	0	1	1	3634,08	1,36897552	1,36933649	-0,20473582056971872	4	0,0844971016	0,000280352222
2	0	0	0	1	3635,53	1,35447443	1,35496128	-0,20561053394340067	4	0,0841988698	0,000278594322
2	0	0	1	1	3636,98	1,33997333	1,34072649	-0,20704602361035818	4	0,0838987976	0,000277592102
2	0	0	1	1	3638,43	1,32547224	1,32589018	-0,20841918171693898	4	0,083596848	0,000276340957
2	0	0	0	1	3639,88	1,31097114	1,31140471	-0,20976119294452202	4	0,0832929462	0,000275081809
2	0	0	0	1	3641,33	1,29646993	1,29695952	-0,21096218625704522	4	0,0829872191	0,000273609417
2	0	0	1	1	3642,78	1,28196883	1,28235376	-0,21230841505651642	4	0,0826796293	0,000272254489
2	0	0	1	1	3644,23	1,26746762	1,2680887	-0,21329147593739206	4	0,0823704004	0,000270472519
2	0	0	0	1	3645,68	1,25296664	1,25362337	-0,21465857420116675	4	0,082059361	0,000269101001
2	0	0	0	1	3647,13	1,23846555	1,23910785	-0,21551326375144208	4	0,0817466378	0,000267044175
2	0	0	1	1	3648,58	1,22396445	1,22437179	-0,21685500807749779	4	0,0814321041	0,00026551116
2	0	0	1	1	3650,03	1,2094636	1,20996666	-0,2179942833820041	4	0,0811158717	0,000263765804
2	0	0	0	1	3651,48	1,19496238	1,19525063	-0,21931568315873661	4	0,0807978511	0,000262137211
2	0	0	1	1	3652,93	1,18046117	1,18105578	-0,22070573091817469	4	0,0804780647	0,00026066578
2	0	0	1	1	3654,38	1,16595995	1,16631973	-0,22199416936685658	4	0,0801565051	0,000258916174
2	0	0	0	1	3655,83	1,15145886	1,15173399	-0,22345972891586595	4	0,0798329934	0,000257366162
2	0	0	0	1	3657,28	1,13695765	1,13727868	-0,22448145497279981	4	0,0795075372	0,000255297986
2	0	0	1	1	3658,73	1,12245667	1,1227833	-0,22639922254408429	4	0,0791798159	0,000254197279
2	0	0	1	1	3660,18	1,10795557	1,10858846	-0,22826350045700906	4	0,0788496211	0,000253050268
2	0	0	0	1	3661,63	1,09345448	1,0938623	-0,23049297913288141	4	0,0785164163	0,000252127589
2	0	0	0	1	3663,08	1,07895315	1,07964706	-0,23305924891696515	4	0,0781797394	0,000251621736
2	0	0	1	1	3664,53	1,06445241	1,06505191	-0,23605056735687002	4	0,0778389275	0,000251406105
2	0	0	0	1	3665,98	1,0499512	1,05031586	-0,23964513489045226	4	0,0774933547	0,000251703081
2	0	0	0	1	3667,43	1,0354501	1,03591073	-0,24350663546162378	4	0,0771424696	0,000252251135
2	0	0	1	1	3668,88	1,02094901	1,02128482	-0,24727628263644829	4	0,0767857507	0,000252539525
2	0	0	1	1	3670,33	1,00644779	1,00690973	-0,25196321929494746	4	0,0764229074	0,000253704231
2	0	0	0	1	3671,78	0,991946816	0,992544413	-0,25665191747248262	4	0,0760532841	0,000254738436
2	0	0	0	1	3673,23	0,977445662	0,97787863	-0,26175526638204883	4	0,07567662	0,000255964871
2	0	0	1	1	3674,68	0,962944567	0,963373184	-0,26703396012696157	4	0,0752923414	0,000257253356
2	0	0	1	1	3676,13	0,948444247	0,948847651	-0,27272144332552806	4	0,0749002621	0,000258771091
2	0	0	0	1	3677,58	0,933942378	0,934362113	-0,27854423737153232	4	0,0744999573	0,000260261178
2	0	0	1	1	3679,03	0,919441283	0,919876695	-0,28420006212157568	4	0,0740911141	0,000261429028
2	0	0	1	1	3680,48	0,904940128	0,905351222	-0,29033572149152499	4	0,0736738369	0,000262855814
2	0	0	0	1	3681,93	0,890439093	0,890895784	-0,29637082363479014	4	0,0732477903	0,000264035509
2	0	0	0	1	3683,38	0,875937939	0,876510561	-0,30232065791885075	4	0,0728130937	0,000264987262
2	0	0	1	1	3684,83	0,861436844	0,862005115	-0,30815667899635904	4	0,0723697618	0,00026563264
2	0	0	1	1	3686,28	0,846935689	0,847289145	-0,31392419842692698	4	0,0719181225	0,000265984563
2	0	0	0	1	3687,73	0,832434595	0,832833707	-0,31922654419516582	4	0,0714582875	0,000265862618
2	0	0	0	1	3689,18	0,817933202	0,818217337	-0,32456053404356755	4	0,0709907711	0,000265561044
2	0	0	1	1	3690,63	0,803432405	0,803922951	-0,32927247664580819	4	0,0705159307	0,000264709699
2	0	0	0	1	3692,08	0,788931251	0,789307237	-0,33408693278518784	4	0,0700338557	0,000263697235
2	0	0	0	1	3693,53	0,774430215	0,775042295	-0,33866628352552832	4	0,0695452094	0,000262480695
2	0	0	1	1	3694,98	0,759929121	0,760406554	-0,34290409018285574	4	0,0690501407	0,000260746514
2	0	0	1	1	3696,43	0,745428026	0,745971203	-0,34672850028922266	4	0,0685494021	0,000258649467
2	0	0	0	1	3697,88	0,730926812	0,73161608	-0,35051388293504806	4	0,0680429563	0,000256441592
2	0	0	0	1	3699,33	0,716425776	0,716779709	-0,35422061895951629	4	0,06753131	0,00025389815
2	0	0	1	1	3700,78	0,701924682	0,70232439	-0,3572982215167335	4	0,0670146644	0,000250939251
2	0	0	1	1	3702,23	0,687422812	0,688008428	-0,36074072748274323	4	0,0664932877	0,000248192664
2	0	0	0	1	3703,68	0,672922432	0,67334342	-0,36385918059386182	4	0,0659672543	0,000245002186
2	0	0	1	1	3705,13	0,658421338	0,658807933	-0,3671043820989632	4	0,0654365346	0,000241851274
2	0	0	1	1	3706,58	0,643920243	0,644182146	-0,37010336651777242	4	0,064901568	0,000238413981
2	0	0	0	1	3708,03	0,629419148	0,629566312	-0,37330645152057242	4	0,0643618852	0,000235021173
2	0	0	0	1	3709,48	0,614917994	0,615030766	-0,37649036245420666	4	0,0638176501	0,00023155316
2	0	0	1	1	3710,93	0,600416899	0,600866079	-0,37989574717357786	4	0,0632685199	0,000228266465
2	0	0	1	1	3712,38	0,585915804	0,586511016	-0,38320348404037485	4	0,0627145097	0,000224753065
2	0	0	0	1	3713,83	0,571414709	0,571835041	-0,38684559815252941	4	0,0621552058	0,000221211871
2	0	0	0	1	3715,28	0,556913614	0,557319582	-0,39079996840218566	4	0,0615904704	0,00021780048
2	0	0	1	1	3716,73	0,54241246	0,542914331	-0,39500973156342976	4	0,0610199794	0,00021445645
2	0	0	0	1	3718,18	0,527911365	0,528168201	-0,39922731198991456	4	0,0604432188	0,000210859173
2	0	0	0	1	3719,63	0,51341027	0,513833165	-0,40417528261120083	4	0,0598600134	0,000207678662
2	0	0	1	1	3721,09	0,498909175	0,499277502	-0,40901198253656589	4	0,0592697188	0,000204210475
2	0	0	1	1	3722,54	0,484408051	0,484621644	-0,41427956381812691	4	0,0586721636	0,000200768845
2	0	0	0	1	3723,99	0,469906926	0,469995886	-0,41968466155231085	4	0,0580667667	0,000197250061
2	0	0	0	1	3725,44	0,455405831	0,455931455	-0,42564005373666624	4	0,0574531518	0,000194062683
2	0	0	1	1	3726,89	0,440904707	0,441315711	-0,43188868959744832	4	0,0568310209	0,000190599269
2	0	0	0	1	3728,34	0,426402628	0,42688942	-0,43865299635574304	4	0,0561992452	0,00018725633
2	0	0	0	1	3729,79	0,411902487	0,4123348	-0,4459013536882921	4	0,055557441	0,00018386064
2	0	0	1	1	3731,24	0,397401422	0,397668898	-0,45400757932414669	4	0,0549042709	0,000180544695
2	0	0	1	1	3732,69	0,382900327	0,38324362	-0,46315995696932256	4	0,054238826	0,000177503098
2	0	0	0	1	3734,14	0,368399233	0,368627876	-0,47260089855020128	4	0,0535596311	0,00017421387
2	0	0	0	1	3735,59	0,353898108	0,354102314	-0,48384610749781133	4	0,0528653562	0,000171331019
2	0	0	1	1	3737,04	0,339397013	0,3398875	-0,49625045418118317	4	0,0521540307	0,000168669329
2	0	0	1	1	3738,49	0,324895889	0,325402081	-0,5105514315267392	4	0,0514234044	0,000166134501
2	0	0	0	1	3739,94	0,310394794	0,310645998	-0,52645759237930355	4	0,0506710336	0,000163541947
2	0	0	1	1	3741,39	0,295893937	0,2962116	-0,54459055395939872	4	0,0498938188	0,000161314034
2	0	0	1	1	3742,84	0,281392545	0,281925708	-0,56539095751941293	4	0,0490885191	0,000159398245
2	0	0	0	1	3743,93	0,270391822	0,271039128	-0,58398801606634394	4	0,048459582	0,000158283598