File: Experimentelles/Rohdaten/Batterietests/AlteZelle/150511_LLTO_LTO_Tests/ZView-Export/LLTO_LP30_LTO_05_GCPL_C01_loop4.txt
EC-Lab ASCII FILE
Nb header lines : 3
mode	ox/red	error	control changes	Ns changes	counter inc.	Ns	time/s	control/V/mA	Ewe/V	dq/mA.h	<I>/mA	P/W	(Q-Qo)/mA.h	x	Capacity/mA.h
1	0	0	1	1	0	1	164047,97	-0,0100000007	2,68845963	0	0	0	0	0	0
1	0	0	1	0	0	1	164187,97	-0,0100000007	2,40289545	-2,7758654948427443E-005	-0,0099931142178893184	2,40124082E-005	-0,00038848600527570803	1,4494935181825949E-005	0,00038848600527570803
1	0	0	1	0	0	1	164327,97	-0,0100000007	2,25126266	-2,7758708747155549E-005	-0,009993133585428407	2,24971682E-005	-0,00077711048948453453	2,8995037198833446E-005	0,00077711048948453453
1	0	0	1	0	0	1	164467,97	-0,0100000007	2,12911272	-2,7758635169567747E-005	-0,0099931070975009421	2,12764517E-005	-0,0011657274178548936	4,3494857297348794E-005	0,0011657274178548936
1	0	0	1	0	0	1	164607,97	-0,0100000007	2,02221942	-2,7758820708168461E-005	-0,0099931738913867482	2,02083902E-005	-0,0015543481427265962	5,7994819048433715E-005	0,0015543481427265962
1	0	0	1	0	0	1	164747,97	-0,0100000007	1,92439604	-2,7757916581972189E-005	-0,009992848406007017	1,92301977E-005	-0,0019429629440424973	7,2494559783687398E-005	0,0019429629440424973
1	0	0	1	0	0	1	164887,97	-0,0100000007	1,83337069	-2,7757577759524189E-005	-0,0099927264299448192	1,8320372E-005	-0,0023315714023438598	8,6994063852540352E-005	0,0023315714023438598
1	0	0	1	0	0	1	165027,97	-0,0100000007	1,74826467	-2,7757861803285776E-005	-0,0099928286856829939	1,7470109E-005	-0,0027201836325550454	0,00010149370865642019	0,0027201836325550454
1	0	0	1	0	0	1	165167,97	-0,0100000007	1,66839063	-2,7758105270564557E-005	-0,009992916333889641	1,66720874E-005	-0,0031087998389651277	0,00011599350181762693	0,0031087998389651277
1	0	0	1	0	0	1	165307,97	-0,0100000007	1,59363413	-2,775782826056497E-005	-0,0099928166103053926	1,59248939E-005	-0,003497409732696073	0,00013049305944428757	0,003497409732696073
1	0	0	1	0	0	1	165447,97	-0,0100000007	1,52325022	-2,7757222490126474E-005	-0,009992598532981655	1,52212278E-005	-0,003886021975804473	0,00014499270472937981	0,003886021975804473
1	0	0	1	0	0	1	165587,97	-0,0100000007	1,45655179	-2,7758699835640275E-005	-0,0099931303772834099	1,45555123E-005	-0,0042746351010187226	0,00015949238292702733	0,0042746351010187226
1	0	0	1	0	0	1	165727,97	-0,0100000007	1,39287019	-2,7758013065593936E-005	-0,0099928831401054131	1,39187887E-005	-0,0046632470184940134	0,00017399201606231046	0,0046632470184940134
1	0	0	1	0	0	1	165867,97	-0,0100000007	1,33230114	-2,7757397995640838E-005	-0,0099926617149569395	1,33132344E-005	-0,0050518534982750202	0,0001884914463099088	0,0050518534982750202
1	0	0	1	0	0	1	166007,97	-0,0100000007	1,27442455	-2,775777984317392E-005	-0,0099927991800473421	1,27350686E-005	-0,0054404604836714688	0,00020299089542269907	0,0054404604836714688
1	0	0	1	0	0	1	166147,97	-0,0100000007	1,21876287	-2,7758786988548106E-005	-0,009993161752325321	1,21792946E-005	-0,005829076054959913	0,00021749066488666355	0,005829076054959913
1	0	0	1	0	0	1	166287,97	-0,0100000007	1,1650871	-2,775805350413753E-005	-0,0099928976979788262	1,16425963E-005	-0,0062176898667617229	0,00023199036870181606	0,0062176898667617229
1	0	0	1	0	0	1	166427,97	-0,0100000007	1,11312985	-2,775787700045233E-005	-0,0099928341566620966	1,11233221E-005	-0,0066063006790564851	0,00024648996060132778	0,0066063006790564851
1	0	0	1	0	0	1	166567,97	-0,0100000007	1,06271935	-2,7757691173659018E-005	-0,0099927672590269709	1,06195075E-005	-0,0069949137756147674	0,00026098963772978259	0,0069949137756147674
1	0	0	1	0	0	1	166707,97	-0,0100000007	1,01412272	-2,7757380478601488E-005	-0,0099926554088237606	1,01337791E-005	-0,0073835241331763814	0,00027548921266258915	0,0073835241331763814
1	0	0	1	0	0	1	166847,97	-0,0100000007	0,966710091	-2,7759654068025866E-005	-0,0099934739008884736	9,66079187E-006	-0,0077721504279436083	0,00028998938223396486	0,0077721504279436083
1	0	0	1	0	0	1	166987,97	-0,0100000007	0,920710444	-2,7759202507634957E-005	-0,0099933113391731827	9,2009459E-006	-0,0081607833871791706	0,00030448980046561466	0,0081607833871791706
1	1	0	0	0	0	2	167112,61	0,0100000007	1,05238259	2,7793336533527408E-005	0,010005599586571818	1,05297186E-005	-0,0081734692723923802	0,0003049631278992736	0,00016676049251580198
1	1	0	0	0	0	2	167252,61	0,0100000007	1,23796594	2,7792609369071821E-005	0,010005337807408765	1,23862674E-005	-0,0077843654649752742	0,00029044514168890829	0,00055586429993290861
1	1	0	0	0	0	2	167392,61	0,0100000007	1,37951648	2,7793495823732682E-005	0,010005656931036744	1,38029691E-005	-0,0073952642203897882	0,00027592725110123645	0,00094496554451839373
1	1	0	0	0	0	2	167532,61	0,0100000007	1,50136113	2,7793463501872288E-005	0,010005645295168824	1,50220867E-005	-0,0070061563868166605	0,00026140911466957677	0,0013340733780915221
1	1	0	0	0	0	2	167672,61	0,0100000007	1,6105839	2,7793411591814624E-005	0,010005626607550987	1,61149019E-005	-0,006617042971698199	0,00024689076998295619	0,001723186793209984
1	1	0	0	0	0	2	167812,61	0,0100000007	1,70970559	2,7794219352253194E-005	0,010005917401263374	1,71071733E-005	-0,0062279279524405005	0,0002323723654437439	0,0021123018124676816
1	1	0	0	0	0	2	167952,61	0,0100000007	1,79981446	2,7794323997934246E-005	0,010005955073702659	1,80088628E-005	-0,005838802800206304	0,00021785358282955453	0,0025014269647018762
1	1	0	0	0	0	2	168092,61	0,0100000007	1,88184619	2,7794199836026461E-005	0,010005910375422851	1,88295835E-005	-0,0054496824655347008	0,00020333497996510278	0,0028905472993734797
1	1	0	0	0	0	2	168232,61	0,0100000007	1,95610631	2,779384085168648E-005	0,010005781141080678	1,95723715E-005	-0,0050605666259694253	0,00018881654481911184	0,0032796631389387565
1	1	0	0	0	0	2	168372,61	0,0100000007	2,02295756	2,7793967391312534E-005	0,01000582669533893	2,0241363E-005	-0,0046714563908244205	0,00017429831878157645	0,0036687733740837613
1	1	0	0	0	0	2	168512,61	0,0100000007	2,08226633	2,7794452242087571E-005	0,010006001241590634	2,08351594E-005	-0,0042823388118868512	0,00015977981873726666	0,0040578909530213312
1	1	0	0	0	0	2	168652,61	0,0100000007	2,13460565	2,7794297482145744E-005	0,010005945528020291	2,13587482E-005	-0,0038932169965281498	0,00014526116062638845	0,0044470127683800326
1	1	0	0	0	0	2	168792,61	0,0100000007	2,18037605	2,7794020359870045E-005	0,01000584576401665	2,1816506E-005	-0,0035041023979423917	0,00013074277178301184	0,0048361273669657914
1	1	0	0	0	0	2	168932,61	0,0100000007	2,22023344	2,779555499698553E-005	0,010006398233291784	2,22165399E-005	-0,0031149759435865754	0,00011622394058491413	0,0052252538213216077
1	1	0	0	0	0	2	169072,61	0,0100000007	2,25527263	2,7795391396515901E-005	0,010006339337131931	2,25670228E-005	-0,0027258363989496339	0,00010170462097082754	0,0056143933659585498
1	1	0	0	0	0	2	169212,61	0,0100000007	2,28567171	2,7795772501112269E-005	0,01000647653476516	2,28715198E-005	-0,002336697852330225	8,7185338594116954E-005	0,0060035319125779584
1	1	0	0	0	0	2	169352,61	0,0100000007	2,31246185	2,7796503864953088E-005	0,010006739825706659	2,31402046E-005	-0,0019475566109476246	7,2665955672168538E-005	0,0063926731539605581
1	1	0	0	0	0	2	169492,61	0,0100000007	2,33581495	2,7796025447650918E-005	0,010006567595504822	2,337349E-005	-0,0015584109451411654	5,8146407669017242E-005	0,0067818188197670182
1	1	0	0	0	0	2	169632,61	0,0100000007	2,35649467	2,7796413494274016E-005	0,010006707292267283	2,35807529E-005	-0,001169259084571924	4,3626628530937594E-005	0,0071709706803362586
1	1	0	0	0	0	2	169772,61	0,0100000007	2,37513137	2,7796539028071696E-005	0,010006752484893352	2,37673521E-005	-0,00078010851672674125	2,9106897626130675E-005	0,0075601212481814413
1	1	0	0	0	0	2	169912,61	0,0100000007	2,39161038	2,7796487744121501E-005	0,010006734022208195	2,39322089E-005	-0,00039095973414808211	1,4587233332018067E-005	0,0079492700307601024
1	1	0	0	0	0	2	170052,61	0,0100000007	2,40646625	2,7796095734772582E-005	0,010006592898864664	2,40805275E-005	-1,8152005481482605E-006	6,7727573014505178E-008	0,0083384145643600371
1	1	0	0	0	0	2	170192,61	0,0100000007	2,41943169	2,7796191409747632E-005	0,010006627341850294	2,42103506E-005	0,00038732616002051053	-1,4451659795925997E-005	0,0087275559249286976
1	1	0	0	0	0	2	170332,61	0,0100000007	2,43123221	2,7795926203951238E-005	0,010006531867778531	2,43282029E-005	0,00077647034360039475	-2,8971152495210893E-005	0,0091167001085085862
1	1	0	0	0	0	2	170472,61	0,0100000007	2,44173431	2,7795737336182762E-005	0,010006463875392517	2,44331259E-005	0,0011656113507236509	-4,3490526676628211E-005	0,0095058411156318438
1	1	0	0	0	0	2	170612,61	0,0100000007	2,45099545	2,779477185300655E-005	0,010006116301503461	2,45249448E-005	0,0015547454712217101	-5,8009643908800256E-005	0,0098949752361299021
1	1	0	0	0	0	2	170752,61	0,0100000007	2,45922542	2,7795072901476589E-005	0,01000622467893572	2,46075615E-005	0,0019438755499335674	-7,2528610336494899E-005	0,010284105314841763
1	1	0	0	0	0	2	170892,61	0,0100000007	2,46659589	2,7794782731423363E-005	0,010006120217732904	2,46810541E-005	0,0023330042334369222	-8,7047524707084403E-005	0,010673233998345117
1	1	0	0	0	0	2	171032,61	0,0100000007	2,47308826	2,7795133791708701E-005	0,01000624659941585	2,47463304E-005	0,0027221336493093258	-0,00010156646640334781	0,011062363414217518
1	1	0	0	0	0	2	171172,61	0,0100000007	2,47874045	2,7794699996813306E-005	0,010006090433277942	2,48025008E-005	0,0031112596030763085	-0,0001160852789238031	0,011451489367984499
1	1	0	0	0	0	2	171312,61	0,0100000007	2,48391509	2,7795345632048947E-005	0,010006322861926406	2,48548567E-005	0,0035003912808698541	-0,00013060430501538552	0,011840621045778048
1	1	0	0	0	0	2	171452,61	0,0100000007	2,48845959	2,7794756151218381E-005	0,010006110648860606	2,48998022E-005	0,003889518223542	-0,00014512315443322205	0,012229747988450197
1	1	0	0	0	0	2	171592,61	0,0100000007	2,49264145	2,7794795737239635E-005	0,010006124899826027	2,49416826E-005	0,0042786454706814496	-0,00015964201521114304	0,012618875235589642
1	1	0	0	0	0	2	171732,61	0,0100000007	2,49625039	2,7794573087814365E-005	0,010006044746045472	2,49775931E-005	0,0046677737668199091	-0,00017416091512862749	0,013008003531728107
1	1	0	0	0	0	2	171872,61	0,0100000007	2,49980211	2,779526851124441E-005	0,010006295098441117	2,50137582E-005	0,0050568973843304256	-0,0001886796404802129	0,013397127149238627
1	1	0	0	0	0	2	172012,61	0,0100000007	2,50279999	2,7794375943330426E-005	0,010005973774042358	2,50429512E-005	0,0054460218370116045	-0,00020319839699313866	0,013786251601919803
1	1	0	0	0	0	2	172152,61	0,0100000007	2,50545406	2,779452052878009E-005	0,010006025824796093	2,50696376E-005	0,0058351443757661146	-0,00021771708209488707	0,014175374140674312
1	1	0	0	0	0	2	172292,61	0,0100000007	2,5079174	2,7794707207009197E-005	0,010006093028948056	2,5094454E-005	0,006224271645563712	-0,00023223594371821398	0,014564501410471907
1	1	0	0	0	0	2	172432,61	0,0100000007	2,51036143	2,7794562389091069E-005	0,01000604089450569	2,51187794E-005	0,006613395489911296	-0,00024675467753339546	0,014953625254819488
1	1	0	0	0	0	2	172572,61	0,0100000007	2,51244283	2,7794286420620563E-005	0,01000594154587185	2,51393558E-005	0,0070025159963447565	-0,00026127328680651296	0,015342745761252947
1	1	0	0	0	0	2	172712,61	0,0100000007	2,51442862	2,779443698360895E-005	0,01000599574853919	2,51593628E-005	0,0073916365741383258	-0,00027579189874217216	0,015731866339046518
1	1	0	0	0	0	2	172852,61	0,0100000007	2,51628089	2,7794556512704326E-005	0,010006038779006792	2,51780039E-005	0,007780758127285847	-0,00029031054706959866	0,016120987892194042
1	1	0	0	0	0	2	172992,61	0,0100000007	2,51803756	2,77945302342996E-005	0,010006029318782571	2,51955571E-005	0,0081698798057354202	-0,00030482920007221318	0,016510109570643622
1	1	0	0	0	0	2	173132,61	0,0100000007	2,51969886	2,7794379372667107E-005	0,01000597500860337	2,52120444E-005	0,0085590012472518733	-0,0003193478442345344	0,016899231012160077
1	1	0	0	0	0	2	173272,61	0,0100000007	2,52134109	2,7793970286535722E-005	0,010005827737619114	2,52281043E-005	0,008948123487961888	-0,00033386651821584205	0,017288353252870096
1	1	0	0	0	0	2	173412,61	0,0100000007	2,52281141	2,7794092924541069E-005	0,010005871887294131	2,52429272E-005	0,0093372414903563571	-0,00034838503405989811	0,017677471255264563
1	1	0	0	0	0	2	173552,61	0,0100000007	2,52416706	2,7793527310403686E-005	0,010005668266236531	2,52559785E-005	0,009726353563225408	-0,00036290332866538848	0,018066583328133616
1	1	0	0	0	0	2	173692,61	0,0100000007	2,52552295	2,7793719137604867E-005	0,010005737324018152	2,52697191E-005	0,01011546735544792	-0,00037742168742226816	0,018455697120356125
1	1	0	0	0	0	2	173832,61	0,0100000007	2,5269742	2,7794380019056714E-005	0,010005975241303592	2,52848422E-005	0,010504586601470022	-0,00039194024966774336	0,01884481636637823
1	1	0	0	0	0	2	173972,61	0,0100000007	2,52817702	2,779410978561888E-005	0,010005877957281194	2,52966311E-005	0,010893705651958003	-0,00040645880461757754	0,019233935416866208
1	1	0	0	0	0	2	174112,61	0,0100000007	2,52928448	2,7793709393849389E-005	0,01000573381626673	2,53073467E-005	0,011282821125709704	-0,0004209772261145721	0,01962305089061792
1	1	0	0	0	0	2	174252,61	0,0100000007	2,53054476	2,7794429067263587E-005	0,010005992898655306	2,53206126E-005	0,011671937508394778	-0,00043549568152509299	0,020012167273302995
1	1	0	0	0	0	2	174392,61	0,0100000007	2,53176689	2,7794503424782307E-005	0,010006019667357854	2,5332909E-005	0,01206105678252937	-0,00045001424481948294	0,020401286547437587
1	1	0	0	0	0	2	174532,61	0,0100000007	2,53287435	2,7793449839370115E-005	0,01000564037666881	2,53430298E-005	0,012450173682565066	-0,00046453271953305101	0,020790403447473277
1	1	0	0	0	0	2	174672,61	0,0100000007	2,53375268	2,7794536855382224E-005	0,010006031702371942	2,53528087E-005	0,012839287626513784	-0,00047905108395103955	0,021179517391422
1	1	0	0	0	0	2	174812,61	0,0100000007	2,53486037	2,7794579977945738E-005	0,010006047226492378	2,53639319E-005	0,01322840762734557	-0,00049356967435947878	0,021568637392253786
1	1	0	0	0	0	2	174952,61	0,0100000007	2,535815	2,7794708016690694E-005	0,01000609332043335	2,53736016E-005	0,013617527301819264	-0,00050808825259105894	0,021957757066727475
1	1	0	0	0	0	2	175092,61	0,0100000007	2,53669333	2,7793991496682998E-005	0,010005835373270938	2,53817361E-005	0,014006649162241354	-0,00052260691238331277	0,022346878927149558
1	1	0	0	0	0	2	175232,61	0,0100000007	2,53787732	2,7794595033085594E-005	0,010006052646341878	2,53941344E-005	0,014395770428556685	-0,00053712555000864448	0,02273600019346489
1	1	0	0	0	0	2	175372,61	0,0100000007	2,53890848	2,7794833139619894E-005	0,010006138364680814	2,54046699E-005	0,014784896100387642	-0,00055164435200968768	0,02312512586529585
1	1	0	0	0	0	2	175512,61	0,0100000007	2,53974867	2,7794812007082832E-005	0,010006130756968662	2,54130573E-005	0,015174021763686138	-0,00056616315369237312	0,023514251528594349
1	1	0	0	0	0	2	175652,61	0,0100000007	2,54076052	2,7794708830563142E-005	0,010006093613427386	2,54230872E-005	0,01556314702609864	-0,00058068194041746317	0,023903376791006851
1	1	0	0	0	0	2	175792,61	0,0100000007	2,54146719	2,7794561879088483E-005	0,010006040710904786	2,54300248E-005	0,01595227403748144	-0,00059520079239898675	0,024292503802389654
1	1	0	0	0	0	2	175932,61	0,0100000007	2,54221177	2,7794370958892006E-005	0,01000597197964481	2,5437299E-005	0,016341401499269162	-0,00060971966118572339	0,024681631264177376
1	1	0	0	0	0	2	176072,61	0,0100000007	2,54301381	2,7794575529793898E-005	0,010006045625157965	2,54455117E-005	0,016730521771877382	-0,00062423826173450688	0,025070751536785597
1	1	0	0	0	0	2	176212,61	0,0100000007	2,54356766	2,7794568421215648E-005	0,010006043066070195	2,54510469E-005	0,017119645178175011	-0,00063875697920545549	0,025459874943083226
1	1	0	0	0	0	2	176352,61	0,0100000007	2,54427409	2,7794439712021917E-005	0,010005996730767702	2,54579991E-005	0,017508766555723216	-0,00065327562098103526	0,02584899632063143
1	1	0	0	0	0	2	176492,61	0,0100000007	2,54507613	2,779447864109857E-005	0,010006010745233106	2,5466059E-005	0,017897887390905523	-0,0006677942425202144	0,026238117155813738
1	1	0	0	0	0	2	176632,61	0,0100000007	2,54585886	2,7794576048281869E-005	0,010006045811813608	2,54739807E-005	0,018287004407218349	-0,00068231272157223846	0,026627234172126563
1	1	0	0	0	0	2	176772,61	0,0100000007	2,54664183	2,7794044369262541E-005	0,010005854407396595	2,54813276E-005	0,01867611773480687	-0,0006968310629929993	0,027016347499715085
1	1	0	0	0	0	2	176912,61	0,0100000007	2,54719567	2,7793326272784422E-005	0,010005595892704922	2,54862098E-005	0,019065229975347296	-0,00071134936385453414	0,02740545974025551
1	1	0	0	0	0	2	177052,61	0,0100000007	2,54792118	2,779339721136623E-005	0,010005621430590376	2,54935348E-005	0,019454344424251459	-0,00072586774711308928	0,027794574189159674
1	1	0	0	0	0	2	177192,61	0,0100000007	2,54855132	2,779380445653159E-005	0,010005768038826966	2,55002142E-005	0,019843454244979338	-0,00074038595768816448	0,028183684009887552
1	1	0	0	0	0	2	177332,61	0,0100000007	2,54904771	2,7793034607699763E-005	0,01000549089329087	2,55044743E-005	0,020232561200287027	-0,00075490406135055987	0,028572790965195242
1	1	0	0	0	0	2	177472,61	0,0100000007	2,54969692	2,7793361376660566E-005	0,010005608530098357	2,551127E-005	0,020621667175821427	-0,00076942212845629645	0,028961896940729638
1	1	0	0	0	0	2	177612,61	0,0100000007	2,55019355	2,7793572648997523E-005	0,01000568458812776	2,55164323E-005	0,021010778457506698	-0,00078394039354165619	0,029351008222414912
1	1	0	0	0	0	2	177752,61	0,0100000007	2,55074716	2,7793587557040154E-005	0,010005689955022269	2,55219857E-005	0,02139988641029009	-0,00079845853442121126	0,029740116175198304
1	1	0	0	0	0	2	177892,61	0,0100000007	2,55133915	2,7793532817003629E-005	0,010005670248612202	2,55278574E-005	0,021788991620647123	-0,00081297657297715162	0,030129221385555341
1	1	0	0	0	0	2	178032,61	0,0100000007	2,5520649	2,7792868991330682E-005	0,010005431271407331	2,55345094E-005	0,022178090969371734	-0,00082749439282770509	0,030518320734279949
1	1	0	0	0	0	2	178172,61	0,0100000007	2,5524466	2,7792936879572352E-005	0,01000545571117051	2,55383911E-005	0,022567194758511066	-0,00084201237835610202	0,030907424523419277
1	1	0	0	0	0	2	178312,61	0,0100000007	2,5529623	2,7792589149075667E-005	0,010005330528211288	2,55432315E-005	0,022956289977970608	-0,00085653004413822413	0,031296519742878822
1	1	0	0	0	0	2	178452,61	0,0100000007	2,55347776	2,7793018797412515E-005	0,010005485201588354	2,55487848E-005	0,023345390313365987	-0,00087104790080279053	0,031685620078274202
1	1	0	0	0	0	2	178592,61	0,0100000007	2,55391693	2,7794188952125197E-005	0,010005906457219008	2,55542545E-005	0,023734500791733542	-0,00088556613591528627	0,032074730556641754
1	1	0	0	0	0	2	178732,61	0,0100000007	2,55454707	2,7793611453742614E-005	0,010005698557833808	2,5560028E-005	0,024123613325231946	-0,00090008444770747712	0,032463843090140147
1	1	0	0	0	0	2	178872,61	0,0100000007	2,55479527	2,7793977715540675E-005	0,01000583041206048	2,55628474E-005	0,024512727580086	-0,00091460282372576179	0,032852957344994189
1	1	0	0	0	0	2	179012,61	0,0100000007	2,55540633	2,7793016259041098E-005	0,010005484287774786	2,5568077E-005	0,024901836467804163	-0,00092912099948899008	0,033242066232712352
1	1	0	0	0	0	2	179152,61	0,0100000007	2,55586457	2,7793642623505248E-005	0,010005709778946598	2,55732393E-005	0,0252909455248808	-0,00094363918157121075	0,033631175289788986
1	1	0	0	0	0	2	179292,61	0,0100000007	2,55630398	2,7794063056715661E-005	0,010005861134878666	2,55780233E-005	0,025680058640288685	-0,00095815751507522675	0,03402028840519687
1	1	0	0	0	0	2	179432,61	0,0100000007	2,55676222	2,7793419760703626E-005	0,01000562954835057	2,5582016E-005	0,026069168185913808	-0,00097267571538584832	0,03440939795082199
1	1	0	0	0	0	2	179572,61	0,0100000007	2,55622745	2,779379526986223E-005	0,010005764731626515	2,55770101E-005	0,026458275186513994	-0,00098719382073816768	0,034798504951422176
1	1	0	0	0	0	2	179712,61	0,0100000007	2,55659032	2,7793810476290272E-005	0,010005770205939752	2,55806553E-005	0,026847386025818509	-0,0010017120693177066	0,035187615790726682
1	1	0	0	0	0	2	179852,61	0,0100000007	2,55685759	2,7794175313113053E-005	0,010005901547175405	2,55836658E-005	0,027236507057065693	-0,0010162306981723298	0,035576736821973862
1	1	0	0	0	0	2	179992,61	0,0100000007	2,55720139	2,7793618103023619E-005	0,010005700952040522	2,55865925E-005	0,027625620637876214	-0,0010307490490411438	0,035965850402784403
1	1	0	0	0	0	2	180132,61	0,0100000007	2,55762148	2,7793509635763862E-005	0,010005661903367192	2,55906962E-005	0,028014731692360579	-0,0010452673056493326	0,036354961457268774
1	1	0	0	0	0	2	180272,62	0,0100000007	2,55792689	2,7793903885047056E-005	0,010005803833086934	2,5594114E-005	0,028403844818909469	-0,0010597856395690344	0,036744074583817658
1	1	0	0	0	0	2	180412,62	0,0100000007	2,55830884	2,7794030898043677E-005	0,010005849557758563	2,5598054E-005	0,028792958359229091	-0,0010743039889270784	0,037133188124137286
1	1	0	0	0	0	2	180552,62	0,0100000007	2,55874801	2,7793779292764762E-005	0,010005758979872328	2,56022158E-005	0,02918206975789831	-0,0010888222583772666	0,037522299522806509
1	1	0	0	0	0	2	180692,62	0,0100000007	2,55912995	2,7793986935271987E-005	0,01000583373116323	2,56062285E-005	0,029571189524897914	-0,0011033408400611128	0,037911419289806112
1	1	0	0	0	0	2	180832,62	0,0100000007	2,55932093	2,7793338548392054E-005	0,010005600311922978	2,56075418E-005	0,029960303088510432	-0,0011178591902882464	0,03830053285341863
1	1	0	0	0	0	2	180972,62	0,0100000007	2,55974102	2,7793143726160957E-005	0,010005530175930755	2,56115654E-005	0,030349416731541645	-0,0011323775434785982	0,038689646496449843
1	1	0	0	0	0	2	181112,62	0,0100000007	2,55987453	2,7793625946518861E-005	0,01000570377523244	2,56133462E-005	0,030738523398577056	-0,0011468956363851672	0,039078753163485261
1	1	0	0	0	0	2	181252,62	0,0100000007	2,56014204	2,7794185443936534E-005	0,010005905194271286	2,56165386E-005	0,031127631402408166	-0,0011614137791693811	0,039467861167316365
1	1	0	0	0	0	2	181392,62	0,0100000007	2,5603137	2,7793685141019523E-005	0,010005725085249344	2,56177955E-005	0,031516742235923987	-0,0011759320275329365	0,039856972000832192
1	1	0	0	0	0	2	181532,62	0,0100000007	2,56056213	2,7792650606638442E-005	0,010005352652930426	2,56193271E-005	0,031905846998328154	-0,0011904500493751526	0,040246076763236352
1	1	0	0	0	0	2	181672,62	0,0100000007	2,56084847	2,7793101582572691E-005	0,010005515004241355	2,56226085E-005	0,032294944805958118	-0,0012049678117253931	0,040635174570866323
1	1	0	0	0	0	2	181812,62	0,0100000007	2,56088662	2,7792417663097795E-005	0,010005268793268915	2,56223593E-005	0,03268404300342615	-0,0012194855886210158	0,041024272768334355
1	1	0	0	0	0	2	181952,62	0,0100000007	2,56113482	2,7793083012104032E-005	0,010005508318873685	2,56254552E-005	0,033073142810620838	-0,0012340034255777045	0,041413372575529043
1	1	0	0	0	0	2	182092,62	0,0100000007	2,56142139	2,7791771110147238E-005	0,010005036034243131	2,56271142E-005	0,033462231962177299	-0,0012485208649582038	0,041802461727085504
1	1	0	0	0	0	2	182232,62	0,0100000007	2,56153584	2,7791811790110339E-005	0,010005050679027555	2,56282965E-005	0,033851321839814976	-0,0012630383314297699	0,042191551604723181
1	1	0	0	0	0	2	182372,62	0,0100000007	2,56182218	2,7791895205620678E-005	0,010005080708606579	2,56312378E-005	0,034240407112362579	-0,0012775556260792338	0,042580636877270784
1	1	0	0	0	0	2	182512,62	0,0100000007	2,56193686	2,7792039287845706E-005	0,010005132578199474	2,56325184E-005	0,034629500016565062	-0,0012920732054760021	0,042969729781473267
1	1	0	0	0	0	2	182652,62	0,0100000007	2,56224227	2,7791974298914688E-005	0,010005109182187968	2,56355142E-005	0,035018590027226637	-0,0013065906769108685	0,043358819792134842
1	1	0	0	0	0	2	182792,62	0,0100000007	2,56254792	2,7791345913221853E-005	0,010004882963373942	2,56379917E-005	0,035407672778658355	-0,001321107877494109	0,04374790254356656
1	1	0	0	0	0	2	182932,62	0,0100000007	2,56287241	2,7791905064342749E-005	0,010005084257745971	2,56417552E-005	0,035796756764105152	-0,001335625124120111	0,044136986529013357
1	1	0	0	0	0	2	183072,62	0,0100000007	2,56310153	2,7791651734771827E-005	0,010004993059114709	2,56438125E-005	0,036185841690382336	-0,00135014240584976	0,044526071455290541
1	1	0	0	0	0	2	183212,62	0,0100000007	2,56350255	2,7790884601107488E-005	0,010004716891038755	2,56471176E-005	0,036574915440323846	-0,0013646592705752981	0,044915145205232051
1	1	0	0	0	0	2	183352,62	0,0100000007	2,56375098	2,7791174463513824E-005	0,01000482124148871	2,56498697E-005	0,036963989554139859	-0,0013791761488774832	0,045304219319048064
1	1	0	0	0	0	2	183492,62	0,0100000007	2,56415176	2,7791457039148858E-005	0,010004922968701405	2,56541407E-005	0,037353065096716013	-0,0013936930804886302	0,045693294861624218
1	1	0	0	0	0	2	183632,62	0,0100000007	2,56447649	2,7790778884612435E-005	0,010004678833106491	2,56567637E-005	0,037742135114562099	-0,0014082098059646702	0,046082364879470304
1	1	0	0	0	0	2	183772,62	0,0100000007	2,56493473	2,7791578926042547E-005	0,010004966847976267	2,5662086E-005	0,038131212527607955	-0,0014227268073655565	0,04647144229251616
1	1	0	0	0	0	2	183912,62	0,0100000007	2,56516385	2,7791022242202112E-005	0,010004766441825066	2,5663865E-005	0,03852029087757239	-0,0014372438437241347	0,046860520642480595
1	1	0	0	0	0	2	184052,62	0,0100000007	2,56562209	2,7790998820888083E-005	0,010004758010153334	2,56684289E-005	0,038909360921892525	-0,0014517605701879571	0,04724959068680073
1	1	0	0	0	0	2	184192,62	0,0100000007	2,56592774	2,779150477403568E-005	0,010004940153257973	2,56719541E-005	0,039298441502381267	-0,0014662776897703962	0,047638671267289472
1	1	0	0	0	0	2	184332,62	0,0100000007	2,56625223	2,7790678935901571E-005	0,01000464285157621	2,5674437E-005	0,039687515033335411	-0,0014807945463252214	0,048027744798243616
1	1	0	0	0	0	2	184472,62	0,0100000007	2,5666914	2,7791353875564202E-005	0,010004885829816739	2,56794538E-005	0,040076590854729574	-0,0014953114883394429	0,048416820619637779
1	1	0	0	0	0	2	184612,62	0,0100000007	2,56697798	2,779204321782001E-005	0,010005133992990002	2,56829589E-005	0,040465676576374054	-0,0015098287997453149	0,048805906341282253
1	1	0	0	0	0	2	184752,62	0,0100000007	2,56741714	2,7790900390284755E-005	0,010004722575141682	2,56862968E-005	0,040854767785264557	-0,0015243463158877139	0,049194997550172762
1	1	0	0	0	0	2	184892,62	0,0100000007	2,56787539	2,7791675053640371E-005	0,01000500145390607	2,56915973E-005	0,041243849720503891	-0,001538863486017719	0,049584079485412096
1	1	0	0	0	0	2	185032,62	0,0100000007	2,56829548	2,7791491318028419E-005	0,010004935309096117	2,569563E-005	0,041632931326470758	-0,0015533806438621258	0,049973161091378963
1	1	0	0	0	0	2	185172,62	0,0100000007	2,56888747	2,7791170833787571E-005	0,010004819934787462	2,57012562E-005	0,042022006330999699	-0,0015678975553980077	0,050362236095907904
1	1	0	0	0	0	2	185312,62	0,0100000007	2,56917381	2,779123215403201E-005	0,010004842010072005	2,57041775E-005	0,042411084769994643	-0,0015824145950784339	0,050751314534902848
1	1	0	0	0	0	2	185452,62	0,0100000007	2,56965113	2,779184854723927E-005	0,010005063911591902	2,57095235E-005	0,042800168485275213	-0,0015969318316241709	0,051140398250183418
1	1	0	0	0	0	2	185592,62	0,0100000007	2,56988025	2,779159628185961E-005	0,010004973096069432	2,57115826E-005	0,04318925543004839	-0,0016114491886666192	0,051529485194956595
1	1	0	0	0	0	2	185732,62	0,0100000007	2,57041502	2,7791334644322179E-005	0,010004878906570696	2,57166903E-005	0,04357833895838272	-0,0016259664182371408	0,051918568723290925
1	1	0	0	0	0	2	185872,62	0,0100000007	2,57049131	2,7790804750234307E-005	0,010004688144728907	2,57169631E-005	0,043967419174863757	-0,0016404835242379629	0,052307648939771962
1	1	0	0	0	0	2	186012,62	0,0100000007	2,57094955	2,7791313047365597E-005	0,010004871131667542	2,57220181E-005	0,044356495633971059	-0,0016550004900461194	0,052696725398879264
1	1	0	0	0	0	2	186152,62	0,0100000007	2,57136965	2,7791512904326534E-005	0,010004943080162221	2,57264073E-005	0,044745574940200998	-0,001669517562084249	0,053085804705109203
1	1	0	0	0	0	2	186292,62	0,0100000007	2,57159877	2,7791178557607862E-005	0,010004822715362333	2,572839E-005	0,045134657818108698	-0,0016840347673864787	0,053474887583016902
1	1	0	0	0	0	2	186432,62	0,0100000007	2,57219076	2,7791670034380838E-005	0,01000499964697292	2,57347674E-005	0,045523740817718426	-0,0016985519772295744	0,05386397058262663
1	1	0	0	0	0	2	186572,62	0,0100000007	2,572649	2,7792035621797875E-005	0,010005131258422461	2,57396914E-005	0,04591282396254953	-0,0017130691924910749	0,054253053727457734
1	1	0	0	0	0	2	186712,62	0,0100000007	2,57314563	2,779145709456255E-005	0,010004922988650331	2,57441243E-005	0,046301907648890502	-0,0017275864279570362	0,054642137413798701
1	1	0	0	0	0	2	186852,62	0,0100000007	2,5733366	2,7791176894420963E-005	0,010004822116615142	2,57457741E-005	0,046690989094854867	-0,0017421035798315347	0,055031218859763072
1	1	0	0	0	0	2	186992,62	0,0100000007	2,5731647	2,7791265617590394E-005	0,010004854056951141	2,5744137E-005	0,047080067702629574	-0,0017566206258093606	0,055420297467537779
1	1	0	0	0	0	2	187132,62	0,0100000007	2,57291651	2,7792331791482867E-005	0,010005237879492376	2,57426418E-005	0,047469151103474579	-0,0017711378506230842	0,055809380868382784
1	1	0	0	0	0	2	187272,62	0,0100000007	2,57331753	2,7792263261404714E-005	0,010005213208668102	2,57465908E-005	0,047858241464960352	-0,001785655335147673	0,056198471229868557
1	1	0	0	0	0	2	187412,62	0,0100000007	2,57379484	2,7792068413200064E-005	0,010005143063325403	2,57511856E-005	0,048247328149271514	-0,0018001726824719331	0,056587557914179712
1	1	0	0	0	0	2	187552,62	0,0100000007	2,5743103	2,7792180313107869E-005	0,01000518334728591	2,57564461E-005	0,048636419273681114	-0,0018146901954622362	0,056976649038589318
1	1	0	0	0	0	2	187692,62	0,0100000007	2,57469225	2,7792309775379379E-005	0,010005229953696362	2,57603879E-005	0,049025508326516544	-0,0018292076311593213	0,057365738091424749
1	1	0	0	0	0	2	187832,62	0,0100000007	2,57516956	2,7792668803750227E-005	0,010005359203889643	2,57654956E-005	0,04941460199023655	-0,0018437252388947094	0,057754831755144755
1	1	0	0	0	0	2	187972,62	0,0100000007	2,57539868	2,7791884456657702E-005	0,010005076838980514	2,57670617E-005	0,049803693255406656	-0,001858242757136976	0,058143923020314867
1	1	0	0	0	0	2	188112,62	0,0100000007	2,57574248	2,7792909662290992E-005	0,010005445912950754	2,57714528E-005	0,050192786371356864	-0,0018727603444343366	0,058533016136265075
1	1	0	0	0	0	2	188252,62	0,0100000007	2,57608628	2,7792938011232765E-005	0,010005456118568194	2,5774918E-005	0,050581886956667584	-0,0018872782104235805	0,058922116721575782
1	1	0	0	0	0	2	188392,62	0,0100000007	2,57629633	2,7792533687936765E-005	0,010005310562204406	2,57766442E-005	0,050970973756451386	-0,00190179556205628	0,05931120352135959
1	1	0	0	0	0	2	188532,62	0,0100000007	2,57669711	2,7792297643868045E-005	0,010005225586352963	2,57804368E-005	0,051360072484367699	-0,0019163133587436413	0,059700302249275904
1	1	0	0	0	0	2	188672,62	0,0100000007	2,57679272	2,7792445966042576E-005	0,01000527898232744	2,578153E-005	0,051749167440980691	-0,0019308310147186051	0,060089397205888896
1	1	0	0	0	0	2	188812,62	0,0100000007	2,57725096	2,779225707080008E-005	0,010005210980050782	2,57859392E-005	0,052138266905672154	-0,0019453488388960378	0,060478496670580352
1	1	0	0	0	0	2	188952,62	0,0100000007	2,57751822	2,7793091611626246E-005	0,010005511414701195	2,5789388E-005	0,052527364673823046	-0,0019598665997732608	0,060867594438731251
1	1	0	0	0	0	2	189092,62	0,0100000007	2,57776642	2,7793530308538013E-005	0,01000566934556472	2,57922784E-005	0,052916470923198579	-0,0019743846770963786	0,06125670068810679
1	1	0	0	0	0	2	189232,62	0,0100000007	2,57791924	2,7792577447059251E-005	0,010005326315486038	2,57929241E-005	0,053305571569292026	-0,0019889025453535075	0,06164580133420023
1	1	0	0	0	0	2	189372,62	0,0100000007	2,57818651	2,7793076628663888E-005	0,01000550602083559	2,57960601E-005	0,053694674231712909	-0,0020034204888425242	0,06203490399662112
1	1	0	0	0	0	2	189512,62	0,0100000007	2,57849216	2,7792895560980675E-005	0,010005440836479832	2,57989504E-005	0,054083771557143936	-0,0020179382332012742	0,062424001322052147
1	1	0	0	0	0	2	189652,62	0,0100000007	2,57893133	2,7793171584709651E-005	0,010005540205006717	2,58036016E-005	0,054472871238332851	-0,0020324560654565174	0,062813101003241075
1	1	0	0	0	0	2	189792,62	0,0100000007	2,5792942	2,7792857144959274E-005	0,010005427006714291	2,58069394E-005	0,054861973434822413	-0,0020469739915610106	0,063202203199730624
1	1	0	0	0	0	2	189932,62	0,0100000007	2,57959962	2,7792790819683837E-005	0,01000540312961887	2,58099335E-005	0,055251077112972986	-0,0020614919729482675	0,063591306877881203
1	1	0	0	0	0	2	190072,62	0,0100000007	2,57963777	2,7792860854727526E-005	0,010005428342230653	2,5810381E-005	0,055640176302077901	-0,0020760097868431958	0,063980406066986125
1	1	0	0	0	0	2	190212,62	0,0100000007	2,57998157	2,7793765240348877E-005	0,0100057539210034	2,58146611E-005	0,056029280142844429	-0,0020905277742978726	0,064369509907752666
1	1	0	0	0	0	2	190352,62	0,0100000007	2,58038259	2,7793094751632051E-005	0,010005512545103107	2,58180498E-005	0,056418385358482323	-0,0021050458130508493	0,064758615123390566
1	1	0	0	0	0	2	190492,62	0,0100000007	2,58072615	2,7792820325793904E-005	0,010005413751816832	2,58212331E-005	0,056807490510739789	-0,0021195638494390163	0,065147720275648038
1	1	0	0	0	0	2	190632,62	0,0100000007	2,58112717	2,7792571939372768E-005	0,010005324332719214	2,58250147E-005	0,05719659096207721	-0,0021340817104295363	0,065536820726985485
1	1	0	0	0	0	2	190772,62	0,0100000007	2,58009601	2,7793986996946237E-005	0,010005833753365958	2,58160126E-005	0,057585697892234688	-0,0021485998131535434	0,065925927657142976
1	1	0	0	0	0	2	190912,62	0,0100000007	2,58005786	2,7793474116569594E-005	0,010005649116459254	2,5815154E-005	0,057974810570277466	-0,0021631181303388794	0,066315040335185715
1	1	0	0	0	0	2	191052,62	0,0100000007	2,58055449	2,7793462134587267E-005	0,010005644802946294	2,58201107E-005	0,058363921828350093	-0,0021776363945432195	0,066704151593258342
1	1	0	0	0	0	2	191192,62	0,0100000007	2,58101273	2,7793494832184579E-005	0,010005656574079485	2,58247273E-005	0,05875302680190528	-0,0021921544242637648	0,067093256566813517
1	1	0	0	0	0	2	191332,62	0,0100000007	2,58133721	2,7794240051363082E-005	0,010005924852941766	2,58286655E-005	0,059142140089406771	-0,002206672764188825	0,067482369854315021
1	1	0	0	0	0	2	191472,62	0,0100000007	2,58181477	2,7793842916687328E-005	0,010005781884480867	2,58330747E-005	0,059531256026654285	-0,0022211912029794714	0,067871485791562534
1	1	0	0	0	0	2	191612,62	0,0100000007	2,58210111	2,7793483161781395E-005	0,010005652372734997	2,58356067E-005	0,059920373959034867	-0,002235709716211215	0,068260603723943117
1	1	0	0	0	0	2	191752,62	0,0100000007	2,58246398	2,7793748440790093E-005	0,010005747873163184	2,5839483E-005	0,060309487987446323	-0,0022502280837806218	0,068649717752354573
1	1	0	0	0	0	2	191892,62	0,0100000007	2,58280754	2,7794329259130691E-005	0,010005956967733083	2,58434611E-005	0,060698606769516467	-0,0022647466287154259	0,069038836534424717
1	1	0	0	0	0	2	192032,62	0,0100000007	2,58313227	2,7793440248196323E-005	0,010005636923846786	2,5845884E-005	0,061087724844800346	-0,0022792651472790835	0,069427954609708557
1	1	0	0	0	0	2	192172,62	0,0100000007	2,58328485	2,7793788101782816E-005	0,01000576215111833	2,58477339E-005	0,061476836453534067	-0,0022937834245670608	0,069817066218442291
1	1	0	0	0	0	2	192312,62	0,0100000007	2,58376241	2,7794221121507389E-005	0,010005918038194786	2,58529144E-005	0,061865954634049933	-0,0023083019470570656	0,070206184398958131
1	1	0	0	0	0	2	192452,62	0,0100000007	2,583915	2,7794270415686902E-005	0,010005935784096634	2,58544878E-005	0,062255077644422336	-0,0023228206497555117	0,070595307409330496
1	1	0	0	0	0	2	192592,62	0,0100000007	2,58402967	2,7794422562078883E-005	0,010005990556789176	2,58557757E-005	0,06264420189340951	-0,0023373393986683402	0,070984431658317683
1	1	0	0	0	0	2	192732,62	0,0100000007	2,58441162	2,779510010758208E-005	0,010006234473132165	2,58602286E-005	0,063033332644563443	-0,0023518583901857526	0,071373562409471616
1	1	0	0	0	0	2	192872,62	0,0100000007	2,58471704	2,7795411152972115E-005	0,010006346449455058	2,58635737E-005	0,063422464623013645	-0,002366377427495239	0,071762694387921805
1	1	0	0	0	0	2	193012,62	0,0100000007	2,58500361	2,7795138636759171E-005	0,010006248343633747	2,58661876E-005	0,063811593826646451	-0,0023808963612725578	0,072151823591554611
1	1	0	0	0	0	2	193152,62	0,0100000007	2,58500361	2,7794562520097114E-005	0,010006040941667856	2,58656528E-005	0,064200720127420608	-0,0023954151867403174	0,072540949892328768
1	1	0	0	0	0	2	193292,62	0,0100000007	2,58525181	2,7794772035700992E-005	0,010006116367273451	2,58683303E-005	0,064589846625374259	-0,0024099340195651088	0,072930076390282432
1	1	0	0	0	0	2	193432,62	0,0100000007	2,58555722	2,7793907660473552E-005	0,010005805192240259	2,58705822E-005	0,064978968691876826	-0,0024244526870465027	0,073319198456784998
1	1	0	0	0	0	2	193572,62	0,0100000007	2,58595824	2,7794051899522957E-005	0,010005857118289922	2,58747295E-005	0,065368087118813286	-0,002438971218730791	0,073708316883721459
1	1	0	0	0	0	2	193712,62	0,0100000007	2,58614922	2,7794487838271178E-005	0,010006014056214726	2,58770451E-005	0,065757209575571034	-0,0024534899007731299	0,074097439340479206
1	1	0	0	0	0	2	193852,62	0,0100000007	2,58630204	2,7794563473874912E-005	0,01000604128502781	2,58786458E-005	0,066146331970107456	-0,0024680085804939075	0,074486561735015629
1	1	0	0	0	0	2	193992,62	0,0100000007	2,5864737	2,7793779618365485E-005	0,010005759097088566	2,58796335E-005	0,066535455182864051	-0,0024825272907435802	0,074875684947772224
1	1	0	0	0	0	2	194132,62	0,0100000007	2,58676028	2,7794249837338512E-005	0,010005928375892371	2,58829386E-005	0,066924574593607411	-0,0024970458591350269	0,075264804358515584
1	1	0	0	0	0	2	194272,62	0,0100000007	2,58700848	2,7793794106019453E-005	0,010005764312643181	2,58849977E-005	0,067313692123369139	-0,00251156435734452	0,075653921888277312
1	1	0	0	0	0	2	194412,62	0,0100000007	2,58742857	2,7794083778487728E-005	0,010005868594715443	2,58894706E-005	0,067702805843466125	-0,0025260827134102989	0,076043035608374285
1	1	0	0	0	0	2	194552,62	0,0100000007	2,58761954	2,7794618527456704E-005	0,010006061104314154	2,5891879E-005	0,068091926780243635	-0,0025406013387401318	0,076432156545151795
1	1	0	0	0	0	2	194692,62	0,0100000007	2,58784866	2,7793893384281546E-005	0,010005800052811941	2,58934961E-005	0,068481039295225382	-0,0025551196498414413	0,076821269060133542
1	1	0	0	0	0	2	194832,62	0,0100000007	2,58634019	2,7794050302563443E-005	0,010005856543384586	2,58785494E-005	0,068870153593853107	-0,0025696380274929805	0,07721038335876128
1	1	0	0	0	0	2	194972,62	0,0100000007	2,58643556	2,7794963971349517E-005	0,01000618546409611	2,58803539E-005	0,06925927540862121	-0,0025841566855818227	0,077599505173529382
1	1	0	0	0	0	2	195112,62	0,0100000007	2,58693218	2,7794104308303859E-005	0,010005875985448093	2,5884523E-005	0,069648394932912666	-0,0025986752582099018	0,077988624697820838
1	1	0	0	0	0	2	195252,62	0,0100000007	2,58725667	2,7793551696826602E-005	0,010005677045347408	2,58872551E-005	0,070037511761008499	-0,0026131937302392966	0,078377741525916672
1	1	0	0	0	0	2	195392,62	0,0100000007	2,5875814	2,7794458077496128E-005	0,010006003342337384	2,58913478E-005	0,070426627664720026	-0,0026277121677786701	0,078766857429628186
1	1	0	0	0	0	2	195532,62	0,0100000007	2,58798242	2,7794619036579709E-005	0,01000606128759841	2,58955115E-005	0,070815749131592384	-0,0026422308128870547	0,079155978896500557
1	1	0	0	0	0	2	195672,62	0,0100000007	2,58823061	2,7793359827974602E-005	0,010005607972571498	2,58968212E-005	0,071204867899320179	-0,0026567493572867261	0,079545097664228352
1	1	0	0	0	0	2	195812,62	0,0100000007	2,58849788	2,7794239490034266E-005	0,010005924650863426	2,59003154E-005	0,071593983457801318	-0,0026712677819450899	0,079934213222709491
1	1	0	0	0	0	2	195952,62	0,0100000007	2,5888226	2,7794065354340195E-005	0,01000586196202337	2,59034023E-005	0,071983105399349338	-0,0026857864447642614	0,08032333516425751
1	1	0	0	0	0	2	196092,62	0,0100000007	2,58893704	2,779453081441008E-005	0,010006029527622312	2,59049812E-005	0,072372226908020134	-0,0027003050914322013	0,080712456672928294
1	1	0	0	0	0	2	196232,62	0,0100000007	2,58939528	2,7794515407954653E-005	0,010006023981299226	2,59095505E-005	0,072761350059443302	-0,002714823799393441	0,081101579824351475
1	1	0	0	0	0	2	196372,62	0,0100000007	2,58956718	2,7793823972240918E-005	0,010005775064481226	2,59106273E-005	0,073150468610906022	-0,0027293423357239715	0,081490698375814182
1	1	0	0	0	0	2	196512,62	0,0100000007	2,58981538	2,7794068895746022E-005	0,010005863236929269	2,59133376E-005	0,073539584329925914	-0,0027438607663722525	0,081879814094834086
1	1	0	0	0	0	2	196652,62	0,0100000007	2,59000635	2,7794721456503293E-005	0,010006098158765128	2,59158569E-005	0,07392870871496457	-0,0027583795203613446	0,082268938479872742
1	1	0	0	0	0	2	196792,62	0,0100000007	2,58989191	2,7794258076024966E-005	0,010005931341819032	2,59142798E-005	0,074317836421205952	-0,0027728983982689763	0,082658066186114125
1	1	0	0	0	0	2	196932,62	0,0100000007	2,5897963	2,779377591009769E-005	0,010005757762112373	2,59128738E-005	0,074706952444243072	-0,0027874168402605478	0,083047182209151232
1	1	0	0	0	0	2	197072,62	0,0100000007	2,5903883	2,7794003329601968E-005	0,010005839633121101	2,59190092E-005	0,07509606707635991	-0,0028019352303550144	0,08343629684126807
1	1	0	0	0	0	2	197212,62	0,0100000007	2,59065557	2,7794095470363066E-005	0,010005872803789907	2,59217704E-005	0,075485182418762662	-0,0028164536469512032	0,083825412183670835
1	1	0	0	0	0	2	197352,62	0,0100000007	2,59086561	2,7793851251869152E-005	0,010005784885145853	2,5923644E-005	0,075874300174592653	-0,002830972153595607	0,084214529939500826
1	1	0	0	0	0	2	197492,62	0,0100000007	2,59105659	2,7793783605150467E-005	0,010005760532330938	2,59254921E-005	0,076263415250279706	-0,0028454905602402742	0,084603645015187866
1	1	0	0	0	0	2	197632,62	0,0100000007	2,59130478	2,7794136860149187E-005	0,010005887704110579	2,59283042E-005	0,076652530819968768	-0,0028600089853168211	0,084992760584876941
1	1	0	0	0	0	2	197772,62	0,0100000007	2,59157205	2,7794684730987584E-005	0,010006084937581542	2,59314893E-005	0,077041652867909683	-0,0028745276521056541	0,085381882632817843
1	1	0	0	0	0	2	197912,62	0,0100000007	2,59183955	2,779420001235687E-005	0,010005910438901789	2,59337139E-005	0,077430773020319078	-0,0028890462481696576	0,085771002785227238
1	1	0	0	0	0	2	198052,62	0,0100000007	2,59191585	2,7794098013546317E-005	0,010005873719801667	2,59343833E-005	0,077819890784326208	-0,0029035647551191616	0,086160120549234368
1	1	0	0	0	0	2	198192,62	0,0100000007	2,5922215	2,7793546707317645E-005	0,010005675249124464	2,59369262E-005	0,078209008334518234	-0,002918083254090937	0,086549238099426394
1	1	0	0	0	0	2	198332,62	0,0100000007	2,59252691	2,7793839129153642E-005	0,010005780520968952	2,5940255E-005	0,078598121204677171	-0,0029326015784443846	0,086938350969585344
1	1	0	0	0	0	2	198472,62	0,0100000007	2,59269881	2,7793764060466656E-005	0,010005753496245866	2,59419048E-005	0,078987237974555789	-0,0029471200483016173	0,087327467739463949
1	1	0	0	0	0	2	198612,62	0,0100000007	2,59287071	2,7793498113544451E-005	0,010005657755368853	2,59433764E-005	0,079376351567011533	-0,0029616383996049306	0,087716581331919706
1	1	0	0	0	0	2	198752,62	0,0100000007	2,59311891	2,7794648936225309E-005	0,010006072051469139	2,59469343E-005	0,079765467902924506	-0,0029761568532703213	0,088105697667832678
1	1	0	0	0	0	2	198892,62	0,0100000007	2,591362	2,7794539681946237E-005	0,010006032719934826	2,59292538E-005	0,080154594387132723	-0,0029906756855822522	0,088494824152040896
1	1	0	0	0	0	2	199032,62	0,0100000007	2,59191585	2,7794581328673907E-005	0,010006047712754442	2,59348344E-005	0,080543719766221235	-0,0030051944766606816	0,088883949531129408
1	1	0	0	0	0	2	199172,62	0,0100000007	2,59245062	2,7794486631380602E-005	0,010006013621734187	2,59400967E-005	0,08093284442514199	-0,0030197132408686829	0,089273074190050163
1	1	0	0	0	0	2	199312,62	0,0100000007	2,59277511	2,7794967752312208E-005	0,010006186825242466	2,59437929E-005	0,081321970187532454	-0,0030342320462486227	0,089662199952440627
1	1	0	0	0	0	2	199452,62	0,0100000007	2,59327149	2,7794240768947123E-005	0,010005925111271984	2,59480803E-005	0,081711095549723418	-0,0030487508366965818	0,09005132531463159
1	1	0	0	0	0	2	199592,62	0,0100000007	2,59355807	2,7795131591614339E-005	0,010006245807382003	2,59517801E-005	0,082100219059610637	-0,0030632695580325971	0,09044044882451881
1	1	0	0	0	0	2	199732,62	0,0100000007	2,59392095	2,7794364209959491E-005	0,010005969550029483	2,59546941E-005	0,082489346654166784	-0,0030777884317731021	0,090829576419074957
1	1	0	0	0	0	2	199872,62	0,0100000007	2,59411168	2,7794598953022314E-005	0,010006054057518875	2,59568224E-005	0,082878471372120064	-0,003092307198183687	0,091218701137028237
1	1	0	0	0	0	2	200012,62	0,0100000007	2,59458923	2,7794599130904925E-005	0,010006054121556606	2,59616008E-005	0,083267597637757299	-0,003106826022340441	0,091607827402665472
1	1	0	0	0	0	2	200152,62	0,0100000007	2,59481835	2,7795254626414838E-005	0,010006290099903254	2,59645058E-005	0,083656726381483853	-0,003121344938958039	0,091996956146392026
1	1	0	0	0	0	2	200292,62	0,0100000007	2,59510469	2,7795192384988896E-005	0,010006267692993421	2,59673125E-005	0,084045860029714458	-0,0031358640385692768	0,092386089794622618
1	1	0	0	0	0	2	200432,62	0,0100000007	2,59537196	2,7795040843542662E-005	0,010006213138081312	2,59698445E-005	0,084434989434211891	-0,0031503829798411245	0,092775219199120064
1	1	0	0	0	0	2	200572,62	0,0100000007	2,59548664	2,7795020934453027E-005	0,010006205970810166	2,59709741E-005	0,084824115862217741	-0,0031649018100560698	0,093164345627125914
1	1	0	0	0	0	2	200712,62	0,0100000007	2,59575391	2,7795191047868384E-005	0,01000626721163011	2,59738081E-005	0,08521324291734871	-0,0031794206636698963	0,09355347268225687
1	1	0	0	0	0	2	200852,62	0,0100000007	2,59594488	2,7795110493329248E-005	0,01000623821200056	2,59756434E-005	0,085602375010495437	-0,003193939705258864	0,093942604775403597
1	1	0	0	0	0	2	200992,62	0,0100000007	2,5964222	2,779470109898183E-005	0,010006090830058549	2,59800363E-005	0,085991500874128883	-0,0032084585144163162	0,094331730639037043
1	1	0	0	0	0	2	201132,62	0,0100000007	2,5965178	2,7793971705923062E-005	0,010005828248598477	2,5980311E-005	0,086380621993142157	-0,0032229771465456102	0,09472085175805033
1	1	0	0	0	0	2	201272,62	0,0100000007	2,596766	2,7794613311481142E-005	0,010006059226563248	2,59833942E-005	0,086769744550228634	-0,0032374958323313485	0,095109974315136806
1	1	0	0	0	0	2	201412,62	0,0100000007	2,59701419	2,7794772061415846E-005	0,010006116376530797	2,59860262E-005	0,087158866362869171	-0,0032520144903408083	0,095499096127777331
1	1	0	0	0	0	2	201552,62	0,0100000007	2,59712887	2,7794376940776902E-005	0,010005974133123035	2,59868048E-005	0,087547989310089229	-0,0032665331906829555	0,095888219074997389
1	1	0	0	0	0	2	201692,62	0,0100000007	2,59756804	2,7794559372278554E-005	0,010006039808453354	2,59913686E-005	0,087937112600574438	-0,0032810519038327872	0,096277342365482598
1	1	0	0	0	0	2	201832,62	0,0100000007	2,5977397	2,7794664048279325E-005	0,010006077491807734	2,5993184E-005	0,088326239899703987	-0,0032955707665505293	0,09666646966461216
1	1	0	0	0	0	2	201972,62	0,0100000007	2,59785438	2,779524424004679E-005	0,010006286360811341	2,59948756E-005	0,08871536665533143	-0,0033100896089894758	0,097055596420239603
1	1	0	0	0	0	2	202112,62	0,0100000007	2,59821725	2,7795204647040618E-005	0,010006272107331349	2,59984681E-005	0,089104502126150106	-0,0033246087766039258	0,097444731891058278
1	1	0	0	0	0	2	202252,62	0,0100000007	2,59833169	2,7795277844390109E-005	0,010006298458373043	2,59996832E-005	0,089493633136934656	-0,0033391277778085056	0,097833862901842829
1	1	0	0	0	0	2	202392,62	0,0100000007	2,59865642	2,7795326264005984E-005	0,010006315889432029	2,60029774E-005	0,089882769198785472	-0,0033536469674751597	0,098222998963693645
1	1	0	0	0	0	2	202532,62	0,0100000007	2,59873271	2,779495715370609E-005	0,010006183009744861	2,60033958E-005	0,090271902816163507	-0,0033681660659352467	0,09861213258107168
1	1	0	0	0	0	2	202672,62	0,0100000007	2,59903836	2,7794528835608317E-005	0,010006028815253787	2,60060533E-005	0,090661031670699405	-0,0033826849866872902	0,099001261435607565
1	1	0	0	0	0	2	202812,62	0,0100000007	2,5991528	2,7794501027506259E-005	0,010006018804338614	2,6007172E-005	0,091050159796278963	-0,0033972038802409933	0,099390389561187136
1	1	0	0	0	0	2	202952,62	0,0100000007	2,59955382	2,7795112159775776E-005	0,010006238811921214	2,60117558E-005	0,091439286822964877	-0,0034117227327934957	0,099779516587873037
1	1	0	0	0	0	2	203052,62	0,0100000007	2,59907651	2,77952508129076E-005	0,010006288727040861	2,60071101E-005	0,09171723905221815	-0,0034220935041776826	0,10005746881712632