File: Experimentelles/Rohdaten/Batterietests/AlteZelle/150511_LLTO_LTO_Tests/ZView-Export/LLTO_LP30_LTO_05_GCPL_C01_loop9.txt
EC-Lab ASCII FILE
Nb header lines : 3
mode	ox/red	error	control changes	Ns changes	counter inc.	Ns	time/s	control/V/mA	Ewe/V	dq/mA.h	<I>/mA	P/W	(Q-Qo)/mA.h	x	Capacity/mA.h
1	0	0	1	1	0	1	361581,82	-0,0100000007	2,64763474	0	0	0	0	0	0
1	0	0	1	0	0	1	361721,82	-0,0100000007	2,27921772	-2,7756980552545024E-005	-0,0099923205972374426	2,2774675E-005	-0,00038845626893427942	1,449382567894631E-005	0,00038845626893427942
1	0	0	1	0	0	1	361861,82	-0,0100000007	2,11597538	-2,7756604206593085E-005	-0,0099921851157687322	2,1143218E-005	-0,00077705026970623142	2,8992790317938611E-005	0,00077705026970623142
1	0	0	1	0	0	1	362001,82	-0,0100000007	1,9956392	-2,77561007889712E-005	-0,0099920038889143578	1,99404349E-005	-0,0011656404289706248	4,3491611625118925E-005	0,0011656404289706248
1	0	0	1	0	0	1	362141,83	-0,0100000007	1,89565825	-2,775574941607192E-005	-0,0099918773971062054	1,89411858E-005	-0,0015542217024916624	5,7990101393267635E-005	0,0015542217024916624
1	0	0	1	0	0	1	362281,83	-0,0100000007	1,80734432	-2,7756421387506029E-005	-0,0099921193021646234	1,80591996E-005	-0,001942812884038008	7,2488960843162074E-005	0,001942812884038008
1	0	0	1	0	0	1	362421,83	-0,0100000007	1,72710752	-2,7756384907290339E-005	-0,0099921061695398451	1,72574419E-005	-0,0023314017767612867	8,6987734893990528E-005	0,0023314017767612867
1	0	0	1	0	0	1	362561,84	-0,0100000007	1,65311468	-2,7755794974302666E-005	-0,009991893797753481	1,65177462E-005	-0,0027199856810853347	0,0001014863228209367	0,0027199856810853347
1	0	0	1	0	0	1	362701,84	-0,0100000007	1,58462131	-2,7756004480438099E-005	-0,0099919692180447398	1,58334879E-005	-0,0031085677042510413	0,0001159848405593359	0,0031085677042510413
1	0	0	1	0	0	1	362841,84	-0,0100000007	1,52147448	-2,7755711603340592E-005	-0,0099918637845523955	1,52023658E-005	-0,0034971545680120838	0,00013048353890685539	0,0034971545680120838
1	0	0	1	0	0	1	362981,84	-0,0100000007	1,46317768	-2,7756253398385725E-005	-0,0099920588268967936	1,46201573E-005	-0,0038857382726339782	0,0001449821193826457	0,0038857382726339782
1	0	0	1	0	0	1	363121,85	-0,0100000007	1,40931094	-2,7756556207314134E-005	-0,0099921678361283776	1,40820712E-005	-0,004274326949513833	0,00015948088538006582	0,004274326949513833
1	0	0	1	0	0	1	363261,85	-0,0100000007	1,35964513	-2,7756452339235693E-005	-0,0099921304441074726	1,35857517E-005	-0,0046629191437192403	0,00017397978261363136	0,0046629191437192403
1	0	0	1	0	0	1	363401,85	-0,0100000007	1,31332088	-2,7755967223137203E-005	-0,0099919558061399488	1,31226443E-005	-0,0050515062077314016	0,00018847848843278928	0,0050515062077314016
1	0	0	1	0	0	1	363541,85	-0,0100000007	1,26953626	-2,775640625356593E-005	-0,0099921138540510925	1,26853511E-005	-0,0054400897216000122	0,00020297706179131811	0,0054400897216000122
1	0	0	1	0	0	1	363681,86	-0,0100000007	1,22831035	-2,7755338349172637E-005	-0,0099917294158718298	1,22729443E-005	-0,0058286734288959923	0,00021747564236688221	0,0058286734288959923
1	0	0	1	0	0	1	363821,86	-0,0100000007	1,18908942	-2,7755770306361629E-005	-0,0099918849174656986	1,1881245E-005	-0,0062172519459724979	0,00023197402928837936	0,0062172519459724979
1	0	0	1	0	0	1	363961,86	-0,0100000007	1,15194976	-2,7756340482944826E-005	-0,0099920901770833933	1,15103858E-005	-0,0066058342111336832	0,0002464725560559552	0,0066058342111336832
1	0	0	1	0	0	1	364101,87	-0,0100000007	1,11696792	-2,775586332246247E-005	-0,009991918402617248	1,11606523E-005	-0,0069944182941857254	0,00026097115065148317	0,0069944182941857254
1	0	0	1	0	0	1	364241,87	-0,0100000007	1,08343732	-2,7755716418381779E-005	-0,0099918655177012109	1,08255599E-005	-0,0073829992582896346	0,00027546962887486282	0,0073829992582896346
1	0	0	1	0	0	1	364381,87	-0,0100000007	1,05158699	-2,7755371351260694E-005	-0,0099917412959295027	1,05071849E-005	-0,0077715808913913702	0,00028996813205945082	0,0077715808913913702
1	0	0	1	0	0	1	364521,87	-0,0100000007	1,02113056	-2,7755854312796147E-005	-0,0099919151588508634	1,02030499E-005	-0,0081601605651857242	0,00030446656213964614	0,0081601605651857242
1	0	0	1	0	0	1	364661,88	-0,0100000007	0,991972625	-2,7757899420284147E-005	-0,0099926513834287475	9,91243633E-006	-0,0085487459551396582	0,00031896520549744077	0,0085487459551396582
1	0	0	1	0	0	1	364801,88	-0,0100000007	0,964227736	-2,775759609291951E-005	-0,0099925421877381978	9,63508592E-006	-0,008937357686958327	0,00033346483170562579	0,008937357686958327
1	0	0	1	0	0	1	364941,88	-0,0100000007	0,938010454	-2,7757701297704541E-005	-0,0099925800604989158	9,37314417E-006	-0,0093259740991444378	0,0003479646325446128	0,0093259740991444378
1	0	0	1	0	0	1	365081,88	-0,0100000007	0,913645327	-2,7757834115893475E-005	-0,0099926278745915904	9,12971791E-006	-0,0097145845862056294	0,00036246421230922266	0,0097145845862056294
1	1	0	0	0	0	2	365203,92	0,0100000007	1,00871253	2,7796268525533376E-005	0,010006463995648718	1,00936459E-005	-0,0098311033782408435	0,00036681168510123859	0,00011118479759013278
1	1	0	0	0	0	2	365343,92	0,0100000007	1,16891873	2,7796681824864614E-005	0,010006612780543123	1,16969168E-005	-0,0094419506035329126	0,0003522918718554153	0,00050033757229806432
1	1	0	0	0	0	2	365483,92	0,0100000007	1,28715444	2,7796804815634259E-005	0,010006657056367669	1,2880113E-005	-0,0090528019447877158	0,00033777221218169568	0,00088948623104326182
1	1	0	0	0	0	2	365623,93	0,0100000007	1,38618064	2,7796532467731997E-005	0,01000655901301067	1,38708983E-005	-0,0086636498241410074	0,00032325242333977613	0,001278638351689972
1	1	0	0	0	0	2	365763,93	0,0100000007	1,47241318	2,7796392196841123E-005	0,010006508516462262	1,4733715E-005	-0,0082744978813472128	0,00030873264113378784	0,0016677902944837693
1	1	0	0	0	0	2	365903,93	0,0100000007	1,54955661	2,7796382159201635E-005	0,01000650490251567	1,55056459E-005	-0,0078853472498053594	0,00029421290785237248	0,0020569409260256208
1	1	0	0	0	0	2	366043,94	0,0100000007	1,61955857	2,7796401307969872E-005	0,01000651179617248	1,62061315E-005	-0,007496200156634985	0,0002796933065923544	0,0024460880191959949
1	1	0	0	0	0	2	366183,94	0,0100000007	1,68408024	2,7796138933083661E-005	0,01000641734297389	1,6851609E-005	-0,0071070527553457472	0,00026517369383600726	0,0028352354204852336
1	1	0	0	0	0	2	366323,94	0,0100000007	1,74359906	2,7796488926125069E-005	0,010006543338101013	1,74473989E-005	-0,0067179011476282061	0,00025065392413216451	0,0032243870282027763
1	1	0	0	0	0	2	366463,94	0,0100000007	1,79864967	2,7796728225580106E-005	0,010006629484013107	1,79984199E-005	-0,0063287482569028851	0,00023613410655757651	0,003613539918928096
1	1	0	0	0	0	2	366603,95	0,0100000007	1,8490603	2,7796999048648611E-005	0,010006726978906482	1,85030422E-005	-0,0059395930759321101	0,00022161420353085126	0,0040026950998988717
1	1	0	0	0	0	2	366743,95	0,0100000007	1,89536536	2,7796885108109565E-005	0,010006685961102222	1,8966326E-005	-0,0055504393448739142	0,00020709435460231386	0,0043918488309570675
1	1	0	0	0	0	2	366883,95	0,0100000007	1,93777514	2,7796889673142384E-005	0,010006687604482394	1,93907108E-005	-0,0051612789932514778	0,00019257425865162317	0,004781009182579504
1	1	0	0	0	0	2	367023,95	0,0100000007	1,97617507	2,7796607884837104E-005	0,010006586162645746	1,97747668E-005	-0,0047721221793002694	0,00017805429469620243	0,0051701659965307123
1	1	0	0	0	0	2	367163,96	0,0100000007	2,01138616	2,7796618915318202E-005	0,010006590133542482	2,01271178E-005	-0,0043829709118617613	0,00016353453768862797	0,0055593172639692198
1	1	0	0	0	0	2	367303,96	0,0100000007	2,04342747	2,7796771031338723E-005	0,010006644894255456	2,04478529E-005	-0,0039938212953670387	0,00014901484227998579	0,0059484668804639424
1	1	0	0	0	0	2	367443,96	0,0100000007	2,07260442	2,7796635419647725E-005	0,010006596074520749	2,07397152E-005	-0,0036046669223446739	0,00013449496939890211	0,0063376212534863078
1	1	0	0	0	0	2	367583,96	0,0100000007	2,09945178	2,7796576075411091E-005	0,010006574711006914	2,10083217E-005	-0,0032155105157018573	0,0001199750206407051	0,0067267776601291277
1	1	0	0	0	0	2	367723,97	0,0100000007	2,12400794	2,7796938016545024E-005	0,010006705007422773	2,125432E-005	-0,0028263583056462128	0,00010545522846281789	0,0071159298701847693
1	1	0	0	0	0	2	367863,97	0,0100000007	2,14669251	2,779651458090585E-005	0,010006552573527773	2,14809916E-005	-0,0024372060905788643	9,0935436097937229E-005	0,0075050820852521178
1	1	0	0	0	0	2	368003,97	0,0100000007	2,16792607	2,779583014568521E-005	0,01000630618147612	2,16929329E-005	-0,002048061388682111	7,6415924059553062E-005	0,0078942267871488717
1	1	0	0	0	0	2	368143,98	0,0100000007	2,18746018	2,7796941655998429E-005	0,010006706317484278	2,1889271E-005	-0,0016589136374930669	6,1896298247973696E-005	0,0082833745383379136
1	1	0	0	0	0	2	368283,98	0,0100000007	2,20541596	2,7797757709864525E-005	0,010007000091685451	2,20695983E-005	-0,0012697548372323856	4,7376260180675923E-005	0,0086725333385985946
1	1	0	0	0	0	2	368423,98	0,0100000007	2,22241044	2,7796534480837485E-005	0,010006559737714691	2,22386825E-005	-0,00088058882306040435	3,2855952952648339E-005	0,0090616993527705779
1	1	0	0	0	0	2	368563,98	0,0100000007	2,23829722	2,779786052337537E-005	0,010007037103836691	2,23987226E-005	-0,00049142031200897837	1,8335552562691584E-005	0,0094508678638220019
1	1	0	0	0	0	2	368703,99	0,0100000007	2,25298119	2,779806752078649E-005	0,010007111621469862	2,25458334E-005	-0,00010224706970553904	3,8149756433609702E-006	0,0098400411061254387
1	1	0	0	0	0	2	368843,99	0,0100000007	2,26682496	2,7798489112924371E-005	0,010007263391717179	2,26847151E-005	0,00028692089257890918	-1,0705404271362022E-005	0,010229209068409886
1	1	0	0	0	0	2	368983,99	0,0100000007	2,27961874	2,7797655175698714E-005	0,01000696318009649	2,28120607E-005	0,00067608798270061773	-2,522575164452056E-005	0,010618376158531594
1	1	0	0	0	0	2	369123,99	0,0100000007	2,29161024	2,7797965549605171E-005	0,010007074912085435	2,29323159E-005	0,0010652528970171672	-3,9746017835463219E-005	0,011007541072848144
1	1	0	0	0	0	2	369264,00	0,0100000007	2,30262804	2,7798130675788144E-005	0,010007134356599698	2,30427086E-005	0,0014544221688511034	-5,426644661123831E-005	0,011396710344682083
1	1	0	0	0	0	2	369404,00	0,0100000007	2,31280565	2,7797413339114022E-005	0,010006876120252843	2,3143959E-005	0,0018435864314761299	-6,8786688486694054E-005	0,01178587460730711
1	1	0	0	0	0	2	369544,00	0,0100000007	2,32210493	2,7798005815957568E-005	0,010007089407926176	2,32375114E-005	0,0022327566394741722	-8,3307152192010611E-005	0,012175044815305155
1	1	0	0	0	0	2	369684,01	0,0100000007	2,33088851	2,7797579547752522E-005	0,010006935954094109	2,33250521E-005	0,0026219248506712387	-9,7827541393998054E-005	0,012564213026502221
1	1	0	0	0	0	2	369824,01	0,0100000007	2,33913755	2,779803356078143E-005	0,010007099395637456	2,34079816E-005	0,0030110972796170419	-0,0001123480879658617	0,012953385455448026
1	1	0	0	0	0	2	369964,01	0,0100000007	2,34696651	2,7798409422031706E-005	0,010007234703548206	2,34866438E-005	0,0034002671407781402	-0,00012686853873022558	0,013342555316609126
1	1	0	0	0	0	2	370104,01	0,0100000007	2,35427976	2,7797943971171558E-005	0,01000706714446489	2,35594362E-005	0,0037894413065889088	-0,00014138915010685629	0,013731729482419896
1	1	0	0	0	0	2	370244,02	0,0100000007	2,36115384	2,7798277626900627E-005	0,010007187258214574	2,36285086E-005	0,0041786124555747904	-0,00015590964892169434	0,014120900631405782
1	1	0	0	0	0	2	370384,02	0,0100000007	2,36785626	2,7797786514378256E-005	0,010007010461110731	2,36951619E-005	0,0045677882805349664	-0,00017043032220342022	0,014510076456365958
1	1	0	0	0	0	2	370524,02	0,0100000007	2,37429118	2,779766763627736E-005	0,01000696766581843	2,37594559E-005	0,004956954676037287	-0,00018495064365939549	0,014899242851868282
1	1	0	0	0	0	2	370664,02	0,0100000007	2,38034439	2,7797468825346893E-005	0,010006896094795573	2,38198591E-005	0,0053461236349395936	-0,00019947106075927072	0,015288411810770589
1	1	0	0	0	0	2	370804,03	0,0100000007	2,38630199	2,7797846774674125E-005	0,010007032153933563	2,38798002E-005	0,0057352914428245229	-0,00021399143491314006	0,015677579618655517
1	1	0	0	0	0	2	370944,03	0,0100000007	2,39212584	2,7798425537999718E-005	0,010007240504835491	2,3938579E-005	0,0061244660832513485	-0,00022851206399833402	0,016066754259082346
1	1	0	0	0	0	2	371084,03	0,0100000007	2,39785433	2,7797737603386243E-005	0,010006992853143157	2,39953115E-005	0,0065136383425779072	-0,00024303260424147562	0,016455926518408906
1	1	0	0	0	0	2	371224,03	0,0100000007	2,40323901	2,7798093218201152E-005	0,010007120872128024	2,40495028E-005	0,0069028076466424333	-0,00025755303421981728	0,01684509582247343
1	1	0	0	0	0	2	371364,04	0,0100000007	2,40858555	2,7798273178283123E-005	0,010007185656277122	2,4103163E-005	0,0072919784760919014	-0,00027207352111232214	0,017234266651922909
1	1	0	0	0	0	2	371504,04	0,0100000007	2,41364574	2,7796894725412131E-005	0,01000668942326448	2,41526031E-005	0,007681147685322281	-0,0002865939475522744	0,017623435861153286
1	1	0	0	0	0	2	371644,04	0,0100000007	2,41872501	2,7798255225953955E-005	0,010007179194029048	2,42046153E-005	0,008070317726429856	-0,00030111440503068326	0,018012605902260861
1	1	0	0	0	0	2	371784,05	0,0100000007	2,42372799	2,7798172425944355E-005	0,01000714938659953	2,42546084E-005	0,0084594921567016218	-0,00031563502627470931	0,018401780332532618
1	1	0	0	0	0	2	371924,05	0,0100000007	2,42838717	2,7798536900172218E-005	0,010007280594795158	2,43015511E-005	0,0088486674765904038	-0,00033015568071154246	0,018790955652421414
1	1	0	0	0	0	2	372064,05	0,0100000007	2,43300796	2,7798252247946544E-005	0,010007178121967022	2,43475442E-005	0,009237842816839968	-0,00034467633590806368	0,019180130992670992
1	1	0	0	0	0	2	372204,05	0,0100000007	2,43739986	2,7798119967337696E-005	0,010007130501864758	2,43913782E-005	0,009627015729559625	-0,00035919690053018029	0,019569303905390646
1	1	0	0	0	0	2	372344,06	0,0100000007	2,44181085	2,7798931928454998E-005	0,010007422801772771	2,44362327E-005	0,01001619185055688	-0,00037371758485744755	0,019958480026387888
1	1	0	0	0	0	2	372484,06	0,0100000007	2,44620252	2,7797880033651987E-005	0,010007044127168045	2,44792573E-005	0,01040536568075071	-0,0003882381837117591	0,020347653856581718
1	1	0	0	0	0	2	372624,06	0,0100000007	2,4503653	2,7798299507289712E-005	0,010007195134653486	2,45212832E-005	0,010794540188930045	-0,00040275880786262138	0,020736828364761046
1	1	0	0	0	0	2	372764,06	0,0100000007	2,45426059	2,779799386765808E-005	0,010007085106504685	2,45599949E-005	0,011183709216774234	-0,00041727922753481094	0,021125997392605232
1	1	0	0	0	0	2	372904,07	0,0100000007	2,45819426	2,7798545602709056E-005	0,010007283727182107	2,45998472E-005	0,011572883844772715	-0,00043179985615628659	0,021515172020603712
1	1	0	0	0	0	2	373044,07	0,0100000007	2,46212769	2,7797844824846835E-005	0,010007031452009254	2,46385898E-005	0,011962048444707619	-0,00044632011061722746	0,021904336620538614
1	1	0	0	0	0	2	373184,07	0,0100000007	2,46579409	2,779768239753321E-005	0,010006972979768214	2,46751351E-005	0,012351219610937405	-0,00046084061007545882	0,022293507786768403
1	1	0	0	0	0	2	373324,08	0,0100000007	2,46946025	2,779840787101744E-005	0,010007234145193822	2,47124663E-005	0,012740393568698005	-0,00047536121368945792	0,022682681744529008
1	1	0	0	0	0	2	373464,08	0,0100000007	2,47303104	2,7797949584925338E-005	0,010007069165377338	2,47477928E-005	0,013129561958266731	-0,00048988160954673184	0,023071850134097731
1	1	0	0	0	0	2	373604,08	0,0100000007	2,47641087	2,7797984618072707E-005	0,010007081777067552	2,47816461E-005	0,013518735444972394	-0,00050440219558503802	0,023461023620803392
1	1	0	0	0	0	2	373744,08	0,0100000007	2,47984791	2,7797501734716611E-005	0,010006907942406528	2,48156102E-005	0,013907901712105869	-0,00051892251225139898	0,023850189887936861
1	1	0	0	0	0	2	373884,09	0,0100000007	2,48311305	2,7797767747969677E-005	0,010007003704867747	2,48485212E-005	0,01429706514828616	-0,0005334427232910905	0,024239353324117146
1	1	0	0	0	0	2	374024,09	0,0100000007	2,48641658	2,7798378612483955E-005	0,010007223611858587	2,4882127E-005	0,014686234324909178	-0,00054796314851441818	0,024628522500740166
1	1	0	0	0	0	2	374164,09	0,0100000007	2,48958635	2,7797982031841658E-005	0,01000708084580931	2,49134919E-005	0,015075404870959101	-0,00056248362483290496	0,025017693046790093
1	1	0	0	0	0	2	374304,09	0,0100000007	2,49279428	2,7797996547435309E-005	0,010007086071205912	2,49456061E-005	0,015464579600887421	-0,00057700425725752013	0,025406867776718419
1	1	0	0	0	0	2	374444,10	0,0100000007	2,4956584	2,7798557901961936E-005	0,010007288155060886	2,49747736E-005	0,0158537542252836	-0,00059152488574458893	0,025796042401114598
1	1	0	0	0	0	2	374584,10	0,0100000007	2,49865627	2,7797841792098349E-005	0,010007030360240822	2,50041285E-005	0,016242922659308858	-0,00060604528326059584	0,026185210835139856
1	1	0	0	0	0	2	374724,10	0,0100000007	2,50155878	2,7798180472571402E-005	0,01000715228332949	2,50334797E-005	0,01663209372958753	-0,00062056577913876211	0,026574381905418525
1	1	0	0	0	0	2	374864,10	0,0100000007	2,50434661	2,7797352763565466E-005	0,01000685431382473	2,50606317E-005	0,017021265059061293	-0,0006350862846878455	0,026963553234892288
1	1	0	0	0	0	2	375004,11	0,0100000007	2,50717258	2,7797262135686144E-005	0,010006821688416374	2,50888297E-005	0,017410428897483219	-0,00064960651073571328	0,027352717073314214
1	1	0	0	0	0	2	375144,11	0,0100000007	2,50976968	2,779749521949432E-005	0,010006905596971664	2,51150286E-005	0,01779959471895312	-0,0006641268107737673	0,027741882894784118
1	1	0	0	0	0	2	375284,11	0,0100000007	2,5124619	2,7797577890050077E-005	0,010006935357798694	2,51420443E-005	0,01818875948083447	-0,00067864707127714765	0,028131047656665469
1	1	0	0	0	0	2	375424,12	0,0100000007	2,51515436	2,7797397498248352E-005	0,010006870418000483	2,51688234E-005	0,018577929723547814	-0,00069316753627773888	0,028520217899378813
1	1	0	0	0	0	2	375564,12	0,0100000007	2,51773214	2,7797778177644227E-005	0,01000700745947829	2,51949641E-005	0,018967100045529811	-0,00070768800423594995	0,028909388221360806
1	1	0	0	0	0	2	375704,12	0,0100000007	2,52013803	2,7797362194396557E-005	0,010006857708392579	2,52186619E-005	0,019356264620690906	-0,00072220825777254669	0,029298552796521901
1	1	0	0	0	0	2	375844,12	0,0100000007	2,52263951	2,7797929471617357E-005	0,010007061924376395	2,52442096E-005	0,019745436603566365	-0,00073672878770092608	0,029687724779397363
1	1	0	0	0	0	2	375984,13	0,0100000007	2,52495003	2,7798104917630554E-005	0,010007125083725016	2,52674909E-005	0,020134608528678867	-0,00075124931547409165	0,030076896704509862
1	1	0	0	0	0	2	376124,13	0,0100000007	2,52724147	2,7797900397330522E-005	0,010007051457718173	2,52902355E-005	0,020523781042024125	-0,00076576986519501261	0,030466069217855123
1	1	0	0	0	0	2	376264,13	0,0100000007	2,52947545	2,7797100310213866E-005	0,010006763431902099	2,53118633E-005	0,020912948062133818	-0,00078029020995592845	0,030855236237964813
1	1	0	0	0	0	2	376404,13	0,0100000007	2,53172874	2,7797365268847594E-005	0,010006858815639613	2,53346516E-005	0,021302111785939888	-0,00079481043172732467	0,031244399961770886
1	1	0	0	0	0	2	376544,14	0,0100000007	2,53379107	2,779739262494776E-005	0,010006868663646051	2,53553153E-005	0,021691275923753002	-0,00080933066894588006	0,031633564099583994
1	1	0	0	0	0	2	376684,14	0,0100000007	2,53602505	2,7797720681668982E-005	0,010006986761791722	2,5377969E-005	0,022080442476693494	-0,00082385099627608525	0,03202273065252448
1	1	0	0	0	0	2	376824,14	0,0100000007	2,53812551	2,779785578449567E-005	0,010007035397872846	2,53991111E-005	0,022469616043758947	-0,0008383715853127232	0,032411904219589926
1	1	0	0	0	0	2	376964,15	0,0100000007	2,54016876	2,7797427504375165E-005	0,010006881219998146	2,54191673E-005	0,022858779939026787	-0,00085289181348158835	0,032801068114857766
1	1	0	0	0	0	2	377104,15	0,0100000007	2,54224992	2,7797087344237504E-005	0,010006758764706453	2,54396818E-005	0,023247943212169386	-0,00086741201843812429	0,033190231388000371
1	1	0	0	0	0	2	377244,15	0,0100000007	2,5441978	2,7797619450889114E-005	0,010006950318946686	2,54596616E-005	0,023637109001943955	-0,00088193231729358272	0,033579397177774931
1	1	0	0	0	0	2	377384,15	0,0100000007	2,54620266	2,779777453115417E-005	0,010007006147000134	2,54798651E-005	0,02402627288478681	-0,00089645254499885517	0,033968561060617792
1	1	0	0	0	0	2	377524,16	0,0100000007	2,54813123	2,7797562305401597E-005	0,010006929747083789	2,549897E-005	0,024415438802420586	-0,00091097284862491238	0,034357726978251558
1	1	0	0	0	0	2	377664,16	0,0100000007	2,55004072	2,7798019523163222E-005	0,010007094342425197	2,55184987E-005	0,024804610672182208	-0,00092549337433286234	0,034746898848013171
1	1	0	0	0	0	2	377804,16	0,0100000007	2,551893	2,7797757745668707E-005	0,010007000104108731	2,55367941E-005	0,025193779781211075	-0,00094001379703416154	0,035136067957042035
1	1	0	0	0	0	2	377944,16	0,0100000007	2,55370688	2,779818952637207E-005	0,010007155542168989	2,55553423E-005	0,025582950868041053	-0,00095453429352987917	0,035525239043872026
1	1	0	0	0	0	2	378084,17	0,0100000007	2,55540633	2,779769667294911E-005	0,010006978118818989	2,55718951E-005	0,025972118554979667	-0,00096905466317107891	0,03591440673081065
1	1	0	0	0	0	2	378224,17	0,0100000007	2,55716324	2,7797546822577715E-005	0,010006924173723994	2,55893392E-005	0,026361277944409651	-0,00098357472322107558	0,03630356612024064
1	1	0	0	0	0	2	378364,17	0,0100000007	2,55903435	2,7797651681272931E-005	0,01000696192212743	2,56081585E-005	0,026750442513899309	-0,0009980949765460631	0,03669273068973031
1	1	0	0	0	0	2	378504,17	0,0100000007	2,56081033	2,7797902084990509E-005	0,010007052065730051	2,56261628E-005	0,027139609186431958	-0,0010126153083384125	0,037081897362262963
1	1	0	0	0	0	2	378644,18	0,0100000007	2,56224227	2,7797391990924048E-005	0,01000686843540191	2,56400217E-005	0,027528777861924582	-0,0010271357148638914	0,037471066037755578
1	1	0	0	0	0	2	378784,18	0,0100000007	2,5639801	2,7797810295441501E-005	0,010007019021662678	2,56577969E-005	0,027917944570316669	-0,0010416560479942045	0,037860232746147686
1	1	0	0	0	0	2	378924,18	0,0100000007	2,56552672	2,779855456824104E-005	0,010007286954711475	2,56739622E-005	0,028307118616006698	-0,0010561766548889688	0,038249406791837709
1	1	0	0	0	0	2	379064,19	0,0100000007	2,56713057	2,7798306962371699E-005	0,010007197818431326	2,56897838E-005	0,028696294840029338	-0,0010706973430602518	0,038638583015860352
1	1	0	0	0	0	2	379204,19	0,0100000007	2,56865835	2,7797894374105254E-005	0,010007049289515322	2,57046904E-005	0,02908546909115241	-0,0010852179576199995	0,03902775726698343
1	1	0	0	0	0	2	379344,19	0,0100000007	2,57007122	2,7798151915582518E-005	0,010007142002778446	2,57190677E-005	0,029474642935994854	-0,0010997385570208704	0,039416931111825882
1	1	0	0	0	0	2	379484,19	0,0100000007	2,57175159	2,7798231894098634E-005	0,010007170794256874	2,5735957E-005	0,029863814946516474	-0,0011142590879807651	0,039806103122347494
1	1	0	0	0	0	2	379624,20	0,0100000007	2,57312655	2,7798242045980362E-005	0,010007174449329912	2,57497268E-005	0,030252990501938701	-0,0011287797512056678	0,040195278677769715
1	1	0	0	0	0	2	379764,20	0,0100000007	2,57444406	2,7798187326070749E-005	0,01000715475054175	2,57628599E-005	0,030642167172666182	-0,0011433004560441091	0,04058445534849719
1	1	0	0	0	0	2	379904,20	0,0100000007	2,57593346	2,7798081622717693E-005	0,010007116698067347	2,57776665E-005	0,031031339894705984	-0,0011578210135517035	0,040973628070536986
1	1	0	0	0	0	2	380044,20	0,0100000007	2,57740378	2,7797871058392858E-005	0,010007040896369962	2,57921856E-005	0,03142051216034784	-0,0011723415540304776	0,041362800336178842
1	1	0	0	0	0	2	380184,21	0,0100000007	2,57854939	2,7797333885812096E-005	0,01000684751796437	2,58031505E-005	0,031809678010085133	-0,0011868618551232259	0,041751966185916141
1	1	0	0	0	0	2	380324,21	0,0100000007	2,58000064	2,779809710295457E-005	0,010007122270845318	2,58183827E-005	0,032198847092906368	-0,0012013822768466829	0,04214113526873737
1	1	0	0	0	0	2	380464,21	0,0100000007	2,58139467	2,7797404501224973E-005	0,010006872938557552	2,58316886E-005	0,032588018433934227	-0,0012159027828268651	0,042530306609765229
1	1	0	0	0	0	2	380604,22	0,0100000007	2,58276939	2,7798246565119674E-005	0,010007176075955747	2,58462278E-005	0,032977193591202029	-0,0012304234311960909	0,04291948176703303
1	1	0	0	0	0	2	380744,22	0,0100000007	2,58416343	2,7798123044634442E-005	0,010007131609320766	2,5860063E-005	0,033366366838222566	-0,001244944008291423	0,043308655014053574
1	1	0	0	0	0	2	380884,22	0,0100000007	2,58542371	2,7797505187698538E-005	0,010006909185223101	2,58721011E-005	0,033755537867488442	-0,0012594645026393467	0,04369782604331945
1	1	0	0	0	0	2	381024,22	0,0100000007	2,58649302	2,7797497911533962E-005	0,010006906565621301	2,58827931E-005	0,034144704982199917	-0,0012739848509299824	0,044086993158030918
1	1	0	0	0	0	2	381164,23	0,0100000007	2,58788681	2,779794095999872E-005	0,010007066059997555	2,5897154E-005	0,034533872962011334	-0,0012885052314986602	0,044476161137842336
1	1	0	0	0	0	2	381304,23	0,0100000007	2,58887982	2,7798290067507578E-005	0,010007191736746842	2,59074168E-005	0,034923041418240666	-0,0013030256298431306	0,044865329594071667
1	1	0	0	0	0	2	381444,23	0,0100000007	2,59019732	2,7797595657873901E-005	0,010006941754092112	2,59199533E-005	0,035312213001610822	-0,0013175461448654302	0,04525450117744183
1	1	0	0	0	0	2	381584,23	0,0100000007	2,59122849	2,7797970151528717E-005	0,010007076569211994	2,59306216E-005	0,035701383976138099	-0,0013320666371709832	0,045643672151969101
1	1	0	0	0	0	2	381724,24	0,0100000007	2,59245062	2,7797758949817053E-005	0,010007000538059766	2,59426542E-005	0,036090553486345683	-0,0013465870748407995	0,046032841662176685
1	1	0	0	0	0	2	381864,24	0,0100000007	2,59340525	2,7798464844624202E-005	0,010007254655297334	2,59528661E-005	0,036479727072147904	-0,0013611076645765315	0,046422015247978906
1	1	0	0	0	0	2	382004,24	0,0100000007	2,59443641	2,7798444449849843E-005	0,010007247312853946	2,5963167E-005	0,036868906368229478	-0,0013756284673704637	0,046811194544060486
1	1	0	0	0	0	2	382144,25	0,0100000007	2,59541035	2,7798173409679699E-005	0,01000714974027145	2,59726603E-005	0,037258080939284826	-0,0013901490938673144	0,047200369115115827
1	1	0	0	0	0	2	382284,25	0,0100000007	2,59621215	2,7798381752800198E-005	0,010007224742583662	2,59808785E-005	0,037647260692620678	-0,0014046699137220189	0,04758954886845168
1	1	0	0	0	0	2	382424,25	0,0100000007	2,59726238	2,7797511833771651E-005	0,010006911577646858	2,59905755E-005	0,038036430046567514	-0,0014191903455615365	0,047978718222398522
1	1	0	0	0	0	2	382564,25	0,0100000007	2,59829354	2,7797244043865552E-005	0,010006815175253379	2,60006436E-005	0,038425592881328141	-0,0014337105341614518	0,048367881057159149
1	1	0	0	0	0	2	382704,26	0,0100000007	2,59924841	2,7797234712220314E-005	0,010006811815692794	2,60101897E-005	0,038814755326419827	-0,0014482307082222947	0,048757043502250829
1	1	0	0	0	0	2	382844,26	0,0100000007	2,60037494	2,7797822738945898E-005	0,010007023501703987	2,60220131E-005	0,03920392455662105	-0,0014627511354446973	0,049146212732452051
1	1	0	0	0	0	2	382984,26	0,0100000007	2,60129142	2,7797824857704755E-005	0,010007024264442491	2,60311863E-005	0,039593102361288704	-0,0014772718825919709	0,049535390537119706
1	1	0	0	0	0	2	383124,26	0,0100000007	2,60241795	2,7797829315583741E-005	0,010007025869248022	2,6042464E-005	0,039982274197942688	-0,0014917924070646304	0,04992456237377369
1	1	0	0	0	0	2	383264,27	0,0100000007	2,60348749	2,7797415987329763E-005	0,010006877073941634	2,60527795E-005	0,040371440228719008	-0,0015063127149121885	0,050313728404550016
1	1	0	0	0	0	2	383404,27	0,0100000007	2,60451841	2,7798008430180032E-005	0,010007090349261134	2,60636516E-005	0,040760610566319968	-0,0015208331834531642	0,05070289874215097
1	1	0	0	0	0	2	383544,27	0,0100000007	2,60556865	2,7797790262020298E-005	0,01000701181023589	2,60739562E-005	0,04114978133027024	-0,0015353536679018054	0,051092069506101242
1	1	0	0	0	0	2	383684,27	0,0100000007	2,60650444	2,7797959905997334E-005	0,010007072880425731	2,60834804E-005	0,041538953218059558	-0,0015498741942823933	0,05148124139389056
1	1	0	0	0	0	2	383824,28	0,0100000007	2,60745907	2,7797714488943005E-005	0,010006984532220307	2,60928027E-005	0,041928125039926221	-0,0015643947182033181	0,051870413215757222
1	1	0	0	0	0	2	383964,28	0,0100000007	2,60858583	2,7798165567633178E-005	0,010007146917305557	2,61045025E-005	0,042317295984528704	-0,0015789152093923366	0,052259584160359712
1	1	0	0	0	0	2	384104,28	0,0100000007	2,60978866	2,7798060136588499E-005	0,010007108962860283	2,61164387E-005	0,042706469781126874	-0,0015934358069931488	0,052648757956957882
1	1	0	0	0	0	2	384244,29	0,0100000007	2,6105907	2,7798683389452182E-005	0,010007333329454542	2,61250516E-005	0,04309564914294183	-0,0016079566122396819	0,053037937318772832
1	1	0	0	0	0	2	384384,29	0,0100000007	2,61158371	2,779860515540673E-005	0,01000730516574047	2,6134916E-005	0,043484830342917408	-0,0016224774860704592	0,05342711851874841
1	1	0	0	0	0	2	384524,29	0,0100000007	2,61248112	2,7798393764533104E-005	0,010007229066957242	2,61436962E-005	0,043874006967084122	-0,0016369981891716554	0,053816295142915123
1	1	0	0	0	0	2	384664,29	0,0100000007	2,6133976	2,7797934206720032E-005	0,010007063629330022	2,61524365E-005	0,044263177747445088	-0,0016515186742326022	0,05420546592327609
1	1	0	0	0	0	2	384804,30	0,0100000007	2,61440969	2,7798611619613235E-005	0,010007307493275998	2,61632013E-005	0,044652354377979002	-0,0016660393775713677	0,054594642553810003
1	1	0	0	0	0	2	384944,30	0,0100000007	2,61517334	2,7797842499593069E-005	0,010007030615399995	2,61701189E-005	0,045041533399510362	-0,0016805601701214624	0,05498382157534137
1	1	0	0	0	0	2	385084,30	0,0100000007	2,61618543	2,779831622975568E-005	0,010007201154974813	2,61806945E-005	0,045430710780333888	-0,0016950809014545414	0,05537299895616489
1	1	0	0	0	0	2	385224,30	0,0100000007	2,61691117	2,7797765663773235E-005	0,010007002955037453	2,61874375E-005	0,045819882411896576	-0,001709601418274969	0,055762170587727584
1	1	0	0	0	0	2	385364,31	0,0100000007	2,61784673	2,7798089184798301E-005	0,010007119419897963	2,61971054E-005	0,046209055948098413	-0,0017241220061600438	0,056151344123929414
1	1	0	0	0	0	2	385504,31	0,0100000007	2,61882067	2,7797629171827187E-005	0,01000695381865	2,62064168E-005	0,046598225562546227	-0,0017386424477192032	0,056540513738377229
1	1	0	0	0	0	2	385644,31	0,0100000007	2,61971807	2,7797970969954298E-005	0,010007076863490045	2,62157209E-005	0,046987395586671136	-0,0017531629045639664	0,056929683762502138
1	1	0	0	0	0	2	385784,32	0,0100000007	2,62050104	2,7797788240895091E-005	0,010007011082411837	2,62233825E-005	0,047376565601272166	-0,0017676833610533805	0,057318853777103168
1	1	0	0	0	0	2	385924,32	0,0100000007	2,6213603	2,7798299260075309E-005	0,010007195045541518	2,62324647E-005	0,047765733795676154	-0,0017822037496287955	0,057708021971507162
1	1	0	0	0	0	2	386064,32	0,0100000007	2,62225771	2,7797919403140746E-005	0,010007058300144091	2,62410849E-005	0,048154912708482842	-0,0017967245381222266	0,058097200884313843
1	1	0	0	0	0	2	386204,32	0,0100000007	2,62313604	2,7798204011749478E-005	0,010007160757270434	2,62501435E-005	0,048544084205204403	-0,0018112450499115501	0,058486372381035405
1	1	0	0	0	0	2	386344,33	0,0100000007	2,62401438	2,7798017647479558E-005	0,010007093667425072	2,62587582E-005	0,048933259879804928	-0,0018257657175831552	0,05887554805563593
1	1	0	0	0	0	2	386484,33	0,0100000007	2,6247592	2,7798568820322138E-005	0,010007292085827872	2,62667327E-005	0,049322441239214074	-0,0018402865973626131	0,059264729415045082
1	1	0	0	0	0	2	386624,33	0,0100000007	2,62575197	2,779844441233824E-005	0,010007247299816018	2,62765498E-005	0,049711618469220051	-0,001854807323068487	0,059653906645051059
1	1	0	0	0	0	2	386764,33	0,0100000007	2,62632489	2,7798501278532461E-005	0,010007267771251762	2,6282336E-005	0,050100797150810272	-0,0018693281029349206	0,060043085326641267
1	1	0	0	0	0	2	386904,34	0,0100000007	2,62735605	2,7799045369701667E-005	0,010007463639835235	2,62931699E-005	0,050489980034028819	-0,0018838490395697565	0,060432268209859827
1	1	0	0	0	0	2	387044,34	0,0100000007	2,62804341	2,7797691766690048E-005	0,010006976352133757	2,62987687E-005	0,05087915590865767	-0,0018983697147046874	0,060821444084488678
1	1	0	0	0	0	2	387184,34	0,0100000007	2,62890267	2,7797324376905133E-005	0,010006844094474294	2,63070197E-005	0,051268322562565421	-0,0019128900458021165	0,061210610738396429
1	1	0	0	0	0	2	387324,34	0,0100000007	2,62960911	2,7797330350201162E-005	0,01000684624487771	2,63140937E-005	0,05165749128861241	-0,001927410454213847	0,061599779464443418
1	1	0	0	0	0	2	387464,35	0,0100000007	2,630373	2,7798205078993405E-005	0,010007161141237858	2,63225666E-005	0,052046663962260678	-0,0019419310099158886	0,061988952138091686
1	1	0	0	0	0	2	387604,35	0,0100000007	2,63117504	2,7798069781985962E-005	0,010007112435020016	2,63304646E-005	0,052435839830697523	-0,0019564516848197872	0,062378128006528525
1	1	0	0	0	0	2	387744,35	0,0100000007	2,63190055	2,7798222040912755E-005	0,01000716724764424	2,63378697E-005	0,052825012389428403	-0,0019709722362341066	0,06276730056525943
1	1	0	0	0	0	2	387884,36	0,0100000007	2,63264537	2,7798395600118157E-005	0,010007229727755139	2,63454876E-005	0,053214186411900301	-0,0019854928422625715	0,063156474587731328
1	1	0	0	0	0	2	388024,36	0,0100000007	2,63338995	2,7798037241213024E-005	0,010007100721033302	2,63525981E-005	0,053603363028311392	-0,0020000135450743952	0,063545651204142426
1	1	0	0	0	0	2	388164,36	0,0100000007	2,6341157	2,7797980932674064E-005	0,010007080450349586	2,63598085E-005	0,053992539482062176	-0,0020145342418171437	0,063934827657893197
1	1	0	0	0	0	2	388304,36	0,0100000007	2,63478398	2,7797932758927347E-005	0,010007063108134691	2,63664497E-005	0,054381711934693581	-0,0020290547892727494	0,064324000110524608
1	1	0	0	0	0	2	388444,37	0,0100000007	2,63554764	2,7798380588181318E-005	0,010007224323561933	2,63745169E-005	0,054770885494644301	-0,002043575378043927	0,064713173670475328
1	1	0	0	0	0	2	388584,37	0,0100000007	2,63629246	2,7798197439923472E-005	0,010007158390992637	2,63817965E-005	0,055160063441130451	-0,0020580961304826397	0,065102351616961459
1	1	0	0	0	0	2	388724,37	0,0100000007	2,63697982	2,7797805573222125E-005	0,010007017321929426	2,6388303E-005	0,055549230576376096	-0,0020726164795394326	0,065491518752207053
1	1	0	0	0	0	2	388864,37	0,0100000007	2,63770556	2,7797536751151914E-005	0,010006920547731035	2,63953098E-005	0,055938395249587526	-0,0020871367367344189	0,065880683425418458
1	1	0	0	0	0	2	389004,38	0,0100000007	2,63822103	2,7797118300727258E-005	0,01000676990847871	2,64000701E-005	0,056327561919112883	-0,0021016570684145619	0,066269850094943808
1	1	0	0	0	0	2	389144,38	0,0100000007	2,63887024	2,7798048714641478E-005	0,010007104850922034	2,64074515E-005	0,0567167260091568	-0,0021161773038507846	0,066659014184987712
1	1	0	0	0	0	2	389284,38	0,0100000007	2,63963413	2,7798324206637011E-005	0,010007204026130811	2,64153568E-005	0,05710589806540505	-0,0021306978365168016	0,067048186241235942
1	1	0	0	0	0	2	389424,39	0,0100000007	2,64034057	2,7797592175865757E-005	0,010006940500593315	2,64217306E-005	0,057495071878097126	-0,0021452184347180992	0,067437360053928
1	1	0	0	0	0	2	389564,39	0,0100000007	2,64098978	2,7797793478187587E-005	0,010007012968033821	2,6428419E-005	0,057884243576483853	-0,0021597389540318214	0,067826531752314752
1	1	0	0	0	0	2	389704,39	0,0100000007	2,64158177	2,7798150003525533E-005	0,010007141314684176	2,64346818E-005	0,058273415197367629	-0,0021742594704538045	0,068215703373198515
1	1	0	0	0	0	2	389844,39	0,0100000007	2,64230728	2,7798179311108669E-005	0,01000715186521096	2,64419705E-005	0,058662592631775834	-0,0021887802037862	0,06860488080760672
1	1	0	0	0	0	2	389984,40	0,0100000007	2,64303303	2,7798083250824778E-005	0,01000711728417461	2,64491409E-005	0,059051766157077478	-0,0022033007912645744	0,068994054332908352
1	1	0	0	0	0	2	390124,40	0,0100000007	2,64341474	2,7798058475005546E-005	0,01000710836458544	2,64529372E-005	0,05944093744226711	-0,0022178212951613571	0,06938322561809801
1	1	0	0	0	0	2	390264,40	0,0100000007	2,6441977	2,7798319685738534E-005	0,010007202398638698	2,64610208E-005	0,05983011076193431	-0,0022323418749672342	0,069772398937765248
1	1	0	0	0	0	2	390404,40	0,0100000007	2,64473248	2,7798092607615725E-005	0,010007120652321501	2,64661576E-005	0,060219288880922112	-0,002246862633842215	0,070161577056753024
1	1	0	0	0	0	2	390544,41	0,0100000007	2,64541984	2,7798727545938976E-005	0,010007349225658458	2,64736409E-005	0,060608467454647565	-0,0022613834096840688	0,070550755630478438
1	1	0	0	0	0	2	390684,41	0,0100000007	2,64601183	2,7798662330386125E-005	0,010007325748569731	2,64795017E-005	0,060997647742633434	-0,0022759042494872838	0,070939935918464269
1	1	0	0	0	0	2	390824,41	0,0100000007	2,64668012	2,7798720502708522E-005	0,01000734668996957	2,64862447E-005	0,061386828471038938	-0,0022904251057231482	0,071329116646869773
1	1	0	0	0	0	2	390964,41	0,0100000007	2,6472528	2,7798761225408979E-005	0,010007361350325451	2,64920145E-005	0,06177600652805623	-0,0023049458622859254	0,071718294703887053
1	1	0	0	0	0	2	391104,42	0,0100000007	2,6479404	2,7797777113711667E-005	0,01000700707693592	2,6497959E-005	0,062165183999478093	-0,0023194665969993507	0,072107472175308915
1	1	0	0	0	0	2	391244,42	0,0100000007	2,64837956	2,779845915046624E-005	0,010007252605439939	2,6503003E-005	0,062554360800343296	-0,0023339873066934054	0,072496648976174118
1	1	0	0	0	0	2	391384,42	0,0100000007	2,64899063	2,7797958521534586E-005	0,01000707238249472	2,65086419E-005	0,0629435300314928	-0,0023485077339511898	0,072885818207323635
1	1	0	0	0	0	2	391524,43	0,0100000007	2,64969707	2,7797356543648573E-005	0,010006855674628445	2,65151357E-005	0,06333269616577975	-0,0023630280456608678	0,073274984341610573
1	1	0	0	0	0	2	391664,43	0,0100000007	2,6502316	2,7798033910027395E-005	0,010007099521829565	2,65211311E-005	0,063721868655738355	-0,0023775485945092016	0,073664156831569178
1	1	0	0	0	0	2	391804,43	0,0100000007	2,65080452	2,7797883414301194E-005	0,010007045343945334	2,65267208E-005	0,064111038556949786	-0,002392069046767897	0,074053326732780621
1	1	0	0	0	0	2	391944,43	0,0100000007	2,65139651	2,7798234153538941E-005	0,010007171607872717	2,653298E-005	0,064500214125878413	-0,0024065897104967421	0,074442502301709248
1	1	0	0	0	0	2	392084,44	0,0100000007	2,65187383	2,7797498722353741E-005	0,010006906857627294	2,65370545E-005	0,064889382295386842	-0,0024211100981432698	0,074831670471217664
1	1	0	0	0	0	2	392224,44	0,0100000007	2,65252304	2,7798042254884624E-005	0,010007102525570838	2,65440704E-005	0,065278552013294797	-0,0024356305435626666	0,075220840189125632
1	1	0	0	0	0	2	392364,44	0,0100000007	2,65311503	2,7797422695904973E-005	0,010006879488516234	2,65494018E-005	0,065667722705503936	-0,0024501510253345498	0,075610010881334758
1	1	0	0	0	0	2	392504,44	0,0100000007	2,65357327	2,7798152902525744E-005	0,010007142357838176	2,6554686E-005	0,066056896414770035	-0,0024646716196768858	0,07599918459060087
1	1	0	0	0	0	2	392644,45	0,0100000007	2,65414619	2,7797794955420413E-005	0,010007013499827397	2,65600775E-005	0,066446073826460774	-0,0024791923521616618	0,076388362002291597
1	1	0	0	0	0	2	392784,45	0,0100000007	2,65471911	2,7797777641512867E-005	0,010007007266940694	2,65657927E-005	0,06683524101683913	-0,0024937127032755312	0,076777529192669965
1	1	0	0	0	0	2	392924,45	0,0100000007	2,65531087	2,7797729611241568E-005	0,010006989976375957	2,65716699E-005	0,067224405026908262	-0,0025082329357277869	0,077166693202739098
1	1	0	0	0	0	2	393064,46	0,0100000007	2,6558075	2,7797739717229786E-005	0,010006993614461664	2,65766485E-005	0,067613572503454387	-0,0025227532975189597	0,07755586067928521
1	1	0	0	0	0	2	393204,46	0,0100000007	2,65638018	2,7798182459030714E-005	0,010007152998441072	2,65828021E-005	0,068002742868651789	-0,0025372737670895958	0,077945031044482624
1	1	0	0	0	0	2	393344,46	0,0100000007	2,65691495	2,7797539541549565E-005	0,01000692155260433	2,65875387E-005	0,068391915494883533	-0,002551794321022463	0,078334203670714368
1	1	0	0	0	0	2	393484,46	0,0100000007	2,65743041	2,7798480988894074E-005	0,010007260466656594	2,65935978E-005	0,068781090820641114	-0,0025663149756782688	0,078723378996471949
1	1	0	0	0	0	2	393624,47	0,0100000007	2,65800333	2,7797663766011181E-005	0,010006966272316445	2,65985491E-005	0,069170261568583821	-0,0025808354595296467	0,079112549744414643
1	1	0	0	0	0	2	393764,47	0,0100000007	2,65840435	2,7797673707827926E-005	0,010006969851185066	2,66025727E-005	0,069559429599077978	-0,0025953558419893654	0,0795017177749088
1	1	0	0	0	0	2	393904,47	0,0100000007	2,65891981	2,7798012601522109E-005	0,010007091850682374	2,66080551E-005	0,069948596299737395	-0,0026098761748311622	0,079890884475568218
1	1	0	0	0	0	2	394044,47	0,0100000007	2,6596837	2,7798561182183523E-005	0,010007289335684923	2,66162242E-005	0,070337769149324493	-0,0026243967370977184	0,080280057325155315
1	1	0	0	0	0	2	394184,48	0,0100000007	2,66008472	2,7798896759179318E-005	0,010007410141543306	2,66205589E-005	0,070726950117950259	-0,0026389176022965232	0,080669238293781082
1	1	0	0	0	0	2	394324,48	0,0100000007	2,66079116	2,7798527501678714E-005	0,010007277211402646	2,66272746E-005	0,07111613482879177	-0,0026534386071224288	0,081058423004622605
1	1	0	0	0	0	2	394464,48	0,0100000007	2,66121125	2,7798951991419824E-005	0,010007430024767037	2,66318857E-005	0,071505316611862515	-0,002667959502709271	0,08144760478769335
1	1	0	0	0	0	2	394604,48	0,0100000007	2,66168857	2,7798156017644538E-005	0,010007143479725333	2,66359002E-005	0,071894497222285197	-0,0026824803545430371	0,081836785398116019
1	1	0	0	0	0	2	394744,49	0,0100000007	2,66218519	2,7799267703615546E-005	0,010007543678969096	2,66419338E-005	0,072283675421749555	-0,0026970011164207066	0,08222596359758039
1	1	0	0	0	0	2	394884,49	0,0100000007	2,66271973	2,7798766017684506E-005	0,010007363075511424	2,66468032E-005	0,072672859650178138	-0,0027115221032471376	0,082615147826008973
1	1	0	0	0	0	2	395024,49	0,0100000007	2,66334987	2,7799318036788867E-005	0,010007561798096595	2,6653639E-005	0,073062042535415206	-0,0027260430399572867	0,083004330711246042
1	1	0	0	0	0	2	395164,50	0,0100000007	2,66390371	2,7798324704946333E-005	0,010007204205518712	2,66582283E-005	0,073451228124211546	-0,0027405640775408675	0,083393516300042381
1	1	0	0	0	0	2	395304,50	0,0100000007	2,66430473	2,7798944545806282E-005	0,010007427344048274	2,66628358E-005	0,073840414636766336	-0,0027550851495911181	0,083782702812597171
1	1	0	0	0	0	2	395444,50	0,0100000007	2,66482019	2,7798794124999805E-005	0,010007373193658856	2,66678508E-005	0,074229601083895706	-0,0027696062192002576	0,084171889259726528
1	1	0	0	0	0	2	395584,50	0,0100000007	2,66529751	2,7798634733125155E-005	0,010007315813747077	2,66724746E-005	0,074618782768088166	-0,0027841271110978186	0,084561070943919002
1	1	0	0	0	0	2	395724,51	0,0100000007	2,66579413	2,7798927116363002E-005	0,010007421069453006	2,66777242E-005	0,075007962100375334	-0,0027986479152426301	0,084950250276206157
1	1	0	0	0	0	2	395864,51	0,0100000007	2,66638589	2,7798931217855878E-005	0,01000742254642801	2,66836505E-005	0,075397149268215578	-0,0028131690117424614	0,0853394374440464
1	1	0	0	0	0	2	396004,51	0,0100000007	2,66682529	2,7799351756926624E-005	0,010007573937578458	2,66884508E-005	0,075786336969020979	-0,0028276901281279405	0,085728625144851814
1	1	0	0	0	0	2	396144,51	0,0100000007	2,66732168	2,7798490315210074E-005	0,010007263824531696	2,66925927E-005	0,076175520969020685	-0,0028422111064313821	0,086117809144851507
1	1	0	0	0	0	2	396284,52	0,0100000007	2,66783714	2,779906060624247E-005	0,010007469125350312	2,6698297E-005	0,076564702524361741	-0,0028567319935213238	0,086506990700192576
1	1	0	0	0	0	2	396424,52	0,0100000007	2,66816187	2,7798757579384579E-005	0,010007360037781941	2,67012565E-005	0,076953887250190285	-0,0028712529989064154	0,086896175426021107
1	1	0	0	0	0	2	396564,52	0,0100000007	2,66879201	2,7798292861268339E-005	0,01000719274248135	2,67071155E-005	0,077343069880401152	-0,0028857739261011949	0,087285358056231987
1	1	0	0	0	0	2	396704,53	0,0100000007	2,6692121	2,7798908178384106E-005	0,010007414251911875	2,67119121E-005	0,077732252025967194	-0,002900294835213223	0,087674540201798016
1	1	0	0	0	0	2	396844,53	0,0100000007	2,66978478	2,779860415966767E-005	0,010007304807514309	2,67173509E-005	0,078121432892450867	-0,0029148156966009696	0,088063721068281702
1	1	0	0	0	0	2	396984,53	0,0100000007	2,67024326	2,7798825049151978E-005	0,010007384326081034	2,67221512E-005	0,078510612035658278	-0,0029293364936909606	0,088452900211489101
1	1	0	0	0	0	2	397124,53	0,0100000007	2,67072058	2,7798592558182362E-005	0,010007300631060014	2,67267042E-005	0,078899796928048922	-0,0029438575052907091	0,088842085103879757
1	1	0	0	0	0	2	397264,54	0,0100000007	2,6711216	2,7799091805910899E-005	0,010007480356548682	2,67311971E-005	0,079288985503640998	-0,0029583786543156544	0,089231273679471821
1	1	0	0	0	0	2	397404,54	0,0100000007	2,67169428	2,7799365325313475E-005	0,010007578821637667	2,67371906E-005	0,079678174374781018	-0,0029728998143678912	0,08962046255061184
1	1	0	0	0	0	2	397544,54	0,0100000007	2,67232442	2,779913058416504E-005	0,010007494316917374	2,67432715E-005	0,080067362448219507	-0,0029874209446568109	0,09000965062405033
1	1	0	0	0	0	2	397684,54	0,0100000007	2,67274451	2,7799040488795277E-005	0,010007461883208766	2,67473897E-005	0,08045655359441175	-0,0030019421895943053	0,090398841770242586
1	1	0	0	0	0	2	397824,55	0,0100000007	2,67310739	2,7799027811632387E-005	0,010007457319518002	2,67510077E-005	0,08084574442610336	-0,0030164634227973568	0,090788032601934182
1	1	0	0	0	0	2	397964,55	0,0100000007	2,67360377	2,7798831345823904E-005	0,010007386593188776	2,67557862E-005	0,081234929616013888	-0,0030309844454979725	0,091177217791844723
1	1	0	0	0	0	2	398104,55	0,0100000007	2,6741004	2,7798333783944448E-005	0,01000720747436109	2,67602773E-005	0,081624106499075661	-0,0030455051582588915	0,091566394674906483
1	1	0	0	0	0	2	398244,56	0,0100000007	2,67455864	2,7798888977306582E-005	0,010007407339657064	2,67653977E-005	0,082013285661296064	-0,0030600259560582835	0,091955573837126899
1	1	0	0	0	0	2	398384,56	0,0100000007	2,67515063	2,7798981472280707E-005	0,010007440637206605	2,67714113E-005	0,082402470544525171	-0,0030745469673162016	0,092344758720355994
1	1	0	0	0	0	2	398524,56	0,0100000007	2,67553234	2,7798388674855235E-005	0,010007227234475493	2,677466E-005	0,08279165395573207	-0,0030890679236509926	0,092733942131562906
1	1	0	0	0	0	2	398664,56	0,0100000007	2,67610526	2,7799051413416035E-005	0,010007465815647016	2,67810319E-005	0,083180838668431411	-0,0031035889285462163	0,093123126844262246
1	1	0	0	0	0	2	398804,57	0,0100000007	2,67648721	2,7798619322633994E-005	0,010007310266077078	2,67844371E-005	0,083570023148144397	-0,0031181099247484058	0,093512311323975219
1	1	0	0	0	0	2	398944,57	0,0100000007	2,67702198	2,7798663881917792E-005	0,010007326306877381	2,67898322E-005	0,083959209874024269	-0,0031326310047581024	0,093901498049855091
1	1	0	0	0	0	2	399084,57	0,0100000007	2,67748022	2,7798556775268579E-005	0,010007287749692083	2,67943142E-005	0,084348385976701056	-0,003147151688401808	0,094290674152531878
1	1	0	0	0	0	2	399224,57	0,0100000007	2,67791939	2,7798836316861622E-005	0,010007388382727899	2,67989799E-005	0,084737572056965888	-0,0031616727443227392	0,094679860232796723
1	1	0	0	0	0	2	399364,58	0,0100000007	2,6783967	2,7798820060108688E-005	0,010007382530409526	2,68037402E-005	0,085126754038474752	-0,0031761936473135744	0,095069042214305574
1	1	0	0	0	0	2	399504,58	0,0100000007	2,6789887	2,7798725412951574E-005	0,010007348458089027	2,68095737E-005	0,085515935664327936	-0,0031907145370344179	0,095458223840158771
1	1	0	0	0	0	2	399644,58	0,0100000007	2,67931318	2,7798992923460902E-005	0,010007444760018099	2,68130789E-005	0,085905124314540864	-0,0032052356888435674	0,095847412490371699
1	1	0	0	0	0	2	399784,58	0,0100000007	2,67984796	2,7798748289079718E-005	0,010007356693336587	2,68181939E-005	0,086294313433595507	-0,0032197568581458323	0,09623660160942633
1	1	0	0	0	0	2	399924,59	0,0100000007	2,68028712	2,7798962990598131E-005	0,010007433983928987	2,68227959E-005	0,086683499126884723	-0,0032342778996281824	0,096625787302715546
1	1	0	0	0	0	2	400064,59	0,0100000007	2,68093634	2,7799553201999517E-005	0,01000764645617535	2,68298627E-005	0,087072687989198707	-0,0032487990593511078	0,09701497616502953
1	1	0	0	0	0	2	400204,59	0,0100000007	2,68133736	2,7799476161650899E-005	0,010007618722067362	2,68338026E-005	0,08746188303073527	-0,003263320449629136	0,097404171206566093
1	1	0	0	0	0	2	400344,60	0,0100000007	2,6817193	2,7798642474330134E-005	0,010007318600410714	2,68368203E-005	0,08785107182760352	-0,0032778416069101926	0,097793360003434342
1	1	0	0	0	0	2	400484,60	0,0100000007	2,6821394	2,7799358572914368E-005	0,010007576390820795	2,68417152E-005	0,08824025800764009	-0,0032923626665537414	0,098182546183470912
1	1	0	0	0	0	2	400624,60	0,0100000007	2,6825211	2,7799509771633894E-005	0,010007630821311766	2,68456806E-005	0,08862944614711447	-0,0033068837993065491	0,098571734322945306
1	1	0	0	0	0	2	400764,60	0,0100000007	2,6831131	2,7799004939798682E-005	0,010007449085816406	2,68511176E-005	0,089018633060305075	-0,0033214048863050611	0,09896092123613591
1	1	0	0	0	0	2	400904,61	0,0100000007	2,68336129	2,7799175464289469E-005	0,010007510473451077	2,6853766E-005	0,089407822207892314	-0,0033359260566719149	0,099350110383723136
1	1	0	0	0	0	2	401044,61	0,0100000007	2,68391514	2,7798820344472512E-005	0,010007382632778533	2,68589665E-005	0,089797008759692275	-0,0033504471301864557	0,09973929693552311
1	1	0	0	0	0	2	401163,89	0,0100000007	2,68425894	2,5797970056637293E-005	0,010007624985396051	2,68630574E-005	0,090128597037886144	-0,0033628191346710502	0,10007088521371698