File: Experimentelles/Rohdaten/Batterietests/AlteZelle/Studenten_Batterietests/LLTO_LP30_Li CV/ECLab-Export/LLTO_LP30_Li_05_GCPL_C01_loop8.mpt
EC-Lab ASCII FILE
Nb header lines : 3
mode	ox/red	error	control changes	Ns changes	counter inc.	Ns	time/s	control/V/mA	Ewe/V	dq/mA.h	<I>/mA	P/W	(Q-Qo)/mA.h	x	Capacity/mA.h
1	0	0	1	1	0	1	36367,28	-0,100000001	4,18844843	0	0	0	0	0	0
1	0	0	1	0	0	1	36387,28	-0,100000001	3,45571947	-0,00027773701474236122	-0,099985325121012851	0,000345521228	-0,00055410055188467802	2,0674236586932749E-005	0,00055410055188467802
1	0	0	1	0	0	1	36407,28	-0,100000001	2,82575941	-0,00027773778559350307	-0,099985602627423411	0,000282535271	-0,0011095758315933814	4,1399766117321107E-005	0,0011095758315933814
1	0	0	1	0	0	1	36427,28	-0,100000001	2,25180483	-0,00027773783089220522	-0,099985618934956134	0,000225148106	-0,0016650513864507846	6,2125305913877376E-005	0,0016650513864507846
1	0	0	1	0	0	1	36447,28	-0,100000001	1,85016239	-0,0002777380635589361	-0,099985702694979098	0,000184989782	-0,0022205272416394355	8,2850856916196326E-005	0,0022205272416394355
1	0	0	1	0	0	1	36467,28	-0,100000001	1,58996785	-0,00027773759012255402	-0,099985532257881882	0,00015897378	-0,0027760027076047894	0,00010357639339607074	0,0027760027076047894
1	0	0	1	0	0	1	36487,28	-0,100000001	1,48473585	-0,0002777378964614537	-0,099985642539885555	0,000148452265	-0,003331477997343216	0,00012430192330068155	0,003331477997343216
1	0	0	1	0	0	1	36507,28	-0,100000001	1,44836009	-0,00027773810433596371	-0,09998571737470903	0,00014481532	-0,0038869543883403712	0,00014502749429473619	0,0038869543883403712
1	0	0	1	0	0	1	36527,28	-0,100000001	1,42431951	-0,00027773763439183434	-0,099985548194822746	0,000142411373	-0,0044424297388047546	0,00016575302646511411	0,0044424297388047546
1	0	0	1	0	0	1	36547,28	-0,100000001	1,40461361	-0,00027773736755715475	-0,099985452134338291	0,000140440927	-0,0049979045289726464	0,00018647853773007658	0,0049979045289726464
1	0	0	1	0	0	1	36567,28	-0,100000001	1,38695085	-0,00027773742083998192	-0,099985471316156032	0,000138674935	-0,0055533792884193101	0,0002072040478487887	0,0055533792884193101
1	0	0	1	0	0	1	36587,28	-0,100000001	1,37060559	-0,00027773751949022211	-0,099985506830242445	0,000137040697	-0,0061088544755789709	0,00022792957392604787	0,0061088544755789709
1	0	0	1	0	0	1	36607,28	-0,100000001	1,35508144	-0,0002777372687438296	-0,099985416561541325	0,000135488386	-0,0066643285655975898	0,00024865505906749962	0,0066643285655975898
1	0	0	1	0	0	1	36627,28	-0,100000001	1,33992004	-0,00027773743240618042	-0,099985475479987494	0,000133972542	-0,0072198036209966298	0,00026938058022859286	0,0072198036209966298
1	0	0	1	0	0	1	36647,28	-0,100000001	1,32542706	-0,00027773760506179597	-0,099985537636008986	0,000132523535	-0,007775278831017984	0,00029010610715885248	0,007775278831017984
1	0	0	1	0	0	1	36667,28	-0,100000001	1,31771266	-0,00027773752987633146	-0,099985510569241792	0,000131752167	-0,0083307539670194752	0,00031083163132733152	0,0083307539670194752
1	0	0	1	0	0	1	36687,28	-0,100000001	1,31332088	-0,00027773724995139568	-0,099985409796265101	0,000131312932	-0,0088862286064915098	0,00033155713696962893	0,0088862286064915098
1	0	0	1	0	0	1	36707,28	-0,100000001	1,30757332	-0,00027773772790572707	-0,09998558185982409	0,000130738481	-0,0094417038974489344	0,00035228266691972224	0,0094417038974489344
1	0	0	1	0	0	1	36727,28	-0,100000001	1,29959166	-0,00027773781179512538	-0,099985612060007411	0,000129940468	-0,0099971799560475418	0,00037300822551154016	0,0099971799560475418
1	0	0	1	0	0	1	36747,28	-0,100000001	1,28929949	-0,00027773759099261629	-0,099985532571104307	0,000128911299	-0,010552655066041952	0,0003937337487096601	0,010552655066041952
1	0	0	1	0	0	1	36767,28	-0,100000001	1,27736509	-0,0002777375879473984	-0,099985531474825856	0,000127718027	-0,011108130344474538	0,00041445927819243475	0,011108130344474538
1	0	0	1	0	0	1	36787,28	-0,100000001	1,26455247	-0,00027773806932402982	-0,099985704770412851	0,000126437168	-0,011663605972616266	0,00043518482072332768	0,011663605972616266
1	0	0	1	0	0	1	36807,28	-0,100000001	1,25137699	-0,00027773804066247408	-0,099985694452252787	0,000125119797	-0,012219082147523405	0,00045591038365477325	0,012219082147523405
1	0	0	1	0	0	1	36827,28	-0,100000001	1,2380296	-0,0002777382091006471	-0,099985755089994982	0,000123785328	-0,012774558450883106	0,00047663595137895667	0,012774558450883106
1	0	0	1	0	0	1	36847,28	-0,100000001	1,22445309	-0,00027773822543025018	-0,09998576096865207	0,000122427868	-0,013330034721190789	0,00049736151786992486	0,013330034721190789
1	0	0	1	0	0	1	36867,28	-0,100000001	1,21066666	-0,00027773766884414685	-0,099985560597655245	0,000121049183	-0,013885510063582054	0,0005180870497390839	0,013885510063582054
1	0	0	1	0	0	1	36887,28	-0,100000001	1,1967274	-0,00027773751083595885	-0,099985503714707674	0,000119655393	-0,014440985516499373	0,00053881258573211859	0,014440985516499373
1	0	0	1	0	0	1	36907,28	-0,100000001	1,18225336	-0,00027773807153022954	-0,099985705564644736	0,000118208438	-0,01499646142378952	0,0005595381386784144	0,01499646142378952
1	0	0	1	0	0	1	36927,28	-0,100000001	1,16747391	-0,00027773798198004563	-0,099985673326578598	0,000116730662	-0,015551937551625962	0,00058026369985358886	0,015551937551625962
1	0	0	1	0	0	1	36947,28	-0,100000001	1,15193069	-0,00027773816860260234	-0,099985740510698893	0,000115176641	-0,016107413845131853	0,00060098926721011354	0,016107413845131853
1	0	0	1	0	0	1	36967,28	-0,100000001	1,1359483	-0,00027773797590368323	-0,099985671139088141	0,00011357855	-0,016662889836213715	0,00062171482328279091	0,016662889836213715
1	0	0	1	0	0	1	36987,28	-0,100000001	1,1189729	-0,00027773798018859491	-0,099985672681656346	0,000111881258	-0,017218365414513542	0,00064244036395401536	0,017218365414513542
1	0	0	1	0	0	1	37007,28	-0,100000001	1,10123372	-0,00027773802176200682	-0,099985687648084608	0,000110107612	-0,017773841176182506	0,00066316591146698906	0,017773841176182506
1	0	0	1	0	0	1	37027,28	-0,100000001	1,08282626	-0,00027773806136846541	-0,099985701906409664	0,000108267144	-0,018329317132382819	0,00068389146623818893	0,018329317132382819
1	0	0	1	0	0	1	37047,28	-0,100000001	1,06321573	-0,00027773784776156147	-0,09998562500792439	0,000106306288	-0,018884792841973053	0,0007046170118080352	0,018884792841973053
1	0	0	1	0	0	1	37067,28	-0,100000001	1,04343343	-0,00027773818361676403	-0,099985745915797082	0,000104328472	-0,019440269113775402	0,00072534257835477133	0,019440269113775402
1	0	0	1	0	0	1	37087,28	-0,100000001	1,02296364	-0,00027773808833666973	-0,0999857116149632	0,000102281745	-0,01999574539573455	0,00074606814528047142	0,01999574539573455
1	0	0	1	0	0	1	37107,28	-0,100000001	1,00369692	-0,00027773864867248467	-0,099985913335856205	0,000100355552	-0,02055122220451432	0,00076679373186255706	0,02055122220451432
1	0	0	1	0	0	1	37127,28	-0,100000001	0,987179816	-0,00027773995725396608	-0,099986384425188634	9,87045423E-005	-0,021106701509758061	0,00078751941159107008	0,021106701509758061
1	0	0	1	0	0	1	37147,28	-0,100000001	0,973966122	-0,00027773990214698845	-0,099986364586676723	9,73833303E-005	-0,021662181260656624	0,00080824510794756365	0,021662181260656624
1	0	0	1	0	0	1	37167,28	-0,100000001	0,963750362	-0,00027774007992073891	-0,09998642858522679	9,63619532E-005	-0,022217661011379686	0,00082897080429750912	0,022217661011379686
1	0	0	1	0	0	1	37187,28	-0,100000001	0,955615938	-0,00027773992853942845	-0,09998637408795511	9,55485739E-005	-0,022773140867458509	0,00084969650457841958	0,022773140867458509
1	0	0	1	0	0	1	37207,28	-0,100000001	0,949524641	-0,00027773996436761488	-0,099986386986102208	9,49395398E-005	-0,023328620763173594	0,00087042220633821235	0,023328620763173594
1	0	0	1	0	0	1	37227,28	-0,100000001	0,944407225	-0,00027773984762074221	-0,099986344957228109	9,4427829E-005	-0,023884100357392659	0,00089114789684878323	0,023884100357392659
1	0	0	1	0	0	1	37247,28	-0,100000001	0,940301836	-0,00027773995387223034	-0,099986383207763763	9,40173777E-005	-0,024439580024589328	0,00091187359008224666	0,024439580024589328
1	0	0	1	0	0	1	37267,28	-0,100000001	0,936864734	-0,00027773999916596544	-0,099986399513508378	9,36737342E-005	-0,024995059727058288	0,00093259928463176666	0,024995059727058288
1	0	0	1	0	0	1	37287,28	-0,100000001	0,933523118	-0,00027774008684895104	-0,099986431079383142	9,33396441E-005	-0,025550539722910003	0,00095332499012779162	0,025550539722910003
1	0	0	1	0	0	1	37307,28	-0,100000001	0,93016243	-0,00027774014811507526	-0,099986453135187827	9,30036404E-005	-0,026106020025831187	0,00097405070708099149	0,026106020025831187
1	0	0	1	0	0	1	37327,28	-0,100000001	0,926687121	-0,0002777397852457232	-0,099986322502221312	9,26560388E-005	-0,026661499896212227	0,0009947764078955369	0,026661499896212227
1	0	0	1	0	0	1	37347,28	-0,100000001	0,923040032	-0,0002777398791052401	-0,099986356291647334	9,22914114E-005	-0,027216979680836672	0,0010155021055103883	0,027216979680836672
1	0	0	1	0	0	1	37367,28	-0,100000001	0,91920197	-0,0002777407381853296	-0,099986665560478989	9,19079393E-005	-0,027772460765579568	0,0010362278516344075	0,027772460765579568
1	0	0	1	0	0	1	37387,28	-0,100000001	0,915096521	-0,0002777402779766255	-0,099986499885345818	9,14972989E-005	-0,028327941507163206	0,0010569535849546933	0,028327941507163206
1	0	0	1	0	0	1	37407,28	-0,100000001	0,911029339	-0,00027774091854194797	-0,099986730488861466	9,1090842E-005	-0,028883422957551206	0,0010776793447214226	0,028883422957551206
1	0	0	1	0	0	1	37427,28	-0,100000001	0,90658021	-0,00027774035346797773	-0,099986527062232563	9,06458081E-005	-0,029438903837449082	0,0010984050832023984	0,029438903837449082
1	0	0	1	0	0	1	37447,28	-0,100000001	0,902092934	-0,00027774032613717846	-0,099986517223144845	9,01971289E-005	-0,029994384515806266	0,0011191308141636202	0,029994384515806266
1	0	0	1	0	0	1	37467,28	-0,100000001	0,897433758	-0,00027774001490780048	-0,099986405180568973	8,97311766E-005	-0,030549864840919827	0,0011398565319448477	0,030549864840919827
1	0	0	1	0	0	1	37487,28	-0,100000001	0,892812788	-0,00027773981466641027	-0,099986333093668634	8,92690805E-005	-0,031105344188307366	0,0011605822132458026	0,031105344188307366
1	0	0	1	0	0	1	37507,28	-0,100000001	0,888153613	-0,0002777400698616273	-0,099986424963946598	8,88033028E-005	-0,03166082445626505	0,0011813079288944669	0,03166082445626505
1	0	0	1	0	0	1	37527,28	-0,100000001	0,883437157	-0,00027773954337711136	-0,099986235429521216	8,83315588E-005	-0,032216303756174182	0,0012020336084239382	0,032216303756174182
1	0	0	1	0	0	1	37547,28	-0,100000001	0,878644347	-0,00027773959490160144	-0,0999862539783376	8,7852357E-005	-0,032771783028446202	0,0012227592869222323	0,032771783028446202
1	0	0	1	0	0	1	37567,28	-0,100000001	0,873756051	-0,00027774017314861216	-0,099986462147261082	8,73637764E-005	-0,033327263302382976	0,0012434850027939848	0,033327263302382976
1	0	0	1	0	0	1	37587,28	-0,100000001	0,868982315	-0,00027774021090277366	-0,099986475738759194	8,68864809E-005	-0,033882743454593811	0,001264210714123979	0,033882743454593811
1	0	0	1	0	0	1	37607,28	-0,100000001	0,863883972	-0,00027774033748731014	-0,09998652130919223	8,63767564E-005	-0,034438224212664339	0,0012849364480594125	0,034438224212664339
1	0	0	1	0	0	1	37627,28	-0,100000001	0,858995676	-0,00027773996030083958	-0,099986385522063104	8,58878702E-005	-0,034993704356321498	0,0013056621590702576	0,034993704356321498
1	0	0	1	0	0	1	37647,28	-0,100000001	0,85382098	-0,00027774012401824198	-0,099986444460327834	8,53705205E-005	-0,035549184410810938	0,0013263878667541347	0,035549184410810938
1	0	0	1	0	0	1	37667,28	-0,100000001	0,84885633	-0,00027774039514321421	-0,09998654206531767	8,48742056E-005	-0,036104665416051174	0,0013471136099118026	0,036104665416051174
1	0	0	1	0	0	1	37687,28	-0,100000001	0,843738854	-0,00027774003303133776	-0,099986411705042381	8,43624221E-005	-0,036660145458605203	0,0013678393171503536	0,036660145458605203
1	0	0	1	0	0	1	37707,28	-0,100000001	0,838525951	-0,00027774040411454109	-0,099986545294995341	8,38413107E-005	-0,037215625950899859	0,0013885650411693325	0,037215625950899859
1	0	0	1	0	0	1	37727,28	-0,100000001	0,833293974	-0,00027773997863216531	-0,099986392121340339	8,33180602E-005	-0,037771106469879194	0,0014092907661839526	0,037771106469879194
1	0	0	1	0	0	1	37747,28	-0,100000001	0,828176498	-0,00027773982267040346	-0,099986335975106189	8,28063348E-005	-0,038326586183468979	0,0014300164611484053	0,038326586183468979
1	0	0	1	0	0	1	37767,28	-0,100000001	0,822868109	-0,00027774013779684902	-0,099986449420626368	8,22756629E-005	-0,038882066198895027	0,001450742167374775	0,038882066198895027
1	0	0	1	0	0	1	37787,28	-0,100000001	0,817655206	-0,00027774007457701699	-0,099986426661486886	8,17544205E-005	-0,039437546161202566	0,0014714678716192218	0,039437546161202566
1	0	0	1	0	0	1	37807,28	-0,100000001	0,812461436	-0,0002777398300870425	-0,09998633864509623	8,12350409E-005	-0,039993025933278163	0,0014921935687658592	0,039993025933278163
1	0	0	1	0	0	1	37827,28	-0,100000001	0,807191193	-0,00027773954606842662	-0,099986236398394714	8,07080069E-005	-0,040548505156330413	0,001512919245427697	0,040548505156330413
1	0	0	1	0	0	1	37847,28	-0,100000001	0,801730096	-0,00027773974101907677	-0,099986306580628621	8,01620336E-005	-0,041103984631586054	0,0015336449314995824	0,041103984631586054
1	1	0	0	1	0	2	37853,63	0,100000001	0,81124109	5,4886018236478176E-009	0,032931610975112685	2,67154755E-005	-0,041280371570107904	0,0015402261653305936	5,4886018236478176E-009
1	1	0	0	0	0	2	37873,63	0,100000001	0,838519573	0,00027780635461625126	0,10001028747556677	8,38605847E-005	-0,040724758971803782	0,0015194955122587834	0,00055561808690594298
1	1	0	0	0	0	2	37893,63	0,100000001	0,848277032	0,00027780658928760224	0,10001037195725296	8,48365016E-005	-0,040169145728434189	0,0014987648351187133	0,0011112313302755355
1	1	0	0	0	0	2	37913,63	0,100000001	0,856583357	0,00027780681050361862	0,10001045159501872	8,5667285E-005	-0,039613532200153984	0,0014780341473482451	0,001666844858555744
1	1	0	0	0	0	2	37933,63	0,100000001	0,864622295	0,00027780690552832352	0,10001048580391242	8,64712929E-005	-0,039057918163496243	0,0014573034406095277	0,002222458895213488
1	1	0	0	0	0	2	37953,63	0,100000001	0,872183859	0,00027780693585218656	0,10001049672050309	8,72275414E-005	-0,038502304268633395	0,0014365727391613678	0,0027780727900763354
1	1	0	0	0	0	2	37973,63	0,100000001	0,879573584	0,00027780714925833875	0,10001057354671774	8,7966655E-005	-0,037946690304778586	0,0014158420351390254	0,003333686753931145
1	1	0	0	0	0	2	37993,63	0,100000001	0,886753321	0,00027780655863798326	0,10001036092339018	8,86845228E-005	-0,037391077041234477	0,001395111357246217	0,0038893000174752544
1	1	0	0	0	0	2	38013,63	0,100000001	0,893856585	0,0002778066469530265	0,10001039271680566	8,93949473E-005	-0,036835463486898349	0,001374380668503567	0,004444913571811385
1	1	0	0	0	0	2	38033,63	0,100000001	0,900711656	0,00027780681348923178	0,10001045266983946	9,00805826E-005	-0,036279849450251776	0,0013536499617652662	0,0050005276084579526
1	1	0	0	0	0	2	38053,63	0,100000001	0,90747124	0,00027780732075456118	0,1000106352853577	9,07567737E-005	-0,035724235167027002	0,0013329192458268011	0,0055561418916827283
1	1	0	0	0	0	2	38073,63	0,100000001	0,914192677	0,00027780719215505654	0,10001058898953611	9,14289485E-005	-0,03516862072904912	0,0013121885241142891	0,0061117563296606157
1	1	0	0	0	0	2	38093,63	0,100000001	0,920646727	0,00027780706120489373	0,10001054184747758	9,20743769E-005	-0,034613006321613645	0,001291457803541356	0,0066673707370960883
1	1	0	0	0	0	2	38113,63	0,100000001	0,927196324	0,00027780725289094781	0,10001061085445693	9,27294677E-005	-0,034057392101915418	0,0012707270899731517	0,0072229849567943142
1	1	0	0	0	0	2	38133,63	0,100000001	0,933383048	0,00027780730796895094	0,10001063068253802	9,33482297E-005	-0,033501777179397299	0,0012499963501817923	0,0077785998793124326
1	1	0	0	0	0	2	38153,63	0,100000001	0,939722538	0,00027780700195125408	0,10001052051616734	9,39821402E-005	-0,032946162793910822	0,0012292656304278054	0,0083342142647989094
1	1	0	0	0	0	2	38173,63	0,100000001	0,945794761	0,00027780696876885162	0,1000105085705025	9,45894135E-005	-0,032390548580571667	0,0012085349170968666	0,0088898284781380659
1	1	0	0	0	0	2	38193,63	0,100000001	0,951905131	0,00027780688790438902	0,10001047945929602	9,52004921E-005	-0,031834934974527264	0,0011878042264249118	0,0094454420841824678
1	1	0	0	0	0	2	38213,63	0,100000001	0,957729042	0,00027780697337206867	0,10001051022766064	9,57829689E-005	-0,031279321415258854	0,0011670735374982318	0,010001055643450883
1	1	0	0	0	0	2	38233,63	0,100000001	0,963495731	0,00027780683732363914	0,10001046125022608	9,6359654E-005	-0,030723707568214656	0,0011463428378342504	0,010556669490495075
1	1	0	0	0	0	2	38253,63	0,100000001	0,968975961	0,00027780704035692746	0,10001053434220976	9,69078028E-005	-0,030168093222319328	0,0011256121195574626	0,01111228383639041
1	1	0	0	0	0	2	38273,63	0,100000001	0,974513471	0,00027780689767789507	0,10001048297775821	9,74615614E-005	-0,029612479520441414	0,0011048814253098304	0,011667897538268322
1	1	0	0	0	0	2	38293,63	0,100000001	0,981253982	0,00027780695084937744	0,10001050211949181	9,81357007E-005	-0,029056865208779846	0,0010841507083103501	0,012223511849929891
1	1	0	0	0	0	2	38313,63	0,100000001	0,990343153	0,00027780702853244211	0,10001053008539504	9,90447443E-005	-0,028501251057669594	0,0010634199973012554	0,012779126001040141
1	1	0	0	0	0	2	38333,63	0,100000001	1,00422513	0,0002778076565493312	0,1000107561714747	0,000100433317	-0,027945635937902736	0,0010426892501502803	0,013334741120807002
1	1	0	0	0	0	2	38353,63	0,100000001	1,023893	0,00027780682071919245	0,10001045527262528	0,000102400008	-0,027390022065810102	0,0010219585495517083	0,01389035499289963
1	1	0	0	0	0	2	38373,63	0,100000001	1,045241	0,00027780683000220192	0,10001045861450869	0,000104535029	-0,026834408625150794	0,0010012278650504934	0,014445968433558944
1	1	0	0	0	0	2	38393,63	0,100000001	1,06563437	0,00027780751188389133	0,10001070409191642	0,000106574844	-0,026278793874664099	0,00098049713167785779	0,015001583184045638
1	1	0	0	0	0	2	38413,63	0,100000001	1,08480573	0,0002778072902804448	0,10001062431467581	0,000108492095	-0,025723179247073904	0,00095976640289065574	0,015557197811635834
1	1	0	0	0	0	2	38433,63	0,100000001	1,10286951	0,0002778069819100201	0,10001051330132314	0,000110298548	-0,025167565360276723	0,00093903570174343706	0,016112811698433014
1	1	0	0	0	0	2	38453,63	0,100000001	1,11978757	0,00027780704438024093	0,10001053579060259	0,000111990557	-0,024611951172142883	0,00091830498935294246	0,016668425886566854
1	1	0	0	0	0	2	38473,63	0,100000001	1,13580823	0,00027780722428527142	0,10001060055641347	0,000113592861	-0,024056336725023133	0,00089757426729933542	0,017224040333686605
1	1	0	0	0	0	2	38493,63	0,100000001	1,15110326	0,00027780688942968845	0,10001048000840381	0,000115122391	-0,023500722941832074	0,00087684357001780032	0,017779654116877667
1	1	0	0	0	0	2	38513,63	0,100000001	1,16580629	0,00027780700879833763	0,10001052298111744	0,000116592899	-0,022945109045276288	0,00085611286850647514	0,01833526801343345
1	1	0	0	0	0	2	38533,63	0,100000001	1,18033755	0,00027780694950785901	0,10001050163654517	0,000118046148	-0,022389494977573216	0,0008353821606094144	0,018890882081136522
1	1	0	0	0	0	2	38553,63	0,100000001	1,19456327	0,00027780705476096938	0,10001053952766482	0,000119468918	-0,021833881296848333	0,00081465146715103027	0,019446495761861405
1	1	0	0	0	0	2	38573,63	0,100000001	1,20878887	0,00027780703208140202	0,10001053136302059	0,000120891615	-0,021278267329221462	0,00079392076298794714	0,020002109729488275
1	1	0	0	0	0	2	38593,63	0,100000001	1,22303367	0,00027780694530324803	0,10001050012288522	0,000122316211	-0,020722653523791248	0,00077319006487663936	0,020557723534918493
1	1	0	0	0	0	2	38613,63	0,100000001	1,23748863	0,00027780735761920614	0,10001064855662986	0,000123762045	-0,02016703919603559	0,00075245934727666714	0,021113337862674147
1	1	0	0	0	0	2	38633,63	0,100000001	1,25200069	0,00027780681435101562	0,10001045298008163	0,000125213162	-0,019611425568042195	0,00073172865578576563	0,021668951490667542
1	1	0	0	0	0	2	38653,63	0,100000001	1,26660836	0,00027780671388821469	0,10001041681347336	0,000126674029	-0,019055812127112179	0,00071099797127445043	0,022224564931597558
1	1	0	0	0	0	2	38673,63	0,100000001	1,28154051	0,00027780638145779565	0,10001029713852275	0,000128167245	-0,018500199194101904	0,00069026730571430349	0,022780177864607837
1	1	0	0	0	0	2	38693,63	0,100000001	1,29662549	0,00027780660943893923	0,10001037921173426	0,000129676002	-0,017944586434335424	0,00066953664661811571	0,023335790624374314
1	1	0	0	0	0	2	38713,63	0,100000001	1,3116914	0,00027780668823669357	0,10001040757892579	0,000131182795	-0,017388973293335149	0,00064880597329758234	0,023891403765374589
1	1	0	0	0	0	2	38733,63	0,100000001	1,32689095	0,00027780673688525952	0,1000104250924095	0,000132702931	-0,016833359891685424	0,00062807529025186739	0,024447017167024317
1	1	0	0	0	0	2	38753,63	0,100000001	1,34220505	0,00027780656927658454	0,10001036475328661	0,000134234419	-0,016277747169329136	0,00060734463255150413	0,025002629889380602
1	1	0	0	0	0	2	38773,63	0,100000001	1,35771012	0,00027780675604318576	0,10001043198926294	0,000135785172	-0,015722133669962147	0,00058661394585982694	0,02555824338874759
1	1	0	0	0	0	2	38793,63	0,100000001	1,37210763	0,00027780665596615933	0,10001039596153349	0,000137225026	-0,015166520480301718	0,00056588327072371776	0,026113856578408016
1	1	0	0	0	0	2	38813,63	0,100000001	1,37283325	0,00027780678109327955	0,10001044100729666	0,000137297655	-0,014610907202705402	0,00054515259230660243	0,026669469856004336
1	1	0	0	0	0	2	38833,63	0,100000001	1,37008357	0,0002778066762706472	0,1000104032711491	0,000137022609	-0,014055293748640013	0,00052442190730518874	0,027225083310069722
1	1	0	0	0	0	2	38853,63	0,100000001	1,37119114	0,00027780658123766381	0,10001036905927514	0,000137133335	-0,013499680351818262	0,0005036912244396121	0,027780696706891472
1	1	0	0	0	0	2	38873,63	0,100000001	1,37512469	0,00027780632552463146	0,10001027700258366	0,0001375266	-0,012944067637180778	0,00048296056702724768	0,028336309421528957
1	1	0	0	0	0	2	38893,63	0,100000001	1,38199878	0,00027780665909333363	0,10001039708731622	0,000138214251	-0,012388454563147152	0,00046222989620533011	0,028891922495562586
1	1	0	0	0	0	2	38913,63	0,100000001	1,39280653	0,00027780706022265888	0,10001054149387306	0,000139295342	-0,011832840540818947	0,00044149919000126662	0,02944753651789079
1	1	0	0	0	0	2	38933,63	0,100000001	1,40752876	0,00027780657113260694	0,10001036542145469	0,000140767472	-0,011277227076747014	0,00042076850462649542	0,030003149981962726
1	1	0	0	0	0	2	38953,63	0,100000001	1,42563069	0,00027780715580739907	0,10001057590437946	0,000142578152	-0,010721613167011152	0,00040003780262340365	0,030558763891698592
1	1	0	0	0	0	2	38973,63	0,100000001	1,4464823	0,00027780663619397421	0,10001038884354685	0,000144663252	-0,010165999696294955	0,00037930711700072602	0,031114377362414784
1	1	0	0	0	0	2	38993,63	0,100000001	1,47285235	0,00027780699273861117	0,1000105171996159	0,000147300729	-0,0096103861235890061	0,00035857642757267341	0,031669990935120736
1	1	0	0	0	0	2	39013,63	0,100000001	1,51995957	0,00027780686400168474	0,10001047085432248	0,000152011868	-0,0090547722634698714	0,00033784572742084858	0,032225604795239872
1	1	0	0	0	0	2	39033,63	0,100000001	1,82333946	0,00027780728620539107	0,1000106228476565	0,000182353309	-0,0084991578172864128	0,00031711500540217574	0,032781219241423334
1	1	0	0	0	0	2	39053,63	0,100000001	2,26835275	0,00027780729076762995	0,10001062449006248	0,000226859382	-0,0079435435427312154	0,00029638428978718419	0,033336833515978528
1	1	0	0	0	0	2	39073,63	0,100000001	2,59445548	0,0002778071834279431	0,1000105858477753	0,000259473018	-0,0073879289439623475	0,00027565356207534461	0,033892448114747398
1	1	0	0	0	0	2	39093,63	0,100000001	2,84805489	0,00027780744414486822	0,10001067970586814	0,0002848359	-0,0068323142053771277	0,00025492282914676896	0,034448062853332621
1	1	0	0	0	0	2	39113,63	0,100000001	3,05366898	0,00027780726770601338	0,10001061618788053	0,000305399328	-0,006276699665639625	0,00023419210363746902	0,035003677393070131
1	1	0	0	0	0	2	39133,63	0,100000001	3,22382355	0,00027780756165956461	0,10001072201115875	0,00032241692	-0,0057210849447545005	0,00021346137136930774	0,035559292113955251
1	1	0	0	0	0	2	39153,63	0,100000001	3,35920644	0,00027780707001189395	0,10001054501799766	0,00033595608	-0,0051654705663613914	0,00019273065187998403	0,036114906492348365
1	1	0	0	0	0	2	39173,63	0,100000001	3,46682549	0,0002778076396907369	0,10001075010238075	0,000346719811	-0,0046098555155020563	0,00017199990730004128	0,036670521543207699
1	1	0	0	0	0	2	39193,63	0,100000001	3,55777454	0,00027780825201215018	0,1000109705380891	0,000355816475	-0,0040542392450104109	0,00015126911721397725	0,037226137813699341
1	1	0	0	0	0	2	39213,63	0,100000001	3,63946247	0,00027780736638853949	0,10001065171358986	0,000363985018	-0,003498624272221984	0,00013053837554696509	0,03778175278648777
1	1	0	0	0	0	2	39233,63	0,100000001	3,71952748	0,00027780773357301952	0,10001078390000243	0,00037199285	-0,0029430094746343744	0,00010980764041693094	0,038337367584075386
1	1	0	0	0	0	2	39253,63	0,100000001	3,79735827	0,00027780727190524342	0,10001061769960334	0,000379776146	-0,0023873952595286022	8,9076927020077338E-005	0,038892981799181158
1	1	0	0	0	0	2	39273,63	0,100000001	3,86923146	0,00027780736550109254	0,10001065139410894	0,000386964355	-0,0018317800704100845	6,8346177281498586E-005	0,039448596988299674
1	1	0	0	0	0	2	39293,63	0,100000001	3,93501329	0,00027780738537303277	0,10001065854800744	0,000393543276	-0,0012761653470455722	4,7615444920828019E-005	0,040004211711664186
1	1	0	0	0	0	2	39313,63	0,100000001	3,99588799	0,00027780764950977434	0,10001075363723421	0,000399631768	-0,00072055023316260314	2,6884697989388774E-005	0,040559826825547162
1	1	0	0	0	0	2	39333,63	0,100000001	4,05365038	0,0002778074209474855	0,10001067135481038	0,000405408297	-0,000164935250960368	6,1539559711347507E-006	0,041115441807749389
1	1	0	0	0	0	2	39353,63	0,100000001	4,10944557	0,00027780813090254861	0,10001092693863262	0,000410989451	0,00039068052270090106	-1,4576815577519955E-005	0,041671057581410662
1	1	0	0	0	0	2	39373,63	0,100000001	4,16103983	0,00027780762871437606	0,10001074615089085	0,000416148687	0,00094629600794564211	-3,5307576364966221E-005	0,042226673066655405
1	1	0	0	0	0	2	39391,10	0,100000001	4,20000076	0,00020765546374064352	0,100010658222064	0,000420044846	0,0014317587248649085	-5,3420843044788864E-005	0,042712135783574669