File: Experimentelles/Rohdaten/Batterietests/AlteZelle/Studenten_Batterietests/LLTO_LP30_Li CV/ECLab-Export/LLTO_LP30_Li_05_GCPL_C01_loop9.mpt
EC-Lab ASCII FILE
Nb header lines : 3
mode	ox/red	error	control changes	Ns changes	counter inc.	Ns	time/s	control/V/mA	Ewe/V	dq/mA.h	<I>/mA	P/W	(Q-Qo)/mA.h	x	Capacity/mA.h
1	0	0	1	1	0	1	39391,15	-0,100000001	4,18852472	0	0	0	0	0	0
1	0	0	1	0	0	1	39411,15	-0,100000001	3,45762897	-0,00027773699179995389	-0,09998531686174624	0,00034571212	-0,00055410029652344301	2,0674227059061738E-005	0,00055410029652344301
1	0	0	1	0	0	1	39431,15	-0,100000001	2,82564497	-0,00027773771485976048	-0,099985577163276122	0,000282523746	-0,0011095752880457584	4,139974583682848E-005	0,0011095752880457584
1	0	0	1	0	0	1	39451,15	-0,100000001	2,24771833	-0,00027773783558524317	-0,099985620624449805	0,000224739517	-0,0016650508417036182	6,2125285588628186E-005	0,0016650508417036182
1	0	0	1	0	0	1	39471,15	-0,100000001	1,84439576	-0,00027773790503583021	-0,099985645626661094	0,000184413104	-0,0022205266917873798	8,2850836400476851E-005	0,0022205266917873798
1	0	0	1	0	0	1	39491,15	-0,100000001	1,5851177	-0,00027773712734878061	-0,099985365659323763	0,000158488576	-0,0027760014837968061	0,00010357634773414946	0,0027760014837968061
1	0	0	1	0	0	1	39511,15	-0,100000001	1,48313189	-0,00027773785194464858	-0,09998562651383575	0,000148291874	-0,0033314768152762829	0,00012430187919617499	0,0033314768152762829
1	0	0	1	0	0	1	39531,15	-0,100000001	1,44719529	-0,00027773828134313226	-0,099985781097289574	0,000144698948	-0,0038869530099431891	0,00014502744286488403	0,0038869530099431891
1	0	0	1	0	0	1	39551,15	-0,100000001	1,42328846	-0,00027773820142779088	-0,099985752327766733	0,000142308563	-0,0044424295462357715	0,0001657530192801064	0,0044424295462357715
1	0	0	1	0	0	1	39571,15	-0,100000001	1,4037925	-0,00027773797691158122	-0,099985671501931418	0,00014035913	-0,0049979057378094438	0,00018647858283340278	0,0049979057378094438
1	0	0	1	0	0	1	39591,15	-0,100000001	1,38628244	-0,00027773774287601312	-0,099985587249127053	0,000138608259	-0,0055533813164048109	0,0002072041235156544	0,0055533813164048109
1	0	0	1	0	0	1	39611,15	-0,100000001	1,36995637	-0,00027773843391943309	-0,099985836024757773	0,000136976232	-0,0061088579616724826	0,00022792970399688387	0,0061088579616724826
1	0	0	1	0	0	1	39631,15	-0,100000001	1,35420299	-0,00027773829187204442	-0,099985784887697946	0,000135401046	-0,0066643347201645581	0,00024865528870266813	0,0066643347201645581
1	0	0	1	0	0	1	39651,15	-0,100000001	1,33915627	-0,00027773806621424029	-0,099985703650888614	0,000133896479	-0,0072198110631584499	0,00026938085790565645	0,0072198110631584499
1	0	0	1	0	0	1	39671,15	-0,100000001	1,32475865	-0,00027773793259594179	-0,099985655548301248	0,000132456858	-0,0077752871689246144	0,0002901064182573593	0,0077752871689246144
1	0	0	1	0	0	1	39691,15	-0,100000001	1,3174262	-0,00027773788987596829	-0,09998564016911081	0,000131723704	-0,0083307631422397376	0,00031083197366713568	0,0083307631422397376
1	0	0	1	0	0	1	39711,15	-0,100000001	1,31303442	-0,00027773814837055075	-0,09998573322716032	0,000131284702	-0,0088862395618144218	0,00033155754572745638	0,0088862395618144218
1	0	0	1	0	0	1	39731,15	-0,100000001	1,30709589	-0,00027773825833242803	-0,09998577281343607	0,000130690998	-0,0094417160484985549	0,0003522831202917209	0,0094417160484985549
1	0	0	1	0	0	1	39751,15	-0,100000001	1,29884696	-0,00027773844660197696	-0,099985840590473549	0,000129866312	-0,0099971928518509914	0,00037300870667130541	0,0099971928518509914
1	0	0	1	0	0	1	39771,15	-0,100000001	1,28830647	-0,00027773835104786685	-0,099985806190993997	0,00012881236	-0,010552669415579923	0,00039373428411021491	0,010552669415579923
1	0	0	1	0	0	1	39791,15	-0,100000001	1,27633405	-0,0002777380361105833	-0,099985692813572122	0,000127615145	-0,011108145212686333	0,0004144598329454073	0,011108145212686333
1	0	0	1	0	0	1	39811,15	-0,100000001	1,2634449	-0,00027773792545952733	-0,099985652979192051	0,000126326369	-0,011663620755943181	0,00043518537230913133	0,011663620755943181
1	0	0	1	0	0	1	39831,15	-0,100000001	1,25028861	-0,00027773766909705267	-0,09998556068870135	0,000125010803	-0,012219096018402134	0,00045591090119590829	0,012219096018402134
1	0	0	1	0	0	1	39851,15	-0,100000001	1,23690307	-0,0002777378679191073	-0,099985632264640883	0,000123672537	-0,0127745713928578	0,00047663643426143322	0,0127745713928578
1	0	0	1	0	0	1	39871,15	-0,100000001	1,223212	-0,00027773813311507302	-0,099985727735188365	0,00012230374	-0,013330047775794667	0,00049736200495474765	0,013330047775794667
1	0	0	1	0	0	1	39891,15	-0,100000001	1,2093873	-0,00027773819869549738	-0,099985751344141069	0,000120921497	-0,01388552411450199	0,0005180875739977984	0,01388552411450199
1	0	0	1	0	0	1	39911,15	-0,100000001	1,1953907	-0,00027773806319385766	-0,099985702563550886	0,000119521981	-0,014441000223330346	0,00053881313446375565	0,014441000223330346
1	0	0	1	0	0	1	39931,15	-0,100000001	1,18084037	-0,00027773733828134006	-0,099985441595045018	0,000118066848	-0,014996475202988026	0,00055953865279883686	0,014996475202988026
1	0	0	1	0	0	1	39951,15	-0,100000001	1,16581273	-0,00027773736933163472	-0,099985452773151078	0,000116564312	-0,015551950220627107	0,00058026417255105536	0,015551950220627107
1	0	0	1	0	0	1	39971,15	-0,100000001	1,15026939	-0,00027773764414795568	-0,099985551707026445	0,00011501032	-0,016107425651266365	0,00060098970771286566	0,016107425651266365
1	0	0	1	0	0	1	39991,15	-0,100000001	1,13403881	-0,00027773797270614237	-0,099985669987973427	0,000113387629	-0,016662901561368691	0,00062171526076408768	0,016662901561368691
1	0	0	1	0	0	1	40011,15	-0,100000001	1,11717796	-0,00027773765626880858	-0,099985556070533491	0,000111701658	-0,017218377161406003	0,00064244080224636698	0,017218377161406003
1	0	0	1	0	0	1	40031,15	-0,100000001	1,09924781	-0,00027773809094147546	-0,099985712552693261	0,000109909073	-0,017773853108364285	0,00066316635667273434	0,017773853108364285
1	0	0	1	0	0	1	40051,15	-0,100000001	1,08057308	-0,00027773819523553056	-0,099985750098553037	0,00010804191	-0,018329329637378483	0,00068389193281639027	0,018329329637378483
1	0	0	1	0	0	1	40071,15	-0,100000001	1,06082892	-0,00027773814087361098	-0,099985730528262016	0,000106067753	-0,018884805897978474	0,00070461749894515136	0,018884805897978474
1	0	0	1	0	0	1	40091,15	-0,100000001	1,04056919	-0,00027773874603004918	-0,099985948384579354	0,000104042294	-0,019440283001230026	0,0007253430965143753	0,019440283001230026
1	0	0	1	0	0	1	40111,15	-0,100000001	1,02029037	-0,00027773850027968483	-0,099985859914448358	0,000102014608	-0,019995760025401526	0,00074606869113301606	0,019995760025401526
1	0	0	1	0	0	1	40131,15	-0,100000001	1,00125277	-0,00027773820455662074	-0,099985753454145498	0,000100111014	-0,020551236585093901	0,0007667942684213161	0,020551236585093901
1	0	0	1	0	0	1	40151,15	-0,100000001	0,984850228	-0,00027773974849407872	-0,099986309271629325	9,84715371E-005	-0,021106715636397021	0,00078751993867496307	0,021106715636397021
1	0	0	1	0	0	1	40171,15	-0,100000001	0,97201848	-0,00027773991313245558	-0,09998636854144489	9,71885966E-005	-0,021662195380736586	0,00080824563478673178	0,021662195380736586
1	0	0	1	0	0	1	40191,15	-0,100000001	0,962165475	-0,00027773974740339648	-0,099986308878983718	9,62033737E-005	-0,022217674894285728	0,0008289713222873993	0,022217674894285728
1	0	0	1	0	0	1	40211,15	-0,100000001	0,954508424	-0,00027773983456484144	-0,099986340257103846	9,54378047E-005	-0,022773154557657766	0,00084969701537816064	0,022773154557657766
1	0	0	1	0	0	1	40231,15	-0,100000001	0,948512614	-0,00027773991340357395	-0,099986368639047501	9,48383313E-005	-0,02332863426914152	0,00087042271026403456	0,02332863426914152
1	0	0	1	0	0	1	40251,15	-0,100000001	0,943643451	-0,00027773963908106086	-0,099986269882942963	9,43513878E-005	-0,023884113790003408	0,00089114839803755059	0,023884113790003408
1	0	0	1	0	0	1	40271,15	-0,100000001	0,939518929	-0,00027773996437423757	-0,099986386988486374	9,3939103E-005	-0,02443959340852047	0,00091187408945471232	0,02443959340852047
1	0	0	1	0	0	1	40291,15	-0,100000001	0,936196387	-0,00027773931334498858	-0,099986152617957171	9,36066717E-005	-0,024995072097631827	0,00093259974619449766	0,024995072097631827
1	0	0	1	0	0	1	40311,15	-0,100000001	0,932854772	-0,0002777400246295664	-0,099986408680404698	9,32727999E-005	-0,025550551756685014	0,00095332543912411686	0,025550551756685014
1	0	0	1	0	0	1	40331,15	-0,100000001	0,929551363	-0,00027773978304614621	-0,099986321710373594	9,29424205E-005	-0,026106031501604902	0,00097405113525753805	0,026106031501604902
1	0	0	1	0	0	1	40351,15	-0,100000001	0,926133394	-0,0002777398907277319	-0,099986360475744371	9,26007051E-005	-0,026661511095485376	0,00099477682575547571	0,026661511095485376
1	0	0	1	0	0	1	40371,15	-0,100000001	0,922390819	-0,00027773994967548387	-0,09998638169693504	9,22265172E-005	-0,027216990630122557	0,0010155025140429664	0,027216990630122557
1	0	0	1	0	0	1	40391,15	-0,100000001	0,918495417	-0,0002777397728454736	-0,099986318038131456	9,18369769E-005	-0,027772470656148301	0,0010362282206648248	0,027772470656148301
1	0	0	1	0	0	1	40411,15	-0,100000001	0,914561868	-0,00027773956488031482	-0,099986243170674445	9,14436023E-005	-0,028327949941724992	0,0010569538996595338	0,028327949941724992
1	0	0	1	0	0	1	40431,15	-0,100000001	0,910284638	-0,00027773995810954109	-0,099986384733195635	9,1016067E-005	-0,028883429885041837	0,0010776796031954122	0,028883429885041837
1	0	0	1	0	0	1	40451,15	-0,100000001	0,905816436	-0,00027773967428464026	-0,099986282556231539	9,05692214E-005	-0,029438909209230752	0,001098405283630795	0,029438909209230752
1	0	0	1	0	0	1	40471,15	-0,100000001	0,90138638	-0,0002777396226748824	-0,09998626397671872	9,01262538E-005	-0,029994388562094048	0,0011191309651360578	0,029994388562094048
1	0	0	1	0	0	1	40491,15	-0,100000001	0,896746337	-0,00027774017457498442	-0,099986462660755085	8,96624915E-005	-0,030549868711065958	0,0011398566763452032	0,030549868711065958
1	0	0	1	0	0	1	40511,15	-0,100000001	0,892010808	-0,00027773971130160822	-0,099986295882339968	8,91888558E-005	-0,031105348404937357	0,0011605823705739366	0,031105348404937357
1	0	0	1	0	0	1	40531,15	-0,100000001	0,887332559	-0,00027773963505940307	-0,099986268435146163	8,87210699E-005	-0,031660827646879309	0,0011813080479405747	0,031660827646879309
1	0	0	1	0	0	1	40551,15	-0,100000001	0,882616103	-0,0002777396990466449	-0,09998629147055319	8,82495078E-005	-0,032216306862202406	0,0012020337243140278	0,032216306862202406
1	0	0	1	0	0	1	40571,15	-0,100000001	0,877842367	-0,00027774019503386486	-0,099986470025952038	8,77723578E-005	-0,03277178714043568	0,0012227594403460882	0,03277178714043568
1	0	0	1	0	0	1	40591,15	-0,100000001	0,873106837	-0,00027773991972953082	-0,099986370916391949	8,72987875E-005	-0,033327267195185888	0,0012434851480396954	0,033327267195185888
1	0	0	1	0	0	1	40611,15	-0,100000001	0,868027568	-0,00027774024538985558	-0,099986488154108672	8,67910276E-005	-0,033882747534556966	0,0012642108663528896	0,033882747534556966
1	0	0	1	0	0	1	40631,15	-0,100000001	0,863062918	-0,00027773996025861962	-0,09998638550686391	8,62945381E-005	-0,034438227505753888	0,0012849365709290112	0,034438227505753888
1	0	0	1	0	0	1	40651,15	-0,100000001	0,858021855	-0,00027773975029629139	-0,099986309920425882	8,57904379E-005	-0,034993706753409606	0,0013056622485088376	0,034993706753409606
1	0	0	1	0	0	1	40671,15	-0,100000001	0,852904439	-0,00027773966218406957	-0,099986278200026074	8,52787416E-005	-0,035549186328896666	0,001326387938320492	0,035549186328896666
1	0	0	1	0	0	1	40691,15	-0,100000001	0,847863376	-0,00027773965142543117	-0,099986274326916275	8,47746996E-005	-0,036104665693204058	0,0013471136202527493	0,036104665693204058
1	0	0	1	0	0	1	40711,15	-0,100000001	0,84280324	-0,00027773983099973862	-0,099986338973666854	8,42688096E-005	-0,036660145349699629	0,0013678393130869405	0,036660145349699629
1	0	0	1	0	0	1	40731,15	-0,100000001	0,837685764	-0,0002777394644026127	-0,09998620699870176	8,37570187E-005	-0,037215624407308832	0,0013885649835758762	0,037215624407308832
1	0	0	1	0	0	1	40751,15	-0,100000001	0,832301021	-0,00027773962466046214	-0,099986264691527437	8,32186706E-005	-0,037771103600168019	0,0014092906591111701	0,037771103600168019
1	0	0	1	0	0	1	40771,15	-0,100000001	0,827164471	-0,00027773983144304819	-0,099986339133258291	8,27051481E-005	-0,038326582829039994	0,0014300163359901499	0,038326582829039994
1	0	0	1	0	0	1	40791,15	-0,100000001	0,821913421	-0,00027773955531708067	-0,099986239727910157	8,2180035E-005	-0,038882061801336333	0,0014507420032959475	0,038882061801336333
1	0	0	1	0	0	1	40811,15	-0,100000001	0,816624105	-0,00027773900736123318	-0,09998604246380544	8,16510146E-005	-0,039437540373434253	0,0014714676556698045	0,039437540373434253
1	0	0	1	0	0	1	40831,15	-0,100000001	0,811372995	-0,00027773929519744384	-0,099986146084841075	8,11260616E-005	-0,039993019217160883	0,0014921933181784934	0,039993019217160883
1	0	0	1	0	0	1	40851,15	-0,100000001	0,806083739	-0,00027773911505937574	-0,099986081235136678	8,05971576E-005	-0,040548497410304474	0,0015129189564130544	0,040548497410304474
1	0	0	1	0	0	1	40871,15	-0,100000001	0,800737143	-0,0002777396110912992	-0,099986259806628787	8,00627095E-005	-0,041103976399141101	0,0015336446243359926	0,041103976399141101
1	1	0	0	1	0	2	40873,57	0,100000001	0,81164211	5,488672604163488E-009	0,032932034060793242	2,67290252E-005	-0,041170989456856051	0,0015361449716193517	5,488672604163488E-009
1	1	0	0	0	0	2	40893,57	0,100000001	0,83850044	0,00027780725762868925	0,10001061256004384	8,38589403E-005	-0,040615375525245286	0,0015154142688000781	0,00055561942028337062
1	1	0	0	0	0	2	40913,57	0,100000001	0,848009706	0,00027780738241556614	0,10001065748331946	8,48100099E-005	-0,040059760756340755	0,001494683534740248	0,0011112341891879011
1	1	0	0	0	0	2	40933,57	0,100000001	0,856335104	0,0002778075161050591	0,10001070561153683	8,56426777E-005	-0,039504145673447648	0,0014739527889650822	0,0016668492720810077
1	1	0	0	0	0	2	40953,57	0,100000001	0,864450455	0,00027780761019388835	0,1000107394835153	8,64543326E-005	-0,038948530344926285	0,0014532220340251962	0,0022224646006023722
1	1	0	0	0	0	2	40973,57	0,100000001	0,871992946	0,00027780789986418352	0,10001084376482134	8,72087476E-005	-0,038392914743808461	0,0014324912689143693	0,0027780802017201984
1	1	0	0	0	0	2	40993,57	0,100000001	0,879478157	0,00027780774272854131	0,10001078719599026	8,79573054E-005	-0,037837299133156371	0,0014117605034478062	0,0033336958123722835
1	1	0	0	0	0	2	41013,57	0,100000001	0,886638701	0,00027780715272492829	0,10001057479468997	8,8673245E-005	-0,037281684568316627	0,0013910297770019077	0,0038893103772120339
1	1	0	0	0	0	2	41033,57	0,100000001	0,893761098	0,00027780765692682733	0,10001075630737328	8,93857214E-005	-0,03672606985812887	0,0013702990451328798	0,0044449250873997805
1	1	0	0	0	0	2	41053,57	0,100000001	0,900673509	0,00027780764485688678	0,10001075196219469	9,00770319E-005	-0,036170454261293888	0,0013495682801818514	0,0050005406842347654
1	1	0	0	0	0	2	41073,57	0,100000001	0,907261252	0,00027780794448612464	0,10001085982872013	9,0735979E-005	-0,035614838329923693	0,001328837502748865	0,0055561566156049574
1	1	0	0	0	0	2	41093,57	0,100000001	0,914020836	0,00027780798217447264	0,10001087339652538	9,14120246E-005	-0,035059222408388269	0,0013081067256828266	0,0061117725371403827
1	1	0	0	0	0	2	41113,57	0,100000001	0,920570374	0,000277807792486416	0,10001080510882512	9,20669845E-005	-0,034503606788212691	0,001287375959860929	0,0066673881573159667
1	1	0	0	0	0	2	41133,57	0,100000001	0,926967144	0,00027780768768241008	0,10001076737938306	9,2706694E-005	-0,03394799133715328	0,0012666452003489838	0,0072230036083753741
1	1	0	0	0	0	2	41153,57	0,100000001	0,933325768	0,00027780762831121683	0,10001074600575354	9,33426054E-005	-0,033392375821069344	0,0012459144384108856	0,0077786191244593101
1	1	0	0	0	0	2	41173,57	0,100000001	0,939397931	0,00027780770456873709	0,10001077345846077	9,3949915E-005	-0,03283676021691831	0,0012251836731868854	0,0083342347286103488
1	1	0	0	0	0	2	41193,57	0,100000001	0,945641994	0,00027780737565250858	0,10001065504861872	9,45742722E-005	-0,03228114538115641	0,0012044529366325174	0,0088898495643722509
1	1	0	0	0	0	2	41213,57	0,100000001	0,951790571	0,00027780767025674387	0,10001076110614322	9,51893016E-005	-0,031725529654871731	0,0011837221668515469	0,0094454652906569331
1	1	0	0	0	0	2	41233,57	0,100000001	0,957576275	0,00027780793565760058	0,10001085665045147	9,5768024E-005	-0,031169913711184486	0,0011629913889589942	0,010001081234344178
1	1	0	0	0	0	2	41253,57	0,100000001	0,963400245	0,0002778082725658185	0,1000109779374097	9,63506027E-005	-0,030614297327994112	0,0011422605946679893	0,010556697617534549
1	1	0	0	0	0	2	41273,57	0,100000001	0,968746841	0,00027780802102676698	0,1000108873833513	9,68852328E-005	-0,030058681176408768	0,0011215298090184792	0,011112313769119894
1	1	0	0	0	0	2	41293,57	0,100000001	0,974207938	0,00027780798118892643	0,10001087304172874	9,7431388E-005	-0,029503065218031462	0,0011007990305778208	0,0116679297274972
1	1	0	0	0	0	2	41313,57	0,100000001	0,980967581	0,00027780729522556067	0,10001062609491754	9,81071789E-005	-0,028947449905367827	0,0010800682762296078	0,012223545040160832
1	1	0	0	0	0	2	41333,57	0,100000001	0,989770293	0,00027780781659566694	0,10001081378815542	9,89877299E-005	-0,028391834340406429	0,0010593375124678258	0,012779160605122232
1	1	0	0	0	0	2	41353,57	0,100000001	1,00353777	0,00027780780284023946	0,10001080883620157	0,000100364625	-0,027836218506597862	0,0010386067386749946	0,013334776438930798
1	1	0	0	0	0	2	41373,57	0,100000001	1,0231483	0,00027780779091724093	0,1000108045439221	0,000102325881	-0,027280603025948064	0,0010178759780589917	0,0138903919195806
1	1	0	0	0	0	2	41393,57	0,100000001	1,04457271	0,0002778075332608488	0,10001071178762109	0,000104468461	-0,026724987599365469	0,00099714521946030912	0,014446007346163194
1	1	0	0	0	0	2	41413,57	0,100000001	1,06511879	0,00027780730658645427	0,10001063018483923	0,000106523199	-0,026169372897498365	0,00097641448790173555	0,015001622048030298
1	1	0	0	0	0	2	41433,57	0,100000001	1,08434737	0,00027780734677405824	0,10001064465237661	0,000108446278	-0,025613758190811149	0,00095568375616331738	0,01555723675471751
1	1	0	0	0	0	2	41453,57	0,100000001	1,10239208	0,00027780730152626829	0,10001062836317227	0,000110250927	-0,025058143707610307	0,00093495303276347635	0,016112851237918352
1	1	0	0	0	0	2	41473,57	0,100000001	1,11927199	0,00027780710083618758	0,10001055611474336	0,000111939014	-0,024502529431577827	0,00091422231709336538	0,016668465513950835
1	1	0	0	0	0	2	41493,57	0,100000001	1,13531172	0,00027780731532184614	0,1000106333295803	0,000113543247	-0,023946914935897261	0,0008934915932278889	0,017224080009631398
1	1	0	0	0	0	2	41513,57	0,100000001	1,1506449	0,00027780731473531987	0,10001063311843083	0,000115076728	-0,023391300067663248	0,00087276085546194253	0,017779694877865414
1	1	0	0	0	0	2	41533,57	0,100000001	1,1653862	0,00027780736854755216	0,10001065249083442	0,000116551033	-0,022835685289551869	0,00085203012105859277	0,01833530965597679
1	1	0	0	0	0	2	41553,57	0,100000001	1,17978382	0,00027780694965066182	0,10001050168795418	0,00011799077	-0,022280071309699421	0,00083129941643935693	0,018890923635829242
1	1	0	0	0	0	2	41573,57	0,100000001	1,19408584	0,00027780700746551158	0,10001052250130005	0,000119421151	-0,021724457167755037	0,00081056870577225318	0,019446537777773622
1	1	0	0	0	0	2	41593,57	0,100000001	1,208197	0,00027780733007151219	0,10001063863946006	0,000120832556	-0,021168842609145213	0,00078983797955880141	0,020002152336383446
1	1	0	0	0	0	2	41613,57	0,100000001	1,22265184	0,00027780727814924384	0,10001061994744349	0,000122278172	-0,020613227981881603	0,0007691072507837847	0,020557766963647059
1	1	0	0	0	0	2	41633,57	0,100000001	1,23695385	0,00027780762579374838	0,1000107450994649	0,000123708684	-0,020057613051759754	0,00074837651070871987	0,021113381893768906
1	1	0	0	0	0	2	41653,57	0,100000001	1,25159967	0,00027780722615412541	0,10001060122920088	0,000125173232	-0,01950199859885256	0,00072764578843917555	0,021668996346676099
1	1	0	0	0	0	2	41673,57	0,100000001	1,26630282	0,00027780671801335277	0,10001041829852309	0,00012664347	-0,018946385163852797	0,00070691510414912602	0,022224609781675866
1	1	0	0	0	0	2	41693,57	0,100000001	1,28110135	0,00027780688806043728	0,10001047951547338	0,00012812356	-0,018390771464675309	0,00068618441000225037	0,022780223480853354
1	1	0	0	0	0	2	41713,57	0,100000001	1,29609084	0,00027780706591655811	0,10001054354367677	0,000129622757	-0,017835157298767789	0,00066545369844104973	0,023335837646760874
1	1	0	0	0	0	2	41733,57	0,100000001	1,31127131	0,0002778071841179497	0,10001058609617766	0,000131141016	-0,017279543368905011	0,00064472299568699571	0,023891451576623648
1	1	0	0	0	0	2	41753,57	0,100000001	1,32648993	0,00027780658454696336	0,10001037025062298	0,000132662753	-0,016723929741896742	0,00062399230423285069	0,024447065203631917
1	1	0	0	0	0	2	41773,57	0,100000001	1,34170854	0,00027780713037194477	0,10001056674761592	0,000134185029	-0,0161683157213604	0,00060326159809564403	0,025002679224168259
1	1	0	0	0	0	2	41793,57	0,100000001	1,35725188	0,00027780691949816214	0,1000104908330543	0,000135739421	-0,015612701866631347	0,0005825308981449303	0,025558293078897315
1	1	0	0	0	0	2	41813,57	0,100000001	1,37193584	0,00027780756395682698	0,10001072283817322	0,000137208292	-0,015057087238680211	0,00056180016934426118	0,026113907706848451
1	1	0	0	0	0	2	41833,57	0,100000001	1,37334883	0,00027780760019065606	0,10001073588235166	0,000137349634	-0,014501472179529622	0,00054106942445496058	0,02666952276599904
1	1	0	0	0	0	2	41853,57	0,100000001	1,37031269	0,00027780684090736838	0,10001046254036861	0,000137045601	-0,013945858237193746	0,0005203387212355184	0,027225136708334918
1	1	0	0	0	0	2	41873,57	0,100000001	1,37121022	0,00027780685469632349	0,10001046750439243	0,000137135372	-0,01339024444578883	0,00049960802364751354	0,02778075049973983
1	1	0	0	0	0	2	41893,57	0,100000001	1,37510562	0,00027780663923298323	0,1000103899375901	0,000137524854	-0,012834630893863792	0,0004788773349948247	0,02833636405166487
1	1	0	0	0	0	2	41913,57	0,100000001	1,38196063	0,00027780648175047504	0,10001033324388723	0,000138210336	-0,012279017758254016	0,00045814666187541811	0,02889197718727465
1	1	0	0	0	0	2	41933,57	0,100000001	1,39248192	0,00027780622367892003	0,10001024033812763	0,000139262454	-0,011723404974313301	0,00043741600187725702	0,029447589971215366
1	1	0	0	0	0	2	41953,57	0,100000001	1,40708959	0,00027780638247728349	0,10001029750553835	0,000140723452	-0,011167792328825898	0,0004166853470449751	0,030003202616702771
1	1	0	0	0	0	2	41973,57	0,100000001	1,42511511	0,00027780648763270842	0,10001033536149126	0,000142526245	-0,010612180008405669	0,0003959547043413865	0,030558814937123002
1	1	0	0	0	0	2	41993,57	0,100000001	1,44598591	0,00027780657063259018	0,10001036524144866	0,000144613572	-0,010056567126484438	0,00037522404068744064	0,031114427819044237
1	1	0	0	0	0	2	42013,57	0,100000001	1,47197402	0,00027780627513221565	0,10001025886131402	0,0001472125	-0,0095009543030639232	0,00035449337921623514	0,031670040642464749
1	1	0	0	0	0	2	42033,57	0,100000001	1,51784003	0,0002778063989633487	0,10001030344052182	0,000151799642	-0,0089453415440851366	0,00033376272014943706	0,032225653401443539
1	1	0	0	0	0	2	42053,57	0,100000001	1,80924737	0,0002778061647568312	0,1000102191261757	0,000180943229	-0,0083897288870985882	0,00031303206488810656	0,032781266058430086
1	1	0	0	0	0	2	42073,57	0,100000001	2,25819421	0,00027780714209833082	0,10001057096911488	0,000225843294	-0,0078341149526930266	0,00029230136196455526	0,033336879992835648
1	1	0	0	0	0	2	42093,57	0,100000001	2,58792496	0,00027780690784090093	0,10001048663644029	0,000258819637	-0,0072785013108320282	0,00027157066995623485	0,033892493634696646
1	1	0	0	0	0	2	42113,57	0,100000001	2,84446502	0,00027780684409952826	0,10001046368954616	0,000284476264	-0,0067228877793741466	0,00025083998206720326	0,034448107166154528
1	1	0	0	0	0	2	42133,57	0,100000001	3,05252314	0,00027780706614380086	0,10001054362548414	0,000305284484	-0,0061672738941564902	0,00023010928097891875	0,035003721051372186
1	1	0	0	0	0	2	42153,57	0,100000001	3,22537041	0,00027780693137521546	0,1000104951087935	0,000322570879	-0,0056116600360593613	0,00020937858090253763	0,035559334909469318
1	1	0	0	0	0	2	42173,57	0,100000001	3,36327362	0,00027780736648581091	0,10001065174860758	0,000336363184	-0,0050560458401582886	0,00018864786822223718	0,036114949105370394
1	1	0	0	0	0	2	42193,57	0,100000001	3,47381425	0,00027780731171576515	0,10001063203139114	0,000347418361	-0,0045004311405917587	0,00016791713674950131	0,036670563804936922
1	1	0	0	0	0	2	42213,57	0,100000001	3,56749368	0,0002778070629454321	0,10001054247407141	0,000356786972	-0,0039448173554718246	0,00014718643939599741	0,037226177590056851
1	1	0	0	0	0	2	42233,57	0,100000001	3,65254235	0,00027780729700376592	0,10001062673507141	0,000365293061	-0,0033892028418647501	0,00012645571486165886	0,037781792103663923
1	1	0	0	0	0	2	42253,57	0,100000001	3,73602533	0,00027780714010240307	0,1000105702505809	0,000373642019	-0,0028335888252561046	0,00010572500887099995	0,03833740612027257
1	1	0	0	0	0	2	42273,57	0,100000001	3,81565118	0,00027780713510306349	0,10001056845081866	0,000381605438	-0,0022779744138606474	8,4994288150314266E-005	0,038893020531668032
1	1	0	0	0	0	2	42293,57	0,100000001	3,88836455	0,00027780687674590278	0,10001047544224099	0,000388877175	-0,0017223605089134397	6,4263586325893696E-005	0,039448634436615238
1	1	0	0	0	0	2	42313,57	0,100000001	3,9548912	0,00027780750941733523	0,10001070320395622	0,000395531446	-0,0011667456427958032	4,3532848638912128E-005	0,04000424930273287
1	1	0	0	0	0	2	42333,57	0,100000001	4,01639605	0,00027780739182026848	0,10001066086901227	0,000401682424	-0,00061113107925328141	2,2802122241414902E-005	0,040559863866275392
1	1	0	0	0	0	2	42353,57	0,100000001	4,07503653	0,0002778070830119153	0,10001054969800534	0,000407546642	-5,5516692227017869E-005	2,071402429976601E-006	0,041115478253301651
1	1	0	0	0	0	2	42373,57	0,100000001	4,13085079	0,00027780699297785763	0,10001051728574462	0,000413128524	0,00050009761663727437	-1,8659314465133459E-005	0,041671092562165946
1	1	0	0	0	0	2	42393,57	0,100000001	4,18047857	0,00027780777379994586	0,1000107983816959	0,000418092997	0,001055712990425469	-3,9390071093986125E-005	0,042226707935954144
1	1	0	0	0	0	2	42402,69	0,100000001	4,1999054	0,00025327737902932698	0,10001081088173776	0,00042003594	0,0013089903694547958	-4,8840190640628173E-005	0,042479985314983469