File: Experimentelles/Rohdaten/Batterietests/AlteZelle/Studenten_Batterietests/LLTO_LP30_Li CV/ECLab-Export/LLTO_LP30_Li_02_CV_C01_loop5.mpt
EC-Lab ASCII FILE
Nb header lines : 3
mode	ox/red	error	control changes	counter inc.	time/s	control/V	Ewe/V	<I>/mA	cycle number	(Q-Qo)/C	P/W
2	0	0	1	0	4080,59	2,11093283	2,11141348	-0,048592485487461088	6	0	0,000102598831
2	0	0	0	0	4081,82	2,09863114	2,09914279	-0,043336850794730816	6	-5,39001849E-005	9,09702358E-005
2	0	0	0	0	4083,07	2,08613014	2,08670235	-0,043760028037164973	6	-0,000108564513	9,13141557E-005
2	0	0	1	0	4084,32	2,07362938	2,07402134	-0,044262735881299475	6	-0,000163951307	9,18018559E-005
2	0	0	1	0	4085,57	2,06112838	2,06138062	-0,044809523591538778	6	-0,000219987851	9,23694824E-005
2	0	0	0	0	4086,82	2,04862738	2,04908061	-0,045333795230059635	6	-0,000276663137	9,2892602E-005
2	0	0	0	0	4088,07	2,03612638	2,03653979	-0,045875160954892749	6	-0,000333950797	9,34265918E-005
2	0	0	1	0	4089,32	2,02362537	2,02408934	-0,046378076328740717	6	-0,000391877926	9,3873372E-005
2	0	0	1	0	4090,57	2,01112437	2,01165891	-0,046781360249345485	6	-0,000450425578	9,4108138E-005
2	0	0	0	0	4091,82	1,99862361	1,99905801	-0,047350774451236698	6	-0,000509623263	9,46569417E-005
2	0	0	0	0	4093,07	1,98612261	1,9865073	-0,047850401557904544	6	-0,000569439959	9,50551694E-005
2	0	0	1	0	4094,32	1,97362173	1,97391653	-0,04847982438514009	6	-0,000629937393	9,56951262E-005
2	0	0	1	0	4095,57	1,96112072	1,96160626	-0,049014571025812416	6	-0,000691093737	9,61472906E-005
2	0	0	0	0	4096,82	1,94861972	1,94928646	-0,049467253207694739	6	-0,000752961147	9,64258434E-005
2	0	0	0	0	4098,07	1,93611896	1,93670559	-0,04997373203514144	6	-0,000815478794	9,67844026E-005
2	0	0	0	0	4099,32	1,92361712	1,92397261	-0,050579083200581242	6	-0,000878708554	9,7312768E-005
2	0	0	1	0	4100,57	1,91111708	1,91150391	-0,051131575368344781	6	-0,000942629937	9,77382078E-005
2	0	0	1	0	4101,82	1,89861608	1,89911366	-0,051886619301512838	6	-0,00100726727	9,8538585E-005
2	0	0	0	0	4103,07	1,88611519	1,88661301	-0,052344451813648051	6	-0,00107268151	9,87537205E-005
2	0	0	0	0	4104,32	1,87361419	1,87416255	-0,052938779059331866	6	-0,00113882474	9,92158748E-005
2	0	0	1	0	4105,57	1,86111331	1,86157167	-0,053660335387879507	6	-0,00120583049	9,98925607E-005
2	0	0	1	0	4106,82	1,84861231	1,84887064	-0,054417337368552864	6	-0,00127367745	0,000100610618
2	0	0	0	0	4108,07	1,83611131	1,83648038	-0,05523316581578304	6	-0,00134247157	0,000101434627
2	0	0	0	0	4109,32	1,82361042	1,82398975	-0,055962114187423142	6	-0,00141221751	0,000102074322
2	0	0	1	0	4110,57	1,81110942	1,81138885	-0,056713898937838848	6	-0,00148300978	0,000102730926
2	0	0	1	0	4111,82	1,79860842	1,79896855	-0,057648892786043405	6	-0,00155488076	0,000103708546
2	0	0	0	0	4113,07	1,78610754	1,78667855	-0,058639490414255757	6	-0,00162794185	0,000104769919
2	0	0	0	0	4114,32	1,77360654	1,77414787	-0,05969644528037577	6	-0,00170220935	0,000105910323
2	0	0	1	0	4115,57	1,76110566	1,76168728	-0,060845812006543155	6	-0,00177787722	0,000107191292
2	0	0	1	0	4116,82	1,74860466	1,74909639	-0,061981038171021901	6	-0,00185500365	0,000108410808
2	0	0	0	0	4118,07	1,73610365	1,73645556	-0,063351198739837632	6	-0,00193376967	0,000110006542
2	0	0	0	0	4119,32	1,72360277	1,72421551	-0,064774647180456666	6	-0,00201426004	0,000111685455
2	0	0	1	0	4120,57	1,71110177	1,71139419	-0,066373003433303206	6	-0,00209665135	0,000113590373
2	0	0	1	0	4121,82	1,69860077	1,69890368	-0,068080149998423014	6	-0,00218100823	0,00011566162
2	0	0	0	0	4123,07	1,68609989	1,68656349	-0,069614848354831565	6	-0,00226746709	0,000117409865
2	0	0	0	0	4124,32	1,67359889	1,67407298	-0,071269280005556877	6	-0,0023560496	0,000119309974
2	0	0	1	0	4125,57	1,661098	1,66117132	-0,072933336118391475	6	-0,00244675414	0,000121154764
2	0	0	1	0	4126,82	1,648597	1,64887118	-0,074711708895241254	6	-0,00253957557	0,000123189981
2	0	0	1	0	4128,07	1,636096	1,6365211	-0,07664569692375767	6	-0,00263469014	0,0001254323
2	0	0	0	0	4129,32	1,62359512	1,62434125	-0,07873581898941984	6	-0,00273226458	0,000127893843
2	0	0	0	0	4130,57	1,61109412	1,61154985	-0,081203892555398502	6	-0,00283262972	0,000130864122
2	0	0	1	0	4131,82	1,59859312	1,59912944	-0,083967109210788979	6	-0,00293616648	0,000134274276
2	0	0	1	0	4133,07	1,58609223	1,58652878	-0,087244411367767731	6	-0,00304341572	0,000138415766
2	0	0	0	0	4134,32	1,57359123	1,57386768	-0,091174700743674061	6	-0,00315508852	0,000143496916
2	0	0	0	0	4135,57	1,56109035	1,56154764	-0,096135156714202368	6	-0,00327223912	0,000150119624
2	0	0	1	0	4136,86	1,54818928	1,54871631	-0,10250057264541592	6	-0,00340042682	0,000158744311
2	0	0	1	0	4138,11	1,5356884	1,5362457	-0,11064159672241702	6	-0,00353370537	0,000169972671
2	0	0	0	0	4139,36	1,52318752	1,52356458	-0,12093684399345283	6	-0,00367856934	0,000184255085
2	0	0	0	0	4140,61	1,51068652	1,51104403	-0,1341873599061123	6	-0,00383811723	0,000202763011
2	0	0	1	0	4141,86	1,4981854	1,49856353	-0,15040062096280371	6	-0,00401602127	0,00022538488
2	0	0	1	0	4143,11	1,48568451	1,48598278	-0,16995494191845306	6	-0,00421623141	0,000252550119
2	0	0	0	0	4144,36	1,47318363	1,47374272	-0,19258628758446618	6	-0,00444284035	0,00028382265
2	0	0	0	0	4145,61	1,46068275	1,46107161	-0,21829005237668707	6	-0,00469972519	0,000318937411
2	0	0	1	0	4146,86	1,44818163	1,44856107	-0,24683089096409638	6	-0,00499069551	0,000357549608
2	0	0	1	0	4148,11	1,43568075	1,43607056	-0,27785893296822906	6	-0,00531880697	0,000399025041
2	0	0	0	0	4149,36	1,42317986	1,42376041	-0,31073733155305306	6	-0,00568692153	0,000442415505
2	0	0	0	0	4150,61	1,41067886	1,41107941	-0,345078854899232	6	-0,0060969945	0,000486933655
2	0	0	1	0	4151,86	1,39817786	1,39843833	-0,38022297783754822	6	-0,00655076094	0,000531718368
2	0	0	1	0	4153,11	1,38567686	1,38596797	-0,41626103750119725	6	-0,00704901852	0,000576924474
2	0	0	0	0	4154,36	1,37317598	1,37382817	-0,45249150662372627	6	-0,00759263895	0,000621645595
2	0	0	0	0	4155,61	1,3606751	1,36114717	-0,48883549543097613	6	-0,00818144158	0,000665377069
2	0	0	0	0	4156,86	1,34817398	1,34855628	-0,52506314249088429	6	-0,00881563686	0,000708077219
2	0	0	1	0	4158,11	1,33567309	1,33605587	-0,56084800371900288	6	-0,0094949333	0,000749324274
2	0	0	1	0	4159,36	1,32317221	1,32353508	-0,59627465484663846	6	-0,0102187311	0,00078919041
2	0	0	0	0	4160,61	1,31067121	1,31111479	-0,63100582563007834	6	-0,0109863803	0,000827321084
2	0	0	0	0	4161,86	1,29817021	1,29856408	-0,6650428595021385	6	-0,0117969131	0,000863600755
2	0	0	1	0	4163,11	1,28566933	1,28622389	-0,69830761492873344	6	-0,0126495743	0,000898179947
2	0	0	1	0	4164,36	1,27316833	1,27379346	-0,73094038308287782	6	-0,0135433534	0,000931067101
2	0	0	0	0	4165,61	1,26066744	1,26135302	-0,76359237404540186	6	-0,0144779086	0,000963159546
2	0	0	0	0	4166,86	1,24816632	1,24858177	-0,79858805363376819	6	-0,0154547105	0,00099710247
2	0	0	1	0	4168,12	1,23566544	1,23587072	-0,83573142780612211	6	-0,0164767187	0,00103285594
2	0	0	1	0	4169,37	1,22316456	1,22350025	-0,87383091263473216	6	-0,017545674	0,00106913236
2	0	0	0	0	4170,62	1,21066356	1,2110498	-0,9110935308660064	6	-0,0186620448	0,00110337965
2	0	0	0	0	4171,87	1,19816256	1,19851923	-0,94674355847140122	6	-0,0198240951	0,00113469036
2	0	0	1	0	4173,12	1,18566167	1,18619907	-0,97979470777015014	6	-0,0210292023	0,00116223155
2	0	0	1	0	4174,41	1,17276061	1,17305684	-1,0113092862690501	6	-0,0223144814	0,00118632324
2	0	0	0	0	4175,66	1,16025972	1,16052628	-1,0394569585720714	6	-0,0235972963	0,0012063171
2	0	0	0	0	4176,91	1,14775872	1,14810586	-1,0651084488878694	6	-0,0249135382	0,00122285727
2	0	0	1	0	4178,16	1,13525772	1,13546491	-1,0877979813764504	6	-0,0262601934	0,00123515644
2	0	0	1	0	4179,41	1,12275684	1,12325501	-1,1080992532273157	6	-0,027633464	0,00124467805
2	0	0	0	0	4180,66	1,11025584	1,11072445	-1,1255297738437875	6	-0,0290305614	0,00125015341
2	0	0	0	0	4181,91	1,09775496	1,09805346	-1,1409739678104742	6	-0,0304481126	0,0012528504
2	0	0	1	0	4183,16	1,08525407	1,08559287	-1,1543102369954203	6	-0,0318837687	0,00125311094
2	0	0	1	0	4184,41	1,07275295	1,07326269	-1,1657662590344754	6	-0,0333345681	0,00125117344
2	0	0	1	0	4185,66	1,06025183	1,06076133	-1,1749432057903357	6	-0,0347983204	0,00124633429
2	0	0	0	0	4186,91	1,04775107	1,04791069	-1,1823697319875173	6	-0,036272414	0,00123901793
2	0	0	0	0	4188,16	1,03525019	1,03559053	-1,1875000745058059	6	-0,0377541818	0,00122976385
2	0	0	1	0	4189,41	1,02274919	1,02306986	-1,1906692196304611	6	-0,0392413437	0,0012181378
2	0	0	1	0	4190,66	1,01024818	1,01066947	-1,1913554944718907	6	-0,0407305807	0,00120406668
2	0	0	0	0	4191,91	0,997747362	0,998179018	-1,189864049355191	6	-0,0422194786	0,00118769729
2	0	0	0	0	4193,16	0,98524642	0,985728443	-1,1853819973766813	6	-0,0437045172	0,00116846478
2	0	0	1	0	4194,41	0,972745419	0,97317785	-1,1785650144641613	6	-0,0451828688	0,00114695332
2	0	0	1	0	4195,66	0,960244477	0,960817516	-1,1690072265143208	6	-0,0466507711	0,00112320262
2	0	0	0	0	4196,91	0,947743535	0,948317051	-1,1572808256993702	6	-0,0481055491	0,00109746912
2	0	0	0	0	4198,16	0,935242593	0,935625911	-1,143371691616875	6	-0,0495439433	0,00106976822
2	0	0	1	0	4199,41	0,922741592	0,923145354	-1,1279536333555989	6	-0,0509640723	0,0010412652
2	0	0	1	0	4200,66	0,91024065	0,910805225	-1,1122163770099486	6	-0,0523645841	0,00101301249
2	1	0	0	0	4201,86	0,901839972	0,902464747	-1,0600522337481414	6	-0,053688053	0,000956659787
2	1	0	1	0	4203,11	0,914340913	0,91450423	-0,83060468919574861	6	-0,054862123	0,000759591523
2	1	0	1	0	4204,36	0,926841855	0,927145123	-0,64842493040487219	6	-0,0557818376	0,000601184031
2	1	0	0	0	4205,61	0,939342797	0,939756036	-0,49727158403644902	6	-0,0564944968	0,000467313977
2	1	0	0	0	4206,90	0,952243865	0,952757895	-0,36622630967758598	6	-0,0570487417	0,000348925008
2	1	0	1	0	4208,15	0,964744806	0,965238452	-0,25765673358303776	6	-0,0574363098	0,000248700177
2	1	0	1	0	4209,40	0,977245808	0,977538526	-0,16429324591687578	6	-0,0576979704	0,000160602984
2	1	0	0	0	4210,65	0,989746749	0,990149438	-0,083728185272775706	6	-0,0578511283	8,29034179E-005
2	1	0	0	0	4211,94	1,00264752	1,00310099	-0,011638425021374134	6	-0,0579109304	1,16745159E-005
2	1	0	1	0	4213,19	1,01514876	1,01556146	0,049405639205360787	6	-0,057885915	5,01744616E-005
2	1	0	1	0	4214,48	1,02804959	1,02864349	0,10486654506530613	6	-0,0577850901	0,000107870292
2	1	0	0	0	4215,73	1,04055059	1,04113412	0,15284282880990486	6	-0,0576228388	0,000159129879
2	1	0	0	0	4216,98	1,05305135	1,05363464	0,19609119215359283	6	-0,0574038215	0,000206608471
2	1	0	1	0	4218,23	1,06555247	1,0661453	0,23565086194624474	6	-0,0571330748	0,00025123806
2	1	0	1	0	4219,48	1,07805336	1,07859564	0,27210848444762358	6	-0,0568150021	0,000293495017
2	1	0	0	0	4220,73	1,09055424	1,09087574	0,30619181250221939	6	-0,0564526767	0,000334017212
2	1	0	0	0	4221,98	1,10305536	1,10372722	0,33852723396072768	6	-0,0560489371	0,000373641727
2	1	0	1	0	4223,23	1,11555624	1,11605728	0,36943733210985875	6	-0,0556056574	0,000412313209
2	1	0	1	0	4224,48	1,12805724	1,12844777	0,39910251755888205	6	-0,0551246926	0,000450366351
2	1	0	0	0	4225,73	1,14055824	1,14099848	0,42801656372224262	6	-0,0546070561	0,000488366233
2	1	0	0	0	4226,98	1,15305901	1,15340889	0,45612001124148493	6	-0,0540538728	0,000526092888
2	1	0	1	0	4228,23	1,16556013	1,16594946	0,48382820328697562	6	-0,0534656532	0,000564119255
2	1	0	1	0	4229,48	1,17806101	1,17848015	0,51114611172427795	6	-0,0528431945	0,000602375541
2	1	0	1	0	4230,73	1,19056189	1,1913116	0,53822974503661139	6	-0,0521867126	0,000641199353
2	1	0	0	0	4231,98	1,20306301	1,20343125	0,56497221331422496	6	-0,0514965653	0,000679905235
2	1	0	0	0	4233,23	1,21556389	1,21592176	0,59130204034348429	6	-0,0507732853	0,000718977011
2	1	0	1	0	4234,48	1,22806489	1,2284925	0,61728998118390694	6	-0,0500170961	0,0007583361
2	1	0	1	0	4235,73	1,2405659	1,24107337	0,64290789468213734	6	-0,0492287911	0,000797895889
2	1	0	0	0	4236,98	1,25306666	1,25353384	0,66776109626516608	6	-0,0484088026	0,000837061147
2	1	0	0	0	4238,23	1,26556778	1,26605451	0,69217956857756134	6	-0,0475581363	0,000876337057
2	1	0	1	0	4239,48	1,27806866	1,27868533	0,71536677423864512	6	-0,0466776453	0,000914729026
2	1	0	1	0	4240,73	1,29056954	1,29106569	0,73820585121090138	6	-0,0457686037	0,000953072275
2	1	0	0	0	4241,98	1,30307066	1,30341589	0,75984383809069734	6	-0,0448317192	0,000990392524
2	1	0	0	0	4243,23	1,31557155	1,31603682	0,78065778749684429	6	-0,0438684262	0,00102737441
2	1	0	1	0	4244,48	1,32807255	1,32846713	0,80040408608814323	6	-0,0428797156	0,00106331054
2	1	0	1	0	4245,73	1,34057355	1,34122849	0,81923558966566643	6	-0,0418671519	0,00109878206
2	1	0	0	0	4246,98	1,35307431	1,35351849	0,8366996875653641	6	-0,0408316031	0,00113248848
2	1	0	0	0	4248,23	1,36557543	1,36588883	0,85342031655212019	6	-0,0397747532	0,00116567733
2	1	0	1	0	4249,48	1,37807631	1,3784095	0,86911304915944499	6	-0,0386974998	0,00119799364
2	1	0	1	0	4250,73	1,3905772	1,39086986	0,88414756829539699	6	-0,0376013145	0,00122973416
2	1	0	0	0	4251,98	1,40307832	1,40357101	0,89819123782217331	6	-0,0364868157	0,00126067514
2	1	0	0	0	4253,23	1,4155792	1,41611183	0,91165047573546304	6	-0,035355337	0,001290999
2	1	0	1	0	4254,48	1,4280802	1,42873263	0,92526598429928166	6	-0,0342068151	0,00132195768
2	1	0	1	0	4255,73	1,4405812	1,4411329	0,94387439700464525	6	-0,0330388807	0,00136024843
2	1	0	0	0	4256,98	1,45308197	1,45371377	0,97018943840016909	6	-0,0318427011	0,00141037779
2	1	0	0	0	4258,26	1,46588314	1,46633458	1,0038273033375518	6	-0,0305797961	0,00147194671
2	1	0	0	0	4259,51	1,47838485	1,47865665	1,0379410074312717	6	-0,0293032248	0,00153475837
2	1	0	1	0	4260,76	1,49088502	1,49145603	1,0705775174622704	6	-0,0279844627	0,00159671926
2	1	0	1	0	4262,01	1,5033859	1,50380635	1,0987347522750498	6	-0,0266275723	0,00165228429
2	1	0	0	0	4263,26	1,51588702	1,5162667	1,1206362598265187	6	-0,0252390951	0,00169918349
2	1	0	0	0	4264,51	1,5283879	1,52881742	1,1353935953229666	6	-0,0238278788	0,00173580949
2	1	0	1	0	4265,76	1,54088867	1,54137814	1,1418302860111034	6	-0,0224030763	0,00175999221
2	1	0	1	0	4267,01	1,55338979	1,55380869	1,1370099953686186	6	-0,0209771935	0,00176669599
2	1	0	0	0	4268,26	1,56589055	1,56627905	1,1182080864285418	6	-0,0195656065	0,00175142591
2	1	0	0	0	4269,51	1,57839143	1,5789901	1,0835184305906296	6	-0,0181873981	0,00171086483
2	1	0	1	0	4270,76	1,59089267	1,59127021	1,0321455349524805	6	-0,0168627426	0,0016424224
2	1	0	1	0	4272,01	1,60339344	1,60392129	0,96423828291396314	6	-0,015613053	0,0015465623
2	1	0	0	0	4273,26	1,61589456	1,61662221	0,88020962600906573	6	-0,0144584328	0,00142296648
2	1	0	0	0	4274,51	1,62839544	1,62872183	0,78230337332933786	6	-0,0134180188	0,00127415464
2	1	0	1	0	4275,76	1,6408962	1,64125264	0,67623109556734477	6	-0,0125057278	0,00110986608
2	1	0	1	0	4277,01	1,65339744	1,65390348	0,56283246989672352	6	-0,0117298076	0,000930870592
2	1	0	0	0	4278,30	1,66629827	1,66659462	0,42503635507697715	6	-0,0110894358	0,00070836331
2	1	0	0	0	4279,55	1,67879927	1,67922544	0,27598825197977296	6	-0,0106517067	0,000463446486
2	1	0	1	0	4280,80	1,69130015	1,69183624	0,16193665676595014	6	-0,0103836861	0,000273970305
2	1	0	1	0	4282,05	1,70380116	1,70448732	0,10357942975436618	6	-0,0102226632	0,000176549831
2	1	0	0	0	4283,30	1,71630204	1,7168777	0,079803763694751066	6	-0,0101098195	0,000137013296
2	1	0	0	0	4284,55	1,72880304	1,72923779	0,068749582491970163	6	-0,0100172237	0,000118884374
2	1	0	1	0	4285,80	1,74130404	1,74177861	0,062176759024926477	6	-0,00993524212	0,000108298147
2	1	0	1	0	4287,05	1,75380492	1,75427914	0,057617427528991238	6	-0,00986010581	0,00010107705
2	1	0	1	0	4288,30	1,76630616	1,7668699	0,054209722228622861	6	-0,00978996884	9,57815282E-005
2	1	0	0	0	4289,55	1,77880692	1,77923024	0,051382353917385325	6	-0,0097236326	9,14210395E-005
2	1	0	0	0	4290,84	1,79170787	1,7921319	0,049163986055646118	6	-0,00965839904	8,8108347E-005
2	1	0	1	0	4292,10	1,80420887	1,80477273	0,04720819402912921	6	-0,00959772523	8,52000594E-005
2	1	0	1	0	4293,35	1,81670988	1,81725335	0,045703151011063258	6	-0,00953914411	8,30542049E-005
2	1	0	0	0	4294,60	1,82921076	1,82941306	0,044434015716736442	6	-0,00948229805	8,12881699E-005
2	1	0	0	0	4295,85	1,84171176	1,84230459	0,043337856778331571	6	-0,00942695513	7,98415349E-005
2	1	0	1	0	4297,10	1,85421276	1,85441422	0,042418688593897914	6	-0,00937286858	7,86618184E-005
2	1	0	1	0	4298,35	1,86671364	1,86721551	0,04169342350602784	6	-0,00931989402	7,78506073E-005
2	1	0	0	0	4299,60	1,87921464	1,87965584	0,04102727133431472	6	-0,00926784426	7,71171472E-005
2	1	0	0	0	4300,85	1,89171553	1,891976	0,040430198578784883	6	-0,00921663456	7,64929646E-005
2	1	0	1	0	4302,10	1,90421653	1,90464723	0,039976656126479296	6	-0,00916610193	7,61414267E-005
2	1	0	1	0	4303,35	1,91671753	1,9171778	0,039602928891933178	6	-0,00911618862	7,59258546E-005
2	1	0	0	0	4304,60	1,92921841	1,92970848	0,039109801078059949	6	-0,00906677078	7,54705179E-005
2	1	0	0	0	4305,85	1,94171941	1,94238961	0,038740633948085248	6	-0,00901779998	7,52494016E-005
2	1	0	1	0	4307,10	1,95422041	1,95462942	0,038491785632989702	6	-0,00896917842	7,5237178E-005
2	1	0	1	0	4308,35	1,9667213	1,96705973	0,038314755986599846	6	-0,00892086327	7,53674103E-005
2	1	0	0	0	4309,60	1,9792223	1,97963059	0,038219403630743398	6	-0,00887275953	7,5660304E-005
2	1	0	0	0	4310,85	1,99172318	1,99228168	0,038043926848331469	6	-0,00882485695	7,5794218E-005
2	1	0	1	0	4312,10	2,00422406	2,0047822	0,037881196272792294	6	-0,00877706986	7,59435497E-005
2	1	0	1	0	4313,35	2,01672506	2,01708245	0,037811289104865862	6	-0,00872941222	7,62684867E-005
2	1	0	0	0	4314,60	2,02922606	2,02972317	0,037774440977955238	6	-0,00868184865	7,66716548E-005
2	1	0	0	0	4315,85	2,0417273	2,0423038	0,037737443043928006	6	-0,00863439031	7,70713232E-005
2	1	0	0	0	4317,10	2,05422735	2,05475426	0,037731353108583008	6	-0,00858701114	7,75286608E-005
2	1	0	1	0	4318,35	2,06672883	2,06723499	0,037524327170103814	6	-0,00853967853	7,75716035E-005
2	1	0	1	0	4319,60	2,07923007	2,07992625	0,037531596747236275	6	-0,00849238038	7,80629562E-005
2	1	0	0	0	4320,85	2,09173083	2,09224606	0,037374497391283514	6	-0,00844511576	7,81966446E-005
2	1	0	0	0	4322,10	2,10423207	2,10475683	0,037618801987264307	6	-0,00839785859	7,91784332E-005
2	1	0	1	0	4323,35	2,11673284	2,11710715	0,037659296329365824	6	-0,00835052785	7,97287648E-005
2	1	0	1	0	4324,60	2,1292336	2,12980819	0,037683777734249082	6	-0,00830316264	8,02592185E-005
2	1	0	0	0	4325,85	2,1417346	2,14195776	0,037680740254775968	6	-0,0082557071	8,07105534E-005
2	1	0	0	0	4327,10	2,15423536	2,15453839	0,037800006810963795	6	-0,00820819102	8,14415689E-005
2	1	0	1	0	4328,35	2,1667366	2,16732979	0,037901688425336064	6	-0,0081605576	8,21454596E-005
2	1	0	1	0	4329,60	2,1792376	2,17970014	0,038058875584586758	6	-0,00811282918	8,29569399E-005
2	1	0	0	0	4330,85	2,19173837	2,19231105	0,038144507076746438	6	-0,00806493778	8,36246254E-005
2	1	0	0	0	4332,10	2,20423937	2,20451093	0,038126582890981696	6	-0,00801693927	8,40504654E-005
2	1	0	1	0	4333,35	2,21674037	2,21714187	0,038290671722885747	6	-0,00796874426	8,48958516E-005
2	1	0	1	0	4334,60	2,22924113	2,22983265	0,038489659064604499	6	-0,00792039372	8,58255007E-005
2	1	0	0	0	4335,85	2,24174237	2,24231339	0,038668051759789965	6	-0,00787183177	8,67058916E-005
2	1	0	0	0	4337,10	2,25424314	2,25474381	0,038870808455006509	6	-0,00782309659	8,76437116E-005
2	1	0	1	0	4338,35	2,26674414	2,26713395	0,038927755182764147	6	-0,00777411368	8,82544336E-005
2	1	0	1	0	4339,60	2,2792449	2,2797749	0,039129156037233606	6	-0,00772490865	8,92056705E-005
2	1	0	0	0	4340,85	2,29174614	2,29207516	0,039374400502614035	6	-0,00767542003	9,02490865E-005
2	1	0	0	0	4342,10	2,30424738	2,30439544	0,039637283577273254	6	-0,00762569532	9,13399781E-005
2	1	0	1	0	4343,35	2,31674814	2,31689596	0,039959036153352973	6	-0,00757562788	9,2580929E-005
2	1	0	1	0	4344,60	2,32924891	2,32950664	0,040080648682002618	6	-0,00752527779	9,33681367E-005
2	1	0	0	0	4345,85	2,34175062	2,34233689	0,040244146878202157	6	-0,007474571	9,42653496E-005
2	1	0	0	0	4347,10	2,35425067	2,3547585	0,040518215886549971	6	-0,00742358109	9,54106144E-005
2	1	0	1	0	4348,35	2,36675215	2,36718941	0,040762716231152794	6	-0,00737226009	9,64930732E-005
2	1	0	1	0	4349,60	2,37925267	2,3798399	0,041023783725298272	6	-0,00732064946	9,76300362E-005
2	1	0	1	0	4350,85	2,39175296	2,39207816	0,041347557011218842	6	-0,00726869144	9,89065884E-005
2	1	0	0	0	4352,10	2,40425467	2,40470076	0,041694726086764774	6	-0,00721640093	0,000100263336
2	1	0	0	0	4353,35	2,41675568	2,41717124	0,042054847736532454	6	-0,0071637067	0,000101653772
2	1	0	1	0	4354,60	2,42925644	2,42970204	0,042453286558156832	6	-0,00711058453	0,000103148835
2	1	0	1	0	4355,85	2,44175768	2,44243312	0,042916659818729331	6	-0,00705696922	0,000104821069
2	1	0	0	0	4357,10	2,45425844	2,4547832	0,043356611926962189	6	-0,00700284913	0,000106431085
2	1	0	0	0	4358,35	2,46675944	2,46725392	0,043694180698366726	6	-0,00694817537	0,000107804641
2	1	0	1	0	4359,60	2,47926021	2,47963405	0,044101498400171578	6	-0,00689294608	0,000109355577
2	1	0	1	0	4360,85	2,49176145	2,49222517	0,044552307876680627	6	-0,00683717476	0,00011103438
2	1	0	0	0	4362,10	2,50426269	2,5046854	0,044909890498577824	6	-0,00678095967	0,000112485148
2	1	0	0	0	4363,35	2,51676345	2,51711583	0,045399542859134458	6	-0,00672424212	0,000114275907
2	1	0	1	0	4364,60	2,52926421	2,5295763	0,045683559932513165	6	-0,00666706217	0,000115560048
2	1	0	1	0	4365,85	2,54176521	2,54218721	0,04605741304112576	6	-0,00660939096	0,000117086565
2	1	0	0	0	4367,10	2,55426598	2,55472779	0,04647362120643561	6	-0,0065512103	0,000118727454
2	1	0	0	0	4368,35	2,56676722	2,56737876	0,046981251459025542	6	-0,00649249647	0,000120618664
2	1	0	1	0	4369,60	2,57926798	2,5798192	0,04742684170681369	6	-0,00643323828	0,000122352678
2	1	0	1	0	4370,85	2,59176898	2,59221959	0,047885440212363942	6	-0,0063734334	0,000124129583
2	1	0	0	0	4372,10	2,60426998	2,60484028	0,048181080172071181	6	-0,00631305855	0,000125504012
2	1	0	0	0	4373,35	2,61677098	2,61710072	0,04871733120914249	6	-0,00625210907	0,000127498162
2	1	0	1	0	4374,60	2,62927175	2,62945962	0,049141840579427386	6	-0,00619056495	0,000129216482
2	1	0	1	0	4375,85	2,64177299	2,64224195	0,049742375655720486	6	-0,00612842524	0,000131431385
2	1	0	1	0	4377,10	2,65427279	2,65476179	0,050230265478603539	6	-0,00606565876	0,000133349386
2	1	0	0	0	4378,35	2,66677475	2,66713309	0,050684596799934643	6	-0,00600226223	0,000135182563
2	1	0	0	0	4379,60	2,67927551	2,67976379	0,0512244010266536	6	-0,00593819609	0,000137269293
2	1	0	1	0	4380,85	2,69177675	2,69245505	0,051793212497917242	6	-0,00587347243	0,000139450902
2	1	0	1	0	4382,10	2,70427775	2,70473504	0,052379988075699584	6	-0,00580806285	0,000141673983
2	1	0	0	0	4383,35	2,71677876	2,71716547	0,052987160141734989	6	-0,00574199064	0,000143974888
2	1	0	0	0	4384,60	2,72927952	2,72976613	0,053428159017736678	6	-0,00567521574	0,000145846381
2	1	0	1	0	4385,85	2,74178052	2,74218678	0,053872500119420294	6	-0,00560777681	0,000147728453
2	1	0	1	0	4387,10	2,75428128	2,75497794	0,054489375732373222	6	-0,00553964218	0,000150117034
2	1	0	0	0	4388,35	2,76678252	2,76739836	0,054989438115929574	6	-0,00547082257	0,000152177687
2	1	0	0	0	4389,60	2,77928329	2,77964807	0,055650616452718624	6	-0,0054013012	0,000154689129
2	1	0	1	0	4390,85	2,79178429	2,79228926	0,05615812786466745	6	-0,00533110136	0,000156809736
2	1	0	1	0	4392,10	2,80428529	2,80475974	0,056640268497479386	6	-0,00526019372	0,000158862342
2	1	0	0	0	4393,35	2,81678605	2,81741095	0,057232679682783558	6	-0,00518860342	0,000161247983
2	1	0	0	0	4394,60	2,82928705	2,82987118	0,057830448592237018	6	-0,0051162797	0,000163652716
2	1	0	1	0	4395,85	2,84178829	2,84228134	0,058431235530103104	6	-0,00504325051	0,000166078011
2	1	0	1	0	4397,10	2,85428905	2,85490227	0,059036384200832461	6	-0,00496947905	0,000168543105
2	1	0	0	0	4398,35	2,86679006	2,8672626	0,059451656416058432	6	-0,0048949942	0,000170463507
2	1	0	0	0	4399,60	2,87929082	2,87980342	0,060033315230005875	6	-0,00481976569	0,000172884145
2	1	0	1	0	4400,85	2,89179206	2,89222383	0,060638438386376896	6	-0,00474379724	0,00017537993
2	1	0	1	0	4402,10	2,90429306	2,90485454	0,061241785530000819	6	-0,00466707768	0,000177898473
2	1	0	1	0	4403,35	2,91679311	2,9173646	0,061809116317647514	6	-0,00458969735	0,000180319723
2	1	0	0	0	4404,60	2,92929482	2,92975545	0,062481673104533235	6	-0,00451154495	0,000183056021
2	1	0	0	0	4405,85	2,94179606	2,94216752	0,063100597938755162	6	-0,00443266612	0,000185652534
2	1	0	1	0	4407,10	2,95429659	2,95479703	0,06377135451960681	6	-0,00435303664	0,000188431412
2	1	0	1	0	4408,35	2,96679783	2,96724749	0,064407950985090112	6	-0,00427265791	0,000191114334
2	1	0	0	0	4409,60	2,97929859	2,97972798	0,065109655028209126	6	-0,00419147732	0,000194009059
2	1	0	0	0	4410,85	2,99179959	2,99243903	0,0657034944354864	6	-0,00410951534	0,000196613706
2	1	0	1	0	4412,10	3,00430059	3,00483942	0,066261225185978048	6	-0,00402671564	0,000199104339
2	1	0	1	0	4413,35	3,01680136	3,01721954	0,066955889148327283	6	-0,00394309592	0,000202020616
2	1	0	0	0	4414,60	3,02930236	3,02973032	0,067692183831240986	6	-0,00385858282	0,000205089062
2	1	0	0	0	4415,85	3,0418036	3,04228091	0,068456980166956339	6	-0,0037731959	0,000208265366
2	1	0	1	0	4417,10	3,05430436	3,05465126	0,069247421827943078	6	-0,00368687278	0,000211526727
2	1	0	1	0	4418,35	3,06680536	3,06742263	0,069874599149140096	6	-0,00359963626	0,000214334927
2	1	0	0	0	4419,60	3,07930613	3,07984281	0,070685781499681408	6	-0,00351141673	0,00021770109
2	1	0	0	0	4420,85	3,09180737	3,09258413	0,071462954394519334	6	-0,00342224305	0,000221005204
2	1	0	1	0	4422,11	3,10430837	3,10497451	0,072328795659510669	6	-0,00333207729	0,000224579067
2	1	0	1	0	4423,36	3,11680937	3,11723423	0,07314003361777088	6	-0,00324095646	0,00022799462
2	1	0	0	0	4424,61	3,12931013	3,12955403	0,073865088187934131	6	-0,00314882514	0,000231164784
2	1	0	0	0	4425,86	3,14181089	3,14204502	0,074590450482598272	6	-0,00305569242	0,000234366555
2	1	0	1	0	4427,11	3,1543119	3,15481639	0,0754850583228592	6	-0,00296150334	0,000238141496
2	1	0	1	0	4428,36	3,1668129	3,16734719	0,07635035647156951	6	-0,00286625954	0,000241828093
2	1	0	0	0	4429,61	3,1793139	3,17991781	0,077343835204373939	6	-0,00276989653	0,000245947042
2	1	0	0	0	4430,86	3,1918149	3,19229794	0,078227390651590899	6	-0,00267238892	0,000249725126
2	1	0	1	0	4432,11	3,20431662	3,20485973	0,079169111129155251	6	-0,00257367361	0,000253725884
2	1	0	1	0	4433,36	3,21681666	3,2172389	0,080229531119887949	6	-0,00247370289	0,000258117565
2	1	0	0	0	4434,61	3,22931838	3,22994137	0,081314622558429082	6	-0,00237242575	0,000262641464
2	1	0	0	0	4435,86	3,24181867	3,24253082	0,082538010707745574	6	-0,00226972881	0,000267632044
2	1	0	0	0	4437,11	3,25431895	3,25465894	0,083763695310740454	6	-0,00216557761	0,000272622274
2	1	0	1	0	4438,36	3,26682067	3,26760221	0,084902984245369459	6	-0,00205984246	0,000277429179
2	1	0	1	0	4439,61	3,27932119	3,27992249	0,086213295871857549	6	-0,0019524995	0,000282772933
2	1	0	0	0	4440,86	3,29182243	3,29219246	0,087707996601238669	6	-0,0018433698	0,000288751617
2	1	0	0	0	4442,11	3,30432343	3,30468297	0,089263089156399194	6	-0,00173242798	0,00029498621
2	1	0	1	0	4443,36	3,31682444	3,31725359	0,090929518162738086	6	-0,00161947717	0,000301636261
2	1	0	1	0	4444,61	3,32932544	3,32967448	0,092566779659440051	6	-0,00150443707	0,000308217248
2	1	0	0	0	4445,86	3,3418262	3,34229493	0,094335665868129139	6	-0,00138719799	0,000315297628
2	1	0	0	0	4447,11	3,3543272	3,35469532	0,096217036654707354	6	-0,00126768544	0,000322778855
2	1	0	1	0	4448,36	3,3668282	3,36727595	0,098257650582429965	6	-0,00114570931	0,00033086061
2	1	0	1	0	4449,65	3,37972927	3,38032794	0,1004520820764201	6	-0,00101715326	0,000339560967
2	1	0	0	0	4450,90	3,39223027	3,39275837	0,10268299467861608	6	-0,000889781921	0,000348378584
2	1	0	0	0	4452,15	3,4047308	3,40509844	0,10499211474476989	6	-0,000759629125	0,000357508485
2	1	0	1	0	4453,40	3,4172318	3,41766953	0,10727204203916062	6	-0,000626458321	0,000366620399
2	1	0	1	0	4454,65	3,42973304	3,4302702	0,10970179336921592	6	-0,000490290404	0,000376306794
2	1	0	0	0	4455,90	3,44223404	3,44264054	0,11227392215126498	6	-0,000350925344	0,000386518746
2	1	0	0	0	4457,15	3,45473504	3,45520139	0,11489396216347813	6	-0,000208391808	0,000396981777
2	1	0	1	0	4458,40	3,46723604	3,46758175	0,11756632449881469	6	-6,25157409E-005	0,000407670828
2	1	0	1	0	4459,65	3,47973657	3,48021269	0,12038804617865605	6	8,67022682E-005	0,000418976007
2	1	0	0	0	4460,90	3,49223757	3,49280334	0,12328292902869453	6	0,000239454006	0,000430603017
2	1	0	0	0	4462,15	3,50473881	3,50535393	0,12628319490856166	6	0,00039579242	0,000442667282
2	1	0	0	0	4463,40	3,51723909	3,51782346	0,12939534117096629	6	0,000555916398	0,000455189962
2	1	0	1	0	4464,65	3,52974081	3,53038526	0,13266175779669221	6	0,000719955191	0,000468347105
2	1	0	1	0	4465,90	3,54224157	3,54270577	0,13600680054543802	6	0,000888118113	0,000481832074
2	1	0	0	0	4467,15	3,55474234	3,55508566	0,13934578443877355	6	0,00106056104	0,000495386194
2	1	0	0	0	4468,40	3,56724358	3,56780696	0,14303177905579334	6	0,00123747694	0,000510309765
2	1	0	1	0	4469,65	3,57974458	3,58038759	0,14679819198014832	6	0,0014190356	0,000525594398
2	1	0	1	0	4470,90	3,59224558	3,59283781	0,15073765317599008	6	0,00160529581	0,000541575952
2	1	0	0	0	4472,15	3,6047461	3,60512805	0,15457719250116518	6	0,00179642008	0,0005572706
2	1	0	0	0	4473,40	3,6172471	3,6176188	0,15835466926607005	6	0,0019923551	0,000572866818
2	1	0	1	0	4474,65	3,62974834	3,62992907	0,16200822708196928	6	0,00219305092	0,000588078401
2	1	0	1	0	4475,90	3,64224935	3,6427002	0,16558477701619222	6	0,00239821244	0,000603175722
2	1	0	0	0	4477,15	3,65475035	3,6551404	0,16882567123199488	6	0,00260762894	0,000617081532
2	1	0	0	0	4478,40	3,66725087	3,66735029	0,17196745774708643	6	0,00282092392	0,00063066493
2	1	0	1	0	4479,65	3,67975187	3,68010163	0,17465114306348006	6	0,00303792139	0,000642733939
2	1	0	1	0	4480,90	3,69225287	3,69278288	0,17732588737271702	6	0,00325833494	0,000654825999
2	1	0	0	0	4482,15	3,70475411	3,70508265	0,17990889924112685	6	0,00348210288	0,000666577369
2	1	0	0	0	4483,40	3,71725512	3,71771359	0,182515907334164	6	0,00370900403	0,000678541895
2	1	0	1	0	4484,65	3,72975612	3,73037457	0,18468333299582173	6	0,00393903675	0,000688938017
2	1	0	1	0	4485,90	3,74225664	3,74281502	0,18733509156542528	6	0,00417194469	0,000701160578
2	1	0	0	0	4487,15	3,75475764	3,75516558	0,18971529665092707	6	0,00440803636	0,000712412351
2	1	0	0	0	4488,40	3,76725888	3,76767588	0,19222032461160144	6	0,00464715343	0,000724223908
2	1	0	1	0	4489,65	3,77975988	3,78013659	0,19477688920839341	6	0,00488947472	0,000736283255
2	1	0	1	0	4490,90	3,79226089	3,79272723	0,19739287742413558	6	0,00513490848	0,00074865733
2	1	0	0	0	4492,15	3,8047626	3,80517006	0,20011102030264259	6	0,00538368896	0,000761456438
2	1	0	0	0	4493,40	3,81726241	3,81770825	0,20274512834536563	6	0,00563581521	0,000774021726
2	1	0	0	0	4494,65	3,82976365	3,83021903	0,20566831630033754	6	0,00589156616	0,000787754718
2	1	0	1	0	4495,90	3,84226465	3,84258914	0,20878122389937382	6	0,0061510643	0,000802260474
2	1	0	1	0	4497,15	3,85476565	3,8555212	0,21204597417575587	6	0,006414501	0,000817547727
2	1	0	0	0	4498,40	3,86726618	3,86782098	0,21541948368151907	6	0,00668205135	0,000833204016
2	1	0	0	0	4499,65	3,87976718	3,88018107	0,21879892563447267	6	0,00695381407	0,000848979456
2	1	0	1	0	4500,90	3,89226818	3,89286232	0,22226565983146307	6	0,00722996006	0,000865249604
2	1	0	1	0	4502,15	3,90476942	3,90517259	0,22586401404502432	6	0,00751052983	0,000882037973
2	1	0	0	0	4503,40	3,91727042	3,91810417	0,22960240098958186	6	0,00779568916	0,000899606152
2	1	0	0	0	4504,65	3,92977142	3,93003321	0,23353906596700291	6	0,00808555819	0,000917816302
2	1	0	1	0	4505,90	3,94227195	3,94292498	0,23738118160205613	6	0,00838030502	0,000935976219
2	1	0	1	0	4507,15	3,95477295	3,95516491	0,24124974478036166	6	0,00867997389	0,000954182527
2	1	0	0	0	4508,40	3,96727419	3,96780539	0,2451756068039681	6	0,00898464955	0,000972809095
2	1	0	0	0	4509,65	3,97977519	3,98039651	0,24909238788920109	6	0,00929420348	0,000991486479
2	1	0	1	0	4510,90	3,99227619	3,99290729	0,25286704379444342	6	0,00960856955	0,00100967463
2	1	0	1	0	4512,15	4,00477695	4,00537729	0,25659889572610294	6	0,00992755592	0,00102777535
2	1	0	0	0	4513,40	4,01727772	4,01785851	0,26023812196217389	6	0,0102511384	0,00104559993
2	1	0	0	0	4514,65	4,02977896	4,03021812	0,26384986409296563	6	0,0105791511	0,00106337247
2	1	0	1	0	4515,90	4,04227972	4,0427289	0,26723951815317059	6	0,0109115131	0,00108037691
2	1	0	1	0	4517,15	4,05478096	4,0552392	0,27056658337824064	6	0,0112479981	0,0010972122
2	1	0	0	0	4518,40	4,06728172	4,06787014	0,2735789619168889	6	0,0115884189	0,00111288368
2	1	0	0	0	4519,65	4,07978296	4,08021069	0,27605545978682678	6	0,0119322361	0,00112636446
2	1	0	1	0	4520,90	4,0922842	4,09297228	0,27808576828496125	6	0,0122790569	0,00113819737
2	1	0	1	0	4522,15	4,10478449	4,10535192	0,27992281620390691	6	0,012628261	0,00114918163
2	1	0	0	0	4523,40	4,11728573	4,11778259	0,28145483997650355	6	0,0129795698	0,00115896983
2	1	0	0	0	4524,65	4,12978649	4,13018274	0,28308014214659584	6	0,0133327292	0,0011691727
2	1	0	1	0	4525,90	4,14228773	4,14298439	0,2847260478107887	6	0,0136879226	0,00117961562
2	1	0	1	0	4527,15	4,15478849	4,155375	0,28663617162965216	6	0,0140453558	0,00119108078
2	1	0	0	0	4528,40	4,16728973	4,16769457	0,28895499547942458	6	0,0144055188	0,00120427611
2	1	0	0	0	4529,65	4,17979002	4,18051624	0,29180891004701427	6	0,0147688193	0,00121991185
2	1	0	0	0	4530,90	4,19228983	4,19269419	0,29514131941833542	6	0,0151359551	0,00123743725
2	0	0	1	1	4532,10	4,19569159	4,19634485	0,2509980468700337	6	0,0154803414	0,00105327438
2	0	0	0	1	4533,35	4,18319035	4,18391418	0,1920785897333792	6	0,0157527979	0,000803640345
2	0	0	0	1	4534,60	4,17068958	4,17128372	0,15469872462563216	6	0,0159674659	0,000645292283
2	0	0	1	1	4535,85	4,15818834	4,15860224	0,12760115174266184	6	0,0161425136	0,000530642457
2	0	0	1	1	4537,10	4,14568758	4,14636278	0,10700288744798536	6	0,016288083	0,00044367279
2	0	0	0	1	4538,35	4,13318682	4,13384199	0,090862260044862758	6	0,0164109766	0,000375610223
2	0	0	0	1	4539,60	4,12068558	4,12111092	0,077930539904627725	6	0,0165158417	0,000321160391
2	0	0	1	1	4540,85	4,10818481	4,10861015	0,06727121502626665	6	0,0166060925	0,000276391191
2	0	0	1	1	4542,10	4,09568357	4,0961194	0,058270011562853939	6	0,0166841578	0,000238680921
2	0	0	0	1	4543,35	4,08318281	4,08380985	0,050829668529331795	6	0,0167519189	0,000207578705
2	0	0	0	1	4544,64	4,07028198	4,07089806	0,043850683180304774	6	0,0168124959	0,000178511662
2	0	0	1	1	4545,90	4,05778122	4,05817699	0,038216372311580704	6	0,0168633722	0,000155088797
2	0	0	1	1	4547,15	4,04527998	4,04597664	0,033036541281035437	6	0,016907433	0,000133665075
2	0	0	0	1	4548,40	4,03277874	4,03311586	0,02846996721928008	6	0,0169455111	0,000114822673
2	0	0	0	1	4549,65	4,02027798	4,02080536	0,024315580793578749	6	0,0169781744	9,77682212E-005
2	0	0	1	1	4550,90	4,00777721	4,00845528	0,02069424842193255	6	0,0170060042	8,29519704E-005
2	0	0	1	1	4552,15	3,99527621	3,99594474	0,017394447034651706	6	0,0170294326	6,95072522E-005
2	0	0	0	1	4553,40	3,98277521	3,98339391	0,014360979631116322	6	0,0170489047	5,72054378E-005
2	0	0	0	1	4554,65	3,97027421	3,97067285	0,011523623077664478	6	0,017064739	4,57565366E-005
2	0	0	1	1	4555,90	3,95777321	3,95802164	0,0090038791701469171	6	0,0170772783	3,56375494E-005
2	0	0	1	1	4557,15	3,94527221	3,94561124	0,0066252841764556787	6	0,0170868058	2,61407949E-005
2	0	0	0	1	4558,44	3,93237162	3,93282008	0,0042506241406954362	6	0,0170937516	1,67169401E-005
2	0	0	0	1	4559,69	3,91987062	3,92023945	0,0023490343961990752	6	0,0170978941	9,20877756E-006
2	0	0	0	1	4560,94	3,90736985	3,90772891	0,00068616946856391718	6	0,0170996841	2,68136432E-006
2	0	0	1	1	4562,19	3,89486837	3,89547849	-0,001035016621547884	6	0,0170993581	4,03188506E-006
2	0	0	1	1	4563,44	3,8823669	3,88290691	-0,0025270304308999949	6	0,0170970485	9,81222365E-006
2	0	0	0	1	4564,69	3,86986637	3,87031722	-0,0040321195641202861	6	0,0170929432	1,56055812E-005
2	0	0	0	1	4565,94	3,85736585	3,8578167	-0,0052134441599870803	6	0,0170871541	2,01125113E-005
2	0	0	1	1	4567,19	3,84486461	3,84539604	-0,0063193876558216422	6	0,0170798432	2,43005488E-005
2	0	0	1	1	4568,44	3,83236361	3,83273506	-0,0074626909239062515	6	0,0170710981	2,8602517E-005
2	0	0	0	1	4569,69	3,8198626	3,82046533	-0,0084930496692929293	6	0,0170610994	3,24474022E-005
2	0	0	0	1	4570,94	3,8073616	3,80780435	-0,0094712916373585613	6	0,0170498583	3,60648264E-005
2	0	0	1	1	4572,23	3,79446101	3,7949326	-0,010082529023444912	6	0,0170371309	3,82625185E-005
2	0	0	1	1	4573,48	3,78196001	3,78244209	-0,010974633313405035	6	0,0170237012	4,15109134E-005
2	0	0	0	1	4574,73	3,76945877	3,76973104	-0,011624671543055854	6	0,0170093197	4,38218849E-005
2	0	0	0	1	4575,98	3,75695777	3,75780201	-0,012246227304179541	6	0,0169939958	4,60188967E-005
2	0	0	1	1	4577,23	3,74445677	3,74495029	-0,012959724835430563	6	0,0169778205	4,85335258E-005
2	0	0	1	1	4578,48	3,73195624	3,73244977	-0,013640659254936822	6	0,0169608016	5,09130768E-005
2	0	0	0	1	4579,73	3,71945524	3,71988893	-0,014286505485264	6	0,0169430748	5,31442129E-005
2	0	0	0	1	4580,98	3,70695424	3,70739841	-0,014865346524554042	6	0,0169245042	5,51117628E-005
2	0	0	1	1	4582,23	3,694453	3,69503832	-0,015355258748362189	6	0,0169052072	5,67382704E-005
2	0	0	1	1	4583,48	3,681952	3,68236709	-0,015951804477178227	6	0,0168851744	5,87403993E-005
2	0	0	0	1	4584,73	3,66945148	3,6698966	-0,016546598121446211	6	0,0168644413	6,07243055E-005
2	0	0	0	1	4585,98	3,65695047	3,65737581	-0,017140906963807878	6	0,0168430042	6,26907349E-005
2	0	0	1	1	4587,23	3,64444947	3,64507604	-0,017673980968538672	6	0,0168209132	6,44230022E-005
2	0	0	1	1	4588,48	3,63194823	3,63258553	-0,018037090213814096	6	0,0167981572	6,55212716E-005
2	0	0	0	1	4589,73	3,61944723	3,61983418	-0,018471735998949357	6	0,0167747941	6,68646244E-005
2	0	0	0	1	4590,98	3,60694671	3,60742378	-0,018973249908109818	6	0,0167508163	6,84445549E-005
2	0	0	0	1	4592,23	3,59444642	3,59493446	-0,019397791077904208	6	0,0167262834	6,97337891E-005
2	0	0	1	1	4593,48	3,5819447	3,58236241	-0,019872880050873731	6	0,0167011973	7,11918619E-005
2	0	0	1	1	4594,73	3,56944346	3,57014227	-0,020324380355305037	6	0,0166756138	7,25609279E-005
2	0	0	0	1	4595,98	3,55694246	3,55767179	-0,020762188864561437	6	0,0166495461	7,3865056E-005
2	0	0	0	1	4597,23	3,54444146	3,54475021	-0,021112464023948006	6	0,0166230574	7,48384118E-005
2	0	0	1	1	4598,48	3,53194094	3,5325706	-0,021487130288733197	6	0,0165961348	7,59048053E-005
2	0	0	1	1	4599,73	3,51943994	3,51995993	-0,021841621482356854	6	0,0165688246	7,68816317E-005
2	0	0	0	1	4600,98	3,50693893	3,50746942	-0,022079062279469043	6	0,016541142	7,7441633E-005
2	0	0	0	1	4602,23	3,49443769	3,49480844	-0,022240950425233165	6	0,0165131129	7,77278619E-005
2	0	0	1	1	4603,48	3,48193669	3,48250818	-0,022566792050687011	6	0,0164847262	7,8589037E-005
2	0	0	1	1	4604,73	3,46943617	3,46979713	-0,022840324745629936	6	0,0164560247	7,92512947E-005
2	0	0	0	1	4605,98	3,45693517	3,45742655	-0,023151368610948963	6	0,0164269917	8,00441558E-005
2	0	0	0	1	4607,23	3,44443417	3,44455528	-0,023399800217399942	6	0,0163976625	8,06019088E-005
2	0	0	1	1	4608,48	3,43193293	3,4323554	-0,023566512618951235	6	0,0163680166	8,08886471E-005
2	0	0	1	1	4609,73	3,41943192	3,41998506	-0,023760475349263344	6	0,0163380858	8,12604703E-005
2	0	0	0	1	4610,98	3,4069314	3,4074645	-0,024068150761498451	6	0,016307842	8,2011371E-005
2	0	0	0	1	4612,23	3,3944304	3,39509416	-0,024315016620676061	6	0,0162773188	8,25517709E-005
2	0	0	1	1	4613,48	3,3819294	3,38247323	-0,024631704504524122	6	0,0162465014	8,33160811E-005
2	0	0	1	1	4614,73	3,36942816	3,3698523	-0,024723621948699926	6	0,0162153859	8,33149534E-005
2	0	0	0	1	4615,98	3,35692716	3,35735178	-0,024922386597609149	6	0,016183991	8,36732215E-005
2	0	0	0	1	4617,23	3,34442616	3,34464073	-0,025160235973696016	6	0,0161522888	8,41519504E-005
2	0	0	0	1	4618,48	3,33192587	3,332371	-0,025465619421674022	6	0,0161202978	8,48608906E-005
2	0	0	1	1	4619,73	3,31942463	3,31988025	-0,025824791392854762	6	0,0160880052	8,57352134E-005
2	0	0	1	1	4620,98	3,30692387	3,30751085	-0,025965531647776374	6	0,0160554107	8,58812782E-005
2	0	0	0	1	4622,23	3,29442239	3,29465866	-0,026089632000851738	6	0,0160225388	8,59564316E-005
2	0	0	0	1	4623,48	3,28192091	3,28237867	-0,026352480676374301	6	0,0159893874	8,64988178E-005
2	0	0	1	1	4624,73	3,26942086	3,26969719	-0,026608302878836838	6	0,0159559343	8,70010917E-005
2	0	0	1	1	4625,98	3,25691986	3,25739741	-0,026893314662932765	6	0,0159222279	8,76022168E-005
2	0	0	0	1	4627,23	3,24441886	3,24491692	-0,027125595855371555	6	0,0158882234	8,80203079E-005
2	0	0	0	1	4628,48	3,23191762	3,23256612	-0,02719055048267671	6	0,0158539675	8,78952487E-005
2	0	0	1	1	4629,73	3,21941662	3,21983528	-0,027386911873084784	6	0,0158194285	8,81813467E-005
2	0	0	1	1	4630,98	3,20691609	3,20738459	-0,027631462212108771	6	0,0157846678	8,8624729E-005
2	0	0	0	1	4632,23	3,19441509	3,19480395	-0,027852079908674	6	0,0157496259	8,89819348E-005
2	0	0	0	1	4633,48	3,18191409	3,18238378	-0,028087281874225933	6	0,0157143716	8,93845136E-005
2	0	0	1	1	4634,73	3,16941285	3,16993332	-0,028206645414078026	6	0,015678864	8,94131881E-005
2	0	0	1	1	4635,98	3,15691185	3,15746284	-0,028289361827774029	6	0,0156431533	8,93226097E-005
2	0	0	0	1	4637,23	3,14441085	3,14482188	-0,028517218976048752	6	0,015607208	8,96815764E-005
2	0	0	0	1	4638,48	3,13191032	3,13225126	-0,028719647389759072	6	0,015571068	8,99571532E-005
2	0	0	1	1	4639,73	3,11940932	3,1196003	-0,028882003418402854	6	0,0155347157	9,01003077E-005
2	0	0	1	1	4640,98	3,10690856	3,10733032	-0,028987075590218182	6	0,0154981995	9,0072419E-005
2	0	0	0	1	4642,23	3,09440732	3,09491992	-0,028966466789521971	6	0,015461484	8,96488928E-005
2	0	0	0	1	4643,48	3,08190656	3,08260965	-0,029118005913915226	6	0,0154246232	8,97594437E-005
2	0	0	1	1	4644,73	3,06940556	3,06981826	-0,029252158351785811	6	0,0153875723	8,97988066E-005
2	0	0	1	1	4645,98	3,05690479	3,05731797	-0,029373399098403699	6	0,0153504051	8,98038197E-005
2	0	0	0	1	4647,23	3,04440355	3,04495764	-0,029510334968411712	6	0,0153130796	8,985772E-005
2	0	0	0	1	4648,48	3,03190255	3,0323267	-0,029662565114752736	6	0,0152756497	8,99465886E-005
2	0	0	1	1	4649,73	3,0194006	3,01976562	-0,029789105849532813	6	0,0152380886	8,99561201E-005
2	0	0	1	1	4650,98	3,00690103	3,0074358	-0,029910810825337421	6	0,015200465	8,99548468E-005
2	0	0	1	1	4652,23	2,99439979	2,99478483	-0,030027627896439949	6	0,0151627269	8,99262814E-005
2	0	0	0	1	4653,48	2,98189902	2,98247457	-0,030147960758768051	6	0,0151249152	8,99155275E-005
2	0	0	0	1	4654,73	2,96939778	2,96986389	-0,030128243709138246	6	0,0150870057	8,947678E-005
2	0	0	1	1	4655,98	2,95689702	2,95725274	-0,030101386044407373	6	0,0150490245	8,90174051E-005
2	0	0	1	1	4657,23	2,94439602	2,94458175	-0,030184638812594643	6	0,0150109651	8,88811337E-005
2	0	0	0	1	4658,48	2,93189526	2,93239188	-0,030251037765992915	6	0,0149728647	8,87079004E-005
2	0	0	0	1	4659,73	2,91939402	2,91984153	-0,030374928862632602	6	0,0149346953	8,86899797E-005
2	0	0	1	1	4660,98	2,90689325	2,90749121	-0,030304365684666381	6	0,0148965213	8,81096785E-005
2	0	0	1	1	4662,23	2,89439201	2,8948102	-0,030315819293415757	6	0,0148582831	8,77585408E-005
2	0	0	0	1	4663,48	2,88189125	2,88236952	-0,030370243660096774	6	0,0148199964	8,75382611E-005
2	0	0	0	1	4664,73	2,86939025	2,8697288	-0,030443064887852691	6	0,01478168	8,73633398E-005
2	0	0	1	1	4665,98	2,85688949	2,85721827	-0,030488032643916115	6	0,0147433346	8,7110966E-005
2	0	0	1	1	4667,23	2,84438825	2,844908	-0,030547347676474598	6	0,014704979	8,69043943E-005
2	0	0	0	1	4668,48	2,83188725	2,83221674	-0,030383626134911021	6	0,0146665918	8,60530126E-005
2	0	0	0	1	4669,73	2,81938648	2,81985664	-0,030427099108540909	6	0,0146281952	8,58000567E-005
2	0	0	1	1	4670,98	2,80688572	2,80736613	-0,030362133790428461	6	0,014589794	8,52376252E-005
2	0	0	1	1	4672,23	2,79438448	2,79479527	-0,030486961894591098	6	0,0145514067	8,52048179E-005
2	0	0	0	1	4673,48	2,78188372	2,78224468	-0,030505843838909722	6	0,0145129878	8,48747222E-005
2	0	0	0	1	4674,73	2,76938248	2,76976395	-0,03048798247861369	6	0,0144745838	8,44445167E-005
2	0	0	1	1	4675,99	2,75688171	2,75708318	-0,030436708021443354	6	0,014436149	8,39165368E-005
2	0	0	1	1	4677,24	2,74438071	2,74482322	-0,030484982921431424	6	0,0143977357	8,36758918E-005
2	0	0	0	1	4678,49	2,73188019	2,73243403	-0,030520558652562925	6	0,0143592963	8,33954109E-005
2	0	0	0	1	4679,74	2,71937871	2,71988201	-0,030566497637967872	6	0,0143208588	8,31372672E-005
2	0	0	0	1	4680,99	2,70687866	2,70746255	-0,030563402987242176	6	0,0142823886	8,27492695E-005
2	0	0	1	1	4682,24	2,69437671	2,694911	-0,030453023849986496	6	0,0142439157	8,20681889E-005
2	0	0	1	1	4683,49	2,68187594	2,68255043	-0,03052681979412841	6	0,0142053869	8,18897315E-005
2	0	0	0	1	4684,74	2,66937494	2,66987967	-0,030571948659295885	6	0,0141668264	8,16234242E-005
2	0	0	0	1	4685,99	2,65687418	2,65738893	-0,030681128429326522	6	0,0141281951	8,15316889E-005
2	0	0	1	1	4687,24	2,64437294	2,64464808	-0,030765402412119667	6	0,0140895154	8,13636652E-005
2	0	0	1	1	4688,49	2,63187218	2,63241816	-0,030741909945694144	6	0,0140507342	8,09255653E-005
2	0	0	0	1	4689,74	2,61937118	2,61982727	-0,030831622765011501	6	0,0140118552	8,07735269E-005
2	0	0	0	1	4690,99	2,60687041	2,60741687	-0,030962941168885037	6	0,0139728487	8,07332981E-005
2	0	0	1	1	4692,24	2,59436917	2,5948863	-0,031127099646255373	6	0,0139337247	8,07712859E-005
2	0	0	1	1	4693,49	2,58186841	2,58236575	-0,031268649492024845	6	0,0138944201	8,0747086E-005
2	0	0	0	1	4694,74	2,56936717	2,56988502	-0,031314775929786266	6	0,0138549497	8,04753727E-005
2	0	0	0	1	4695,99	2,55686641	2,55728412	-0,031406318177081062	6	0,0138152605	8,03148796E-005
2	0	0	1	1	4697,24	2,54436541	2,54481363	-0,031594153008578982	6	0,0137753552	8,04012307E-005
2	0	0	1	1	4698,49	2,53186464	2,53231311	-0,03182345678214921	6	0,0137351984	8,05869568E-005
2	0	0	0	1	4699,74	2,5193634	2,51979232	-0,032047749293269587	6	0,013694793	8,07536708E-005
2	0	0	0	1	4700,99	2,50686264	2,50740218	-0,032295512840695098	6	0,0136541016	8,09778358E-005
2	0	0	1	1	4702,24	2,4943614	2,49476099	-0,032594949327176435	6	0,0136131747	8,13166116E-005
2	0	0	1	1	4703,49	2,48186064	2,48205018	-0,03289313484371337	6	0,0135718938	8,16424144E-005
2	0	0	0	1	4704,74	2,46935964	2,46965981	-0,033174801530549344	6	0,0135302888	8,19304769E-005
2	0	0	0	1	4705,99	2,45685887	2,45730948	-0,033515602922610413	6	0,0134883383	8,23582086E-005
2	0	0	0	1	4707,24	2,44435811	2,44496942	-0,033810190428541357	6	0,0134460442	8,26648829E-005
2	0	0	1	1	4708,49	2,43185687	2,43236828	-0,033976234689665306	6	0,0134033756	8,26427131E-005
2	0	0	1	1	4709,74	2,41935492	2,41987729	-0,034267972533005677	6	0,0133603364	8,29242854E-005
2	0	0	0	1	4710,99	2,40685511	2,40723705	-0,034617935355830464	6	0,0133169182	8,33335798E-005
2	0	0	0	1	4712,24	2,39435387	2,39497709	-0,0349348564826264	6	0,0132731302	8,36681793E-005
2	0	0	1	1	4713,49	2,3818531	2,38224578	-0,035318664168395686	6	0,0132289268	8,41377405E-005
2	0	0	1	1	4714,74	2,36935186	2,36996579	-0,035580757365096307	6	0,0131843323	8,43251764E-005
2	0	0	0	1	4715,99	2,3568511	2,35734487	-0,035896807608272211	6	0,013139314	8,46211551E-005
2	0	0	0	1	4717,24	2,3443501	2,34485435	-0,036240452454270208	6	0,0130938804	8,49785793E-005
2	0	0	1	1	4718,49	2,33184934	2,33229327	-0,036641054010639622	6	0,013048023	8,54576865E-005
2	0	0	1	1	4719,74	2,3193481	2,31948209	-0,037022917531430778	6	0,0130017502	8,5873995E-005
2	0	0	0	1	4720,99	2,30684733	2,30725217	-0,03734623530181136	6	0,0129550332	8,61671797E-005
2	0	0	0	1	4722,24	2,29434609	2,29475188	-0,03753646500020599	6	0,0129078887	8,61368753E-005
2	0	0	1	1	4723,49	2,28184533	2,28221107	-0,037965300124293888	6	0,0128602907	8,66448245E-005
2	0	0	1	1	4724,74	2,26934433	2,26993084	-0,0383421941951384	6	0,01281224	8,70341319E-005
2	0	0	0	1	4725,99	2,25684357	2,25736022	-0,038786726945545523	6	0,0127637396	8,75556143E-005
2	0	0	0	1	4727,24	2,24434233	2,2449398	-0,039105817462162285	6	0,0127147781	8,77902057E-005
2	0	0	1	1	4728,49	2,23184156	2,23233891	-0,039431528489027757	6	0,0126653593	8,80245352E-005
2	0	0	1	1	4729,74	2,21934056	2,21964788	-0,03981017709399248	6	0,012615459	8,83645771E-005
2	0	0	0	1	4730,99	2,2068398	2,20752835	-0,040223194742187277	6	0,0125651015	8,8793844E-005
2	0	0	0	1	4732,24	2,19433856	2,19490767	-0,040654662171922042	6	0,0125142531	8,92332318E-005
2	0	0	1	1	4733,49	2,1818378	2,18237686	-0,041080571497635334	6	0,0124629401	8,96532874E-005
2	0	0	1	1	4734,74	2,16933656	2,1699264	-0,041379608728069171	6	0,0124111203	8,97907084E-005
2	0	0	0	1	4735,99	2,1568346	2,15734553	-0,041751950360158387	6	0,0123588024	9,00733867E-005
2	0	0	0	1	4737,24	2,14433479	2,14465451	-0,042138997387761946	6	0,0123059703	9,03735927E-005
2	0	0	0	1	4738,49	2,13183403	2,13240433	-0,042591537436237613	6	0,0122526381	9,0822381E-005
2	0	0	1	1	4739,74	2,11933279	2,1199038	-0,04304889337314921	6	0,0121987592	9,12595133E-005
2	0	0	0	1	4740,54	2,11123276	2,1118145	-0,044014128049214675	6	0,0121638672	9,29496746E-005