File: Experimentelles/Rohdaten/Batterietests/AlteZelle/Studenten_Batterietests/LLTO_LP30_Li CV/ECLab-Export/LLTO_LP30_Li_02_CV_C01_loop7.mpt
EC-Lab ASCII FILE
Nb header lines : 3
mode	ox/red	error	control changes	counter inc.	time/s	control/V	Ewe/V	<I>/mA	cycle number	(Q-Qo)/C	P/W
2	0	0	1	0	5400,78	2,11163282	2,11205506	-0,051776442676782611	8	0	0,000109354696
2	0	0	0	0	5402,01	2,09933138	2,09989476	-0,043381430325098419	8	-5,47008131E-005	9,10964372E-005
2	0	0	0	0	5403,26	2,08683038	2,0872438	-0,043831332654614694	8	-0,000109533823	9,1486676E-005
2	0	0	1	0	5404,51	2,07432961	2,07461309	-0,044416135894910893	8	-0,000165027654	9,21462997E-005
2	0	0	1	0	5405,76	2,06182837	2,06231284	-0,044928272768932634	8	-0,000221131137	9,26561552E-005
2	0	0	0	0	5407,01	2,04932761	2,04984236	-0,045358842646237683	8	-0,000277852378	9,29784801E-005
2	0	0	0	0	5408,26	2,03682661	2,03725171	-0,045795486522062445	8	-0,000335171324	9,32969342E-005
2	0	0	1	0	5409,51	2,02432585	2,02495146	-0,046341132139787104	8	-0,000393096154	9,38385419E-005
2	0	0	1	0	5410,76	2,01182485	2,01218033	-0,046838428010232749	8	-0,000451623171	9,42473634E-005
2	0	0	0	0	5412,01	1,99932373	1,99962962	-0,047409485462897805	8	-0,000510788523	9,48014131E-005
2	0	0	0	0	5413,26	1,98682284	1,98722923	-0,047820500001156122	8	-0,000570554112	9,50302929E-005
2	0	0	1	0	5414,51	1,97432184	1,97469842	-0,048283297374534131	8	-0,000630975876	9,53449489E-005
2	0	0	1	0	5415,76	1,96182084	1,96192729	-0,048792856997655066	8	-0,00069204584	9,57280354E-005
2	0	0	1	0	5417,01	1,94931901	1,94993699	-0,049401252562580602	8	-0,000753776054	9,63293278E-005
2	0	0	0	0	5418,26	1,93681896	1,93727696	-0,049934787598128416	8	-0,00081618072	9,67375163E-005
2	0	0	0	0	5419,51	1,92431808	1,92492676	-0,05054451302081975	8	-0,000879241095	9,72944836E-005
2	0	0	1	0	5420,76	1,91181707	1,91239619	-0,050957614032086093	8	-0,000943004445	9,74511495E-005
2	0	0	1	0	5422,01	1,89931607	1,89971507	-0,051548292258909888	8	-0,00100744294	9,79270699E-005
2	0	0	0	0	5423,26	1,88681519	1,88730478	-0,05218726652674377	8	-0,00107264041	9,84932776E-005
2	0	0	0	0	5424,51	1,87431419	1,87480402	-0,052846474126757581	8	-0,00113856047	9,90767803E-005
2	0	0	1	0	5425,76	1,86181319	1,86241376	-0,053553086763713619	8	-0,00120530964	9,97380048E-005
2	0	0	1	0	5427,01	1,84931231	1,84984291	-0,054165462439414112	8	-0,0012728835	0,000100197598
2	0	0	0	0	5428,26	1,8368113	1,8373524	-0,054806879372336083	8	-0,00134137331	0,000100699552
2	0	0	0	0	5429,51	1,82431042	1,8247416	-0,055630335623088275	8	-0,00141080003	0,000101510988
2	0	0	1	0	5430,76	1,81180942	1,81210077	-0,05649980947297689	8	-0,00148126006	0,000102383347
2	0	0	1	0	5432,01	1,79930842	1,79980052	-0,057418773008976019	8	-0,00155276945	0,00010334234
2	0	0	0	0	5433,26	1,78680754	1,78707945	-0,058357083607309952	8	-0,00162545464	0,000104288745
2	0	0	0	0	5434,51	1,77430654	1,77482963	-0,059293195411252454	8	-0,00169933995	0,000105235318
2	0	0	1	0	5435,77	1,76180553	1,76232898	-0,060437675274442995	8	-0,00177461049	0,00010651107
2	0	0	1	0	5437,02	1,74930465	1,74981833	-0,061702018933526003	8	-0,00185132166	0,000107967324
2	0	0	0	0	5438,27	1,73680365	1,73717737	-0,063064684063041114	8	-0,00192965637	0,000109554545
2	0	0	0	0	5439,52	1,72430277	1,72479701	-0,064516299423606592	8	-0,00200970192	0,000111277521
2	0	0	1	0	5440,77	1,71180177	1,71211576	-0,065856964172174682	8	-0,00209163059	0,000112754744
2	0	0	1	0	5442,02	1,69930077	1,69992614	-0,067458735681915187	8	-0,00217550225	0,000114674869
2	0	0	0	0	5443,27	1,68679988	1,68735552	-0,069146282175400806	8	-0,00226144819	0,00011667436
2	0	0	0	0	5444,52	1,67429888	1,67476451	-0,070850820183598835	8	-0,00234948937	0,000118658441
2	0	0	1	0	5445,77	1,66179836	1,66221464	-0,072543447688490522	8	-0,00243963487	0,000120582779
2	0	0	1	0	5447,02	1,649297	1,64951289	-0,074316247540991808	8	-0,00253188354	0,00012258561
2	0	0	1	0	5448,27	1,636796	1,63710237	-0,076262825711940544	8	-0,00262637297	0,000124850048
2	0	0	0	0	5449,52	1,62429512	1,62483239	-0,078365659806877594	8	-0,00272331201	0,000127331063
2	0	0	0	0	5450,77	1,61179411	1,61223161	-0,080788671756939546	8	-0,0028230215	0,000130250046
2	0	0	1	0	5452,02	1,59929335	1,59970093	-0,083531490895741965	8	-0,00292590423	0,000133625406
2	0	0	1	0	5453,27	1,58679223	1,58730054	-0,086771086537434368	8	-0,00303250505	0,000137731797
2	0	0	0	0	5454,52	1,57429123	1,57470977	-0,090570351302934221	8	-0,0031435811	0,000142622011
2	0	0	0	0	5455,77	1,56179047	1,56229937	-0,095596040036374234	8	-0,00326019432	0,000149349638
2	0	0	1	0	5457,06	1,54888928	1,54919732	-0,10205285406361042	8	-0,00338791474	0,000158100011
2	0	0	1	0	5458,31	1,53638852	1,53671694	-0,11039658775553118	8	-0,00352085801	0,000169648309
2	0	0	0	0	5459,56	1,52388763	1,52436662	-0,12100626279910421	8	-0,00366554991	0,000184457909
2	0	0	0	0	5460,81	1,51138651	1,51180589	-0,13440698590905664	8	-0,00382516114	0,000203197269
2	0	0	1	0	5462,06	1,49888563	1,49936545	-0,15072598905923472	8	-0,00400340138	0,000225993339
2	0	0	1	0	5463,31	1,48638463	1,48681486	-0,17042644810862838	8	-0,00420417683	0,000253392587
2	0	0	0	0	5464,56	1,47388375	1,47429407	-0,19335515855345821	8	-0,00443166634	0,000285062357
2	0	0	0	0	5465,81	1,46138275	1,46179342	-0,2194579616965111	8	-0,00468974048	0,00032080221
2	0	0	1	0	5467,06	1,44888163	1,44937313	-0,24820606371698285	8	-0,00498217996	0,000359743193
2	0	0	1	0	5468,31	1,43638086	1,43697274	-0,27929326721156688	8	-0,00531196874	0,000401336816
2	0	0	0	0	5469,56	1,42387998	1,42437184	-0,31208447281581677	8	-0,00568195153	0,000444524339
2	0	0	0	0	5470,81	1,41137886	1,41189134	-0,34657097157711904	8	-0,0060940003	0,000489320548
2	0	0	1	0	5472,06	1,39887798	1,39944088	-0,38194014714099558	8	-0,00654981378	0,000534502673
2	0	0	1	0	5473,31	1,38637698	1,38681006	-0,41796858655288813	8	-0,00705010677	0,000579643063
2	0	0	0	0	5474,56	1,37387586	1,37432897	-0,45414548330188429	8	-0,00759568159	0,000624145323
2	0	0	0	0	5475,81	1,36137509	1,36177874	-0,49033622676506637	8	-0,0081865238	0,000667729473
2	0	0	0	0	5477,06	1,34887397	1,34925807	-0,5265828881723191	8	-0,00882270373	0,000710496213
2	0	0	1	0	5478,31	1,33637321	1,33658719	-0,56234044892092429	8	-0,009503874	0,000751617015
2	0	0	1	0	5479,56	1,32387233	1,32428706	-0,59754079611351194	8	-0,0102293594	0,000791315513
2	0	0	0	0	5480,81	1,31137121	1,31149578	-0,63223146274686042	8	-0,010998548	0,000829168886
2	0	0	0	0	5482,06	1,29887033	1,29910529	-0,66614825402696806	8	-0,0118105337	0,000865396694
2	0	0	1	0	5483,31	1,28636932	1,28686535	-0,69912214856594982	8	-0,0126645621	0,000899676059
2	0	0	1	0	5484,56	1,27386844	1,27425444	-0,73191803864513843	8	-0,0135596041	0,000932649826
2	0	0	0	0	5485,81	1,26136744	1,26185429	-0,76453107719620224	8	-0,0144953374	0,000964726845
2	0	0	0	0	5487,06	1,24886644	1,24931359	-0,7997452327981591	8	-0,0154732885	0,000999132637
2	0	0	1	0	5488,31	1,23636556	1,23676276	-0,83663357732196531	8	-0,0164965	0,00103471731
2	0	0	1	0	5489,56	1,22386467	1,22430229	-0,87417870666831885	8	-0,0175663494	0,00107025902
2	0	0	0	0	5490,81	1,21136355	1,21183181	-0,9113784522439063	8	-0,0186832491	0,0011044374
2	0	0	0	0	5492,06	1,19886267	1,19920087	-0,94694695125023642	8	-0,0198455751	0,00113557966
2	0	0	1	0	5493,31	1,18636167	1,18699098	-0,98010291066020723	8	-0,0210509673	0,00116337335
2	0	0	1	0	5494,59	1,17356062	1,17374861	-1,011431201671563	8	-0,0223262254	0,00118716597
2	0	0	0	0	5495,84	1,16105974	1,16148853	-1,0390374495958294	8	-0,0236087553	0,00120683003
2	0	0	0	0	5497,09	1,14855886	1,14899802	-1,064359290525319	8	-0,0249242838	0,00122294668
2	0	0	1	0	5498,34	1,13605773	1,13662779	-1,0868226494640147	8	-0,0262698866	0,00123531278
2	0	0	1	0	5499,59	1,12355685	1,12412727	-1,1066634391124026	8	-0,0276417769	0,00124403054
2	0	0	0	0	5500,84	1,11105597	1,11156654	-1,12406744373342	8	-0,02903709	0,00124947575
2	0	0	0	0	5502,09	1,09855485	1,09904587	-1,1392939938232302	8	-0,030452447	0,00125213631
2	0	0	1	0	5503,34	1,08605289	1,08650327	-1,1523237065860546	8	-0,03188565	0,00125200348
2	0	0	1	0	5504,59	1,07355309	1,07381415	-1,1635057643676792	8	-0,033333689	0,00124938891
2	0	0	1	0	5505,84	1,06105125	1,0614531	-1,1725622052740086	8	-0,0347944386	0,00124461984
2	0	0	0	0	5507,09	1,0485512	1,04899335	-1,1798231980452912	8	-0,0362652913	0,00123762665
2	0	0	0	0	5508,34	1,0360502	1,03641248	-1,1847349101056643	8	-0,0377436243	0,00122787408
2	0	0	1	0	5509,59	1,0235492	1,02395201	-1,1876041997845003	8	-0,0392270684	0,00121604966
2	0	0	1	0	5510,84	1,01104832	1,01142132	-1,1880408935248851	8	-0,0407123975	0,00120160985
2	0	0	0	0	5512,09	0,998547375	0,998880804	-1,1860649893060398	8	-0,0421972014	0,00118473754
2	0	0	0	0	5513,34	0,986046433	0,986430228	-1,1819379338994627	8	-0,0436778814	0,00116589933
2	0	0	1	0	5514,59	0,973545432	0,973739147	-1,1751427324488795	8	-0,0451518334	0,00114428252
2	0	0	1	0	5515,84	0,96104449	0,961669624	-1,1654826312636368	8	-0,0466153212	0,00112080923
2	0	0	0	0	5517,09	0,948543549	0,949078858	-1,153571328458689	8	-0,0480655357	0,00109483011
2	0	0	0	0	5518,34	0,936042607	0,936638355	-1,1396943262467816	8	-0,0494994558	0,00106748147
2	0	0	1	0	5519,59	0,923541605	0,923997521	-1,1246062327797208	8	-0,0509152971	0,00103913341
2	0	0	1	0	5520,84	0,911040664	0,911406696	-1,1094283297037074	8	-0,0523119159	0,00101114041
2	1	0	0	0	5522,02	0,900839865	0,90127182	-1,0784970161815472	8	-0,0536132008	0,000972018985
2	1	0	1	0	5523,27	0,913340867	0,913792431	-0,84414926574876147	8	-0,0548067614	0,000771377236
2	1	0	1	0	5524,52	0,925841808	0,926122665	-0,65968018133814438	8	-0,0557418466	0,000610944757
2	1	0	0	0	5525,77	0,93834275	0,938903987	-0,50676273507997574	8	-0,0564673468	0,000475801557
2	1	0	0	0	5527,06	0,951243818	0,951845646	-0,37435130107527123	8	-0,0570327677	0,000356324657
2	1	0	1	0	5528,31	0,96374476	0,964276016	-0,26451837566370883	8	-0,0574296303	0,000255068735
2	1	0	1	0	5529,56	0,976245701	0,976566076	-0,17019484851819798	8	-0,0576992892	0,000166206519
2	1	0	0	0	5530,81	0,988746703	0,989076734	-0,088740167867702886	8	-0,057859391	8,77708371E-005
2	1	0	0	0	5532,10	1,00164747	1,00186801	-0,016082888493353203	8	-0,0579254143	1,61129319E-005
2	1	0	1	0	5533,35	1,01414847	1,01449895	0,045478460893112474	8	-0,0579057522	4,61378513E-005
2	1	0	1	0	5534,62	1,02684951	1,02718484	0,10035424442806563	8	-0,0578119494	0,000103082362
2	1	0	0	0	5535,89	1,03955054	1,04001129	0,1492866370050856	8	-0,0576522388	0,000155259782
2	1	0	0	0	5537,14	1,05205142	1,05234158	0,19259864138439309	8	-0,0574375093	0,000202679556
2	1	0	1	0	5538,39	1,06455243	1,0648421	0,23225910317463149	8	-0,0571709201	0,000247319258
2	1	0	1	0	5539,64	1,07705331	1,07743287	0,26881504012271734	8	-0,0568569154	0,000289630174
2	1	0	0	0	5540,89	1,08955431	1,08988345	0,30308590216251654	8	-0,0564986356	0,000330328301
2	1	0	0	0	5542,14	1,10205531	1,10242403	0,33524139644578099	8	-0,056099005	0,000369578163
2	1	0	1	0	5543,39	1,11455619	1,11507487	0,366020476600776	8	-0,0556599088	0,000408140244
2	1	0	1	0	5544,64	1,12705719	1,12768579	0,39560782024636864	8	-0,0551831685	0,000446121325
2	1	0	0	0	5545,89	1,1395582	1,14014637	0,42446746987601094	8	-0,0546698496	0,000483955053
2	1	0	0	0	5547,14	1,15205908	1,15230608	0,45252551153922925	8	-0,0541211329	0,000521447917
2	1	0	1	0	5548,39	1,16455936	1,16505718	0,48016373522394496	8	-0,0535375513	0,000559418229
2	1	0	1	0	5549,64	1,17706096	1,17744756	0,50708890551080275	8	-0,0529198349	0,000597070612
2	1	0	1	0	5550,89	1,18956196	1,18991828	0,53418593745057574	8	-0,0522683039	0,000635637611
2	1	0	0	0	5552,14	1,20206296	1,20252895	0,56077004037797363	8	-0,0515831932	0,000674342213
2	1	0	0	0	5553,39	1,21456385	1,21520007	0,58714918280020173	8	-0,0508650467	0,000713503745
2	1	0	1	0	5554,64	1,22706485	1,2273699	0,61320712029313101	8	-0,0501140431	0,000752631982
2	1	0	1	0	5555,89	1,23956585	1,24018121	0,63884281615416243	8	-0,0493309647	0,000792280829
2	1	0	0	0	5557,14	1,25206673	1,25245106	0,66384762323771955	8	-0,0485161692	0,000831436657
2	1	0	0	0	5558,39	1,26456773	1,26510215	0,68823015208666266	8	-0,0476706997	0,000870681426
2	1	0	1	0	5559,65	1,27706861	1,27775323	0,71145166301478733	8	-0,0467953198	0,000909059658
2	1	0	1	0	5560,90	1,28956962	1,29019356	0,73440060749029184	8	-0,0458912514	0,000947518914
2	1	0	0	0	5562,15	1,30207062	1,30248368	0,75621241579453094	8	-0,0449590683	0,000984954298
2	1	0	0	0	5563,40	1,3145715	1,31500423	0,7769573144614679	8	-0,0440003425	0,00102170219
2	1	0	1	0	5564,65	1,3270725	1,32739449	0,79674845685561318	8	-0,0430160426	0,00105759955
2	1	0	1	0	5565,90	1,3395735	1,3401258	0,81584125136335578	8	-0,0420076288	0,00109332986
2	1	0	0	0	5567,15	1,35207438	1,35267651	0,83376999975492621	8	-0,0409760065	0,00112782104
2	1	0	0	0	5568,40	1,36457527	1,36494648	0,85067421353111552	8	-0,0399228148	0,00116112479
2	1	0	1	0	5569,65	1,37707627	1,37747717	0,86639597049603981	8	-0,0388488621	0,00119344064
2	1	0	1	0	5570,90	1,38957727	1,39007807	0,88162205492456819	8	-0,037755806	0,00122552353
2	1	0	0	0	5572,15	1,40207815	1,4025085	0,89575177275886144	8	-0,0366442427	0,00125629944
2	1	0	0	0	5573,40	1,41457915	1,41498888	0,90934686393787251	8	-0,0355155915	0,00128671573
2	1	0	1	0	5574,65	1,42708015	1,42753971	0,92291197180747814	8	-0,0343699306	0,0013174935
2	1	0	1	0	5575,90	1,43958116	1,43994999	0,93991364414493453	8	-0,0332059041	0,0013534287
2	1	0	1	0	5577,15	1,45208228	1,45251048	0,96403321323776934	8	-0,0320160985	0,00140026829
2	1	0	0	0	5578,40	1,46458292	1,46517181	0,99442541071524288	8	-0,0307919458	0,00145700411
2	1	0	0	0	5579,68	1,47738397	1,4779129	1,0298491474240982	8	-0,0294956006	0,00152202731
2	1	0	1	0	5580,93	1,48988485	1,49016285	1,0637830222646426	8	-0,0281861909	0,00158520998
2	1	0	1	0	5582,18	1,50238574	1,50291419	1,0937490612268466	8	-0,0268367101	0,001643811
2	1	0	0	0	5583,43	1,51488686	1,5153445	1,1178090401614699	8	-0,0254531968	0,00169386575
2	1	0	0	0	5584,68	1,52738774	1,52787519	1,1344966807713126	8	-0,0240443032	0,00173336931
2	1	0	1	0	5585,93	1,53988874	1,54030561	1,1428909388681222	8	-0,0226192959	0,0017604013
2	1	0	1	0	5587,18	1,55238974	1,5528363	1,1408375582347342	8	-0,0211902764	0,00177153398
2	1	0	0	0	5588,43	1,5648905	1,56542706	1,125349516669909	8	-0,019771859	0,00176165265
2	1	0	0	0	5589,68	1,57739162	1,57789755	1,0945125666136573	8	-0,0183823686	0,00172702875
2	1	0	1	0	5590,93	1,58989251	1,59033787	1,0469201734910389	8	-0,0170417447	0,0016649568
2	1	0	1	0	5592,18	1,60239339	1,60284877	0,98296866659074842	8	-0,0157710072	0,00157555006
2	1	0	0	0	5593,43	1,61489451	1,61540926	0,90332289536793728	8	-0,014589983	0,00145923614
2	1	0	0	0	5594,68	1,62739527	1,62793994	0,80873818726588992	8	-0,0135183167	0,0013165772
2	1	0	1	0	5595,93	1,63989615	1,64052093	0,7030131655434761	8	-0,0125724152	0,00115330785
2	1	0	1	0	5597,18	1,65239739	1,65283096	0,5903607693811264	8	-0,0117629115	0,000975766568
2	1	0	0	0	5598,47	1,66529822	1,66583276	0,4564000922255209	8	-0,0110848695	0,000760286232
2	1	0	0	0	5599,72	1,67779922	1,67823315	0,30726223182864576	8	-0,0106067006	0,000515657652
2	1	0	1	0	5600,97	1,69030011	1,69079387	0,18212017215167453	8	-0,0103058815	0,000307927665
2	1	0	1	0	5602,22	1,70280111	1,70331466	0,11311523915113275	8	-0,0101267714	0,00019267085
2	1	0	0	0	5603,47	1,71530199	1,71595526	0,084552362522420787	8	-0,0100055262	0,000145088066
2	1	0	0	0	5604,72	1,72780299	1,72833574	0,071773913766567834	8	-0,00990833435	0,000124049417
2	1	0	1	0	5605,97	1,74030387	1,74053574	0,064325591267832	8	-0,00982316118	0,000111960988
2	1	0	1	0	5607,22	1,75280488	1,75326669	0,059364550397731302	8	-0,00974545907	0,00010408189
2	1	0	1	0	5608,47	1,76530588	1,7658174	0,055686510711287411	8	-0,00967309903	9,83322097E-005
2	1	0	0	0	5609,72	1,77780688	1,77837825	0,052803947299253197	8	-0,00960481074	9,39053934E-005
2	1	0	0	0	5610,97	1,79030776	1,79071832	0,050452005603195514	8	-0,00953979976	9,03453329E-005
2	1	0	1	0	5612,26	1,80320859	1,80372012	0,04853652303184697	8	-0,00947544072	8,75463011E-005
2	1	0	1	0	5613,51	1,81570983	1,8159802	0,046961258039421638	8	-0,00941535458	8,52807134E-005
2	1	0	0	0	5614,76	1,82821071	1,82855082	0,045661364536499552	8	-0,00935708359	8,34941238E-005
2	1	0	0	0	5616,01	1,84071147	1,84117174	0,044524340579907059	8	-0,00930040888	8,19769557E-005
2	1	0	1	0	5617,26	1,85321271	1,85351193	0,043578089311874125	8	-0,00924505666	8,07725082E-005
2	1	0	1	0	5618,51	1,8657136	1,86627316	0,042756326273471686	8	-0,00919087697	7,97949833E-005
2	1	0	0	0	5619,76	1,8782146	1,8785733	0,042055419461879296	8	-0,00913767237	7,90041886E-005
2	1	0	0	0	5621,01	1,89071548	1,89097369	0,041255288805890131	8	-0,0090853516	7,80126647E-005
2	1	0	1	0	5622,26	1,90321624	1,90380514	0,040700751783636634	8	-0,00903375726	7,74863001E-005
2	1	0	1	0	5623,51	1,91571748	1,91634572	0,040255203086417171	8	-0,0089828223	7,71428895E-005
2	1	0	0	0	5624,76	1,92821836	1,92877626	0,039883377437945453	8	-0,00893241074	7,69261096E-005
2	1	0	0	0	5626,01	1,94071913	1,94112635	0,03958667826373127	8	-0,00888249185	7,68427417E-005
2	1	0	1	0	5627,26	1,95322037	1,95394766	0,039239406042421766	8	-0,0088329576	7,66717421E-005
2	1	0	1	0	5628,51	1,96572125	1,9661175	0,038972405173505197	8	-0,00878376234	7,66243247E-005
2	1	0	0	0	5629,76	1,97822225	1,9784075	0,038814954091018592	8	-0,00873481482	7,67917954E-005
2	1	0	0	0	5631,01	1,99072313	1,99129915	0,038648216655322477	8	-0,00868610106	7,69601611E-005
2	1	0	1	0	5632,26	2,00322413	2,00370955	0,038634017808362842	8	-0,00863755122	7,74113505E-005
2	1	0	1	0	5633,51	2,01572514	2,01608992	0,038444951487084186	8	-0,00858914852	7,75084773E-005
2	1	0	0	0	5634,76	2,02822661	2,02881122	0,038241527006729894	8	-0,00854086597	7,75848384E-005
2	1	0	0	0	5636,01	2,0407269	2,04110122	0,038168466455923974	8	-0,00849269982	7,79057009E-005
2	1	0	1	0	5637,26	2,05322886	2,05357385	0,038187137431250573	8	-0,00844461843	7,84201038E-005
2	1	0	1	0	5638,51	2,0657289	2,06625247	0,03813410914153783	8	-0,00839660875	7,87946992E-005
2	1	0	1	0	5639,76	2,07822919	2,07874227	0,038192704365389715	8	-0,0083486503	7,93927902E-005
2	1	0	0	0	5641,01	2,09073067	2,09117341	0,038017088964503731	8	-0,00830069929	7,95003289E-005
2	1	0	0	0	5642,26	2,10323167	2,10370421	0,038063308990482822	8	-0,00825281721	8,00739435E-005
2	1	0	1	0	5643,51	2,11573267	2,11617446	0,038118001160910355	8	-0,00820484851	8,06643438E-005
2	1	0	1	0	5644,76	2,12823367	2,12873554	0,03820303899313632	8	-0,00815686397	8,13241641E-005
2	1	0	0	0	5646,01	2,14073443	2,14125609	0,038331447916182925	8	-0,00810878631	8,20774439E-005
2	1	0	0	0	5647,26	2,15323544	2,15349603	0,03826131428165047	8	-0,00806065928	8,23955852E-005
2	1	0	1	0	5648,51	2,16573668	2,16615701	0,038289787791048525	8	-0,00801242422	8,29416895E-005
2	1	0	1	0	5649,76	2,1782372	2,17859745	0,038406270391230125	8	-0,00796408951	8,36718027E-005
2	1	0	0	0	5651,01	2,19073844	2,19112802	0,038550532898322362	8	-0,00791561045	8,44691531E-005
2	1	0	0	0	5652,26	2,20323944	2,20357847	0,038709053236137382	8	-0,00786703266	8,52984376E-005
2	1	0	1	0	5653,51	2,21574044	2,21618938	0,038855495416403987	8	-0,00781825837	8,6111133E-005
2	1	0	1	0	5654,76	2,22824121	2,22865987	0,038869154028361638	8	-0,00776933506	8,66261253E-005
2	1	0	0	0	5656,01	2,24074221	2,24150157	0,039049873574792058	8	-0,00772020128	8,75303522E-005
2	1	0	0	0	5657,26	2,25324297	2,25369143	0,03923442347634887	8	-0,00767089054	8,84222827E-005
2	1	0	1	0	5658,51	2,26574397	2,26620173	0,039440357562852915	8	-0,00762134138	8,9379806E-005
2	1	0	1	0	5659,76	2,27824497	2,27875257	0,039654597484817114	8	-0,00757158129	9,03630134E-005
2	1	0	0	0	5661,01	2,29074597	2,29109263	0,039707969932351238	8	-0,00752155017	9,09746377E-005
2	1	0	0	0	5662,26	2,30324697	2,30352306	0,039925164669208922	8	-0,00747128017	9,19685408E-005
2	1	0	1	0	5663,51	2,31574798	2,3161943	0,040151722748608621	8	-0,00742069492	9,29991947E-005
2	1	0	1	0	5664,76	2,32824898	2,32854438	0,040393080310119981	8	-0,0073698354	9,40570826E-005
2	1	0	1	0	5666,01	2,34074855	2,3410933	0,040680106204539546	8	-0,00731865363	9,5235926E-005
2	1	0	0	0	5667,26	2,35325074	2,35375595	0,040954273620930739	8	-0,00726718176	9,63963685E-005
2	1	0	0	0	5668,51	2,36575198	2,3663168	0,041246507375035552	8	-0,00721540442	9,76023002E-005
2	1	0	1	0	5669,76	2,37825251	2,37853694	0,0415159549059656	8	-0,00716334023	9,87472304E-005
2	1	0	1	0	5671,01	2,39075375	2,39126778	0,041833425561586976	8	-0,00711095892	0,000100034922
2	1	0	0	0	5672,26	2,40325451	2,40370822	0,042161167802987398	8	-0,00705824746	0,000101343147
2	1	0	0	0	5673,51	2,41575575	2,41613865	0,042441104732764192	8	-0,00700515416	0,000102543592
2	1	0	1	0	5674,76	2,42825651	2,42874956	0,042668432074909421	8	-0,00695164502	0,000103630933
2	1	0	1	0	5676,01	2,44075751	2,44136047	0,043108006337812531	8	-0,00689768093	0,000105242179
2	1	0	0	0	5677,26	2,45325828	2,4536705	0,043511816009413395	8	-0,0068432265	0,000106763662
2	1	0	0	0	5678,51	2,46575928	2,46618128	0,043977927600887328	8	-0,00678824354	0,000108457542
2	1	0	1	0	5679,76	2,47826028	2,47857141	0,044424128961206176	8	-0,00673273625	0,000110108376
2	1	0	1	0	5681,01	2,49076128	2,49141288	0,044741188525222131	8	-0,00667671347	0,000111468777
2	1	0	0	0	5682,26	2,50326228	2,50379324	0,04502678257995296	8	-0,00662024925	0,000112737755
2	1	0	0	0	5683,51	2,51576328	2,51615357	0,045502194116124941	8	-0,00656331563	0,000114490511
2	1	0	1	0	5684,76	2,52826405	2,52886462	0,045869593925696563	8	-0,00650592009	0,000115997995
2	1	0	1	0	5686,01	2,54076505	2,54117489	0,046341411313430029	8	-0,00644807518	0,000117761629
2	1	0	0	0	5687,26	2,55326605	2,55365539	0,046581667285257254	8	-0,00638974272	0,000118953525
2	1	0	0	0	5688,51	2,56576729	2,56620598	0,046990479303834157	8	-0,00633090967	0,000120587247
2	1	0	1	0	5689,77	2,57826781	2,57884669	0,047367714500675616	8	-0,00627154671	0,000122154073
2	1	0	1	0	5691,02	2,59076905	2,59134769	0,047902055724989568	8	-0,00621167384	0,000124130878
2	1	0	1	0	5692,27	2,6032691	2,603688	0,048240658970740589	8	-0,00615124451	0,000125603619
2	1	0	0	0	5693,52	2,61577106	2,61610818	0,048797482129884659	8	-0,00609029736	0,000127659485
2	1	0	0	0	5694,77	2,62827206	2,62859893	0,049130381041238016	8	-0,00602875696	0,000129144071
2	1	0	1	0	5696,02	2,64077282	2,64116955	0,049641081054384365	8	-0,00596666196	0,000131110515
2	1	0	1	0	5697,27	2,65327358	2,65381026	0,050174157115785875	8	-0,00590395974	0,000133152687
2	1	0	0	0	5698,52	2,66577458	2,66614056	0,050665309672088602	8	-0,00584066147	0,000135080831
2	1	0	0	0	5699,77	2,67827559	2,67891192	0,051231058333845114	8	-0,00577673037	0,000137243493
2	1	0	1	0	5701,02	2,69077659	2,69120169	0,051596890552900678	8	-0,00571216876	0,000138857635
2	1	0	1	0	5702,27	2,70327759	2,70382261	0,05209719521614409	8	-0,00564695289	0,000140861579
2	1	0	0	0	5703,52	2,71577859	2,71628332	0,05264680945159239	8	-0,00558109861	0,00014300365
2	1	0	0	0	5704,77	2,72827935	2,72862339	0,053193349430027226	8	-0,0055145761	0,000145144615
2	1	0	1	0	5706,02	2,74078035	2,74128437	0,05374924370941392	8	-0,00544741331	0,000147341969
2	1	0	1	0	5707,27	2,75328135	2,7540555	0,054226641717832422	8	-0,00537958089	0,000149343177
2	1	0	0	0	5708,52	2,76578236	2,76646614	0,054692209950492954	8	-0,00531110214	0,00015130415
2	1	0	0	0	5709,77	2,77828312	2,7786057	0,055252705991733709	8	-0,00524195284	0,000153525485
2	1	0	1	0	5711,02	2,79078436	2,79132676	0,055800045394183597	8	-0,00517214835	0,000155756163
2	1	0	1	0	5712,27	2,80328512	2,80365705	0,056402370081438419	8	-0,00510166911	0,000158132898
2	1	0	0	0	5713,52	2,81578612	2,81619763	0,056876754310602906	8	-0,00503053842	0,000160176176
2	1	0	0	0	5714,77	2,82828712	2,82870841	0,057276176987215763	8	-0,0049587125	0,000162017604
2	1	0	1	0	5716,02	2,84078813	2,84109879	0,057834325843335475	8	-0,00488620019	0,000164313038
2	1	0	1	0	5717,27	2,85328889	2,85370946	0,058419635383567539	8	-0,00481300382	0,000166712663
2	1	0	0	0	5718,52	2,86578989	2,86624026	0,058954054761367386	8	-0,00473913038	0,00016897649
2	1	0	0	0	5719,77	2,87829089	2,87878084	0,059537987865042022	8	-0,00466455054	0,000171396823
2	1	0	1	0	5721,02	2,89079285	2,89128232	0,060160016390575117	8	-0,00458927406	0,000173939596
2	1	0	1	0	5722,27	2,90329289	2,90390229	0,060760793547766861	8	-0,00451331399	0,000176443413
2	1	0	0	0	5723,52	2,91579461	2,91644311	0,061314079532772378	8	-0,00443671132	0,000178819027
2	1	0	0	0	5724,77	2,92829466	2,92881322	0,061951247334945946	8	-0,00435939059	0,000181443625
2	1	0	0	0	5726,02	2,94079566	2,94137406	0,062548713894405645	8	-0,00428137695	0,000183979166
2	1	0	1	0	5727,27	2,95329666	2,95371437	0,063026366794171059	8	-0,00420265598	0,00018616188
2	1	0	1	0	5728,52	2,96579766	2,96603441	0,063521539229744128	8	-0,00412323326	0,000188407066
2	1	0	0	0	5729,77	2,97829843	2,97856498	0,064133552853793958	8	-0,00404306408	0,00019102596
2	1	0	0	0	5731,02	2,99079967	2,99125624	0,064777365051365005	8	-0,00396216055	0,000193765693
2	1	0	1	0	5732,27	3,00330043	3,00353622	0,065459169272799206	8	-0,00388047704	0,000196608991
2	1	0	1	0	5733,52	3,01580143	3,01608682	0,066033074050210419	8	-0,00379805104	0,000199161484
2	1	0	0	0	5734,77	3,02830243	3,02876782	0,066633590574686541	8	-0,00371480174	0,000201817675
2	1	0	0	0	5736,02	3,04080343	3,04118824	0,067302450324253517	8	-0,00363073894	0,000204679425
2	1	0	1	0	5737,27	3,0533042	3,05392933	0,068057022270901875	8	-0,00354581466	0,000207841338
2	1	0	1	0	5738,52	3,0658052	3,06634974	0,068743565119802957	8	-0,00346005359	0,000210791812
2	1	0	0	0	5739,77	3,0783062	3,0789206	0,069542505157490611	8	-0,00337340124	0,000214115847
2	1	0	0	0	5741,02	3,0908072	3,09131122	0,070057422912213952	8	-0,00328587228	0,0002165693
2	1	0	1	0	5742,27	3,10330796	3,10368109	0,070810712718715418	8	-0,00319744786	0,000219773865
2	1	0	1	0	5743,52	3,1158092	3,11621189	0,071472041483502797	8	-0,00310812891	0,000222722025
2	1	0	0	0	5744,77	3,12830973	3,12884283	0,072324141995826227	8	-0,00301790889	0,000226290867
2	1	0	0	0	5746,02	3,14081073	3,14135361	0,073071221452361664	8	-0,00292675896	0,000229542551
2	1	0	1	0	5747,27	3,15331173	3,15381384	0,073777266234780314	8	-0,00283468934	0,000232679769
2	1	0	1	0	5748,52	3,16581297	3,1662643	0,074520255186750093	8	-0,0027416416	0,000235950822
2	1	0	0	0	5749,77	3,17831373	3,17875481	0,075336170926068928	8	-0,00264760433	0,000239475208
2	1	0	0	0	5751,02	3,1908145	3,19131565	0,076269252749625485	8	-0,00255253538	0,000243399263
2	1	0	0	0	5752,27	3,20331454	3,2036047	0,077163927411741606	8	-0,00245640846	0,000247202726
2	1	0	1	0	5753,52	3,2158165	3,21625638	0,078041871330545741	8	-0,00235913624	0,000251002668
2	1	0	1	0	5754,77	3,2283175	3,22870708	0,078839337433843418	8	-0,00226074504	0,000254549115
2	1	0	0	0	5756,02	3,2408185	3,24149823	0,079888789138446221	8	-0,0021610742	0,000258959364
2	1	0	0	0	5757,27	3,25331926	3,25376821	0,08099199598655104	8	-0,00206013909	0,000263529189
2	1	0	1	0	5758,52	3,26582026	3,26642942	0,082138927440003955	8	-0,00195781025	0,000268300995
2	1	0	1	0	5759,77	3,27832127	3,2788198	0,083376305953909658	8	-0,00185406848	0,000273375888
2	1	0	0	0	5761,02	3,29082227	3,29122972	0,084505030633105434	8	-0,00174877374	0,000278125459
2	1	0	0	0	5762,27	3,30332327	3,30368042	0,085840427782386547	8	-0,00164189318	0,000283589354
2	1	0	1	0	5763,52	3,31582427	3,31637144	0,087271238754813798	8	-0,00153328443	0,000289423857
2	1	0	1	0	5764,77	3,32832503	3,32885194	0,088797883518661133	8	-0,00142285845	0,000295595004
2	1	0	0	0	5766,02	3,34082603	3,34135246	0,090375512275689408	8	-0,00131053815	0,000301976426
2	1	0	0	0	5767,27	3,35332704	3,35376334	0,091883153790452749	8	-0,00119627186	0,000308154355
2	1	0	1	0	5768,52	3,36582804	3,36637378	0,093518795756002189	8	-0,00107988587	0,000314819219
2	1	0	1	0	5769,77	3,37832904	3,37889481	0,095299767543717056	8	-0,000961356971	0,000322007894
2	1	0	0	0	5771,02	3,3908298	3,39138532	0,097226275577365069	8	-0,000840491615	0,00032973176
2	1	0	0	0	5772,31	3,40373087	3,40436697	0,099205787875689126	8	-0,000713254965	0,000337732898
2	1	0	1	0	5773,56	3,41623187	3,41686749	0,10133444199649011	8	-0,000587325252	0,00034624635
2	1	0	1	0	5774,81	3,42873287	3,42930794	0,10343885573092837	8	-0,000458834926	0,000354723685
2	1	0	0	0	5776,06	3,44123387	3,44167829	0,1056926855817435	8	-0,00032763349	0,00036376022
2	1	0	0	0	5777,31	3,45373487	3,45410872	0,10789107236390306	8	-0,000193740678	0,000372667506
2	1	0	1	0	5778,56	3,46623564	3,46660948	0,1102374088950453	8	-5,70256598E-005	0,000382150058
2	1	0	1	0	5779,81	3,47873664	3,47915983	0,11257143163432682	8	8,25105453E-005	0,000391654001
2	1	0	0	0	5781,06	3,49123836	3,49179244	0,11506011299453786	8	0,000225031734	0,000401766039
2	1	0	0	0	5782,31	3,50373864	3,50433159	0,11740929617856938	8	0,000370584516	0,000411441113
2	1	0	1	0	5783,56	3,51623988	3,5167017	0,11995084208375894	8	0,000519321242	0,000421831326
2	1	0	1	0	5784,81	3,52874041	3,52922249	0,12267257498266782	8	0,000671347952	0,000432938803
2	1	0	1	0	5786,06	3,54124141	3,54154277	0,12552805008211454	8	0,0008268081	0,00044456296
2	1	0	0	0	5787,31	3,55374241	3,55421329	0,12842523931370376	8	0,00098584895	0,000456450682
2	1	0	0	0	5788,56	3,56624341	3,56692481	0,13149256429945355	8	0,0011486077	0,000469024089
2	1	0	1	0	5789,81	3,57874441	3,57937551	0,1345115566315751	8	0,00131523423	0,000481467374
2	1	0	1	0	5791,06	3,59124541	3,59185576	0,13777358286703611	8	0,00148580421	0,000494862848
2	1	0	0	0	5792,31	3,60374618	3,60428596	0,14101175051958581	8	0,00166041101	0,000508246652
2	1	0	0	0	5793,56	3,61624718	3,61674666	0,14424001103422278	8	0,00183900143	0,000521679583
2	1	0	1	0	5794,81	3,62874818	3,62917733	0,14722293502806483	8	0,00202150177	0,000534298131
2	1	0	1	0	5796,06	3,64124918	3,64188838	0,15007184259593443	8	0,00220769644	0,000546544907
2	1	0	0	0	5797,31	3,65375018	3,65415835	0,15278787410352336	8	0,00239748368	0,000558311061
2	1	0	0	0	5798,56	3,66625094	3,66675925	0,15548978757578902	8	0,00259058783	0,000570143631
2	1	0	1	0	5799,81	3,67875195	3,67920947	0,15791408888374682	8	0,00278689293	0,000580999011
2	1	0	1	0	5801,06	3,69125295	3,69172001	0,16045408955930406	8	0,0029862104	0,0005923516
2	1	0	0	0	5802,31	3,70375395	3,7042706	0,16263233412367594	8	0,00318851415	0,000602434156
2	1	0	0	0	5803,56	3,71625495	3,71677113	0,16488903873444838	8	0,00339363143	0,000612854841
2	1	0	1	0	5804,81	3,72875571	3,72940207	0,16709901935731296	8	0,00360158738	0,000623179425
2	1	0	1	0	5806,06	3,74125671	3,7416923	0,16935847509497149	8	0,00381217338	0,000633687305
2	1	0	0	0	5807,31	3,75375772	3,75439334	0,17165694634119654	8	0,00402567722	0,000644467713
2	1	0	0	0	5808,56	3,76625872	3,76671386	0,17394614173099408	8	0,00424197596	0,000655205338
2	1	0	1	0	5809,81	3,778759	3,77925396	0,17616519038386659	8	0,00446124049	0,000665772997
2	1	0	1	0	5811,06	3,79126072	3,79174495	0,17855889070779085	8	0,00468342658	0,0006770498
2	1	0	1	0	5812,31	3,80376053	3,80428338	0,18103897473896358	8	0,00490863062	0,00068872358
2	1	0	0	0	5813,56	3,81626248	3,81690621	0,18365937032892086	8	0,00513698347	0,000701010576
2	1	0	0	0	5814,81	3,82876348	3,8293767	0,18638567156934506	8	0,00536862807	0,000713740941
2	1	0	1	0	5816,06	3,84126449	3,84186745	0,18912271914693158	8	0,00560374418	0,000726584403
2	1	0	1	0	5817,31	3,85376549	3,85423779	0,1921047602857775	8	0,00584249711	0,000740417454
2	1	0	0	0	5818,56	3,86626625	3,86679864	0,19524480716791005	8	0,00608508382	0,000754972338
2	1	0	0	0	5819,81	3,87876725	3,87907839	0,1984553838459151	8	0,0063315779	0,000769823964
2	1	0	1	0	5821,07	3,89126825	3,89166951	0,20181862171739341	8	0,00658217352	0,000785411394
2	1	0	1	0	5822,32	3,90376925	3,90434027	0,20510912865089904	8	0,0068369722	0,000800815818
2	1	0	0	0	5823,57	3,91627026	3,91668081	0,20856490358710243	8	0,00709612202	0,000816882181
2	1	0	0	0	5824,82	3,92877102	3,92948198	0,21220073616132096	8	0,00735969469	0,000833838945
2	1	0	1	0	5826,07	3,94127202	3,94169164	0,21583756191345494	8	0,00762784854	0,000850765093
2	1	0	1	0	5827,32	3,95377302	3,95424271	0,21960185344020499	8	0,00790059846	0,000868358999
2	1	0	0	0	5828,57	3,96627402	3,9667933	0,22334308363497213	8	0,00817801151	0,000885955873
2	1	0	0	0	5829,82	3,97877502	3,97925377	0,22702768980525389	8	0,008459948	0,000903400767
2	1	0	1	0	5831,07	3,99127603	3,99191475	0,23059231725831798	8	0,00874640699	0,000920504855
2	1	0	1	0	5832,32	4,00377655	4,00418425	0,23413502161080624	8	0,00903716218	0,00093751977
2	1	0	0	0	5833,57	4,01627779	4,01683569	0,23736140706265907	8	0,00933212973	0,000953441777
2	1	0	0	0	5834,82	4,02877855	4,02923632	0,24052723729983018	8	0,00963106286	0,000969141081
2	1	0	1	0	5836,07	4,04127979	4,04189682	0,24343129829503574	8	0,00993390661	0,000983924139
2	1	0	1	0	5837,32	4,05378056	4,05436754	0,24627413352330496	8	0,0102403993	0,000998485833
2	1	0	0	0	5838,57	4,06628227	4,06705952	0,24890847004849891	8	0,010550377	0,00101232552
2	1	0	0	0	5839,82	4,07878256	4,07942867	0,251238253666088	8	0,0108633582	0,0010249085
2	1	0	1	0	5841,07	4,0912838	4,09175968	0,25317424353513939	8	0,011179016	0,00103592814
2	1	0	1	0	5842,32	4,10378456	4,10434008	0,25480043872570045	8	0,011496827	0,00104578771
2	1	0	1	0	5843,57	4,11628437	4,11673927	0,25622237088468026	8	0,0118166059	0,0010548007
2	1	0	0	0	5844,82	4,12878609	4,129251	0,25779285095631987	8	0,0121382913	0,00106449134
2	1	0	0	0	5846,07	4,14128637	4,14178944	0,25957694516605789	8	0,0124619454	0,00107511308
2	1	0	1	0	5847,32	4,15378809	4,15428162	0,2615715313392375	8	0,0127879437	0,0010866418
2	1	0	1	0	5848,57	4,16628838	4,16677237	0,26384806876354294	8	0,0131165963	0,00109939487
2	1	0	0	0	5849,82	4,17879009	4,17945385	0,26658559854452778	8	0,0134484963	0,00111418217
2	1	0	0	0	5851,07	4,19129086	4,19199276	0,26983553160035901	8	0,0137841925	0,00113114854
2	0	0	1	1	5852,27	4,19669151	4,19712687	0,23362483976719296	8	0,014102865	0,000980553101
2	0	0	0	1	5853,52	4,18419027	4,18478632	0,17337856756057546	8	0,0143520171	0,000725552265
2	0	0	0	1	5854,77	4,17168951	4,17227602	0,13739730995924493	8	0,0145443939	0,000573259487
2	0	0	1	1	5856,02	4,15918875	4,15975523	0,11181696772109718	8	0,0146990065	0,000465131219
2	0	0	1	1	5857,27	4,14668798	4,1472044	0,092630044363128602	8	0,0148259783	0,000384155719
2	0	0	0	1	5858,52	4,13418674	4,13466406	0,077855524548794854	8	0,0149318874	0,000321906438
2	0	0	0	1	5859,77	4,12168598	4,12233353	0,066159551885599962	8	0,0150212366	0,000272731733
2	0	0	1	1	5861,02	4,10918474	4,10962248	0,056496226267578554	8	0,0150972763	0,000232178165
2	0	0	1	1	5862,31	4,09628391	4,09670067	0,04809376086147177	8	0,0151641658	0,000197025744
2	0	0	0	1	5863,56	4,08378315	4,08428049	0,041263602790422707	8	0,0152195375	0,000168532133
2	0	0	0	1	5864,81	4,07128191	4,07164955	0,035278406663564909	8	0,0152669623	0,000143641315
2	0	0	1	1	5866,06	4,05878115	4,05947971	0,030099948509208301	8	0,0153075187	0,000122190133
2	0	0	1	1	5867,31	4,04627991	4,04700947	0,025586051264932963	8	0,0153419888	0,00010354699
2	0	0	0	1	5868,56	4,03377914	4,03426838	0,021625416828707443	8	0,0153711103	8,72427336E-005
2	0	0	0	1	5869,81	4,02127838	4,02196789	0,017885098025241574	8	0,0153954234	7,19332893E-005
2	0	0	0	1	5871,06	4,0087781	4,00930786	0,014652106375571766	8	0,0154154254	5,87448048E-005
2	0	0	1	1	5872,31	3,99627638	3,99672627	0,011549354230131315	8	0,0154315252	4,61596064E-005
2	0	0	0	1	5873,56	3,98377538	3,98441648	0,0089469732289823027	8	0,0154440794	3,5648467E-005
2	0	0	0	1	5874,81	3,97127414	3,97189593	0,0065802496052735078	8	0,0154534122	2,61360674E-005
2	0	0	1	1	5876,10	3,95837331	3,95868325	0,0040526408532362733	8	0,0154599696	1,60431209E-005
2	0	0	1	1	5877,35	3,94587255	3,94627285	0,0019295594932676358	8	0,0154635785	7,6145684E-006
2	0	0	0	1	5878,60	3,93337035	3,93368959	0,00014195824143366589	8	0,0154647352	5,58419629E-007
2	0	0	0	1	5879,85	3,92087054	3,92142224	-0,0017459481678088266	8	0,0154636614	6,84660017E-006
2	0	0	1	1	5881,10	3,90836954	3,90890336	-0,0033092865065413453	8	0,0154604781	1,29356813E-005
2	0	0	1	1	5882,35	3,89586854	3,89644074	-0,0047606436407174323	8	0,0154554173	1,85495664E-005
2	0	0	1	1	5883,60	3,88336778	3,88385057	-0,0060690869177051418	8	0,0154485647	2,35714269E-005
2	0	0	0	1	5884,85	3,87086678	3,8712492	-0,0072879103851543616	8	0,0154401418	2,82133169E-005
2	0	0	0	1	5886,10	3,85836577	3,85879898	-0,0084737493695380762	8	0,0154302064	3,26984955E-005
2	0	0	1	1	5887,35	3,84586477	3,84638858	-0,0095532737783893811	8	0,0154189412	3,67456014E-005
2	0	0	1	1	5888,64	3,83296371	3,83324647	-0,0103540873339322	8	0,0154059893	3,96897703E-005
2	0	0	0	1	5889,89	3,8204627	3,82079625	-0,011209984205682622	8	0,0153922858	4,28310668E-005
2	0	0	0	1	5891,14	3,80796194	3,808496	-0,011921003276559872	8	0,015377474	4,54010915E-005
2	0	0	1	1	5892,39	3,79546094	3,79606557	-0,012655990576604381	8	0,0153616946	4,80429699E-005
2	0	0	1	1	5893,64	3,78295994	3,78343463	-0,013439412728378898	8	0,0153449615	5,08471385E-005
2	0	0	0	1	5894,89	3,77045894	3,77078342	-0,01411705959859924	8	0,0153273931	5,32323756E-005
2	0	0	0	1	5896,14	3,75795794	3,75876427	-0,014788258495779389	8	0,0153089948	5,55855768E-005
2	0	0	1	1	5897,39	3,74545693	3,74587274	-0,015310396498534797	8	0,0152898533	5,73507969E-005
2	0	0	1	1	5898,64	3,73295617	3,73343229	-0,015838034771149978	8	0,0152699584	5,91302305E-005
2	0	0	0	1	5899,89	3,72045517	3,72094154	-0,016360944340704077	8	0,0152494526	6,08781193E-005
2	0	0	0	1	5901,14	3,70795417	3,70846128	-0,016950970593219018	8	0,0152282026	6,28620182E-005
2	0	0	1	1	5902,39	3,69545317	3,69590068	-0,017510070921465114	8	0,0152063128	6,47154811E-005
2	0	0	1	1	5903,64	3,68295217	3,68333936	-0,017966458942586	8	0,015183771	6,61765662E-005
2	0	0	0	1	5904,89	3,6704514	3,67098951	-0,018262540203674403	8	0,0151606426	6,70415902E-005
2	0	0	0	1	5906,14	3,6579504	3,65868902	-0,01878282769272721	8	0,0151369013	6,87205247E-005
2	0	0	0	1	5907,39	3,64544964	3,64597893	-0,019237844136597514	8	0,01511259	7,01407771E-005
2	0	0	1	1	5908,64	3,6329484	3,63340735	-0,019677514069674829	8	0,015087707	7,14964262E-005
2	0	0	1	1	5909,89	3,62044716	3,62081599	-0,020126985731666269	8	0,0150623266	7,28761152E-005
2	0	0	0	1	5911,14	3,60794663	3,60839605	-0,020590435956061552	8	0,0150364153	7,42984485E-005
2	0	0	0	1	5912,39	3,59544516	3,59598446	-0,020994861139969984	8	0,0150100337	7,54971916E-005
2	0	0	1	1	5913,64	3,58294463	3,58347511	-0,021432986963191126	8	0,0149831977	7,6804572E-005
2	0	0	1	1	5914,89	3,57044363	3,57122517	-0,021790152435035824	8	0,0149559323	7,78175381E-005
2	0	0	0	1	5916,14	3,55794263	3,55857444	-0,02216927385597961	8	0,0149282571	7,88910111E-005
2	0	0	0	1	5917,39	3,54544163	3,54591346	-0,022326762215622435	8	0,0149002234	7,91687635E-005
2	0	0	1	1	5918,64	3,53294086	3,5334928	-0,022549422559677616	8	0,0148718199	7,96782188E-005
2	0	0	1	1	5919,89	3,52043986	3,52093196	-0,022815037281058435	8	0,0148431007	8,03301955E-005
2	0	0	0	1	5921,14	3,50793886	3,5085218	-0,023140728071060294	8	0,0148140593	8,1189748E-005
2	0	0	0	1	5922,39	3,49543786	3,49576044	-0,023379953359835824	8	0,0147847272	8,17307155E-005
2	0	0	1	1	5923,64	3,48293686	3,48326993	-0,023611039088185322	8	0,0147551056	8,22436195E-005
2	0	0	1	1	5924,89	3,4704361	3,47091985	-0,023712618732436934	8	0,0147252018	8,23045993E-005
2	0	0	0	1	5926,14	3,45793509	3,4582386	-0,023996910177326406	8	0,0146950074	8,29870405E-005
2	0	0	0	1	5927,39	3,44543409	3,44585848	-0,024217474570226272	8	0,0146645671	8,34499879E-005
2	0	0	1	1	5928,64	3,43293309	3,43329787	-0,024477072845911718	8	0,0146338511	8,40370849E-005
2	0	0	1	1	5929,89	3,42043209	3,42077708	-0,024667857467041699	8	0,0146029098	8,43832386E-005
2	0	0	0	1	5931,14	3,40793133	3,40854692	-0,024789885559584944	8	0,0145716947	8,44974857E-005
2	0	0	0	1	5932,39	3,39543033	3,39593625	-0,0249693362372152	8	0,0145402122	8,4794272E-005
2	0	0	1	1	5933,64	3,38292933	3,38340569	-0,02521480201782353	8	0,0145084765	8,53119054E-005
2	0	0	1	1	5934,89	3,37042832	3,37085485	-0,025403548866355206	8	0,0144764883	8,56316765E-005
2	0	0	0	1	5936,14	3,35792661	3,35846353	-0,025728702053010698	8	0,0144442404	8,64089088E-005
2	0	0	0	1	5937,39	3,34542632	3,34586382	-0,025850376832143862	8	0,0144117298	8,64918402E-005
2	0	0	1	1	5938,64	3,33292437	3,33326101	-0,025994080666997267	8	0,0143789593	8,66450573E-005
2	0	0	1	1	5939,89	3,32042456	3,32075238	-0,026262247013316253	8	0,0143459197	8,7210421E-005
2	0	0	0	1	5941,14	3,30792308	3,30837083	-0,026510453972767299	8	0,0143126063	8,77064158E-005
2	0	0	0	1	5942,39	3,29542255	3,29585147	-0,026757765309109034	8	0,0142790396	8,81896194E-005
2	0	0	0	1	5943,64	3,28292155	3,28324056	-0,026926670854057533	8	0,0142452391	8,84067413E-005
2	0	0	1	1	5944,90	3,27042079	3,27079988	-0,027007996550916458	8	0,0142111592	8,83377506E-005
2	0	0	1	1	5946,15	3,25791979	3,25850987	-0,02723596288706176	8	0,0141768474	8,87486531E-005
2	0	0	0	1	5947,40	3,24541879	3,24588919	-0,027454685943666902	8	0,0141422721	8,91148666E-005
2	0	0	0	1	5948,65	3,23291779	3,23352885	-0,027676907697847754	8	0,0141074723	8,94940822E-005
2	0	0	1	1	5949,90	3,22041678	3,22087812	-0,027830167450398902	8	0,0140724294	8,96375786E-005
2	0	0	1	1	5951,15	3,20791602	3,20847774	-0,027950088930083494	8	0,0140372002	8,96772399E-005
2	0	0	0	1	5952,40	3,19541502	3,19601703	-0,028127559315180406	8	0,0140017038	8,98961589E-005
2	0	0	0	1	5953,65	3,18291402	3,18331599	-0,028306366885469018	8	0,0139660072	9,01081075E-005
2	0	0	1	1	5954,90	3,17041302	3,17080522	-0,028531981447789206	8	0,0139300963	9,04693588E-005
2	0	0	1	1	5956,15	3,15791202	3,15839481	-0,028697030124021693	8	0,0138940029	9,06365531E-005
2	0	0	0	1	5957,40	3,14541101	3,14586449	-0,028738159938560243	8	0,0138577009	9,04063563E-005
2	0	0	0	1	5958,65	3,13291025	3,13335347	-0,028805018131000336	8	0,0138212396	9,02563042E-005
2	0	0	1	1	5959,90	3,12040949	3,12107372	-0,028951659856829824	8	0,0137845753	9,03602631E-005
2	0	0	1	1	5961,15	3,10790873	3,10817242	-0,029121918545570272	8	0,0137477601	9,05159468E-005
2	0	0	0	1	5962,40	3,09540749	3,09606266	-0,029212849951970208	8	0,0137107717	9,0444817E-005
2	0	0	0	1	5963,65	3,08290672	3,08357215	-0,029397831482735168	8	0,0136736603	9,06503337E-005
2	0	0	1	1	5964,90	3,07040501	3,07074952	-0,0295460980233776	8	0,013636386	9,07286667E-005
2	0	0	1	1	5966,15	3,05790472	3,05840039	-0,029682713609266445	8	0,0135990102	9,07816211E-005
2	0	0	0	1	5967,40	3,04540348	3,04578948	-0,029829510770235437	8	0,0135615077	9,08544098E-005
2	0	0	0	1	5968,65	3,03290272	3,0332489	-0,029944782465463616	8	0,0135239121	9,08299771E-005
2	0	0	0	1	5969,90	3,02040219	3,02091885	-0,030047193708470202	8	0,0134862084	9,07701324E-005
2	0	0	1	1	5971,15	3,00790095	3,00843835	-0,02996404928853735	8	0,0134484516	9,01449966E-005
2	0	0	1	1	5972,40	2,99539971	2,99597788	-0,030043064344984826	8	0,0134105878	9,00083542E-005
2	0	0	0	1	5973,65	2,98289895	2,98335671	-0,03009563025746809	8	0,013372655	8,97860009E-005
2	0	0	0	1	5974,90	2,97039795	2,97103667	-0,030185637277706291	8	0,0133346561	8,96826386E-005
2	0	0	1	1	5976,15	2,95789695	2,95828557	-0,030279406123251418	8	0,0132966116	8,95751291E-005
2	0	0	1	1	5977,40	2,94539595	2,94577503	-0,030267039595249427	8	0,0132585019	8,91598902E-005
2	0	0	0	1	5978,65	2,93289518	2,93352485	-0,030224196176277363	8	0,0132203605	8,86634298E-005
2	0	0	0	1	5979,90	2,92039418	2,92086411	-0,030346709963244762	8	0,0131821726	8,86386188E-005
2	0	0	1	1	5981,15	2,90789342	2,90839338	-0,030268616566900134	8	0,0131439827	8,80330408E-005
2	0	0	1	1	5982,40	2,89539218	2,89571238	-0,03044734443149849	8	0,0131057631	8,81667511E-005
2	0	0	0	1	5983,65	2,88289142	2,88330197	-0,030388326432633562	8	0,0130674951	8,76187187E-005
2	0	0	0	1	5984,90	2,87039018	2,87087154	-0,030337814804321792	8	0,0130292084	8,70959702E-005
2	0	0	1	1	5986,15	2,85788941	2,85853148	-0,030326232760368608	8	0,0129909003	8,66884875E-005
2	0	0	1	1	5987,40	2,84538841	2,84609103	-0,030408350091117197	8	0,0129525904	8,65449329E-005
2	0	0	0	1	5988,65	2,83288741	2,83348989	-0,030388242506887763	8	0,0129142636	8,61047811E-005
2	0	0	0	1	5989,90	2,82038641	2,82077909	-0,030520960193825939	8	0,0128759518	8,60928849E-005
2	0	0	1	1	5991,15	2,80788565	2,80834842	-0,03035377029057895	8	0,0128376121	8,52439625E-005
2	0	0	1	1	5992,40	2,79538441	2,79579759	-0,030366712172205325	8	0,0127993124	8,4899184E-005
2	0	0	0	1	5993,65	2,7828846	2,78332782	-0,030400085009826496	8	0,0127609763	8,46133989E-005
2	0	0	0	1	5994,90	2,77038264	2,77092695	-0,030437839363003149	8	0,0127226627	8,43410307E-005
2	0	0	0	1	5996,15	2,75788188	2,75836587	-0,030526398842943667	8	0,0126843257	8,42029767E-005
2	0	0	1	1	5997,40	2,74538064	2,74600577	-0,030437409227791533	8	0,0126460036	8,35813044E-005
2	0	0	1	1	5998,65	2,73287916	2,7333138	-0,030350231493840307	8	0,0126076471	8,2956707E-005
2	0	0	0	1	5999,90	2,72037888	2,72087455	-0,030379647942027078	8	0,012569298	8,26592077E-005
2	0	0	0	1	6001,15	2,70787811	2,70842385	-0,030435214517638086	8	0,0125309117	8,24314629E-005
2	0	0	1	1	6002,40	2,69537687	2,69592357	-0,030492203067600141	8	0,012492517	8,22046495E-005
2	0	0	1	1	6003,65	2,68287611	2,68309188	-0,030496870051138157	8	0,0124540655	8,18259068E-005
2	0	0	0	1	6004,90	2,67037487	2,67069149	-0,030442947221066272	8	0,0124155805	8,13037186E-005
2	0	0	0	1	6006,15	2,65787411	2,65833139	-0,030558009496113978	8	0,0123770097	8,12333165E-005
2	0	0	1	1	6007,40	2,64537311	2,64583087	-0,030646715662442176	8	0,0123383878	8,10860292E-005
2	0	0	1	1	6008,65	2,6328721	2,63319016	-0,030770043793988179	8	0,0122996476	8,1023376E-005
2	0	0	0	1	6009,90	2,6203711	2,62075925	-0,030892769631464147	8	0,0122608142	8,09625126E-005
2	0	0	0	1	6011,15	2,60787034	2,60857964	-0,030842575913993645	8	0,012221829	8,04553129E-005
2	0	0	1	1	6012,40	2,5953691	2,59592867	-0,030950381032501581	8	0,0121827209	8,03449802E-005
2	0	0	1	1	6013,65	2,58286834	2,58330774	-0,031108335950799981	8	0,0121434163	8,03624062E-005
2	0	0	0	1	6014,90	2,57036734	2,57104778	-0,03125246604516473	8	0,0121039422	8,03515868E-005
2	0	0	0	1	6016,15	2,55786657	2,55824661	-0,031444187664116275	8	0,0120642418	8,04419833E-005
2	0	0	1	1	6017,40	2,54536533	2,54579592	-0,031683114512513043	8	0,0120243188	8,06587414E-005
2	0	0	1	1	6018,65	2,53286457	2,53323531	-0,031962984532583507	8	0,0119841397	8,09697594E-005
2	0	0	0	1	6019,90	2,52036357	2,52061439	-0,032202091591898464	8	0,0119437091	8,11690552E-005
2	0	0	0	1	6021,15	2,50786281	2,5083642	-0,032492873511121958	8	0,0119029963	8,15039602E-005
2	0	0	1	1	6022,40	2,49536157	2,4958241	-0,032725344790378643	8	0,0118620433	8,1676706E-005
2	0	0	1	1	6023,65	2,4828608	2,48342323	-0,03300062173123783	8	0,0118207214	8,19545094E-005
2	0	0	0	1	6024,90	2,47035861	2,47055173	-0,033128014278043462	8	0,011779068	8,18444751E-005
2	0	0	0	1	6026,15	2,4578588	2,45828199	-0,033459056818780256	8	0,0117370756	8,22517977E-005
2	0	0	1	1	6027,40	2,44535756	2,4457109	-0,033746909926639482	8	0,0116947303	8,2535189E-005
2	0	0	1	1	6028,65	2,4328568	2,43338108	-0,03411779576951335	8	0,0116520124	8,30216013E-005
2	0	0	1	1	6029,90	2,4203558	2,42081022	-0,034417413786286598	8	0,0116089331	8,33180238E-005
2	0	0	0	1	6031,15	2,40785503	2,40829968	-0,034631580201676109	8	0,0115654599	8,34032253E-005
2	0	0	0	1	6032,40	2,39535379	2,39584923	-0,034926354283622227	8	0,0115216207	8,36782783E-005
2	0	0	1	1	6033,65	2,38285303	2,38338876	-0,035305981553392595	8	0,0114773726	8,41478759E-005
2	0	0	1	1	6034,90	2,37035203	2,37083793	-0,035673127024589747	8	0,0114327259	8,45752002E-005
2	0	0	0	1	6036,15	2,35785127	2,35826707	-0,036068905154631155	8	0,0113876639	8,50601136E-005
2	0	0	0	1	6037,40	2,34535003	2,34579659	-0,036277315589056058	8	0,0113421967	8,50992001E-005
2	0	0	1	1	6038,65	2,33284926	2,33330607	-0,036588312543850976	8	0,0112963049	8,53717283E-005
2	0	0	1	1	6039,90	2,32034826	2,32063508	-0,036930802889401062	8	0,0112499874	8,57029154E-005
2	0	0	0	1	6041,15	2,3078475	2,30807424	-0,037336974395051014	8	0,0112032322	8,61765075E-005
2	0	0	0	1	6042,40	2,29534626	2,29574418	-0,037660372162160173	8	0,0111560412	8,64585818E-005
2	0	0	1	1	6043,65	2,2828455	2,28326368	-0,038114705132708646	8	0,0111084227	8,70259246E-005
2	0	0	1	1	6044,90	2,27034426	2,270823	-0,03833812145361065	8	0,0110603403	8,70590884E-005
2	0	0	0	1	6046,15	2,25784349	2,2582624	-0,038729034383626029	8	0,0110118072	8,74603211E-005
2	0	0	0	1	6047,40	2,24534249	2,24592209	-0,039121631746335552	8	0,0109628141	8,78641367E-005
2	0	0	1	1	6048,65	2,23284149	2,23325109	-0,039513547827179418	8	0,0109133748	8,82436725E-005
2	0	0	1	1	6049,90	2,22034049	2,22087073	-0,03994854310682672	8	0,0108634615	8,87205533E-005
2	0	0	0	1	6051,15	2,20783925	2,2081995	-0,040175685045137133	8	0,0108130826	8,87159258E-005
2	0	0	0	1	6052,40	2,19533873	2,19570923	-0,040556344504390662	8	0,010762224	8,90499432E-005
2	0	0	1	1	6053,65	2,1828382	2,1832602	-0,040947560462838208	8	0,0107109072	8,93991819E-005
2	0	0	1	1	6054,90	2,17033672	2,17078829	-0,041380204299154374	8	0,0106590735	8,9827663E-005
2	0	0	1	1	6056,15	2,1578362	2,1581471	-0,041817639851301491	8	0,0106067704	9,02486208E-005
2	0	0	0	1	6057,40	2,14533472	2,14577723	-0,042168916377704589	8	0,010553943	9,0485104E-005
2	0	0	0	1	6058,65	2,13283396	2,13307595	-0,042524485441390534	8	0,0105006276	9,07079593E-005
2	0	0	1	1	6059,90	2,12033296	2,12054539	-0,0429477568153136	8	0,0104467729	9,10726667E-005
2	0	0	1	1	6060,73	2,11193275	2,11277676	-0,043805102817714214	8	0,0104106935	9,25504064E-005