File: Experimentelles/Rohdaten/Batterietests/AlteZelle/Studenten_Batterietests/LLTO_LP30_Li CV/ECLab-Export/LLTO_LP30_Li_05_GCPL_C01_loop6.mpt
EC-Lab ASCII FILE
Nb header lines : 3
mode	ox/red	error	control changes	Ns changes	counter inc.	Ns	time/s	control/V/mA	Ewe/V	dq/mA.h	<I>/mA	P/W	(Q-Qo)/mA.h	x	Capacity/mA.h
1	0	0	1	1	0	1	30278,98	-0,100000001	4,18823862	0	0	0	0	0	0
1	0	0	1	0	0	1	30298,98	-0,100000001	3,4508884	-0,00027773796239909197	-0,099985667674218931	0,000345039385	-0,00055410254939663475	2,0674311116789539E-005	0,00055410254939663475
1	0	0	1	0	0	1	30318,98	-0,100000001	2,82472825	-0,000277738303926256	-0,099985790623999462	0,00028243268	-0,0011095787133605256	4,1399873639927834E-005	0,0011095787133605256
1	0	0	1	0	0	1	30338,98	-0,100000001	2,25904179	-0,00027773834548145533	-0,099985805583871411	0,000225872107	-0,0016650552180949325	6,2125448877672243E-005	0,0016650552180949325
1	0	0	1	0	0	1	30358,98	-0,100000001	1,86035907	-0,0002777384673890968	-0,099985849470622874	0,00018600958	-0,00222053249541688	8,2851052941696563E-005	0,00222053249541688
1	0	0	1	0	0	1	30378,98	-0,100000001	1,59875154	-0,00027773831015990842	-0,099985792868114381	0,00015985244	-0,0027760090800231664	0,00010357663115956818	0,0027760090800231664
1	0	0	1	0	0	1	30398,98	-0,100000001	1,4875046	-0,0002777382603461544	-0,099985774935162701	0,000148729305	-0,0033314855703700883	0,00012430220586049621	0,0033314855703700883
1	0	0	1	0	0	1	30418,98	-0,100000001	1,44984949	-0,00027773838612271677	-0,099985820214725709	0,00014496439	-0,0038869623813647494	0,00014502779252522246	0,0038869623813647494
1	0	0	1	0	0	1	30438,98	-0,100000001	1,42554164	-0,00027773783137980438	-0,099985620507274829	0,000142533667	-0,0044424383290370438	0,0001657533469782305	0,0044424383290370438
1	0	0	1	0	0	1	30458,98	-0,100000001	1,40575933	-0,00027773805609676573	-0,099985701405381888	0,000140555829	-0,0049979147732503846	0,00018647891995785254	0,0049979147732503846
1	0	0	1	0	0	1	30478,98	-0,100000001	1,38821101	-0,00027773793086492352	-0,099985656321918157	0,000138801188	-0,005553390634965744	0,00020720447120369178	0,005553390634965744
1	0	0	1	0	0	1	30498,98	-0,100000001	1,37188494	-0,00027773869568192298	-0,099985931656041293	0,000137169191	-0,0061088679532307021	0,00022793007679535485	0,0061088679532307021
1	0	0	1	0	0	1	30518,98	-0,100000001	1,35616982	-0,00027773817678292589	-0,099985744852400077	0,000135597656	-0,0066643445256122406	0,00024865565455710474	0,0066643445256122406
1	0	0	1	0	0	1	30538,98	-0,100000001	1,34112298	-0,00027773814721612467	-0,099985734208351526	0,000134093163	-0,0072198206482448627	0,00026938121553811779	0,0072198206482448627
1	0	0	1	0	0	1	30558,98	-0,100000001	1,32657266	-0,00027773833653248019	-0,09998580236224032	0,000132638437	-0,0077752975081943923	0,000290106804029416	0,0077752975081943923
1	0	0	1	0	0	1	30578,98	-0,100000001	1,31792271	-0,00027773890367440054	-0,099986006533334118	0,000131773835	-0,0083307752945876083	0,00031083242708757376	0,0083307752945876083
1	0	0	1	0	0	1	30598,98	-0,100000001	1,31374097	-0,00027773850821372538	-0,099985864167489331	0,000131355526	-0,0088862524973561498	0,00033155802836991034	0,0088862524973561498
1	0	0	1	0	0	1	30618,98	-0,100000001	1,30837524	-0,00027773808265146285	-0,099985710965072973	0,000130818822	-0,0094417287774799744	0,0003522835952271319	0,0094417287774799744
1	0	0	1	0	0	1	30638,98	-0,100000001	1,30066097	-0,00027773794495852458	-0,099985661395614605	0,000130047454	-0,0099972048611593062	0,00037300915475474534	0,0099972048611593062
1	0	0	1	0	0	1	30658,98	-0,100000001	1,29065514	-0,00027773842891760995	-0,099985835620887437	0,000129047228	-0,010552681430896302	0,00039373473241782381	0,010552681430896302
1	0	0	1	0	0	1	30678,98	-0,100000001	1,27889276	-0,00027773852858816582	-0,099985871502287987	0,000127871201	-0,011108158430126571	0,00041446032610587366	0,011108158430126571
1	0	0	1	0	0	1	30698,98	-0,100000001	1,26632833	-0,00027773851721816589	-0,099985867409087962	0,000126614934	-0,011663635390391547	0,00043518591834007603	0,011663635390391547
1	0	0	1	0	0	1	30718,98	-0,100000001	1,25326741	-0,00027773778474951782	-0,099985603720371469	0,000125308696	-0,012219110934472512	0,00045591145773454893	0,012219110934472512
1	0	0	1	0	0	1	30738,98	-0,100000001	1,24001551	-0,0002777381102827688	-0,099985720912343232	0,000123983846	-0,012774586977678634	0,00047663701575205254	0,012774586977678634
1	0	0	1	0	0	1	30758,98	-0,100000001	1,2266109	-0,00027773849651465814	-0,099985859955825088	0,000122643745	-0,01333006380194485	0,00049736260291195834	0,01333006380194485
1	0	0	1	0	0	1	30778,98	-0,100000001	1,21284342	-0,00027773822863979472	-0,099985763520873088	0,000121267076	-0,013885540156675474	0,00051808817255286003	0,013885540156675474
1	0	0	1	0	0	1	30798,98	-0,100000001	1,19907606	-0,00027773836580415565	-0,099985812900043622	0,000119890596	-0,014441017012719245	0,00053881376089842906	0,014441017012719245
1	0	0	1	0	0	1	30818,98	-0,100000001	1,18469751	-0,00027773792094654506	-0,099985652751301862	0,000118452757	-0,014996493445588246	0,00055953933345477869	0,014996493445588246
1	0	0	1	0	0	1	30838,98	-0,100000001	1,17016637	-0,0002777382079325616	-0,099985756066269069	0,000116999967	-0,015551969836999738	0,00058026490446429274	0,015551969836999738
1	0	0	1	0	0	1	30858,98	-0,100000001	1,15500498	-0,00027773821101213494	-0,099985757174915482	0,00011548405	-0,016107446327289952	0,0006009904791631049	0,016107446327289952
1	0	0	1	0	0	1	30878,98	-0,100000001	1,13921344	-0,00027773789559553069	-0,099985643624936589	0,000113904993	-0,016662922406190979	0,00062171603851243341	0,016662922406190979
1	0	0	1	0	0	1	30898,98	-0,100000001	1,12263906	-0,00027773767469161085	-0,099985564099524467	0,000112247697	-0,017218398037519075	0,00064244158116221389	0,017218398037519075
1	0	0	1	0	0	1	30918,98	-0,100000001	1,10531998	-0,0002777375748409993	-0,099985528153303885	0,000110516004	-0,017773873098317715	0,0006631671025247735	0,017773873098317715
1	0	0	1	0	0	1	30938,98	-0,100000001	1,08702707	-0,00027773737790808083	-0,099985457257452365	0,000108686902	-0,018329348125113974	0,00068389262261865856	0,018329348125113974
1	0	0	1	0	0	1	30958,98	-0,100000001	1,06808496	-0,00027773778429337674	-0,099985603556160666	0,000106793115	-0,018884824032702144	0,00070461817557607398	0,018884824032702144
1	0	0	1	0	0	1	30978,98	-0,100000001	1,04824531	-0,00027773802472195693	-0,099985690110450598	0,000104809529	-0,019440300001217024	0,00072534373080674688	0,019440300001217024
1	0	0	1	0	0	1	30998,98	-0,100000001	1,02817655	-0,0002777380899923543	-0,099985713607793933	0,000102802966	-0,019995776081447565	0,00074606929020568128	0,019995776081447565
1	0	0	1	0	0	1	31018,98	-0,100000001	1,00873804	-0,00027773788652941581	-0,099985640361135181	0,000100859317	-0,020551252085705363	0,00076679484676997056	0,020551252085705363
1	0	0	1	0	0	1	31038,98	-0,100000001	0,991571665	-0,00027773932181629869	-0,099986157064419277	9,91434426E-005	-0,021106729123486589	0,00078752044189640858	0,021106729123486589
1	0	0	1	0	0	1	31058,98	-0,100000001	0,97755599	-0,00027773913162201645	-0,099986088594476838	9,77419986E-005	-0,021662207652394323	0,00080824609265878118	0,021662207652394323
1	0	0	1	0	0	1	31078,98	-0,100000001	0,966519117	-0,00027773948191064928	-0,099986214698386189	9,66385851E-005	-0,022217686378847987	0,0008289717507918583	0,022217686378847987
1	0	0	1	0	0	1	31098,98	-0,100000001	0,958002806	-0,00027773936236318618	-0,099986171661298944	9,57870361E-005	-0,022773165300913338	0,00084969741622347034	0,022773165300913338
1	0	0	1	0	0	1	31118,98	-0,100000001	0,951205015	-0,0002777394290541609	-0,099986195670050138	9,51073744E-005	-0,023328644322939395	0,00087042308538475085	0,023328644322939395
1	0	0	1	0	0	1	31138,98	-0,100000001	0,945724785	-0,00027774000139906998	-0,099986401714219904	9,45596184E-005	-0,023884123995016198	0,00089114877880029862	0,023884123995016198
1	0	0	1	0	0	1	31158,98	-0,100000001	0,941371143	-0,00027773930511830576	-0,099986151053141747	9,41240796E-005	-0,024439602562803955	0,00091187443101333722	0,024439602562803955
1	0	0	1	0	0	1	31178,98	-0,100000001	0,937590361	-0,00027773947655989066	-0,099986212772113062	9,37461082E-005	-0,024995081518194506	0,00093260009768835738	0,024995081518194506
1	0	0	1	0	0	1	31198,98	-0,100000001	0,934344232	-0,00027773939851754243	-0,099986184676867354	9,34215132E-005	-0,025550560427954803	0,00095332576266085133	0,025550560427954803
1	0	0	1	0	0	1	31218,98	-0,100000001	0,93096441	-0,0002777391662709415	-0,09998610106809001	9,30835013E-005	-0,026106038475202778	0,00097405139545185088	0,026106038475202778
1	0	0	1	0	0	1	31238,98	-0,100000001	0,927584589	-0,00027773952325681846	-0,099986229583007258	9,27456858E-005	-0,026661517671420518	0,00099477707111245734	0,026661517671420518
1	0	0	1	0	0	1	31258,98	-0,100000001	0,924032927	-0,00027773991765206061	-0,099986371565296166	9,23906991E-005	-0,027216997379406221	0,0010155027658678144	0,027216997379406221
1	0	0	1	0	0	1	31278,98	-0,100000001	0,920385838	-0,00027773976709321142	-0,099986317364109798	9,20259918E-005	-0,027772477525828374	0,001036228476981825	0,027772477525828374
1	0	0	1	0	0	1	31298,98	-0,100000001	0,916395009	-0,00027773965286256538	-0,099986276241076723	9,16269273E-005	-0,028327956887145184	0,0010569541588024995	0,028327956887145184
1	0	0	1	0	0	1	31318,98	-0,100000001	0,912251413	-0,00027773947458631462	-0,099986212061625677	9,12125615E-005	-0,028883436127272922	0,0010776798361014467	0,028883436127272922
1	0	0	1	0	0	1	31338,98	-0,100000001	0,907821357	-0,00027773966439275277	-0,099986280391944243	9,07696813E-005	-0,029438915344847334	0,0010984055125588992	0,029438915344847334
1	0	0	1	0	0	1	31358,98	-0,100000001	0,903505921	-0,00027773981256783008	-0,099986333734972723	9,03382461E-005	-0,029994394914875603	0,001119131202166879	0,029994394914875603
1	0	0	1	0	0	1	31378,98	-0,100000001	0,898884952	-0,00027773948683506915	-0,09998621647117737	8,98761064E-005	-0,030549873813142554	0,0011398568667105406	0,030549873813142554
1	0	0	1	0	0	1	31398,98	-0,100000001	0,894168496	-0,00027773974262964397	-0,099986308557225421	8,94046098E-005	-0,03110535333731705	0,0011605825546076547	0,03110535333731705
1	0	0	1	0	0	1	31418,98	-0,100000001	0,889757574	-0,00027773988133793075	-0,099986358492209254	8,89636212E-005	-0,031660832863351712	0,0011813082425741738	0,031660832863351712
1	0	0	1	0	0	1	31438,98	-0,100000001	0,885060251	-0,00027773945458191962	-0,099986204860043392	8,84938127E-005	-0,032216311600310694	0,0012020339010992184	0,032216311600310694
1	0	0	1	0	0	1	31458,98	-0,100000001	0,880229235	-0,00027773952227416966	-0,099986229229253696	8,80108055E-005	-0,032771790715445421	0,0012227595737345083	0,032771790715445421
1	0	0	1	0	0	1	31478,98	-0,100000001	0,875398219	-0,00027773947472870349	-0,099986212112885683	8,75277547E-005	-0,03332726959900327	0,0012434852377293538	0,03332726959900327
1	0	0	1	0	0	1	31498,98	-0,100000001	0,870548129	-0,00027773923758955469	-0,099986126742791078	8,7042732E-005	-0,033882747925568544	0,0012642108809420574	0,033882747925568544
1	0	0	1	0	0	1	31518,98	-0,100000001	0,865602553	-0,00027773961052008797	-0,099986260997784666	8,65483598E-005	-0,034438226969178931	0,0012849365509086781	0,034438226969178931
1	0	0	1	0	0	1	31538,98	-0,100000001	0,860714257	-0,00027773955634277728	-0,099986241493952589	8,60595828E-005	-0,034993705797876915	0,0013056622128566282	0,034993705797876915
1	0	0	1	0	0	1	31558,98	-0,100000001	0,855673194	-0,00027773941977115142	-0,099986192328166694	8,55555045E-005	-0,035549184800951194	0,0013263878813107922	0,035549184800951194
1	0	0	1	0	0	1	31578,98	-0,100000001	0,850593925	-0,00027773951136113869	-0,099986225300562509	8,5047679E-005	-0,036104663886873434	0,0013471135528561251	0,036104663886873434
1	0	0	1	0	0	1	31598,98	-0,100000001	0,845514715	-0,00027773957574781443	-0,099986248479766042	8,45398463E-005	-0,036660142994019891	0,0013678392251933622	0,036660142994019891
1	0	0	1	0	0	1	31618,98	-0,100000001	0,840435445	-0,00027773946543741558	-0,099986208768022003	8,40319553E-005	-0,037215621946111085	0,0013885648917452787	0,037215621946111085
1	0	0	1	0	0	1	31638,98	-0,100000001	0,835298896	-0,00027773951682531171	-0,099986227267664819	8,35183819E-005	-0,037771100919455878	0,001409290559090196	0,037771100919455878
1	0	0	1	0	0	1	31658,98	-0,100000001	0,830200553	-0,00027773996970926726	-0,099986390305890778	8,30087592E-005	-0,038326580411201312	0,0014300162457773379	0,038326580411201312
1	0	0	1	0	0	1	31678,98	-0,100000001	0,825006783	-0,00027774024906754496	-0,099986490874871974	8,24895324E-005	-0,038882060689701562	0,0014507419618193594	0,038882060689701562
1	0	0	1	0	0	1	31698,98	-0,100000001	0,8197366	-0,00027774006932477158	-0,099986426167472781	8,19625348E-005	-0,039437540839762912	0,0014714676730691536	0,039437540839762912
1	0	0	1	0	0	1	31718,98	-0,100000001	0,81448549	-0,00027773989246661466	-0,099986362498535514	8,14374434E-005	-0,039993020328697408	0,0014921933596514157	0,039993020328697408
1	0	0	1	0	0	1	31738,98	-0,100000001	0,809253454	-0,00027774035877072147	-0,099986530368016	8,09144476E-005	-0,040548500669541632	0,0015129190780195747	0,040548500669541632
1	0	0	1	0	0	1	31758,98	-0,100000001	0,803887784	-0,00027774024286576445	-0,099986488642230976	8,03779185E-005	-0,04110398092903504	0,0015336447933524259	0,04110398092903504
1	0	0	1	0	0	1	31773,41	-0,100000001	0,800126076	-0,00012318895052621762	-0,099986523710276326	8,00018242E-005	-0,041504910064683366	0,0015486039984584211	0,041504910064683366
1	1	0	0	0	0	2	31783,42	0,100000001	0,832752883	0,00027780481664546662	0,10000973520320522	8,32833975E-005	-0,041227099760142637	0,0015382385224760794	0,00027781030454072685
1	1	0	0	0	0	2	31803,42	0,100000001	0,843789756	0,00027780559771839117	0,10001001638946144	8,43874295E-005	-0,040671488978281792	0,0015175079371782102	0,00083342108640157517
1	1	0	0	0	0	2	31823,42	0,100000001	0,852726161	0,00027780593528971082	0,10001013791513795	8,52812591E-005	-0,040115877410354477	0,0014967773225511437	0,0013890326543288926
1	1	0	0	0	0	2	31843,42	0,100000001	0,860975146	0,00027780600844240851	0,10001016425010947	8,61062654E-005	-0,039560265801695661	0,0014760467064043306	0,0019446442629877062
1	1	0	0	0	0	2	31863,42	0,100000001	0,868670404	0,00027780603419368467	0,10001017352056901	8,68758798E-005	-0,039004653867114925	0,0014553160780969325	0,0025002561975684432
1	1	0	0	0	0	2	31883,42	0,100000001	0,876193821	0,00027780656688618992	0,10001036528987322	8,76284612E-005	-0,038449040926586598	0,0014345854122562768	0,0030558691380967693
1	1	0	0	0	0	2	31903,42	0,100000001	0,883583546	0,00027780665244327651	0,10001039609042477	8,83675384E-005	-0,037893427572678118	0,001413854730991852	0,0036114824920052454
1	1	0	0	0	0	2	31923,42	0,100000001	0,890705943	0,00027780631292694147	0,10001027386454266	8,90797455E-005	-0,037337814257639322	0,0013931240511777075	0,0041670958070440429
1	1	0	0	0	0	2	31943,42	0,100000001	0,897618294	0,00027780635780303018	0,1000102900199348	8,97710634E-005	-0,036782201711135782	0,0013723934000386467	0,0047227083535475872
1	1	0	0	0	0	2	31963,42	0,100000001	0,904416084	0,0002778061930918031	0,10001023072389232	9,04508634E-005	-0,03622658898874969	0,0013516627423371715	0,0052783210759336762
1	1	0	0	0	0	2	31983,42	0,100000001	0,911175668	0,00027780619082806842	0,10001022990894784	9,11268871E-005	-0,035670976736733658	0,0013309321021858352	0,0058339333279497101
1	1	0	0	0	0	2	32003,42	0,100000001	0,917877972	0,00027780620160284966	0,10001023378786914	9,1797192E-005	-0,03511536397949872	0,0013102014431841027	0,006389546085184649
1	1	0	0	0	0	2	32023,42	0,100000001	0,924236596	0,00027780681966534918	0,10001045629037166	9,24333217E-005	-0,034559750791512198	0,0012894707681104491	0,0069451592731711782
1	1	0	0	0	0	2	32043,42	0,100000001	0,930614293	0,00027780693702316941	0,10001049853918744	9,30711976E-005	-0,034004136735213062	0,0012687400606388846	0,0075007733294703078
1	1	0	0	0	0	2	32063,42	0,100000001	0,93699199	0,00027780631912085747	0,10001027609435245	9,37088262E-005	-0,033448523320919693	0,0012480093771214186	0,0080563867437636698
1	1	0	0	0	0	2	32083,42	0,100000001	0,94315964	0,00027780600002946125	0,10001016122144843	9,43255509E-005	-0,032892911239215245	0,0012272787433246365	0,0086119988254681242
1	1	0	0	0	0	2	32103,42	0,100000001	0,949231803	0,00027780601399681635	0,10001016624969634	9,49328314E-005	-0,032337299101948083	0,001206548107454735	0,0091676109627352819
1	1	0	0	0	0	2	32123,42	0,100000001	0,955246747	0,00027780579162099293	0,10001008619439893	9,5534313E-005	-0,031781687392304102	0,0011858174875400298	0,0097232226723792653
1	1	0	0	0	0	2	32143,42	0,100000001	0,961108863	0,00027780645444699459	0,10001032481176242	9,61208061E-005	-0,031226074747115546	0,0011650868327188982	0,010278835317567818
1	1	0	0	0	0	2	32163,42	0,100000001	0,96657002	0,00027780620709848074	0,10001023576629634	9,66668958E-005	-0,030670462150211309	0,0011443561796993197	0,010834447914472056
1	1	0	0	0	0	2	32183,42	0,100000001	0,972183883	0,00027780660331828726	0,10001037840542842	9,72284761E-005	-0,030114849077759283	0,0011236255089364134	0,011390060986924088
1	1	0	0	0	0	2	32203,42	0,100000001	0,978294253	0,00027780687424250778	0,10001047593814898	9,78396711E-005	-0,029559235647697178	0,0011028948248305949	0,011945674416986192
1	1	0	0	0	0	2	32223,42	0,100000001	0,986180484	0,00027780678861132925	0,10001044511092434	9,86283485E-005	-0,029003621897341651	0,0010821641287741974	0,012501288167341717
1	1	0	0	0	0	2	32243,42	0,100000001	0,997847438	0,0002778067005020049	0,10001041339156717	9,97951356E-005	-0,028448008269986931	0,0010614334373071259	0,013056901794696435
1	1	0	0	0	0	2	32263,42	0,100000001	1,01551032	0,0002778064086209569	0,10001030831438864	0,000101561498	-0,027892395382439267	0,0010407027734432502	0,013612514682244096
1	1	0	0	0	0	2	32283,42	0,100000001	1,03659105	0,00027780588867887853	0,10001012113523816	0,000103669598	-0,027336783316250234	0,0010199721402253693	0,01416812674843313
1	1	0	0	0	0	2	32303,42	0,100000001	1,05751908	0,0002778061813546551	0,10001022649851901	0,000105762723	-0,026781170764182349	0,00099924148887869542	0,014723739300501014
1	1	0	0	0	0	2	32323,42	0,100000001	1,07709134	0,00027780621426428352	0,10001023834598538	0,00010772016	-0,026225558273807341	0,00097851083983386534	0,015279351790876026
1	1	0	0	0	0	2	32343,42	0,100000001	1,09559429	0,00027780648727342493	0,10001033662927746	0,000109570756	-0,025669945571291952	0,00095778018287379264	0,015834964493391414
1	1	0	0	0	0	2	32363,42	0,100000001	1,1128943	0,00027780645814827747	0,10001032614422426	0,00011130092	-0,025114332814095507	0,00093704952387349619	0,016390577250587859
1	1	0	0	0	0	2	32383,42	0,100000001	1,12929678	0,00027780655708909037	0,10001036176291734	0,000112941379	-0,024558719696358845	0,00091631885142095962	0,016946190368324525
1	1	0	0	0	0	2	32403,42	0,100000001	1,14478278	0,00027780620700452064	0,10001023573247069	0,000114489994	-0,02400310696360279	0,00089558819333256691	0,017501803101080579
1	1	0	0	0	0	2	32423,42	0,100000001	1,15979135	0,00027780603219610122	0,10001017280143894	0,00011599093	-0,023447494564080989	0,00087485754767759245	0,018057415500602381
1	1	0	0	0	0	2	32443,42	0,100000001	1,17426538	0,00027780646077626282	0,10001032709029899	0,000117438663	-0,022891881862511821	0,00085412689075282445	0,018613028202171546
1	1	0	0	0	0	2	32463,42	0,100000001	1,18852925	0,00027780623472481968	0,10001024571177846	0,0001188651	-0,022336269389703213	0,00083339624236342054	0,019168640674980157
1	1	0	0	0	0	2	32483,42	0,100000001	1,20286953	0,00027780607673691382	0,10001018883613168	0,000120299206	-0,02178065689483385	0,00081266559315090022	0,01972425316984952
1	1	0	0	0	0	2	32503,42	0,100000001	1,21711433	0,00027780583659352531	0,10001010238451075	0,00012172373	-0,021225045089118352	0,00079193496965163725	0,020279864975565014
1	1	0	0	0	0	2	32523,42	0,100000001	1,23151183	0,00027780655641895206	0,10001036152166754	0,000123163947	-0,02066943230640119	0,00077120430969912858	0,020835477758282179
1	1	0	0	0	0	2	32543,42	0,100000001	1,24592853	0,00027780645666312845	0,10001032560957059	0,000124605722	-0,020113819557044829	0,00075047365099135616	0,021391090507638541
1	1	0	0	0	0	2	32563,42	0,100000001	1,26040244	0,00027780599160202678	0,10001015818757197	0,000126053041	-0,019558206997773059	0,00072974299937589555	0,021946703066910307
1	1	0	0	0	0	2	32583,42	0,100000001	1,27531552	0,00027780643771919939	0,10001031878975606	0,000127544714	-0,019002594444768886	0,00070901234799428723	0,022502315619914483
1	1	0	0	0	0	2	32603,42	0,100000001	1,29011416	0,00027780635594949126	0,10001028935266077	0,000129024687	-0,01844698165206008	0,0006882816876689769	0,02305792841262329
1	1	0	0	0	0	2	32623,42	0,100000001	1,30527544	0,00027780632762362557	0,10001027915534901	0,000130540968	-0,01789136921521087	0,00066755104062126656	0,023613540849472499
1	1	0	0	0	0	2	32643,42	0,100000001	1,32045591	0,00027780584384625155	0,10001010499549226	0,000132058936	-0,017335757456288746	0,00064682041886792704	0,024169152608394621
1	1	0	0	0	0	2	32663,42	0,100000001	1,33573186	0,00027780611831736234	0,10001020380509333	0,000133586815	-0,016780144971274016	0,00062608977002309645	0,024724765093409354
1	1	0	0	0	0	2	32683,42	0,100000001	1,35121787	0,00027780628575301837	0,10001026408193022	0,000135135662	-0,016224532701957734	0,00060535912922626483	0,025280377362725635
1	1	0	0	0	0	2	32703,42	0,100000001	1,36647463	0,00027780632387350003	0,10001027780530379	0,000136661503	-0,015668919746647872	0,00058462846283409037	0,025835990318035498
1	1	0	0	0	0	2	32723,42	0,100000001	1,37392163	0,0002778062036091255	0,10001023451012845	0,000137406227	-0,015113306976835526	0,0005638978033630777	0,026391603087847843
1	1	0	0	0	0	2	32743,42	0,100000001	1,37014091	0,00027780639716444746	0,10001030419004518	0,000137028212	-0,014557694088863597	0,0005431671394833721	0,026947215975819776
1	1	0	0	0	0	2	32763,42	0,100000001	1,36998808	0,00027780647318893011	0,10001033155885926	0,000137012961	-0,014002081919926502	0,00052243650243182304	0,02750282814475687
1	1	0	0	0	0	2	32783,42	0,100000001	1,37298608	0,00027780620131351882	0,1000102322865832	0,000137312658	-0,013446469303016627	0,00050170584866580717	0,028058440761666746
1	1	0	0	0	0	2	32803,42	0,100000001	1,37856174	0,00027780612674231334	0,10001020544094928	0,000137870244	-0,012890857360492331	0,00048097522006202387	0,02861405270419104
1	1	0	0	0	0	2	32823,42	0,100000001	1,38767004	0,00027780606483502522	0,10001018315432558	0,000138781135	-0,012335245449603197	0,00046024459263859117	0,029169664615080173
1	1	0	0	0	0	2	32843,42	0,100000001	1,40080726	0,00027780601738434701	0,10001016607208146	0,00014009497	-0,011779633392172322	0,0004395139597474889	0,029725276672511046
1	1	0	0	0	0	2	32863,42	0,100000001	1,41778266	0,00027780607465199299	0,100010186688434	0,000141792712	-0,011224021353537603	0,00041878332755769664	0,030280888711145766
1	1	0	0	0	0	2	32883,42	0,100000001	1,43727863	0,00027780603294281494	0,10001017167312992	0,00014374248	-0,010668409081460882	0,00039805268665786925	0,03083650098322249
1	1	0	0	0	0	2	32903,42	0,100000001	1,46074617	0,00027780611229108438	0,10001020023850688	0,000146089515	-0,010112796708475979	0,00037732204199302202	0,031392113356207392
1	1	0	0	0	0	2	32923,42	0,100000001	1,4947542	0,00027780595829875936	0,10001014480126995	0,000149490588	-0,0095571851105327578	0,00035659142624602202	0,031947724954150611
1	1	0	0	0	0	2	32943,42	0,100000001	1,63546467	0,00027780605116196806	0,10001017823202502	0,00016356312	-0,009001572861083863	0,00033586078619046938	0,032503337203599507
1	1	0	0	0	0	2	32963,42	0,100000001	2,09987187	0,00027780631421216662	0,10001027293009634	0,000210008759	-0,0084459603168337062	0,00031513013513548518	0,033058949747849664
1	1	0	0	0	0	2	32983,42	0,100000001	2,46480107	0,00027780685718357562	0,10001046839980322	0,000246505922	-0,0078903466925030963	0,00029439944378124717	0,033614563372180269
1	1	0	0	0	0	2	33003,42	0,100000001	2,74079895	0,00027780658519806131	0,10001037048501824	0,000274108315	-0,0073347333485241741	0,00027366876288730762	0,034170176716159194
1	1	0	0	0	0	2	33023,42	0,100000001	2,96107769	0,00027780646133381459	0,1000103258938895	0,000296138343	-0,0067791204275912896	0,00025293809777778448	0,034725789637092083
1	1	0	0	0	0	2	33043,42	0,100000001	3,1419065	0,00027780692674219606	0,10001049344090653	0,000314223609	-0,0062235067974674381	0,00023220740620739283	0,03528140326721593
1	1	0	0	0	0	2	33063,42	0,100000001	3,28949094	0,00027780671475289594	0,10001041712475862	0,000328983355	-0,0056678931007147014	0,0002114767121509879	0,035837016963968666
1	1	0	0	0	0	2	33083,42	0,100000001	3,40375495	0,00027780675245780083	0,10001043069852437	0,000340411003	-0,0051122796990318611	0,00019074602910403754	0,036392630365651514
1	1	0	0	0	0	2	33103,42	0,100000001	3,49621248	0,00027780700287057296	0,10001052084712214	0,000349658018	-0,0045566657705441293	0,00017001532640128835	0,036948244294139238
1	1	0	0	0	0	2	33123,42	0,100000001	3,57581902	0,00027780658399603434	0,10001037005228853	0,000357618992	-0,0040010520400824819	0,00014928463108715866	0,03750385802460089
1	1	0	0	0	0	2	33143,42	0,100000001	3,64899087	0,00027780670409732397	0,10001041328875272	0,000364937092	-0,003445438911790832	0,00012855395824080117	0,038059471152892538
1	1	0	0	0	0	2	33163,42	0,100000001	3,72191429	0,00027780624351484909	0,10001024747906208	0,000372229581	-0,0028898261350403405	0,00010782329851091696	0,038615083929643021
1	1	0	0	0	0	2	33183,42	0,100000001	3,79331017	0,00027780684859347014	0,10001046530736523	0,000379370729	-0,0023342134081458227	8,709264064122615E-005	0,039170696656537542
1	1	0	0	0	0	2	33203,42	0,100000001	3,85972214	0,00027780616681733062	0,10001021986795549	0,00038601167	-0,0017786009918933286	6,6361994362006938E-005	0,039726309072790042
1	1	0	0	0	0	2	33223,42	0,100000001	3,9209404	0,0002778061093352735	0,10001019917441494	0,000392134039	-0,0012229884301210616	4,5631342653249331E-005	0,04028192163456231
1	1	0	0	0	0	2	33243,42	0,100000001	3,97822523	0,00027780650147340362	0,10001034034414154	0,000397863652	-0,00066737619751089242	2,490070322597215E-005	0,04083753386717248
1	1	0	0	0	0	2	33263,42	0,100000001	4,0329895	0,00027780645126228531	0,10001032226813898	0,000403340586	-0,00011176319200812205	4,1700349610328544E-006	0,041393146872675251
1	1	0	0	0	0	2	33283,42	0,100000001	4,0867033	0,00027780646872147917	0,10001032855344875	0,000408712542	0,00044384966252808685	-1,6560627671141053E-005	0,041948759727211462
1	1	0	0	0	0	2	33303,42	0,100000001	4,13835526	0,00027780666530049504	0,10001039932189435	0,000413878559	0,00099946318384738342	-3,7291315181888461E-005	0,042504373248530758
1	1	0	0	0	0	2	33323,42	0,100000001	4,18500423	0,00027780678478462829	0,10001044233618221	0,000418544136	0,0015550767106341645	-5,8022002896635059E-005	0,043059986775317542
1	1	0	0	0	0	2	33330,77	0,100000001	4,19981003	0,00020426546937144464	0,10001029381673267	0,00042002424	0,001759342180005609	-6,5643422196728154E-005	0,043264252244688986