File: Experimentelles/Rohdaten/Batterietests/AlteZelle/Studenten_Batterietests/LLTO_LP30_Li CV/ECLab-Export/LLTO_LP30_Li_02_CV_C01_loop10.mpt
EC-Lab ASCII FILE
Nb header lines : 3
mode	ox/red	error	control changes	counter inc.	time/s	control/V	Ewe/V	<I>/mA	cycle number	(Q-Qo)/C	P/W
2	0	0	1	0	7381,06	2,11283278	2,1135788	-0,049981214106082918	11	0	0,000105639236
2	0	0	0	0	7382,29	2,10053134	2,10091734	-0,043437271155804979	11	-5,43838905E-005	9,12581163E-005
2	0	0	0	0	7383,54	2,08803058	2,08858728	-0,043852499482454733	11	-0,000109280452	9,15897763E-005
2	0	0	1	0	7384,79	2,07552958	2,07589602	-0,04446288939410199	11	-0,000164851532	9,23003317E-005
2	0	0	1	0	7386,04	2,06302857	2,06369638	-0,044957565783988685	11	-0,000221039329	9,27787623E-005
2	0	0	0	0	7387,29	2,05052757	2,05087471	-0,045531473374770426	11	-0,000277839164	9,3379349E-005
2	0	0	0	0	7388,54	2,03802657	2,03852463	-0,045933191276465946	11	-0,000335226097	9,36359429E-005
2	0	0	1	0	7389,79	2,02552581	2,02612448	-0,046304840798257069	11	-0,000393227907	9,38193698E-005
2	0	0	1	0	7391,04	2,01302505	2,0134635	-0,046876528310046298	11	-0,000451812899	9,43841806E-005
2	0	0	0	0	7392,29	2,00052381	2,00117326	-0,047361256011451245	11	-0,000511033926	9,47780791E-005
2	0	0	0	0	7393,54	1,98802292	1,98862255	-0,047826173560072902	11	-0,000570865115	9,51082038E-005
2	0	0	1	0	7394,79	1,97552192	1,97595167	-0,048438633811504928	11	-0,000631307776	9,57123993E-005
2	0	0	1	0	7396,04	1,96302104	1,96330059	-0,04882993182400249	11	-0,000692405622	9,58678356E-005
2	0	0	0	0	7397,29	1,95052004	1,95094049	-0,049342171095001331	11	-0,000754141482	9,62636404E-005
2	0	0	0	0	7398,54	1,93801904	1,93866038	-0,049914094406024787	11	-0,000816531538	9,67664746E-005
2	0	0	1	0	7399,79	1,92551649	1,92594898	-0,050487096697698688	11	-0,000879576663	9,72355701E-005
2	0	0	1	0	7401,04	1,91301715	1,91349888	-0,051063245705639469	11	-0,000943285821	9,77094605E-005
2	0	0	1	0	7402,29	1,90051591	1,90101969	-0,051536539861234189	11	-0,00100767682	9,79719771E-005
2	0	0	0	0	7403,54	1,88801527	1,8885076	-0,052037680385789709	11	-0,0010727864	9,82735583E-005
2	0	0	0	0	7404,79	1,87551427	1,87589693	-0,05266294071528432	11	-0,0011386188	9,87902458E-005
2	0	0	1	0	7406,04	1,86301339	1,86371684	-0,053339374135248307	11	-0,00120527565	9,9409488E-005
2	0	0	1	0	7407,29	1,85051239	1,85103595	-0,054064987479553907	11	-0,00127272285	0,000100076235
2	0	0	0	0	7408,54	1,83801138	1,83838511	-0,05476152842553961	11	-0,00134107587	0,000100672776
2	0	0	0	0	7409,79	1,8255105	1,82590437	-0,055439185215315437	11	-0,00141033344	0,000101226651
2	0	0	1	0	7411,04	1,8130095	1,81339383	-0,056288692091281286	11	-0,00148061418	0,000102073565
2	0	0	1	0	7412,29	1,8005085	1,80076301	-0,057193664833903424	11	-0,00155193021	0,000102992235
2	0	0	0	0	7413,54	1,78800762	1,78863323	-0,058165106844777933	11	-0,00162441202	0,000104036044
2	0	0	0	0	7414,79	1,77550662	1,77598238	-0,059213217832924109	11	-0,00169808057	0,000105161635
2	0	0	1	0	7416,04	1,76300573	1,76365221	-0,060160887311212826	11	-0,00177312014	0,000106102882
2	0	0	1	0	7417,29	1,75050473	1,7511214	-0,06139240790313719	11	-0,00184961129	0,000107505562
2	0	0	0	0	7418,54	1,73800373	1,73836005	-0,062706635139572314	11	-0,00192769873	0,000109006709
2	0	0	0	0	7419,79	1,72550285	1,72600996	-0,064115786323478912	11	-0,00200748094	0,000110664485
2	0	0	1	0	7421,04	1,71300185	1,71330881	-0,065671438021429939	11	-0,00208912999	0,000112515452
2	0	0	1	0	7422,29	1,70050085	1,70097864	-0,067316012864466752	11	-0,00217270036	0,000114503098
2	0	0	0	0	7423,54	1,68799996	1,68852818	-0,069022395803282726	11	-0,00225831359	0,00011654626
2	0	0	0	0	7424,79	1,67549896	1,67581713	-0,07071826620570665	11	-0,0023459848	0,000118510885
2	0	0	1	0	7426,04	1,66299808	1,66347694	-0,072414910052126963	11	-0,00243574032	0,000120460536
2	0	0	1	0	7427,29	1,65049708	1,65073586	-0,074180378830836442	11	-0,00252755522	0,000122452213
2	0	0	0	0	7428,54	1,63799703	1,6382457	-0,075987173385028915	11	-0,00262159551	0,000124485654
2	0	0	0	0	7429,79	1,6254952	1,62594497	-0,077938147354871091	11	-0,00271807704	0,000126723142
2	0	0	0	0	7431,04	1,61299419	1,61343455	-0,080330043546079142	11	-0,00281731598	0,000129607273
2	0	0	1	0	7432,29	1,60049319	1,6009841	-0,083080904519495898	11	-0,00291975331	0,000133011214
2	0	0	1	0	7433,54	1,58799231	1,58854365	-0,086408829277691674	11	-0,00302591571	0,0001372642
2	0	0	0	0	7434,79	1,57549131	1,57599294	-0,090416891674976909	11	-0,00313659245	0,000142496385
2	0	0	0	0	7436,04	1,56299043	1,56372297	-0,095374115296484211	11	-0,00325286249	0,000149138694
2	0	0	1	0	7437,34	1,55008936	1,55037022	-0,10194938726878422	11	-0,00338035426	0,000158059294
2	0	0	1	0	7438,59	1,5375886	1,53820038	-0,11038337240461259	11	-0,00351322209	0,000169791747
2	0	0	0	0	7439,84	1,52508748	1,52563965	-0,12116804001076762	11	-0,00365806906	0,000184858771
2	0	0	0	0	7441,09	1,51258659	1,51314902	-0,1348222495677569	11	-0,0038180945	0,000204006152
2	0	0	1	0	7442,34	1,50008571	1,50061846	-0,15157392256272352	11	-0,00399712287	0,000227454628
2	0	0	1	0	7443,59	1,48758459	1,48801756	-0,1716072015309087	11	-0,00419909367	0,000255354535
2	0	0	0	0	7444,84	1,47508383	1,47539675	-0,19477436078401901	11	-0,00442823162	0,000287369447
2	0	0	0	0	7446,09	1,46258283	1,46307659	-0,22127037627312074	11	-0,00468842639	0,000323735498
2	0	0	1	0	7447,34	1,45008183	1,45075655	-0,25028261037853962	11	-0,00498343958	0,000363099127
2	0	0	1	0	7448,59	1,43758094	1,4379952	-0,28189604488822438	11	-0,00531625841	0,000405365165
2	0	0	0	0	7449,84	1,42507982	1,42559493	-0,31510288322654835	11	-0,00568973273	0,000449209067
2	0	0	0	0	7451,09	1,41257894	1,41303408	-0,34970473273036442	11	-0,00610557385	0,000494144682
2	0	0	1	0	7452,34	1,40007806	1,40039325	-0,3852557339705527	11	-0,00656551355	0,000539509521
2	0	0	1	0	7453,59	1,38757694	1,38789272	-0,421500084145616	11	-0,00707018841	0,000584996887
2	0	0	0	0	7454,84	1,37507617	1,37534189	-0,45798848289996384	11	-0,0076204217	0,000629890768
2	0	0	0	0	7456,09	1,36257517	1,3630619	-0,49438865638027526	11	-0,00821600109	0,000673882372
2	0	0	1	0	7457,34	1,35007453	1,35061109	-0,53053877544162374	11	-0,00885713194	0,000716551556
2	0	0	1	0	7458,59	1,33757329	1,3379705	-0,56618673897658669	11	-0,00954327267	0,000757541158
2	0	0	1	0	7459,84	1,32507157	1,32540905	-0,60158478102799501	11	-0,0102738589	0,000797345943
2	0	0	0	0	7461,09	1,31257129	1,31276882	-0,63609816490983206	11	-0,0110481083	0,000835049839
2	0	0	0	0	7462,34	1,30007041	1,30050886	-0,67021888168528781	11	-0,0118651567	0,000871625612
2	0	0	1	0	7463,59	1,28756928	1,28806829	-0,70324676235516928	11	-0,0127242636	0,000905829831
2	0	0	1	0	7464,84	1,27506852	1,27566803	-0,73584085594241997	11	-0,0136243729	0,000938688638
2	0	0	0	0	7466,09	1,26256752	1,26301718	-0,76860469377910029	11	-0,0145651791	0,000970760942
2	0	0	0	0	7467,34	1,25006652	1,25063682	-0,80396795893708851	11	-0,0155484322	0,00100547192
2	0	0	1	0	7468,59	1,23756564	1,23817623	-0,84122100844979635	11	-0,0165772215	0,00104157988
2	0	0	1	0	7469,84	1,22506464	1,22579598	-0,87918128197391706	11	-0,0176529959	0,00107769691
2	0	0	0	0	7471,09	1,21256363	1,21300471	-0,91623488068580634	11	-0,0187760741	0,00111139717
2	0	0	0	0	7472,34	1,20006275	1,20048404	-0,95151291353007398	11	-0,0199443623	0,0011422761
2	0	0	1	0	7473,59	1,18756163	1,18806362	-0,98439338275541747	11	-0,0211553909	0,00116952194
2	0	0	1	0	7474,88	1,17466068	1,17519224	-1,0152276766796912	11	-0,0224460904	0,00119308766
2	0	0	0	0	7476,13	1,1621598	1,16261125	-1,042580039550863	11	-0,0237334352	0,00121211528
2	0	0	0	0	7477,38	1,14965892	1,14993024	-1,0676949784780589	11	-0,0250532832	0,00122777477
2	0	0	1	0	7478,63	1,1371578	1,13743973	-1,089549067119755	11	-0,0264025796	0,0012392964
2	0	0	1	0	7479,88	1,12465692	1,12501943	-1,1091467225924152	11	-0,0277775303	0,0012478116
2	0	0	0	0	7481,13	1,11215603	1,11263895	-1,1259024574731811	11	-0,0291753374	0,00125272293
2	0	0	0	0	7482,38	1,09965503	1,09988785	-1,1406048846741506	11	-0,0305923987	0,00125453749
2	0	0	1	0	7483,63	1,08715415	1,0874573	-1,1532107358798384	11	-0,0320266411	0,00125406741
2	0	0	1	0	7484,88	1,07465303	1,07500684	-1,1638142910475579	11	-0,0334751345	0,00125110836
2	0	0	0	0	7486,13	1,06215155	1,06249571	-1,1721328666996485	11	-0,0349360034	0,00124538608
2	0	0	0	0	7487,38	1,04965127	1,05015612	-1,1788990059867466	11	-0,0364061221	0,00123802805
2	0	0	0	0	7488,63	1,03714991	1,03748536	-1,1834480566873662	11	-0,0378833264	0,00122781005
2	0	0	1	0	7489,88	1,02464938	1,02519512	-1,1859828227510083	11	-0,0393648818	0,00121586386
2	0	0	1	0	7491,13	1,01214838	1,0125041	-1,1859894003719091	11	-0,0408479348	0,00120081916
2	0	0	0	0	7492,38	0,999647439	1,00005352	-1,1835705265402811	11	-0,0423296504	0,00118363393
2	0	0	0	0	7493,63	0,987146497	0,987302363	-1,1786875532319154	11	-0,0438067503	0,00116372097
2	0	0	1	0	7494,88	0,974645555	0,975032389	-1,1712188447515163	11	-0,0452763028	0,00114197633
2	0	0	1	0	7496,13	0,962144554	0,962591887	-1,1612395790095142	11	-0,0467347689	0,00111779978
2	0	0	0	0	7497,38	0,949643612	0,950151563	-1,1490595163777453	11	-0,0481794216	0,00109178072
2	0	0	0	0	7498,63	0,93714267	0,937570691	-1,1348170855393072	11	-0,0496072546	0,0010639712
2	0	0	1	0	7499,88	0,924641728	0,925370812	-1,119617298866313	11	-0,0510168821	0,00103606121
2	0	0	1	0	7501,13	0,912140727	0,912569523	-1,1045703052853568	11	-0,0524073392	0,0010079972
2	1	0	0	0	7502,34	0,900039971	0,900530219	-1,0922112143956717	11	-0,0537370667	0,000983569189
2	1	0	1	0	7503,57	0,91234082	0,912840188	-0,8548903126890473	11	-0,0549255945	0,000780378236
2	1	0	1	0	7504,82	0,924841762	0,925300598	-0,66717851394787494	11	-0,0558719225	0,000617340673
2	1	0	0	0	7506,07	0,937342703	0,93771106	-0,51184640933449011	11	-0,0566052422	0,000479964045
2	1	0	0	0	7507,36	0,950243771	0,950552404	-0,37765631568618208	11	-0,0571761355	0,000358982128
2	1	0	1	0	7508,61	0,962744653	0,963403881	-0,26667192733536128	11	-0,0575764216	0,000256912783
2	1	0	1	0	7509,86	0,975245595	0,975734174	-0,17147761571686758	11	-0,0578480512	0,000167316568
2	1	0	0	0	7511,11	0,987746656	0,988004029	-0,089293346876123443	11	-0,0580090843	8,82221866E-005
2	1	0	0	0	7512,40	1,00064743	1,00087559	-0,016172476520296214	11	-0,0580753088	1,61866374E-005
2	1	0	1	0	7513,65	1,01314843	1,01366675	0,045523871910215008	11	-0,0580554791	4,61460368E-005
2	1	0	1	0	7514,92	1,02584934	1,0259769	0,10058116460762312	11	-0,0579613633	0,000103193954
2	1	0	0	0	7516,19	1,03855038	1,03903902	0,14942559646442522	11	-0,0578013808	0,000155259026
2	1	0	0	0	7517,44	1,05105126	1,05147946	0,19268989171056682	11	-0,0575865842	0,000202609459
2	1	0	1	0	7518,69	1,06355226	1,06402004	0,23203727013120989	11	-0,0573201254	0,000246892305
2	1	0	1	0	7519,94	1,07605326	1,07665098	0,26831277118374963	11	-0,0570064783	0,000288879208
2	1	0	1	0	7521,19	1,08855271	1,08903992	0,30241684077468365	11	-0,0566488579	0,00032934401
2	1	0	0	0	7522,44	1,10105515	1,10150182	0,33442969146805357	11	-0,0562500209	0,000368374924
2	1	0	0	0	7523,69	1,11355603	1,11422288	0,36519189931762643	11	-0,0558120869	0,000406905165
2	1	0	1	0	7524,94	1,12605703	1,12646294	0,39449962150926157	11	-0,0553365685	0,00044438921
2	1	0	1	0	7526,19	1,13855803	1,13891339	0,42301138195519616	11	-0,054824844	0,000481773342
2	1	0	0	0	7527,44	1,15105891	1,15133381	0,45094759110361248	11	-0,0542777628	0,000519191206
2	1	0	0	0	7528,69	1,16355991	1,16402471	0,47850654848540941	11	-0,0536961071	0,000556993473
2	1	0	1	0	7529,94	1,17606091	1,17656553	0,50552379727984384	11	-0,0530803278	0,000594781886
2	1	0	1	0	7531,19	1,18856192	1,1890862	0,53252686451499718	11	-0,0524309427	0,000633220363
2	1	0	0	0	7532,44	1,2010628	1,20151651	0,55910707466925126	11	-0,0517480411	0,000671776361
2	1	0	0	0	7533,69	1,21356368	1,21390688	0,58555106213316326	11	-0,0510321707	0,000710804481
2	1	0	1	0	7534,94	1,22606468	1,226578	0,61155222790936486	11	-0,0502834693	0,00075011648
2	1	0	1	0	7536,19	1,23856568	1,23885798	0,63718750389913664	11	-0,0495026484	0,000789384823
2	1	0	0	0	7537,44	1,25106657	1,25144875	0,66226182489966413	11	-0,0486900024	0,000828786753
2	1	0	0	0	7538,69	1,26356757	1,26407969	0,68669552278394662	11	-0,0478465036	0,000868037867
2	1	0	1	0	7539,94	1,27606857	1,27654016	0,71001349389553075	11	-0,0469729155	0,000906360743
2	1	0	1	0	7541,19	1,28856957	1,28921127	0,73303878540173082	11	-0,0460704342	0,000945041887
2	1	0	0	0	7542,44	1,30107045	1,3015815	0,75505056216691635	11	-0,0451397672	0,00098275987
2	1	0	0	0	7543,69	1,31357133	1,3140018	0,77618836844339968	11	-0,0441823453	0,00101991289
2	1	0	1	0	7544,94	1,32607234	1,32639217	0,79608583388229056	11	-0,0431990772	0,00105592201
2	1	0	1	0	7546,19	1,33857334	1,33896291	0,81516096616784845	11	-0,0421915427	0,00109147024
2	1	0	0	0	7547,44	1,35107422	1,35154366	0,83321007030705549	11	-0,0411606021	0,00112611975
2	1	0	0	0	7548,69	1,36357522	1,36409438	0,85034581956763763	11	-0,0401078872	0,00115995191
2	1	0	0	0	7549,94	1,37607694	1,37662625	0,86639413230825114	11	-0,0390342996	0,00119270093
2	1	0	1	0	7551,19	1,38857722	1,38917577	0,88163701848437274	11	-0,0379413366	0,00122474879
2	1	0	1	0	7552,44	1,4010781	1,40164626	0,89582890427361062	11	-0,0368298665	0,00125563517
2	1	0	0	0	7553,69	1,41357899	1,41396642	0,90940172690897907	11	-0,035700772	0,00128586346
2	1	0	0	0	7554,94	1,42607999	1,42656732	0,92281858312586701	11	-0,0345551707	0,00131646288
2	1	0	1	0	7556,19	1,43858099	1,43907785	0,93867698901643059	11	-0,0333917066	0,00135082926
2	1	0	1	0	7557,44	1,45108187	1,45148826	0,96144098074485824	11	-0,0322045982	0,00139552029
2	1	0	0	0	7558,69	1,46358287	1,46420932	0,99083620061476838	11	-0,0309844464	0,00145079161
2	1	0	0	0	7559,97	1,47638404	1,47686028	1,0264994828030467	11	-0,0296928603	0,00151599629
2	1	0	1	0	7561,23	1,48888481	1,48922062	1,0605539499471597	11	-0,0283875633	0,00157939875
2	1	0	1	0	7562,48	1,50138569	1,50165105	1,0919134188443387	11	-0,0270411931	0,0016396729
2	1	0	0	0	7563,73	1,51388681	1,51440227	1,1169869781782227	11	-0,0256592762	0,0016915676
2	1	0	0	0	7564,98	1,52638757	1,52684271	1,1351384685064368	11	-0,0242506117	0,00173317792
2	1	0	1	0	7566,23	1,53888869	1,53925312	1,1450901962816733	11	-0,0228239466	0,00176258362
2	1	0	1	0	7567,48	1,55138958	1,55190396	1,1449258358528187	11	-0,0213909745	0,00177681493
2	1	0	0	0	7568,73	1,56389046	1,56442463	1,1321182465180773	11	-0,0199656915	0,00177111372
2	1	0	0	0	7569,98	1,57639158	1,57678473	1,1038999880353586	11	-0,0185660291	0,00174061267
2	1	0	1	0	7571,23	1,58889234	1,589486	1,0590008317182438	11	-0,0172119625	0,00168326695
2	1	0	1	0	7572,48	1,60139322	1,60195637	0,99739802256226496	11	-0,0159247145	0,00159778807
2	1	0	0	0	7573,73	1,61389422	1,61448693	0,9195889638115968	11	-0,0147245405	0,00148466439
2	1	0	0	0	7574,98	1,62639523	1,62680721	0,82690195801357542	11	-0,0136312339	0,00134521013
2	1	0	1	0	7576,23	1,63889611	1,63919747	0,72352759027853427	11	-0,0126610668	0,00118600461
2	1	0	1	0	7577,48	1,65139711	1,65179837	0,61390579973037069	11	-0,011824213	0,00101404858
2	1	0	1	0	7578,73	1,66389823	1,66426933	0,49055861960756838	11	-0,0111316815	0,000816421642
2	1	0	0	0	7580,02	1,67679906	1,67732084	0,33939257504728838	11	-0,0105946008	0,000569270225
2	1	0	0	0	7581,27	1,68930006	1,68982148	0,20546421602678765	11	-0,010258344	0,000347197842
2	1	0	1	0	7582,52	1,70180106	1,70211136	0,12485519726760648	11	-0,0100574484	0,000212517451
2	1	0	1	0	7583,77	1,71430194	1,71482265	0,089992423755271834	11	-0,00992597453	0,000154321053
2	1	0	0	0	7585,02	1,72680295	1,72732317	0,075100576757298304	11	-0,00982335303	0,000129722961
2	1	0	0	0	7586,27	1,73930395	1,73953295	0,06698765386439232	11	-0,00973444339	0,000116527233
2	1	0	1	0	7587,52	1,75180483	1,75209379	0,06166471449735872	11	-0,0096536912	0,000108042361
2	1	0	1	0	7588,77	1,76430583	1,76469469	0,057805265202962803	11	-0,00957868993	0,000102008642
2	1	0	0	0	7590,02	1,77680671	1,77740574	0,054750965248482778	11	-0,00950801373	9,73146816E-005
2	1	0	0	0	7591,27	1,78930771	1,78973591	0,052322440800101619	11	-0,00944078714	9,36433498E-005
2	1	0	1	0	7592,52	1,80180871	1,80216634	0,050360022170934605	11	-0,00937632006	9,07571375E-005
2	1	0	1	0	7593,81	1,81470978	1,81500781	0,048612906228906125	11	-0,00931222644	8,82328022E-005
2	1	0	0	0	7595,06	1,82721066	1,82776892	0,047222368710208602	11	-0,00925212353	8,63115783E-005
2	1	0	0	0	7596,31	1,83971167	1,84025943	0,04598170759466791	11	-0,00919367652	8,46182738E-005
2	1	0	1	0	7597,56	1,85221255	1,85271013	0,044819285452831424	11	-0,00913663581	8,30371428E-005
2	1	0	1	0	7598,81	1,86471343	1,86530089	0,043923451196557382	11	-0,00908083003	8,19304551E-005
2	1	0	0	0	7600,06	1,87721455	1,87770128	0,043162811838556	11	-0,00902605988	8,104687E-005
2	1	0	0	0	7601,31	1,88971543	1,89035213	0,04257493953142921	11	-0,00897221919	8,048163E-005
2	1	0	1	0	7602,56	1,9022162	1,90280259	0,041966494822797018	11	-0,00891916081	7,9853955E-005
2	1	0	1	0	7603,81	1,91471744	1,91513276	0,041348616970935834	11	-0,00886680372	7,91880884E-005
2	1	0	0	0	7605,06	1,92721832	1,92777383	0,040950765309389568	11	-0,00881501287	7,89438127E-005
2	1	0	0	0	7606,31	1,93971932	1,94042468	0,040566857904195782	11	-0,0087637594	7,87169338E-005
2	1	0	1	0	7607,56	1,95222044	1,9526459	0,040313337633112122	11	-0,00871292502	7,87176759E-005
2	1	0	1	0	7608,81	1,96472108	1,96496463	0,040071445808280262	11	-0,00866247341	7,87389727E-005
2	1	0	1	0	7610,06	1,9772222	1,97758555	0,039763714060730534	11	-0,00861233287	7,86361488E-005
2	1	0	0	0	7611,31	1,98972309	1,99006617	0,039467774913646394	11	-0,00856243912	7,85434822E-005
2	1	0	0	0	7612,56	2,00222468	2,00268769	0,039420374850611226	11	-0,00851275586	7,89467013E-005
2	1	0	1	0	7613,81	2,01472497	2,0153079	0,039261753593261005	11	-0,00846324395	7,91245257E-005
2	1	0	1	0	7615,06	2,02722597	2,02766824	0,039246160081044365	11	-0,00841389969	7,95781889E-005
2	1	0	0	0	7616,31	2,03972697	2,04017878	0,039082615248237971	11	-0,00836467743	7,97355242E-005
2	1	0	0	0	7617,56	2,05222774	2,0527997	0,038959426087482374	11	-0,00831558183	7,99759E-005
2	1	0	1	0	7618,81	2,06472874	2,06534028	0,038920987145198982	11	-0,00826654769	8,03850853E-005
2	1	0	1	0	7620,06	2,07722974	2,07774067	0,038910875950629587	11	-0,0082176039	8,08467084E-005
2	1	0	0	0	7621,31	2,0897305	2,09039187	0,038935065715728992	11	-0,00816867966	8,13895458E-005
2	1	0	0	0	7622,56	2,10223174	2,10283208	0,038944238234156269	11	-0,00811984204	8,18931949E-005
2	1	0	1	0	7623,81	2,1147325	2,11544275	0,038793538900790624	11	-0,00807092711	8,20655114E-005
2	1	0	1	0	7625,06	2,12723351	2,12751245	0,03883900426444592	11	-0,00802200288	8,26304677E-005
2	1	0	0	0	7626,31	2,13973427	2,14012337	0,038913673575734611	11	-0,00797300972	8,32800652E-005
2	1	0	0	0	7627,56	2,15223551	2,1527946	0,038994376935685523	11	-0,00792397745	8,39468848E-005
2	1	0	1	0	7628,81	2,16473627	2,16524482	0,039126161641130861	11	-0,00787483901	8,47177216E-005
2	1	0	1	0	7630,06	2,17723751	2,1777153	0,039122165103132544	11	-0,00782562513	8,5196938E-005
2	1	0	0	0	7631,31	2,18973827	2,19009566	0,039167617108129491	11	-0,00777627248	8,57808263E-005
2	1	0	0	0	7632,56	2,20223904	2,20281672	0,039322219924845997	11	-0,00772682019	8,66196424E-005
2	1	0	1	0	7633,81	2,21474004	2,21521711	0,03946154895432599	11	-0,00767718442	8,74159014E-005
2	1	0	1	0	7635,06	2,22724128	2,22766757	0,039639054390136038	11	-0,00762740755	8,83026369E-005
2	1	0	0	0	7636,31	2,23974204	2,240098	0,039750502803750918	11	-0,00757742394	8,90450247E-005
2	1	0	0	0	7637,56	2,25224304	2,25273871	0,03976109892634361	11	-0,00752726989	8,95713674E-005
2	1	0	1	0	7638,81	2,26474476	2,26520038	0,039929191885906765	11	-0,00747688115	9,04476183E-005
2	1	0	1	0	7640,06	2,27724504	2,27762985	0,040149610693333683	11	-0,00742629543	9,14459524E-005
2	1	0	1	0	7641,31	2,28974581	2,29029083	0,040355038470200499	11	-0,00737544708	9,24247724E-005
2	1	0	0	0	7642,56	2,30224705	2,30264115	0,040595677904396666	11	-0,00732436171	9,34772761E-005
2	1	0	0	0	7643,81	2,31474781	2,31510139	0,040895543749987328	11	-0,00727299973	9,46773289E-005
2	1	0	1	0	7645,06	2,32724881	2,32773232	0,041121654309487539	11	-0,00722136535	9,57202064E-005
2	1	0	1	0	7646,31	2,33974957	2,34032345	0,041409828166554861	11	-0,00716943899	9,69123939E-005
2	1	0	0	0	7647,56	2,35225081	2,35263324	0,04165948173613287	11	-0,00711724861	9,80094846E-005
2	1	0	0	0	7648,81	2,36475158	2,36527419	0,041962741515211066	11	-0,00706477137	9,92533896E-005
2	1	0	1	0	7650,06	2,37725282	2,37770462	0,042077515390701562	11	-0,00701202266	0,000100047902
2	1	0	1	0	7651,31	2,38975358	2,39042592	0,042245865867395539	11	-0,00695897173	0,000100985613
2	1	0	0	0	7652,56	2,40225434	2,40269589	0,042554128119566656	11	-0,00690561067	0,00010224463
2	1	0	0	0	7653,81	2,41475534	2,41527653	0,042901252638936627	11	-0,00685188547	0,000103618389
2	1	0	1	0	7655,06	2,42725658	2,42771721	0,043227634625509216	11	-0,00679777516	0,000104944469
2	1	0	1	0	7656,31	2,43975735	2,44015765	0,043588026358823526	11	-0,00674324576	0,000106361658
2	1	0	0	0	7657,56	2,45225835	2,45266795	0,043860793123409766	11	-0,0066882614	0,000107575965
2	1	0	0	0	7658,81	2,46475935	2,46525884	0,04431721960039184	11	-0,00663278438	0,000109253415
2	1	0	1	0	7660,06	2,47726035	2,47769952	0,044740483853577875	11	-0,00657680957	0,000110853478
2	1	0	1	0	7661,31	2,48976111	2,49031019	0,045179893544021408	11	-0,00652034767	0,000112511952
2	1	0	0	0	7662,56	2,50226235	2,50250006	0,045379781106021197	11	-0,00646346109	0,000113562906
2	1	0	0	0	7663,81	2,51476312	2,51523137	0,045753430400509376	11	-0,00640614843	0,00011508046
2	1	0	1	0	7665,06	2,5272646	2,52758193	0,046044438000876986	11	-0,00634837523	0,000116381088
2	1	0	1	0	7666,31	2,53976488	2,54006195	0,046478527365252378	11	-0,00629018433	0,000118058342
2	1	0	1	0	7667,56	2,55226564	2,55270147	0,046829926675570176	11	-0,00623152964	0,000119542819
2	1	0	0	0	7668,81	2,56476688	2,56528354	0,047327323971937005	11	-0,0061724144	0,000121408004
2	1	0	0	0	7670,06	2,57726812	2,5779047	0,047609642506965171	11	-0,00611278834	0,000122733123
2	1	0	1	0	7671,31	2,58976889	2,59029484	0,04799518753619239	11	-0,00605267705	0,000124321683
2	1	0	1	0	7672,56	2,60226965	2,60288548	0,048449862787189587	11	-0,00599203818	0,000126109444
2	1	0	0	0	7673,81	2,61477065	2,61514592	0,048884855059441178	11	-0,00593091175	0,000127841035
2	1	0	0	0	7675,06	2,62727189	2,62754607	0,049389879393856973	11	-0,00586923119	0,000129774184
2	1	0	1	0	7676,31	2,63977265	2,64024711	0,049758407675350669	11	-0,00580701837	0,000131374487
2	1	0	1	0	7677,56	2,65227365	2,6526475	0,050111509355095507	11	-0,00574424304	0,000132928166
2	1	0	0	0	7678,81	2,66477466	2,66534853	0,050598470222515181	11	-0,00568090426	0,000134862552
2	1	0	0	0	7680,06	2,67727542	2,67767882	0,051099716840932621	11	-0,00561696291	0,000136828632
2	1	0	1	0	7681,31	2,68977642	2,69036984	0,051620384930477715	11	-0,00555242784	0,00013887792
2	1	0	1	0	7682,56	2,70227766	2,70268989	0,052130500456162963	11	-0,00548727717	0,000140892575
2	1	0	0	0	7683,81	2,71477842	2,71526074	0,052529944262156736	11	-0,00542151649	0,000142632489
2	1	0	0	0	7685,06	2,72727942	2,72777152	0,053018934462064294	11	-0,00535511738	0,00014462354
2	1	0	1	0	7686,31	2,73978019	2,74015164	0,053531512016585683	11	-0,00528811244	0,000146684455
2	1	0	1	0	7687,56	2,75228143	2,75291276	0,054061510988200557	11	-0,00522047235	0,000148826628
2	1	0	0	0	7688,81	2,76478219	2,76517296	0,05461511173052713	11	-0,00515222177	0,000151020227
2	1	0	0	0	7690,06	2,77728343	2,77766323	0,05499438572830201	11	-0,00508333137	0,000152755878
2	1	0	1	0	7691,32	2,78978419	2,7902143	0,055413225200027008	11	-0,00501381839	0,000154614769
2	1	0	1	0	7692,57	2,80228496	2,80269456	0,055918746938308006	11	-0,00494366791	0,000156723167
2	1	0	0	0	7693,82	2,81478596	2,8152256	0,056416361606919763	11	-0,00487291068	0,000158824783
2	1	0	0	0	7695,07	2,8272872	2,82778597	0,05698493891395623	11	-0,00480149081	0,000161141215
2	1	0	0	0	7696,32	2,83978677	2,8403163	0,057518382105146259	11	-0,00472944975	0,000163370394
2	1	0	1	0	7697,57	2,85228896	2,85305786	0,058118119816451046	11	-0,00465674745	0,000165814359
2	1	0	1	0	7698,82	2,86478996	2,86520767	0,058669543825089933	11	-0,00458341883	0,000168100421
2	1	0	0	0	7700,07	2,87729073	2,8779788	0,059225088276434573	11	-0,00450941129	0,000170448548
2	1	0	0	0	7701,32	2,88979173	2,89022875	0,059769571855819546	11	-0,00443478068	0,000172747736
2	1	0	1	0	7702,57	2,90229297	2,90298033	0,060339907242450752	11	-0,00435948465	0,000175165565
2	1	0	1	0	7703,82	2,91479373	2,91536045	0,060655616456642688	11	-0,00428360188	0,000176832982
2	1	0	0	0	7705,07	2,92729473	2,92786098	0,061215975283024141	11	-0,00420702435	0,000179231865
2	1	0	0	0	7706,32	2,93979549	2,94013095	0,061773388743555648	11	-0,00412981631	0,000181621857
2	1	0	1	0	7707,57	2,95229673	2,95271182	0,062386136948286323	11	-0,00405192608	0,000184208286
2	1	0	1	0	7708,82	2,9647975	2,96530271	0,062879054748918861	11	-0,00397340814	0,000186455436
2	1	0	0	0	7710,07	2,97729874	2,97770286	0,063383849357099507	11	-0,0038941924	0,000188738268
2	1	0	0	0	7711,32	2,9897995	2,99022365	0,063894152718906688	11	-0,00381430355	0,000191057799
2	1	0	1	0	7712,57	3,00230026	3,00282454	0,064519981679040717	11	-0,00373370596	0,000193742191
2	1	0	1	0	7713,82	3,01480126	3,01541519	0,065056048663488128	11	-0,0036524178	0,000196170993
2	1	0	0	0	7715,07	3,0273025	3,02769542	0,065763296656465856	11	-0,00357038318	0,000199111237
2	1	0	0	0	7716,32	3,03980327	3,04006577	0,066284937764673037	11	-0,00348761189	0,000201510571
2	1	0	1	0	7717,57	3,05230427	3,05277681	0,06680791826996329	11	-0,00340407947	0,000203949661
2	1	0	1	0	7718,82	3,06480527	3,06533742	0,067433921329211226	11	-0,0033197694	0,000206707729
2	1	0	0	0	7720,07	3,07730603	3,07789826	0,068148895263827174	11	-0,00323465513	0,000209755366
2	1	0	0	0	7721,32	3,08980703	3,09029841	0,068776307375325363	11	-0,00314874435	0,000212539308
2	1	0	1	0	7722,57	3,10230827	3,10256863	0,069501844913853811	11	-0,00306202867	0,000215634238
2	1	0	1	0	7723,82	3,11480904	3,11513925	0,070042275222173261	11	-0,00297449809	0,000218191446
2	1	0	0	0	7725,07	3,12731075	3,127491	0,070681798022365734	11	-0,0028861647	0,000221056689
2	1	0	0	0	7726,32	3,13981056	3,14032078	0,071395520955168435	11	-0,00279699592	0,000224204836
2	1	0	0	0	7727,57	3,1523118	3,15293145	0,072114093908263846	11	-0,00270701014	0,000227370794
2	1	0	1	0	7728,82	3,1648128	3,16538215	0,072840488826235174	11	-0,00261614425	0,000230567981
2	1	0	1	0	7730,07	3,1773138	3,17758203	0,073451364005450163	11	-0,0025244283	0,000233397732
2	1	0	0	0	7731,32	3,18981481	3,19022274	0,074131266330368589	11	-0,00243177707	0,000236495252
2	1	0	0	0	7732,57	3,20231533	3,20282388	0,074939904812102771	11	-0,00233820733	0,000240019319
2	1	0	1	0	7733,82	3,21481657	3,21550465	0,075746864468479974	11	-0,00224362407	0,000243564398
2	1	0	1	0	7735,07	3,22731757	3,22777462	0,076631990630024128	11	-0,00214806572	0,000247350807
2	1	0	0	0	7736,32	3,23981857	3,24029541	0,077469871476447795	11	-0,00205139001	0,000251025282
2	1	0	0	0	7737,57	3,25231957	3,25279593	0,078303573924737408	11	-0,00195363467	0,000254705548
2	1	0	1	0	7738,82	3,2648201	3,26553726	0,079317985509987917	11	-0,00185467186	0,000259015826
2	1	0	1	0	7740,07	3,27732134	3,27769685	0,080357411662892902	11	-0,00175449031	0,000263387221
2	1	0	0	0	7741,32	3,28982234	3,29012752	0,081466451539502886	11	-0,00165296101	0,000268035015
2	1	0	0	0	7742,57	3,30232334	3,30270815	0,082622918222720051	11	-0,00155008317	0,000272879377
2	1	0	1	0	7743,82	3,31482434	3,31534886	0,083679028321057446	11	-0,00144570845	0,000277425162
2	1	0	1	0	7745,07	3,32732487	3,32774925	0,084907576364154688	11	-0,0013397967	0,000282551133
2	1	0	0	0	7746,32	3,33982587	3,34049034	0,086239988566375821	11	-0,001232279	0,000288083858
2	1	0	0	0	7747,57	3,35232711	3,35267019	0,087586656794883418	11	-0,00112312508	0,00029364918
2	1	0	1	0	7748,82	3,36482811	3,36533141	0,089050403951356493	11	-0,00101218908	0,000299684121
2	1	0	1	0	7750,07	3,37732911	3,37768197	0,090601699310354893	11	-0,000899455626	0,000306023721
2	1	0	0	0	7751,32	3,38983035	3,39051437	0,092236002858438131	11	-0,000784761563	0,000312727498
2	1	0	0	0	7752,57	3,40233064	3,40282321	0,093926640537877581	11	-0,00066809851	0,000319615763
2	1	0	1	0	7753,82	3,41483235	3,41543555	0,095663510984285773	11	-0,000549303659	0,000326732552
2	1	0	1	0	7755,07	3,42733288	3,4280746	0,097477250266820083	11	-0,000428381289	0,000334159296
2	1	0	1	0	7756,36	3,44023275	3,44056439	0,099277049686111667	11	-0,000301211083	0,000341569073
2	1	0	0	0	7757,61	3,45273447	3,45317626	0,10117526150619005	11	-0,000175633599	0,000349376001
2	1	0	0	0	7758,86	3,46523547	3,46577716	0,10290949260039906	11	-4,7732683E-005	0,00035666136
2	1	0	1	0	7760,11	3,47773647	3,47810745	0,10482904920354496	11	8,25316674E-005	0,000364606705
2	1	0	1	0	7761,36	3,49023771	3,49092889	0,10688225494232029	11	0,000215237742	0,000373118353
2	1	0	0	0	7762,61	3,50273871	3,50305843	0,10890151436130213	11	0,00035043605	0,000381488382
2	1	0	0	0	7763,86	3,51523972	3,51578951	0,11107183791076114	11	0,000488223217	0,000390505214
2	1	0	1	0	7765,11	3,52774024	3,52823019	0,11317757672319773	11	0,000628724985	0,000399316545
2	1	0	1	0	7766,36	3,54024124	3,54075074	0,11547234425476426	11	0,000772008498	0,000408858788
2	1	0	0	0	7767,61	3,55274224	3,55345178	0,11785138278113027	11	0,000918235164	0,000418779207
2	1	0	0	0	7768,86	3,56524348	3,56575155	0,12037843749082322	11	0,00106747821	0,00042923959
2	1	0	1	0	7770,11	3,57774448	3,57838297	0,12294464872684374	11	0,00121988123	0,000439943047
2	1	0	1	0	7771,36	3,59024501	3,59101367	0,12554270979793091	11	0,00137545879	0,000450825581
2	1	0	0	0	7772,61	3,60274601	3,60313344	0,12795682177723677	11	0,00153430144	0,000461045507
2	1	0	0	0	7773,86	3,61524701	3,61570406	0,13061590938984091	11	0,00169633783	0,000472268468
2	1	0	1	0	7775,11	3,62774825	3,62804437	0,1330238690522183	11	0,00186157541	0,00048261651
2	1	0	1	0	7776,36	3,64024925	3,64061499	0,13555565682084603	11	0,00202982174	0,00049350597
2	1	0	0	0	7777,61	3,65274978	3,65320587	0,13780819325863059	11	0,00220105797	0,000503441726
2	1	0	0	0	7778,86	3,66525078	3,66584682	0,13998124445788518	11	0,00237506325	0,000513149775
2	1	0	0	0	7780,11	3,67775106	3,67815614	0,14211429970689115	11	0,0025518334	0,00052271859
2	1	0	1	0	7781,36	3,69025302	3,69094777	0,14426024754842093	11	0,0027312173	0,000532457023
2	1	0	1	0	7782,61	3,70275307	3,70325828	0,14630327739906067	11	0,00291320099	0,000541798829
2	1	0	0	0	7783,86	3,71525455	3,71585917	0,14834317976298416	11	0,00309765851	0,000551222358
2	1	0	0	0	7785,11	3,72775578	3,72837973	0,15024522507004877	11	0,00328464364	0,000560171262
2	1	0	1	0	7786,36	3,74025655	3,74061966	0,15213399101048662	11	0,00347401248	0,000569075404
2	1	0	1	0	7787,61	3,75275755	3,75320077	0,15423217943559075	11	0,00366597995	0,000578864361
2	1	0	0	0	7788,86	3,76525879	3,76574135	0,15636611900602794	11	0,00386055582	0,000588834344
2	1	0	0	0	7790,11	3,77775979	3,77815175	0,1584968749278537	11	0,00405775337	0,000598825223
2	1	0	1	0	7791,36	3,79026031	3,79044151	0,1606472860633703	11	0,00425763335	0,000608924136
2	1	0	1	0	7792,61	3,80276132	3,80331302	0,162738153943792	11	0,00446022954	0,000618944119
2	1	0	0	0	7793,86	3,81526232	3,81578374	0,16509684574945526	11	0,00466565508	0,000629973831
2	1	0	0	0	7795,11	3,82776356	3,8282342	0,16754806037837021	11	0,00487402687	0,000641413208
2	1	0	1	0	7796,36	3,84026456	3,84070492	0,17010311336101315	11	0,0050854967	0,000653315859
2	1	0	1	0	7797,61	3,85276508	3,8532052	0,17283399787265763	11	0,00530022988	0,00066596485
2	1	0	0	0	7798,86	3,86526608	3,86572623	0,17545233868683341	11	0,00551842153	0,000678250683
2	1	0	0	0	7800,11	3,87776709	3,87834668	0,17834875255357498	11	0,00574012101	0,000691698282
2	1	0	1	0	7801,36	3,89026833	3,89072728	0,18127205587613072	11	0,00596549548	0,000705280108
2	1	0	1	0	7802,61	3,90276933	3,90334797	0,18433252299049286	11	0,00619458314	0,000719513977
2	1	0	0	0	7803,86	3,91526985	3,91598892	0,18744881090242394	11	0,00642754091	0,00073404744
2	1	0	0	0	7805,11	3,92777085	3,92822862	0,19077594527819482	11	0,00666442141	0,000749411527
2	1	0	1	0	7806,36	3,94027185	3,94057918	0,19405681185890013	11	0,00690539973	0,000764696219
2	1	0	1	0	7807,61	3,95277286	3,95313978	0,19745532842352941	11	0,00715048797	0,000780568516
2	1	0	0	0	7808,86	3,96527457	3,96595073	0,20079744244775277	11	0,0073997532	0,000796352746
2	1	0	0	0	7810,11	3,9777751	3,97825122	0,20401657388235117	11	0,00765303615	0,000811629172
2	1	0	1	0	7811,36	3,9902761	3,99085307	0,20708612700404938	11	0,00791028794	0,000826450298
2	1	0	1	0	7812,61	4,0027771	4,00338316	0,20997508770475725	11	0,00817134324	0,000840610708
2	1	0	0	0	7813,86	4,01527786	4,01571321	0,21290256515858186	11	0,0084361285	0,000854955637
2	1	0	0	0	7815,11	4,02777863	4,02835417	0,21578840375877917	11	0,00870447513	0,000869272102
2	1	0	1	0	7816,36	4,04028034	4,04074478	0,21849067148366784	11	0,00897632074	0,000882865046
2	1	0	1	0	7817,61	4,05278063	4,05361605	0,22113138639057638	11	0,00925140176	0,000896381738
2	1	0	0	0	7818,86	4,06528187	4,06579542	0,2232886840659225	11	0,00952955615	0,000907846086
2	1	0	0	0	7820,11	4,07778263	4,07831621	0,2253570090203232	11	0,00981041696	0,000919077138
2	1	0	0	0	7821,36	4,09028292	4,09083748	0,22717185689534557	11	0,0100936787	0,000929323141
2	1	0	1	0	7822,62	4,10278463	4,10346746	0,22891887634371776	11	0,01037913	0,000939361169
2	1	0	1	0	7823,87	4,1152854	4,11565781	0,23048786803459126	11	0,0106665231	0,000948609202
2	1	0	0	0	7825,12	4,12778664	4,12811804	0,23211882698039222	11	0,0109559735	0,000958213932
2	1	0	0	0	7826,37	4,1402874	4,14086914	0,23397856112569482	11	0,0112476107	0,000968874607
2	1	0	1	0	7827,62	4,15278816	4,15362024	0,23611380866107856	11	0,0115418183	0,000980727142
2	1	0	1	0	7828,87	4,1652894	4,16586018	0,23861652651491296	11	0,0118389195	0,000994043075
2	1	0	0	0	7830,12	4,17778969	4,17828083	0,2417106185263647	11	0,0121394666	0,00100993481
2	1	0	0	0	7831,37	4,1902914	4,19090128	0,24510714543672918	11	0,0124440175	0,00102721981
2	0	0	1	1	7832,57	4,19769192	4,19808912	0,21752393183608842	11	0,0127366213	0,000913184835
2	0	0	0	1	7833,82	4,18519068	4,1856389	0,1546411806096632	11	0,0129627436	0,000647272158
2	0	0	0	1	7835,07	4,17268944	4,17330885	0,12009306003650045	11	0,013132643	0,000501185423
2	0	0	1	1	7836,32	4,16018915	4,16087818	0,096090136212296781	11	0,0132665178	0,000399819342
2	0	0	1	1	7837,57	4,14768791	4,14820719	0,078259518544655296	11	0,013374499	0,000324636698
2	0	0	0	1	7838,82	4,13518667	4,13556623	0,064591065379014963	11	0,0134630529	0,000267120631
2	0	0	0	1	7840,07	4,12268591	4,12320566	0,053843697047947226	11	0,0135365045	0,000222008632
2	0	0	1	1	7841,36	4,1097846	4,11023426	0,044837564045640877	11	0,0135996649	0,00018429289
2	0	0	1	1	7842,61	4,09728432	4,09781408	0,03759331372566521	11	0,0136507833	0,000154050416
2	0	0	0	1	7843,86	4,0847826	4,0853734	0,031671362638007738	11	0,0136936791	0,000129389344
2	0	0	0	1	7845,11	4,07228231	4,07297277	0,02644093129007767	11	0,0137295546	0,000107693195
2	0	0	1	1	7846,36	4,05978107	4,06047249	0,021895313945909296	11	0,0137593364	8,8905319E-005
2	0	0	1	1	7847,61	4,04727983	4,04796171	0,017788249800408538	11	0,013783792	7,20061507E-005
2	0	0	0	1	7848,86	4,03477955	4,03534079	0,014253641774606195	11	0,0138035538	5,75183003E-005
2	0	0	0	1	7850,11	4,02227831	4,02271032	0,011112077423604205	11	0,0138191078	4,47006678E-005
2	0	0	1	1	7851,36	4,00977755	4,01033974	0,0083622846723301338	11	0,013830875	3,35356017E-005
2	0	0	1	1	7852,61	3,99727654	3,99760842	0,0056821415249335846	11	0,0138392327	2,27149776E-005
2	0	0	0	1	7853,90	3,98437524	3,98489738	0,0031157740219593114	11	0,0138446223	1,24160397E-005
2	0	0	0	1	7855,15	3,97187424	3,9722867	0,00085004965785628749	11	0,0138469832	3,37664096E-006
2	0	0	1	1	7856,40	3,95937324	3,95973611	-0,0010732016738378077	11	0,0138467895	4,24959535E-006
2	0	0	1	1	7857,65	3,94687271	3,94711518	-0,0029629399541590899	11	0,0138442572	1,1695065E-005
2	0	0	0	1	7858,90	3,93437171	3,93496561	-0,0044697915994523494	11	0,0138395559	1,75884761E-005
2	0	0	0	1	7860,15	3,92187071	3,92241478	-0,0059889979796329126	11	0,0138329184	2,3491335E-005
2	0	0	1	1	7861,40	3,90936828	3,9099524	-0,0074169153383308045	11	0,0138244415	2,89997861E-005
2	0	0	1	1	7862,65	3,89686847	3,89771414	-0,008733601648903744	11	0,0138143329	3,40410843E-005
2	0	0	1	1	7863,94	3,88396859	3,88438249	-0,0095637903311517888	11	0,0138022713	3,71494207E-005
2	0	0	0	1	7865,19	3,87146688	3,87196112	-0,010799581374158179	11	0,0137892133	4,18155578E-005
2	0	0	0	1	7866,44	3,85896635	3,85930109	-0,011770311864708782	11	0,0137748197	4,54251785E-005
2	0	0	1	1	7867,69	3,84646487	3,8469398	-0,012539283910882688	11	0,0137592647	4,82378709E-005
2	0	0	1	1	7868,94	3,83396363	3,83442926	-0,013403217977611405	11	0,0137425959	5,13936902E-005
2	0	0	0	1	7870,19	3,82146311	3,82179856	-0,014207386683362189	11	0,0137249595	5,42977687E-005
2	0	0	0	1	7871,44	3,80896211	3,80943823	-0,014950624230550602	11	0,01370636	5,69534786E-005
2	0	0	1	1	7872,69	3,79646111	3,79675722	-0,015647585872405555	11	0,0136869289	5,94100857E-005
2	0	0	1	1	7873,94	3,7839601	3,78426671	-0,016140027296690589	11	0,0136666745	6,10781644E-005
2	0	0	0	1	7875,19	3,77145886	3,77183628	-0,016710415060515488	11	0,0136456946	6,30289505E-005
2	0	0	0	1	7876,44	3,75895834	3,75942588	-0,017280366155318902	11	0,0136239966	6,49642534E-005
2	0	0	1	1	7877,69	3,74645734	3,74719572	-0,017838055204871763	11	0,0136016523	6,68426874E-005
2	0	0	1	1	7878,94	3,73395634	3,73452473	-0,018373843985803773	11	0,0135786617	6,86175772E-005
2	0	0	0	1	7880,19	3,72145534	3,7220645	-0,01869624879812673	11	0,0135551551	6,95886411E-005
2	0	0	0	1	7881,44	3,7089541	3,70943356	-0,019089812189728646	11	0,013530991	7,08123916E-005
2	0	0	1	1	7882,69	3,69645357	3,69694304	-0,019512639841802125	11	0,0135062877	7,2137118E-005
2	0	0	1	1	7883,94	3,68395257	3,68429184	-0,019961889255986019	11	0,0134810293	7,35454232E-005
2	0	0	0	1	7885,19	3,67145157	3,67177129	-0,02038904970686417	11	0,0134552745	7,48639286E-005
2	0	0	0	1	7886,44	3,65895057	3,65937114	-0,020838824779881859	11	0,0134290094	7,62569907E-005
2	0	0	1	1	7887,69	3,64644957	3,64677	-0,021271893730348365	11	0,0134022795	7,75737062E-005
2	0	0	1	1	7888,94	3,63394833	3,63441992	-0,02166025679131664	11	0,0133750858	7,87224708E-005
2	0	0	1	1	7890,19	3,62144828	3,62168002	-0,022050429502164291	11	0,0133474842	7,98596011E-005
2	0	0	0	1	7891,44	3,6089468	3,60946894	-0,022399658924162736	11	0,0133194402	8,08508703E-005
2	0	0	0	1	7892,69	3,5964458	3,59680724	-0,022736979817180688	11	0,0132910181	8,17805339E-005
2	0	0	1	1	7893,94	3,5839448	3,58444786	-0,022893664853957773	11	0,0132622151	8,20611458E-005
2	0	0	1	1	7895,19	3,57144356	3,5721662	-0,023158792344017158	11	0,0132330712	8,2727056E-005
2	0	0	0	1	7896,44	3,55894303	3,55943608	-0,023429982912299917	11	0,0132035986	8,33975282E-005
2	0	0	0	1	7897,69	3,54644203	3,54696584	-0,023698901034852838	11	0,01317384	8,40591892E-005
2	0	0	1	1	7898,94	3,53394103	3,53432465	-0,023973849189739328	11	0,0131437797	8,4731364E-005
2	0	0	1	1	7900,19	3,52144003	3,52185464	-0,024109099273725078	11	0,0131134735	8,49087446E-005
2	0	0	0	1	7901,44	3,50893879	3,5093739	-0,024270293977072726	11	0,0130829001	8,51735385E-005
2	0	0	0	1	7902,69	3,49643826	3,49705386	-0,024481326991614762	11	0,0130520891	8,56125189E-005
2	0	0	1	1	7903,94	3,48393726	3,48429251	-0,024727985185260563	11	0,0130210398	8,61595327E-005
2	0	0	1	1	7905,19	3,47143626	3,47170138	-0,024903145512022662	11	0,012989779	8,64562826E-005
2	0	0	0	1	7906,44	3,45893526	3,4594717	-0,025096198010336022	11	0,0129582807	8,68195857E-005
2	0	0	0	1	7907,69	3,44643426	3,44709158	-0,025100422237301357	11	0,0129265664	8,65234542E-005
2	0	0	1	1	7908,94	3,43393302	3,43425012	-0,025333260253925683	11	0,0128946351	8,70007498E-005
2	0	0	1	1	7910,19	3,4214325	3,42174935	-0,025466398335993402	11	0,0128624877	8,71396333E-005
2	0	0	0	1	7911,44	3,40893149	3,40937924	-0,025771077305156042	11	0,0128301447	8,78633728E-005
2	0	0	0	1	7912,69	3,39643049	3,39689875	-0,025891784500951587	11	0,012797568	8,79517684E-005
2	0	0	1	1	7913,94	3,38392949	3,38459849	-0,026015634163437994	11	0,0127647789	8,80524749E-005
2	0	0	1	1	7915,19	3,37142825	3,3719275	-0,026201524170270941	11	0,012731757	8,83496396E-005
2	0	0	0	1	7916,44	3,35892773	3,35937691	-0,026412498467834666	11	0,0126985284	8,87295391E-005
2	0	0	0	1	7917,69	3,34642673	3,34689617	-0,026628222481425254	11	0,0126650613	8,91218951E-005
2	0	0	1	1	7918,94	3,33392501	3,33454561	-0,026866382689073155	11	0,0126313837	8,95871781E-005
2	0	0	1	1	7920,19	3,32142472	3,3219552	-0,026934859614508922	11	0,0125974696	8,94763944E-005
2	0	0	0	1	7921,44	3,30892229	3,30940366	-0,027049076946867312	11	0,0125633124	8,95163175E-005
2	0	0	0	1	7922,69	3,29642296	3,29656291	-0,027253244305029469	11	0,0125289466	8,9842033E-005
2	0	0	1	1	7923,94	3,283921	3,28443313	-0,027448338490981715	11	0,0124943741	9,01522289E-005
2	0	0	1	1	7925,19	3,27142096	3,27181244	-0,027688586240401491	11	0,0124595575	9,05918641E-005
2	0	0	1	1	7926,44	3,25891995	3,25922179	-0,027835590735776419	11	0,01242455	9,07223657E-005
2	0	0	0	1	7927,69	3,24641895	3,24708223	-0,02790471580616824	11	0,0123893097	9,06089044E-005
2	0	0	0	1	7928,94	3,23391771	3,23440075	-0,028085821987285014	11	0,0123538896	9,08408038E-005
2	0	0	1	1	7930,19	3,22141719	3,22209096	-0,028282313772554858	11	0,0123182405	9,11281895E-005
2	0	0	1	1	7931,44	3,20891619	3,20929956	-0,028447835017383766	11	0,0122824349	9,12976247E-005
2	0	0	0	1	7932,69	3,19641519	3,19700933	-0,028649335174122714	11	0,0122464104	9,15921919E-005
2	0	0	0	1	7933,94	3,18391418	3,18430829	-0,028611193769999434	11	0,0122102117	9,11068637E-005
2	0	0	1	1	7935,19	3,17141294	3,1718576	-0,028729252488119469	11	0,0121738166	9,11250972E-005
2	0	0	1	1	7936,44	3,15891242	3,15933728	-0,028893563159120614	11	0,0121372752	9,12845135E-005
2	0	0	0	1	7937,69	3,14641142	3,14677644	-0,029008958789442432	11	0,0121005503	9,12847099E-005
2	0	0	0	1	7938,94	3,13391042	3,13428593	-0,029138614375066598	11	0,0120636895	9,13287513E-005
2	0	0	1	1	7940,19	3,12140965	3,1217556	-0,029334406057993645	11	0,0120266629	9,1574846E-005
2	0	0	1	1	7941,44	3,10890841	3,10936522	-0,029473274713382138	11	0,0119895153	9,16431745E-005
2	0	0	0	1	7942,69	3,09640765	3,09674406	-0,02962055639363831	11	0,0119522186	9,17272846E-005
2	0	0	0	1	7943,94	3,08390665	3,08440399	-0,029746560816420269	11	0,0119148064	9,17504076E-005
2	0	0	1	1	7945,20	3,07140589	3,07190347	-0,029885575708855526	11	0,0118772648	9,1805603E-005
2	0	0	1	1	7946,45	3,05890465	3,05939317	-0,02994057501200592	11	0,0118396413	9,15999917E-005
2	0	0	0	1	7947,70	3,04640388	3,04682231	-0,029895717544325933	11	0,0118019003	9,10869421E-005
2	0	0	0	1	7948,95	3,03390265	3,03430152	-0,029989807022502662	11	0,0117640933	9,09981172E-005
2	0	0	1	1	7950,20	3,02140212	3,02172899	-0,03005801664879193	11	0,0117261996	9,08271832E-005
2	0	0	1	1	7951,45	3,00890088	3,00941038	-0,030149865837302029	11	0,0116882622	9,0733316E-005
2	0	0	1	1	7952,70	2,99640083	2,99657893	-0,030242070077726227	11	0,0116502559	9,06227506E-005
2	0	0	0	1	7953,95	2,98389888	2,98431921	-0,030184586425699878	11	0,0116121974	9,00804444E-005
2	0	0	0	1	7955,20	2,97139788	2,97174835	-0,03024600419060647	11	0,0115740858	8,98835133E-005
2	0	0	1	1	7956,45	2,95889711	2,95928788	-0,030258306738687738	11	0,0115359398	8,95430421E-005
2	0	0	1	1	7957,70	2,94639635	2,94673705	-0,030370651249541056	11	0,0114977593	8,94943223E-005
2	0	0	0	1	7958,95	2,93389511	2,93427682	-0,030424200929701331	11	0,011459548	8,92730241E-005
2	0	0	0	1	7960,20	2,92139435	2,92171597	-0,030367104394827008	11	0,0114213089	8,87240531E-005
2	0	0	1	1	7961,45	2,90889311	2,90946603	-0,030131016188534003	11	0,0113830725	8,76651684E-005
2	0	0	1	1	7962,70	2,89639235	2,89692521	-0,030343693205698739	11	0,0113448342	8,79034123E-005
2	0	0	0	1	7963,95	2,88389134	2,88453484	-0,030356696234472678	11	0,0113065476	8,75649494E-005
2	0	0	0	1	7965,20	2,87139058	2,87173367	-0,030446764789909766	11	0,0112682683	8,74350008E-005
2	0	0	1	1	7966,45	2,85888934	2,85942364	-0,030387134883009562	11	0,011229963	8,68896896E-005
2	0	0	1	1	7967,70	2,84638858	2,84683275	-0,030329683291104973	11	0,0111916773	8,63435343E-005
2	0	0	0	1	7968,95	2,83388734	2,83445239	-0,030365868539471872	11	0,0111533673	8,60706059E-005
2	0	0	0	1	7970,20	2,82138658	2,822052	-0,030393664084840704	11	0,0111150853	8,57725026E-005
2	0	0	1	1	7971,45	2,80888557	2,80929089	-0,03042481204223191	11	0,0110767884	8,54721438E-005
2	0	0	1	1	7972,70	2,79638481	2,7967	-0,030443687079241587	11	0,011038525	8,5141859E-005
2	0	0	0	1	7973,95	2,78388357	2,78408933	-0,030303931562230048	11	0,01100023	8,4368854E-005
2	0	0	0	1	7975,20	2,77138257	2,77183914	-0,030301198062564595	11	0,0109619545	8,39900458E-005
2	0	0	1	1	7976,45	2,75888181	2,75935864	-0,030329589926016864	11	0,010923652	8,36902182E-005
2	0	0	1	1	7977,70	2,74638104	2,74675798	-0,030372269024762035	11	0,0108853634	8,34252714E-005
2	0	0	1	1	7978,95	2,73388052	2,73416638	-0,030418524028984262	11	0,0108470377	8,31693033E-005
2	0	0	0	1	7980,20	2,72137904	2,72170639	-0,030369730074501946	11	0,0108087249	8,26574906E-005
2	0	0	0	1	7981,45	2,7088778	2,70932603	-0,030354241792594605	11	0,0107703544	8,22395377E-005
2	0	0	1	1	7982,70	2,69637704	2,69687581	-0,030420274861777894	11	0,0107319737	8,20397036E-005
2	0	0	1	1	7983,95	2,68387604	2,68408465	-0,030473424820229408	11	0,0106935194	8,17932523E-005
2	0	0	0	1	7985,20	2,67137527	2,67199492	-0,030581301087901606	11	0,0106550241	8,17130785E-005
2	0	0	0	1	7986,45	2,65887427	2,65943408	-0,030596214870456576	11	0,0106164385	8,13686202E-005
2	0	0	1	1	7987,70	2,64637327	2,64676309	-0,030535382441788326	11	0,0105777727	8,08199256E-005
2	0	0	1	1	7988,95	2,63387203	2,63418245	-0,03065811052025913	11	0,0105389841	8,0759055E-005
2	0	0	0	1	7990,20	2,62137127	2,62158155	-0,030775734368944538	11	0,0105000827	8,06811004E-005
2	0	0	0	1	7991,45	2,60887027	2,60942173	-0,030920467407364979	11	0,0104610343	8,06845419E-005
2	0	0	1	1	7992,70	2,5963695	2,59694099	-0,03105445399220729	11	0,0104218405	8,06465832E-005
2	0	0	1	1	7993,95	2,58386827	2,58467102	-0,031277457940935392	11	0,010382453	8,08419427E-005
2	0	0	0	1	7995,20	2,5713675	2,57191992	-0,031464316076987187	11	0,0103428764	8,09237026E-005
2	0	0	0	1	7996,45	2,5588665	2,55929899	-0,03169923629805753	11	0,0103030689	8,11278223E-005
2	0	0	1	1	7997,70	2,54636574	2,54676843	-0,031931380838310931	11	0,0102630295	8,13218358E-005
2	0	0	1	1	7998,95	2,53386474	2,53418756	-0,03221872903911088	11	0,0102227274	8,16483007E-005
2	0	0	0	1	8000,20	2,52136374	2,52179742	-0,032300770602887494	11	0,0101821637	8,14559971E-005
2	0	0	0	1	8001,45	2,5088625	2,50916648	-0,032502953632501888	11	0,0101412972	8,15553212E-005
2	0	0	1	1	8002,70	2,49636173	2,49692655	-0,03272785887626617	11	0,0101001794	8,17190594E-005
2	0	0	1	1	8003,95	2,48386073	2,48444605	-0,03307895342974615	11	0,0100587094	8,21828726E-005
2	0	0	0	1	8005,20	2,47135997	2,47183514	-0,03336359282063017	11	0,0100168968	8,24692979E-005
2	0	0	0	1	8006,45	2,45885897	2,45924401	-0,033656197425443571	11	0,00997473486	8,27688054E-005
2	0	0	1	1	8007,70	2,44635677	2,44666266	-0,033851153816567584	11	0,00993221626	8,28223565E-005
2	0	0	1	1	8008,95	2,43385673	2,43434358	-0,034186393420289645	11	0,00988932978	8,32214282E-005
2	0	0	0	1	8010,20	2,42135596	2,42188287	-0,034516943074922035	11	0,00984607171	8,35959945E-005
2	0	0	0	1	8011,45	2,40885496	2,40920186	-0,034892648196546362	11	0,00980243087	8,40634311E-005
2	0	0	0	1	8012,70	2,39635444	2,39676142	-0,035177402101301907	11	0,00975841098	8,43118396E-005
2	0	0	1	1	8013,95	2,38385296	2,38439107	-0,035405562695814298	11	0,00971398968	8,44207098E-005
2	0	0	1	1	8015,20	2,3713522	2,37190032	-0,035684563724013741	11	0,0096691614	8,46402254E-005
2	0	0	0	1	8016,45	2,35885119	2,35925937	-0,03609623123581207	11	0,00962392241	8,51603691E-005
2	0	0	0	1	8017,70	2,34635043	2,34677911	-0,036414049168039616	11	0,00957826804	8,54557293E-005
2	0	0	1	1	8018,95	2,33384943	2,33418822	-0,036868091614451315	11	0,00953219831	8,60570653E-005
2	0	0	1	1	8020,20	2,32134843	2,32162762	-0,037081192072946579	11	0,00948568527	8,6088723E-005
2	0	0	0	1	8021,45	2,30884719	2,309237	-0,03740899229887881	11	0,00943875127	8,63862297E-005
2	0	0	0	1	8022,70	2,29634643	2,29656625	-0,037821956463934272	11	0,00939136557	8,68606294E-005
2	0	0	1	1	8023,95	2,28384542	2,28410554	-0,038182173845901389	11	0,00934355706	8,72121163E-005
2	0	0	1	1	8025,20	2,27134466	2,27187562	-0,038617982092546413	11	0,00929528568	8,77352504E-005
2	0	0	0	1	8026,45	2,25884366	2,25948524	-0,038934749007845965	11	0,00924657751	8,79724903E-005
2	0	0	0	1	8027,70	2,24634266	2,24681449	-0,039175200343985696	11	0,00919739995	8,80194057E-005
2	0	0	1	1	8028,95	2,23384142	2,23417354	-0,039574135327711782	11	0,00914776884	8,8415487E-005
2	0	0	1	1	8030,20	2,22134066	2,22173309	-0,03994946860863513	11	0,00909766741	8,87570568E-005
2	0	0	0	1	8031,45	2,20883965	2,20946288	-0,040386907145148256	11	0,00904710684	8,92333701E-005
2	0	0	0	1	8032,70	2,19633913	2,19694233	-0,040790200689419494	11	0,00899605919	8,96137208E-005
2	0	0	1	1	8033,95	2,18383765	2,18425131	-0,041041827845231859	11	0,00894455239	8,96456695E-005
2	0	0	1	1	8035,20	2,17133689	2,17189097	-0,041454543718524973	11	0,00889253803	9,00347513E-005
2	0	0	0	1	8036,45	2,15883684	2,15924048	-0,04186520836725449	11	0,00884003751	9,03970504E-005
2	0	0	0	1	8037,70	2,14633512	2,14666939	-0,042315347721645248	11	0,00878702942	9,08370639E-005
2	0	0	0	1	8038,95	2,13383484	2,13428807	-0,04274045028126505	11	0,00873354543	9,12204341E-005
2	0	0	1	1	8040,20	2,12133312	2,12159777	-0,043042153857337952	11	0,00867953338	9,13181357E-005
2	0	0	0	1	8041,01	2,11313295	2,11349869	-0,043907420088847514	11	0,00864423905	9,27982765E-005