File: Experimentelles/Rohdaten/Batterietests/AlteZelle/Studenten_Batterietests/LLTO_LP30_Li CV/ECLab-Export/LLTO_LP30_Li_04_OCV_C01.mpt
EC-Lab ASCII FILE
Nb header lines : 48

Open Circuit Voltage

Run on channel : 1 (SN 6985)
Grouped channel(s) : 1
User :
CE vs. WE compliance from -10 V to 10 V
Electrode connection : standard
Ewe ctrl range : min = 0,00 V, max = 5,00 V
Acquisition started on : 04.29.2015 11:07:38
Saved on :
	File : LLTO_LP30_Li_04_OCV_C01.mpr
	Directory : C:\Hupfer\Studenten Batterietests\LLTO_LP30_Li CV\
	Host : 192.168.0.2
Device : VMP3 (SN 0324)
Address : 192.168.0.1
EC-Lab for windows v10.33 (software)
Internet server v10.33 (firmware)
Command interpretor v10.32 (firmware)
Electrode material : LATP vs Li
Initial state : charged
Electrolyte : DME:Diox 1:2, 1M LiTFSi
Comments : LATP als Elektrode, normaler Seperator und Elektrolyt, Goldschicht teilweise vorhanden, elektrolytschonend, Probe2
Mass of active material : 0,001 mg
 at x = 0,000
Molecular weight of active material (at x = 0) : 0,001 g/mol
Atomic weight of intercalated ion : 0,001 g/mol
Acquisition started at : xo = 0,000
Number of e- transfered per intercalated ion : 1
for DX = 1, DQ = 26,801 mA.h
Battery capacity : 0,000 A.h
Reference electrode : Li+/Li (-3,020 V)
Electrode surface area : 0,001 cm²
Characteristic mass : 0,001 g
Create one data file per loop
tR (h:m:s)          1:00:0,0000
dER/dt (mV/h)       0,0
dER (mV)            0,00
dtR (s)             5,0000
E range min (V)     0,000
E range max (V)     5,000

Number of loops : 1
Loop 0 from point number 0 to 720

mode	error	time/s	Ewe/V
3	0	8041,0634	2,11830497
3	0	8046,0634	2,15227485
3	0	8051,0634	2,17098784
3	0	8056,0634	2,18448782
3	0	8061,0634	2,19523835
3	0	8066,0634	2,20388818
3	0	8071,0634	2,21158361
3	0	8076,0634	2,21805668
3	0	8081,0634	2,22374701
3	0	8086,0634	2,22869253
3	0	8091,0634	2,23327541
3	0	8096,0634	2,23722792
3	0	8101,0634	2,24077964
3	0	8106,0634	2,24410224
3	0	8111,0634	2,24702358
3	0	8116,0634	2,24973512
3	0	8121,0634	2,2523129
3	0	8126,0634	2,25468063
3	0	8131,0634	2,25672388
3	0	8136,0634	2,25882435
3	0	8141,0634	2,26065731
3	0	8146,0634	2,26231861
3	0	8151,0634	2,26390362
3	0	8156,0634	2,26531649
3	0	8161,0634	2,26684427
3	0	8166,0634	2,26798987
3	0	8171,0634	2,26930737
3	0	8176,0634	2,2704339
3	0	8181,0634	2,27157974
3	0	8186,0634	2,2726109
3	0	8191,0634	2,27366114
3	0	8196,0634	2,27442479
3	0	8201,0634	2,27534151
3	0	8206,0634	2,27616239
3	0	8211,0634	2,27702165
3	0	8216,0634	2,27769017
3	0	8221,0634	2,27843475
3	0	8226,0634	2,27908397
3	0	8231,0634	2,27961874
3	0	8236,0634	2,28028703
3	0	8241,0634	2,28078341
3	0	8246,0634	2,2814517
3	0	8251,0634	2,28198647
3	0	8256,0634	2,28233004
3	0	8261,0634	2,28301764
3	0	8266,0634	2,28341866
3	0	8271,0634	2,28378129
3	0	8276,0634	2,28429699
3	0	8281,0634	2,28462148
3	0	8286,0634	2,28496528
3	0	8291,0634	2,28544259
3	0	8296,0634	2,28561449
3	0	8301,0634	2,28612995
3	0	8306,0634	2,28639746
3	0	8311,0634	2,28649282
3	0	8316,0634	2,28695107
3	0	8321,0634	2,28729486
3	0	8326,0634	2,28756213
3	0	8331,0634	2,28771496
3	0	8336,0634	2,287925
3	0	8341,0634	2,28819227
3	0	8346,0634	2,28847861
3	0	8351,0634	2,28868866
3	0	8356,0634	2,28893709
3	0	8361,0634	2,28910875
3	0	8366,0634	2,28914714
3	0	8371,0634	2,28941441
3	0	8376,0634	2,28960538
3	0	8381,0634	2,28975797
3	0	8386,0634	2,28994894
3	0	8391,0634	2,29012084
3	0	8396,0634	2,29013991
3	0	8401,0634	2,29042649
3	0	8406,0634	2,29052186
3	0	8411,0634	2,29061723
3	0	8416,0634	2,2908082
3	0	8421,0634	2,29088473
3	0	8426,0634	2,29090381
3	0	8431,0634	2,29109478
3	0	8436,0634	2,29119015
3	0	8441,0634	2,29124737
3	0	8446,0634	2,29145741
3	0	8451,0634	2,29143834
3	0	8456,0634	2,29153395
3	0	8461,0634	2,29176307
3	0	8466,0634	2,29164839
3	0	8471,0634	2,29168653
3	0	8476,0634	2,29172492
3	0	8481,0634	2,29191589
3	0	8486,0634	2,29187751
3	0	8491,0634	2,29201126
3	0	8496,0634	2,29197311
3	0	8501,0634	2,29201126
3	0	8506,0634	2,29201126
3	0	8511,0634	2,29224038
3	0	8516,0634	2,2922976
3	0	8521,0634	2,2922976
3	0	8526,0634	2,29237413
3	0	8531,0634	2,29235506
3	0	8536,0634	2,29233599
3	0	8541,0634	2,29231668
3	0	8546,0634	2,29239321
3	0	8551,0634	2,29239321
3	0	8556,0634	2,29243135
3	0	8561,0634	2,29243135
3	0	8566,0634	2,29248857
3	0	8571,0634	2,29258418
3	0	8576,0634	2,2924695
3	0	8581,0634	2,29252672
3	0	8586,0634	2,29248857
3	0	8591,0634	2,29248857
3	0	8596,0634	2,2924695
3	0	8601,0634	2,29262233
3	0	8606,0634	2,2926414
3	0	8611,0634	2,29262233
3	0	8616,0634	2,29260325
3	0	8621,0634	2,29256511
3	0	8626,0634	2,29256511
3	0	8631,0634	2,29252672
3	0	8636,0634	2,29252672
3	0	8641,0634	2,2924695
3	0	8646,0634	2,29241228
3	0	8651,0634	2,29245043
3	0	8656,0634	2,29250765
3	0	8661,0634	2,29243135
3	0	8666,0634	2,2922976
3	0	8671,0634	2,29241228
3	0	8676,0634	2,29243135
3	0	8681,0634	2,2922976
3	0	8686,0634	2,29237413
3	0	8691,0634	2,29231668
3	0	8696,0634	2,2922976
3	0	8701,0634	2,29231668
3	0	8706,0634	2,29216409
3	0	8711,0634	2,29233599
3	0	8716,0634	2,29214501
3	0	8721,0634	2,29204941
3	0	8726,0634	2,29204941
3	0	8731,0634	2,29204941
3	0	8736,0634	2,29191589
3	0	8741,0634	2,29199219
3	0	8746,0634	2,29203033
3	0	8751,0634	2,29193497
3	0	8756,0634	2,29183936
3	0	8761,0634	2,29195404
3	0	8766,0634	2,29176307
3	0	8771,0634	2,29176307
3	0	8776,0634	2,29166746
3	0	8781,0634	2,29168653
3	0	8786,0634	2,29161024
3	0	8791,0634	2,29155302
3	0	8796,0634	2,29161024
3	0	8801,0634	2,2914958
3	0	8806,0634	2,2914958
3	0	8811,0634	2,29126644
3	0	8816,0634	2,29138112
3	0	8821,0634	2,29138112
3	0	8826,0634	2,29122829
3	0	8831,0634	2,291152
3	0	8836,0634	2,29105639
3	0	8841,0634	2,29103732
3	0	8846,0634	2,29101825
3	0	8851,0634	2,29096103
3	0	8856,0634	2,29090381
3	0	8861,0634	2,29082727
3	0	8866,0634	2,29084659
3	0	8871,0634	2,29077005
3	0	8876,0634	2,29084659
3	0	8881,0634	2,29071283
3	0	8886,0634	2,29075098
3	0	8891,0634	2,29052186
3	0	8896,0634	2,29044557
3	0	8901,0634	2,29040718
3	0	8906,0634	2,29040718
3	0	8911,0634	2,29019713
3	0	8916,0634	2,29021645
3	0	8921,0634	2,29019713
3	0	8926,0634	2,29006362
3	0	8931,0634	2,29004455
3	0	8936,0634	2,28994894
3	0	8941,0634	2,28998709
3	0	8946,0634	2,28994894
3	0	8951,0634	2,28991079
3	0	8956,0634	2,28987265
3	0	8961,0634	2,2898345
3	0	8966,0634	2,28973889
3	0	8971,0634	2,28956699
3	0	8976,0634	2,28958631
3	0	8981,0634	2,28950977
3	0	8986,0634	2,28947163
3	0	8991,0634	2,28943348
3	0	8996,0634	2,28928065
3	0	9001,0634	2,28928065
3	0	9006,0634	2,28928065
3	0	9011,0634	2,28910875
3	0	9016,0634	2,28914714
3	0	9021,0634	2,28893709
3	0	9026,0634	2,28884149
3	0	9031,0634	2,28876519
3	0	9036,0634	2,28861237
3	0	9041,0634	2,28872705
3	0	9046,0634	2,28866959
3	0	9051,0634	2,28866959
3	0	9056,0634	2,28842139
3	0	9061,0634	2,28844047
3	0	9066,0634	2,2883451
3	0	9071,0634	2,28830695
3	0	9076,0634	2,2881732
3	0	9081,0634	2,2881732
3	0	9086,0634	2,28821135
3	0	9091,0634	2,28815413
3	0	9096,0634	2,28794408
3	0	9101,0634	2,28781033
3	0	9106,0634	2,28788686
3	0	9111,0634	2,28771496
3	0	9116,0634	2,28769588
3	0	9121,0634	2,2876575
3	0	9126,0634	2,28763843
3	0	9131,0634	2,28756213
3	0	9136,0634	2,28740931
3	0	9141,0634	2,28735209
3	0	9146,0634	2,28725672
3	0	9151,0634	2,28723764
3	0	9156,0634	2,28714204
3	0	9161,0634	2,28714204
3	0	9166,0634	2,28714204
3	0	9171,0634	2,28698921
3	0	9176,0634	2,28677917
3	0	9181,0634	2,28674102
3	0	9186,0634	2,28674102
3	0	9191,0634	2,28670287
3	0	9196,0634	2,28658819
3	0	9201,0634	2,2866075
3	0	9206,0634	2,28647375
3	0	9211,0634	2,28639746
3	0	9216,0634	2,28630185
3	0	9221,0634	2,2862637
3	0	9226,0634	2,28618741
3	0	9231,0634	2,28612995
3	0	9236,0634	2,28597736
3	0	9241,0634	2,2859199
3	0	9246,0634	2,28590083
3	0	9251,0634	2,28584361
3	0	9256,0634	2,28584361
3	0	9261,0634	2,28567171
3	0	9266,0634	2,28572893
3	0	9271,0634	2,28555727
3	0	9276,0634	2,28561449
3	0	9281,0634	2,2853663
3	0	9286,0634	2,28548074
3	0	9291,0634	2,2851181
3	0	9296,0634	2,28521347
3	0	9301,0634	2,28513718
3	0	9306,0634	2,2851181
3	0	9311,0634	2,28498435
3	0	9316,0634	2,28490806
3	0	9321,0634	2,2847743
3	0	9326,0634	2,28479338
3	0	9331,0634	2,28481245
3	0	9336,0634	2,28458333
3	0	9341,0634	2,28452611
3	0	9346,0634	2,2844305
3	0	9351,0634	2,28439236
3	0	9356,0634	2,2844305
3	0	9361,0634	2,28437328
3	0	9366,0634	2,28433514
3	0	9371,0634	2,28408694
3	0	9376,0634	2,28399134
3	0	9381,0634	2,28399134
3	0	9386,0634	2,28393412
3	0	9391,0634	2,28389597
3	0	9396,0634	2,28383875
3	0	9401,0634	2,28380036
3	0	9406,0634	2,28368592
3	0	9411,0634	2,28359032
3	0	9416,0634	2,28357124
3	0	9421,0634	2,2835331
3	0	9426,0634	2,2833612
3	0	9431,0634	2,28322768
3	0	9436,0634	2,28320861
3	0	9441,0634	2,28313208
3	0	9446,0634	2,2831893
3	0	9451,0634	2,28307486
3	0	9456,0634	2,28301764
3	0	9461,0634	2,28282666
3	0	9466,0634	2,28280759
3	0	9471,0634	2,28275013
3	0	9476,0634	2,28257847
3	0	9481,0634	2,28255939
3	0	9486,0634	2,28257847
3	0	9491,0634	2,28234935
3	0	9496,0634	2,28240657
3	0	9501,0634	2,28240657
3	0	9506,0634	2,2822156
3	0	9511,0634	2,28217745
3	0	9516,0634	2,28210092
3	0	9521,0634	2,28208184
3	0	9526,0634	2,28198647
3	0	9531,0634	2,28192925
3	0	9536,0634	2,28189087
3	0	9541,0634	2,28189087
3	0	9546,0634	2,28164268
3	0	9551,0634	2,2816236
3	0	9556,0634	2,28166175
3	0	9561,0634	2,28148985
3	0	9566,0634	2,28154731
3	0	9571,0634	2,28137541
3	0	9576,0634	2,28137541
3	0	9581,0634	2,28114629
3	0	9586,0634	2,28112721
3	0	9591,0634	2,28116536
3	0	9596,0634	2,28097439
3	0	9601,0634	2,28089809
3	0	9606,0634	2,28095531
3	0	9611,0634	2,28082156
3	0	9616,0634	2,28074527
3	0	9621,0634	2,28072619
3	0	9626,0634	2,28057337
3	0	9631,0634	2,28055429
3	0	9636,0634	2,28040147
3	0	9641,0634	2,28038239
3	0	9646,0634	2,28034425
3	0	9651,0634	2,2803061
3	0	9656,0634	2,28022981
3	0	9661,0634	2,28017235
3	0	9666,0634	2,28009605
3	0	9671,0634	2,28000045
3	0	9676,0634	2,27994323
3	0	9681,0634	2,27984786
3	0	9686,0634	2,27980971
3	0	9691,0634	2,27961874
3	0	9696,0634	2,27961874
3	0	9701,0634	2,27952313
3	0	9706,0634	2,27961874
3	0	9711,0634	2,27944684
3	0	9716,0634	2,27929401
3	0	9721,0634	2,27931309
3	0	9726,0634	2,27933216
3	0	9731,0634	2,2791605
3	0	9736,0634	2,27902675
3	0	9741,0634	2,27904582
3	0	9746,0634	2,27902675
3	0	9751,0634	2,27900767
3	0	9756,0634	2,27887392
3	0	9761,0634	2,27870202
3	0	9766,0634	2,27868295
3	0	9771,0634	2,27872109
3	0	9776,0634	2,27858758
3	0	9781,0634	2,27851105
3	0	9786,0634	2,27853036
3	0	9791,0634	2,2784729
3	0	9796,0634	2,27832031
3	0	9801,0634	2,27826285
3	0	9806,0634	2,27820563
3	0	9811,0634	2,27814841
3	0	9816,0634	2,27799559
3	0	9821,0634	2,27805281
3	0	9826,0634	2,27793837
3	0	9831,0634	2,27782369
3	0	9836,0634	2,27774739
3	0	9841,0634	2,27769017
3	0	9846,0634	2,27759457
3	0	9851,0634	2,27755642
3	0	9856,0634	2,27753735
3	0	9861,0634	2,27742267
3	0	9866,0634	2,27734637
3	0	9871,0634	2,27730823
3	0	9876,0634	2,27717447
3	0	9881,0634	2,2771554
3	0	9886,0634	2,2769835
3	0	9891,0634	2,27702165
3	0	9896,0634	2,27694535
3	0	9901,0634	2,27690721
3	0	9906,0634	2,27675438
3	0	9911,0634	2,27665901
3	0	9916,0634	2,27675438
3	0	9921,0634	2,27663994
3	0	9926,0634	2,27660155
3	0	9931,0634	2,27660155
3	0	9936,0634	2,27639151
3	0	9941,0634	2,27631521
3	0	9946,0634	2,27635336
3	0	9951,0634	2,27627707
3	0	9956,0634	2,27627707
3	0	9961,0634	2,2761817
3	0	9966,0634	2,27612424
3	0	9971,0634	2,27602887
3	0	9976,0634	2,27599072
3	0	9981,0634	2,27578068
3	0	9986,0634	2,27579975
3	0	9991,0634	2,27572322
3	0	9996,0634	2,27568507
3	0	10001,0634	2,27551317
3	0	10006,0634	2,2755897
3	0	10011,0634	2,27551317
3	0	10016,0634	2,27537966
3	0	10021,0634	2,27536058
3	0	10026,0634	2,2753222
3	0	10031,0634	2,27526498
3	0	10036,0634	2,27515054
3	0	10041,0634	2,27509308
3	0	10046,0634	2,27509308
3	0	10051,0634	2,27499771
3	0	10056,0634	2,27497864
3	0	10061,0634	2,27484488
3	0	10066,0634	2,27484488
3	0	10071,0634	2,27480674
3	0	10076,0634	2,27461576
3	0	10081,0634	2,27461576
3	0	10086,0634	2,27455854
3	0	10091,0634	2,27465391
3	0	10096,0634	2,27440572
3	0	10101,0634	2,27440572
3	0	10106,0634	2,27432942
3	0	10111,0634	2,27425289
3	0	10116,0634	2,27408123
3	0	10121,0634	2,27423382
3	0	10126,0634	2,27415752
3	0	10131,0634	2,27402377
3	0	10136,0634	2,27394748
3	0	10141,0634	2,27381372
3	0	10146,0634	2,27387118
3	0	10151,0634	2,27381372
3	0	10156,0634	2,27377558
3	0	10161,0634	2,27364206
3	0	10166,0634	2,27352738
3	0	10171,0634	2,27350831
3	0	10176,0634	2,27352738
3	0	10181,0634	2,2734127
3	0	10186,0634	2,27329826
3	0	10191,0634	2,27327919
3	0	10196,0634	2,27327919
3	0	10201,0634	2,27320266
3	0	10206,0634	2,27305007
3	0	10211,0634	2,27306914
3	0	10216,0634	2,27297354
3	0	10221,0634	2,27293539
3	0	10226,0634	2,27287817
3	0	10231,0634	2,27289724
3	0	10236,0634	2,27272534
3	0	10241,0634	2,27266812
3	0	10246,0634	2,2726109
3	0	10251,0634	2,27247715
3	0	10256,0634	2,27245808
3	0	10261,0634	2,272439
3	0	10266,0634	2,27245808
3	0	10271,0634	2,27241993
3	0	10276,0634	2,27217174
3	0	10281,0634	2,2722671
3	0	10286,0634	2,27211428
3	0	10291,0634	2,27207613
3	0	10296,0634	2,27203798
3	0	10301,0634	2,27186608
3	0	10306,0634	2,2719233
3	0	10311,0634	2,27188516
3	0	10316,0634	2,27188516
3	0	10321,0634	2,27173257
3	0	10326,0634	2,27167511
3	0	10331,0634	2,27163696
3	0	10336,0634	2,27161789
3	0	10341,0634	2,27152252
3	0	10346,0634	2,27142692
3	0	10351,0634	2,27138877
3	0	10356,0634	2,27138877
3	0	10361,0634	2,27140784
3	0	10366,0634	2,27117872
3	0	10371,0634	2,27121687
3	0	10376,0634	2,27114058
3	0	10381,0634	2,27115965
3	0	10386,0634	2,27106404
3	0	10391,0634	2,27079678
3	0	10396,0634	2,27096868
3	0	10401,0634	2,27091146
3	0	10406,0634	2,27075863
3	0	10411,0634	2,27083492
3	0	10416,0634	2,27072048
3	0	10421,0634	2,27066326
3	0	10426,0634	2,2704339
3	0	10431,0634	2,27047229
3	0	10436,0634	2,27047229
3	0	10441,0634	2,27035761
3	0	10446,0634	2,27030039
3	0	10451,0634	2,27035761
3	0	10456,0634	2,27018571
3	0	10461,0634	2,27014756
3	0	10466,0634	2,27005219
3	0	10471,0634	2,26997566
3	0	10476,0634	2,27003312
3	0	10481,0634	2,26991844
3	0	10486,0634	2,26982307
3	0	10491,0634	2,26976562
3	0	10496,0634	2,26967025
3	0	10501,0634	2,26968932
3	0	10506,0634	2,26955557
3	0	10511,0634	2,26959395
3	0	10516,0634	2,26947927
3	0	10521,0634	2,26955557
3	0	10526,0634	2,2694602
3	0	10531,0634	2,26949835
3	0	10536,0634	2,26926923
3	0	10541,0634	2,2692883
3	0	10546,0634	2,2692883
3	0	10551,0634	2,26907825
3	0	10556,0634	2,26919293
3	0	10561,0634	2,26913548
3	0	10566,0634	2,26900196
3	0	10571,0634	2,26896381
3	0	10576,0634	2,26890635
3	0	10581,0634	2,26888728
3	0	10586,0634	2,26873446
3	0	10591,0634	2,26865816
3	0	10596,0634	2,26871538
3	0	10601,0634	2,26871538
3	0	10606,0634	2,26871538
3	0	10611,0634	2,26858187
3	0	10616,0634	2,26854372
3	0	10621,0634	2,26837182
3	0	10626,0634	2,26823807
3	0	10631,0634	2,26827621
3	0	10636,0634	2,26819992
3	0	10641,0634	2,26816177
3	0	10646,0634	2,26808524
3	0	10651,0634	2,26810431
3	0	10656,0634	2,26802802
3	0	10661,0634	2,26798987
3	0	10666,0634	2,26789451
3	0	10671,0634	2,26793265
3	0	10676,0634	2,26787519
3	0	10681,0634	2,2677989
3	0	10686,0634	2,2677989
3	0	10691,0634	2,267627
3	0	10696,0634	2,26764607
3	0	10701,0634	2,26753163
3	0	10706,0634	2,26741695
3	0	10711,0634	2,26753163
3	0	10716,0634	2,26739788
3	0	10721,0634	2,26732159
3	0	10726,0634	2,26737881
3	0	10731,0634	2,26728344
3	0	10736,0634	2,26726437
3	0	10741,0634	2,26718783
3	0	10746,0634	2,26720691
3	0	10751,0634	2,26705432
3	0	10756,0634	2,26692057
3	0	10761,0634	2,26693964
3	0	10766,0634	2,26695871
3	0	10771,0634	2,26676774
3	0	10776,0634	2,26680589
3	0	10781,0634	2,26667237
3	0	10786,0634	2,26661491
3	0	10791,0634	2,26674867
3	0	10796,0634	2,2664814
3	0	10801,0634	2,26657677
3	0	10806,0634	2,26642418
3	0	10811,0634	2,26642418
3	0	10816,0634	2,26636672
3	0	10821,0634	2,26634765
3	0	10826,0634	2,26634765
3	0	10831,0634	2,26632857
3	0	10836,0634	2,26623321
3	0	10841,0634	2,2661376
3	0	10846,0634	2,26609945
3	0	10851,0634	2,26600409
3	0	10856,0634	2,26609945
3	0	10861,0634	2,26594663
3	0	10866,0634	2,26583219
3	0	10871,0634	2,26577497
3	0	10876,0634	2,26575565
3	0	10881,0634	2,26585126
3	0	10886,0634	2,26562214
3	0	10891,0634	2,26556492
3	0	10896,0634	2,26569843
3	0	10901,0634	2,26564121
3	0	10906,0634	2,26541209
3	0	10911,0634	2,26537395
3	0	10916,0634	2,26539302
3	0	10921,0634	2,26535487
3	0	10926,0634	2,26533556
3	0	10931,0634	2,26522112
3	0	10936,0634	2,26525927
3	0	10941,0634	2,26504922
3	0	10946,0634	2,26514482
3	0	10951,0634	2,26510644
3	0	10956,0634	2,26506829
3	0	10961,0634	2,26491547
3	0	10966,0634	2,26491547
3	0	10971,0634	2,26480103
3	0	10976,0634	2,2647438
3	0	10981,0634	2,26478195
3	0	10986,0634	2,26470566
3	0	10991,0634	2,26461005
3	0	10996,0634	2,26453376
3	0	11001,0634	2,26457191
3	0	11006,0634	2,26451468
3	0	11011,0634	2,26441908
3	0	11016,0634	2,26432371
3	0	11021,0634	2,26422811
3	0	11026,0634	2,26445723
3	0	11031,0634	2,26434278
3	0	11036,0634	2,26422811
3	0	11041,0634	2,26418996
3	0	11046,0634	2,26409459
3	0	11051,0634	2,26409459
3	0	11056,0634	2,26418996
3	0	11061,0634	2,26397991
3	0	11066,0634	2,26388454
3	0	11071,0634	2,26396084
3	0	11076,0634	2,26388454
3	0	11081,0634	2,26375079
3	0	11086,0634	2,26380801
3	0	11091,0634	2,26373172
3	0	11096,0634	2,26363611
3	0	11101,0634	2,2636745
3	0	11106,0634	2,26359797
3	0	11111,0634	2,26355982
3	0	11116,0634	2,26354074
3	0	11121,0634	2,26340699
3	0	11126,0634	2,26331162
3	0	11131,0634	2,26336884
3	0	11136,0634	2,2633307
3	0	11141,0634	2,26329255
3	0	11146,0634	2,26310158
3	0	11151,0634	2,26323533
3	0	11156,0634	2,26312065
3	0	11161,0634	2,26300621
3	0	11166,0634	2,26300621
3	0	11171,0634	2,26300621
3	0	11176,0634	2,26281524
3	0	11181,0634	2,26292968
3	0	11186,0634	2,26277685
3	0	11191,0634	2,2627387
3	0	11196,0634	2,26262426
3	0	11201,0634	2,2625668
3	0	11206,0634	2,26264334
3	0	11211,0634	2,26270056
3	0	11216,0634	2,26258612
3	0	11221,0634	2,26247144
3	0	11226,0634	2,26247144
3	0	11231,0634	2,26243329
3	0	11236,0634	2,26229954
3	0	11241,0634	2,26231861
3	0	11246,0634	2,26224232
3	0	11251,0634	2,26220417
3	0	11256,0634	2,26216602
3	0	11261,0634	2,26222324
3	0	11266,0634	2,2620132
3	0	11271,0634	2,26203227
3	0	11276,0634	2,26193666
3	0	11281,0634	2,26197505
3	0	11286,0634	2,26189852
3	0	11291,0634	2,26186037
3	0	11296,0634	2,26180315
3	0	11301,0634	2,26172662
3	0	11306,0634	2,2616694
3	0	11311,0634	2,26172662
3	0	11316,0634	2,26161218
3	0	11321,0634	2,26153588
3	0	11326,0634	2,26157403
3	0	11331,0634	2,26144028
3	0	11336,0634	2,2614975
3	0	11341,0634	2,26145935
3	0	11346,0634	2,26136398
3	0	11351,0634	2,26134491
3	0	11356,0634	2,26130676
3	0	11361,0634	2,26128745
3	0	11366,0634	2,26121116
3	0	11371,0634	2,26128745
3	0	11376,0634	2,26121116
3	0	11381,0634	2,26103926
3	0	11386,0634	2,2610774
3	0	11391,0634	2,26088667
3	0	11396,0634	2,26102018
3	0	11401,0634	2,26086736
3	0	11406,0634	2,26088667
3	0	11411,0634	2,26075292
3	0	11416,0634	2,2606957
3	0	11421,0634	2,26077199
3	0	11426,0634	2,26071477
3	0	11431,0634	2,26063824
3	0	11436,0634	2,26060009
3	0	11441,0634	2,26061916
3	0	11446,0634	2,26054287
3	0	11451,0634	2,26042819
3	0	11456,0634	2,26039004
3	0	11461,0634	2,26023722
3	0	11466,0634	2,26023722
3	0	11471,0634	2,2602756
3	0	11476,0634	2,2603519
3	0	11481,0634	2,2602756
3	0	11486,0634	2,26019907
3	0	11491,0634	2,2601037
3	0	11496,0634	2,26016092
3	0	11501,0634	2,25996995
3	0	11506,0634	2,26004648
3	0	11511,0634	2,25998902
3	0	11516,0634	2,25987458
3	0	11521,0634	2,25983644
3	0	11526,0634	2,25985551
3	0	11531,0634	2,25991273
3	0	11536,0634	2,25970268
3	0	11541,0634	2,25972176
3	0	11546,0634	2,25968361
3	0	11551,0634	2,25968361
3	0	11556,0634	2,25972176
3	0	11561,0634	2,25956893
3	0	11566,0634	2,25945449
3	0	11571,0634	2,25943542
3	0	11576,0634	2,25949264
3	0	11581,0634	2,25935888
3	0	11586,0634	2,25930166
3	0	11591,0634	2,25926352
3	0	11596,0634	2,25926352
3	0	11601,0634	2,25916791
3	0	11606,0634	2,25911069
3	0	11611,0634	2,25907254
3	0	11616,0634	2,25909162
3	0	11621,0634	2,25905347
3	0	11626,0634	2,2590344
3	0	11631,0634	2,25899625
3	0	11636,0634	2,25897717
3	0	11641,0634	2,25888157