File: Experimentelles/Rohdaten/Batterietests/AlteZelle/Studenten_Batterietests/LLTO_LP30_Li CV/ECLab-Export/LLTO_LP30_Li_02_CV_C01_loop6.mpt
EC-Lab ASCII FILE
Nb header lines : 3
mode	ox/red	error	control changes	counter inc.	time/s	control/V	Ewe/V	<I>/mA	cycle number	(Q-Qo)/C	P/W
2	0	0	1	0	4740,68	2,11153269	2,11157393	-0,048417542129755021	7	0	0,000102237223
2	0	0	0	0	4741,91	2,09923124	2,09961414	-0,043204629201985312	7	-5,38420427E-005	9,07130525E-005
2	0	0	0	0	4743,16	2,08673048	2,08714366	-0,043740524949195501	7	-0,000108513843	9,12927571E-005
2	0	0	1	0	4744,41	2,07422972	2,07474327	-0,044327411402870694	7	-0,000163902718	9,19679951E-005
2	0	0	1	0	4745,66	2,06172848	2,06217265	-0,044864660769235341	7	-0,00021993558	9,2518676E-005
2	0	0	0	0	4746,91	2,04922748	2,04982233	-0,045355859590927136	7	-0,000276608363	9,29714515E-005
2	0	0	0	0	4748,16	2,03672647	2,03725147	-0,045759522802351738	7	-0,0003338877	9,3223658E-005
2	0	0	1	0	4749,41	2,02422571	2,02461052	-0,04629083643279369	7	-0,000391805574	9,37209115E-005
2	0	0	1	0	4750,66	2,01172471	2,01205993	-0,046836491518964493	7	-0,000450336665	9,42378247E-005
2	0	0	0	0	4751,91	1,99922395	1,99968982	-0,047434654387567834	7	-0,000509508245	9,4854593E-005
2	0	0	0	0	4753,16	1,98672283	1,98690844	-0,047894943912979354	7	-0,000569298049	9,51628681E-005
2	0	0	1	0	4754,41	1,97422183	1,97457814	-0,048341863555833696	7	-0,000629758055	9,54547868E-005
2	0	0	1	0	4755,66	1,96172082	1,9622581	-0,048821790842339507	7	-0,000690874178	9,5800955E-005
2	0	0	0	0	4756,91	1,94921994	1,94969749	-0,049441433453466963	7	-0,000752670341	9,63958373E-005
2	0	0	0	0	4758,16	1,93671894	1,93714666	-0,049976037155526451	7	-0,000815135427	9,68109161E-005
2	0	0	1	0	4759,41	1,92421687	1,92464733	-0,050624466358385133	7	-0,000878284336	9,74342474E-005
2	0	0	1	0	4760,66	1,91171706	1,91215551	-0,051069448352791366	7	-0,000942130631	9,76527299E-005
2	0	0	1	0	4761,91	1,89921594	1,89966428	-0,051613280038082298	7	-0,00100667495	9,80479017E-005
2	0	0	0	0	4763,17	1,88671517	1,88710427	-0,052272251011648672	7	-0,00107197277	9,86431914E-005
2	0	0	0	0	4764,42	1,87421417	1,87468374	-0,052928947824208762	7	-0,00113801251	9,92250352E-005
2	0	0	1	0	4765,67	1,86171317	1,86221337	-0,05364361092991504	7	-0,00120489241	9,98958494E-005
2	0	0	1	0	4766,92	1,84921229	1,84964252	-0,05429758028670528	7	-0,00127259805	0,000100431113
2	0	0	0	0	4768,17	1,83671129	1,83732247	-0,054942437893866106	7	-0,00134123617	0,000100946978
2	0	0	0	0	4769,42	1,82421029	1,82447088	-0,055751199290777101	7	-0,00141081738	0,00010171644
2	0	0	1	0	4770,67	1,8117094	1,81222081	-0,056604024294453382	7	-0,00148142804	0,00010257899
2	0	0	1	0	4771,92	1,79920864	1,79970038	-0,057546877961916378	7	-0,00155309623	0,000103567138
2	0	0	0	0	4773,17	1,78670752	1,78746033	-0,05854156374698505	7	-0,00162596023	0,00010464072
2	0	0	0	0	4774,42	1,77420652	1,77473927	-0,059453879618862054	7	-0,00170003006	0,000105515137
2	0	0	1	0	4775,67	1,76170552	1,76219845	-0,060575977899134387	7	-0,00177548674	0,000106746891
2	0	0	1	0	4776,92	1,74920464	1,74980831	-0,061852104011147046	7	-0,00185239653	0,000108229324
2	0	0	0	0	4778,17	1,73670363	1,73699701	-0,06320200041712576	7	-0,00193092611	0,000109781686
2	0	0	0	0	4779,42	1,72420263	1,72481704	-0,064685159440462938	7	-0,00201117131	0,000111570065
2	0	0	1	0	4780,67	1,71170175	1,71200573	-0,066101363685447834	7	-0,00209331536	0,000113165916
2	0	0	1	0	4781,92	1,69920099	1,69985604	-0,067619754758197926	7	-0,00217739935	0,000114943847
2	0	0	0	0	4783,17	1,68669987	1,68721497	-0,069306852179579878	7	-0,00226357277	0,00011693556
2	0	0	0	0	4784,42	1,67419887	1,67470455	-0,071041317559623616	7	-0,00235184678	0,000118973221
2	0	0	1	0	4785,67	1,6616981	1,66216373	-0,072711547390402752	7	-0,0024422477	0,000120858494
2	0	0	1	0	4786,92	1,64919698	1,64951289	-0,074532337215108096	7	-0,002534759	0,000122942045
2	0	0	0	0	4788,17	1,63669598	1,63717246	-0,076443454502926336	7	-0,00262953714	0,000125151113
2	0	0	0	0	4789,42	1,62419498	1,62474215	-0,078569611922527424	7	-0,00272673881	0,000127655367
2	0	0	0	0	4790,67	1,6116941	1,61212134	-0,080990232100399539	7	-0,00282671931	0,000130566084
2	0	0	1	0	4791,92	1,59919333	1,59962082	-0,083777183569812224	7	-0,00292988005	0,000134011731
2	0	0	1	0	4793,17	1,58669221	1,58736062	-0,087010295207922803	7	-0,00303673535	0,000138116709
2	0	0	0	0	4794,42	1,57419121	1,57467961	-0,090767482140412301	7	-0,00314803468	0,000142929697
2	0	0	0	0	4795,67	1,56169045	1,56206894	-0,09571628493722551	7	-0,00326482137	0,000149515443
2	0	0	1	0	4796,96	1,54878926	1,54922748	-0,10208335984498285	7	-0,00339264935	0,000158150346
2	0	0	1	0	4798,21	1,53628838	1,53673685	-0,1103465364237004	7	-0,00352558959	0,000169573585
2	0	0	0	0	4799,46	1,5237875	1,5243566	-0,1208229340845719	7	-0,00367016811	0,000184177232
2	0	0	0	0	4800,71	1,5112865	1,51182592	-0,13412608342089982	7	-0,00382949924	0,000202775293
2	0	0	1	0	4801,96	1,49878561	1,49930525	-0,15036416414659491	7	-0,00400729384	0,000225441778
2	0	0	1	0	4803,21	1,48628461	1,48677468	-0,16982384371416061	7	-0,00420744019	0,000252489786
2	0	0	0	0	4804,46	1,47378361	1,47440434	-0,19260304091343005	7	-0,00443410641	0,000283974747
2	0	0	0	0	4805,71	1,46128273	1,46173334	-0,21856425283476755	7	-0,00469115935	0,000319482642
2	0	0	1	0	4806,96	1,44878161	1,44934309	-0,24712709329711923	7	-0,00498240208	0,000358171936
2	0	0	1	0	4808,21	1,43628073	1,43678224	-0,27826175543789942	7	-0,00531087583	0,00039980156
2	0	0	0	0	4809,46	1,42377985	1,4242717	-0,31094582751393318	7	-0,0056794323	0,000442871329
2	0	0	0	0	4810,71	1,41127884	1,41169095	-0,34532039628053734	7	-0,00608996814	0,000487485668
2	0	0	1	0	4811,96	1,39877796	1,39927053	-0,38066038489341805	7	-0,00654423609	0,000532646838
2	0	0	1	0	4813,21	1,38627696	1,38661957	-0,41669522008548122	7	-0,0070429598	0,000577797764
2	0	0	0	0	4814,46	1,37377596	1,37405884	-0,45289419389640352	7	-0,0075870119	0,000622303283
2	0	0	0	0	4815,71	1,36127508	1,36181879	-0,48918391422679174	7	-0,0081763044	0,000666179869
2	0	0	1	0	4816,96	1,34877479	1,34922814	-0,52537710925611949	7	-0,00881104637	0,000708853593
2	0	0	1	0	4818,21	1,33627307	1,33664727	-0,56116350693628192	7	-0,00949071627	0,000750077656
2	0	0	1	0	4819,46	1,32377136	1,32405496	-0,5965852793015753	7	-0,0102149118	0,000789911719
2	0	0	0	0	4820,71	1,31127119	1,31176639	-0,63132839230820531	7	-0,0109828589	0,000828155375
2	0	0	0	0	4821,96	1,29877031	1,29915559	-0,6651367718974761	7	-0,0117936861	0,000864116184
2	0	0	1	0	4823,21	1,28626931	1,28664494	-0,69833827111870323	7	-0,0126466267	0,000898513419
2	0	0	1	0	4824,46	1,27376831	1,27437484	-0,73107661974306202	7	-0,0135406544	0,000931665651
2	0	0	0	0	4825,71	1,26126742	1,26205468	-0,76376100350171507	7	-0,0144754052	0,000963908155
2	0	0	0	0	4826,96	1,24876642	1,24935365	-0,79891565690438067	7	-0,0154523961	0,000998128206
2	0	0	1	0	4828,21	1,23626542	1,23668265	-0,835834892777104	7	-0,0164745878	0,00103366247
2	0	0	1	0	4829,46	1,22376454	1,22437251	-0,87366488172362726	7	-0,0175435804	0,00106969127
2	0	0	0	0	4830,71	1,21126354	1,21175158	-0,91095029469579635	7	-0,0186599027	0,00110384542
2	0	0	0	0	4831,96	1,19876266	1,19916081	-0,94650663062930547	7	-0,0198217519	0,00113501365
2	0	0	1	0	4833,21	1,18626165	1,1867404	-0,97952001169323917	7	-0,0210264567	0,00116243598
2	0	0	1	0	4834,50	1,17336071	1,17375875	-1,0110220493127926	7	-0,0223111976	0,001186696
2	0	0	0	0	4835,75	1,1608597	1,16112769	-1,0389105047409752	7	-0,0235933382	0,00120630779
2	0	0	0	0	4837,00	1,14835882	1,14867723	-1,0645252500350274	7	-0,024908876	0,00122279592
2	0	0	1	0	4838,25	1,13585782	1,13623679	-1,0869622395063451	7	-0,026254693	0,00123504654
2	0	0	1	0	4839,50	1,12335682	1,12378633	-1,1068727998062989	7	-0,0276269056	0,00124388852
2	0	0	0	0	4840,75	1,11085594	1,11137593	-1,1244079892834051	7	-0,0290227681	0,00124964002
2	0	0	0	0	4842,00	1,09835482	1,09871495	-1,1398079299057544	7	-0,0304387826	0,00125232397
2	0	0	1	0	4843,25	1,08585393	1,08626437	-1,1529038719212038	7	-0,0318727791	0,00125235843
2	0	0	1	0	4844,50	1,07335305	1,07371378	-1,1645347028970736	7	-0,0333217941	0,00125037692
2	0	0	0	0	4845,75	1,06085205	1,06133342	-1,1735452214876787	7	-0,0347838588	0,00124552276
2	0	0	0	0	4847,00	1,04835117	1,04890311	-1,1808096449822205	7	-0,0362558439	0,00123855495
2	0	0	0	0	4848,25	1,03584993	1,03620076	-1,1860306135442746	7	-0,0377356857	0,00122896582
2	0	0	1	0	4849,50	1,02334917	1,02378166	-1,1890101196865288	7	-0,0392205678	0,0012172868
2	0	0	1	0	4850,75	1,01084828	1,01126099	-1,1893732324242627	7	-0,0407075658	0,00120276678
2	0	0	0	0	4852,00	0,998347342	0,99884063	-1,1876485096290672	7	-0,0421940833	0,00118627155
2	0	0	0	0	4853,25	0,985846341	0,986360073	-1,1833958815162405	7	-0,0436766073	0,00116725441
2	0	0	1	0	4854,50	0,973345518	0,973729193	-1,1766667133197171	7	-0,0451524816	0,00114575471
2	0	0	1	0	4855,75	0,960844457	0,961318851	-1,1671446658050018	7	-0,0466179103	0,00112199818
2	0	0	0	0	4857,00	0,948343515	0,948868275	-1,15535558667034	7	-0,048070211	0,00109628029
2	0	0	0	0	4858,25	0,935842514	0,936377764	-1,1414806439230851	7	-0,0495063253	0,00106885715
2	0	0	1	0	4859,50	0,923341691	0,923596501	-1,1262699356302627	7	-0,0509243831	0,00104021898
2	0	0	1	0	4860,75	0,910840631	0,91144675	-1,1109797001505885	7	-0,052323021	0,00101259886
2	1	0	0	0	4861,96	0,901339948	0,901943505	-1,0693020919958744	7	-0,0536578223	0,000964450068
2	1	0	1	0	4863,21	0,91384089	0,914163411	-0,83728184768309427	7	-0,0548414961	0,000765412406
2	1	0	1	0	4864,46	0,926341951	0,92662394	-0,65375977971901581	7	-0,0557687469	0,000605789479
2	1	0	0	0	4865,71	0,938842893	0,939324915	-0,50185924380396864	7	-0,0564876497	0,000471408886
2	1	0	0	0	4867,00	0,951743722	0,952066183	-0,37006790268545408	7	-0,0570473522	0,000352329138
2	1	0	1	0	4868,25	0,964244723	0,964697063	-0,26105338482496643	7	-0,0574394315	0,000251837424
2	1	0	1	0	4869,50	0,976745665	0,976886928	-0,16727866011206061	7	-0,0577050596	0,000163412333
2	1	0	0	0	4870,75	0,989246607	0,989487767	-0,086213870303860634	7	-0,0578616448	8,5307569E-005
2	1	0	0	0	4872,04	1,00214756	1,00249958	-0,013864572543146437	7	-0,0579245202	1,38992282E-005
2	1	0	1	0	4873,29	1,01464856	1,0151906	0,047465462897283373	7	-0,0579021648	4,81864918E-005
2	1	0	1	0	4874,58	1,02754951	1,02799189	0,10306218937815475	7	-0,0578038283	0,000105947096
2	1	0	0	0	4875,83	1,04005039	1,04042244	0,15117004393444701	7	-0,0576438308	0,000157280709
2	1	0	0	0	4877,08	1,05255151	1,0530231	0,19445738440845117	7	-0,0574269593	0,000204768119
2	1	0	1	0	4878,33	1,06505239	1,06556392	0,23388883743124666	7	-0,0571582802	0,000249223493
2	1	0	1	0	4879,58	1,07755339	1,07794428	0,27034158515743734	7	-0,0568422563	0,000291413162
2	1	0	0	0	4880,83	1,09005439	1,09066534	0,30461455012361152	7	-0,0564819798	0,000332232536
2	1	0	0	0	4882,08	1,10255516	1,10296535	0,3369112512251977	7	-0,0560803115	0,000371601433
2	1	0	1	0	4883,33	1,11505628	1,1155262	0,36782834352925421	7	-0,0556391068	0,000410322158
2	1	0	1	0	4884,58	1,12755716	1,12810683	0,39730569270128992	7	-0,0551602319	0,000448203267
2	1	0	1	0	4885,83	1,1400578	1,14047682	0,42621274001698592	7	-0,0546447337	0,000486085744
2	1	0	0	0	4887,09	1,15255916	1,15281737	0,45435570226982144	7	-0,0540936626	0,000523789146
2	1	0	0	0	4888,34	1,16506004	1,16519773	0,48204876249655904	7	-0,0535078049	0,0005616821
2	1	0	1	0	4889,59	1,17756104	1,1780591	0,50929776486009357	7	-0,0528875776	0,000599982857
2	1	0	1	0	4890,84	1,19006205	1,19037938	0,53631101253752787	7	-0,0522334836	0,000638413592
2	1	0	0	0	4892,09	1,20256281	1,20297003	0,56280446300903987	7	-0,0515458062	0,000677036878
2	1	0	0	0	4893,34	1,21506393	1,21554089	0,58926742011681293	7	-0,0508250333	0,000716278621
2	1	0	1	0	4894,59	1,22756481	1,22805142	0,6153434906154871	7	-0,0500713661	0,000755673449
2	1	0	1	0	4895,84	1,24006569	1,24059212	0,6408683143866592	7	-0,0492855981	0,00079505617
2	1	0	0	0	4897,09	1,25256681	1,25287223	0,6658272066464041	7	-0,0484681278	0,000834196399
2	1	0	0	0	4898,34	1,2650677	1,26578379	0,69029227752859341	7	-0,0476199761	0,000873760786
2	1	0	1	0	4899,59	1,2775687	1,27793372	0,71360348273689395	7	-0,0467419587	0,000911937968
2	1	0	1	0	4900,84	1,2900697	1,29067481	0,73633346830805197	7	-0,0458352938	0,000950367074
2	1	0	0	0	4902,09	1,30257046	1,30300486	0,75822919312243392	7	-0,0449006408	0,000987976324
2	1	0	0	0	4903,34	1,31507158	1,31552553	0,77901124628260749	7	-0,0439395234	0,0010248092
2	1	0	1	0	4904,59	1,32757246	1,32797599	0,79865343061586099	7	-0,0429529436	0,00106059259
2	1	0	1	0	4905,84	1,34007335	1,34048665	0,81739894238611302	7	-0,041942358	0,00109571242
2	1	0	0	0	4907,09	1,35257447	1,352947	0,83522636909037914	7	-0,0409087799	0,00113001699
2	1	0	0	0	4908,34	1,36507535	1,365538	0,85204146305719949	7	-0,0398536995	0,00116349501
2	1	0	1	0	4909,59	1,37757635	1,37793839	0,86788718340297421	7	-0,0387780704	0,00119589502
2	1	0	1	0	4910,84	1,39007735	1,39047909	0,88286999644090253	7	-0,0376833901	0,00122761226
2	1	0	0	0	4912,09	1,40257812	1,40294933	0,89684341506410803	7	-0,0365703516	0,00125822588
2	1	0	0	0	4913,34	1,41507924	1,41560042	0,91055677551776166	7	-0,0354402028	0,00128898455
2	1	0	0	0	4914,59	1,42758071	1,42804146	0,92415052403709837	7	-0,0342932045	0,0013197253
2	1	0	1	0	4915,84	1,440081	1,44056153	0,94210206624120294	7	-0,0331270285	0,00135715597
2	1	0	1	0	4917,09	1,45258212	1,45299196	0,96755167003720998	7	-0,0319338366	0,00140584481
2	1	0	0	0	4918,35	1,46523297	1,46564424	0,99990887407745178	7	-0,030689586	0,00146551069
2	1	0	0	0	4919,62	1,47788393	1,47831392	1,0346585757409522	7	-0,0294020362	0,00152955018
2	1	0	1	0	4920,87	1,49038494	1,49083459	1,0678034024313038	7	-0,0280870218	0,00159191829
2	1	0	1	0	4922,12	1,50288594	1,50319481	1,0965022966265634	7	-0,0267332885	0,00164825656
2	1	0	0	0	4923,37	1,51538682	1,51571548	1,1192081120486054	7	-0,0253471173	0,00169640104
2	1	0	0	0	4924,62	1,52788782	1,52857685	1,1346755831812843	7	-0,0239373688	0,00173443882
2	1	0	1	0	4925,87	1,5403887	1,54089713	1,1417069751769304	7	-0,022513004	0,00175925298
2	1	0	1	0	4927,12	1,55288959	1,55323732	1,1384703004732728	7	-0,0210861303	0,00176831451
2	1	0	0	0	4928,37	1,56539059	1,56569755	1,121403006836772	7	-0,0196716543	0,00175577798
2	1	0	0	0	4929,62	1,57789159	1,57841885	1,0885086301714165	7	-0,0182883404	0,00171812251
2	1	0	1	0	4930,87	1,59039247	1,59082913	1,0387538373470306	7	-0,016956389	0,00165247987
2	1	0	1	0	4932,12	1,60289347	1,60329974	0,97270778225114189	7	-0,0156971123	0,00155954214
2	1	0	0	0	4933,37	1,61539435	1,61591053	0,89045623814066138	7	-0,0145305069	0,00143889757
2	1	0	0	0	4934,62	1,62789536	1,62826085	0,79442019325991181	7	-0,013475867	0,00129352335
2	1	0	1	0	4935,87	1,64039636	1,64084148	0,68913687424113062	7	-0,0125477053	0,00113076437
2	1	0	1	0	4937,12	1,65289724	1,65314186	0,57717732883368806	7	-0,0117548592	0,000954155985
2	1	0	0	0	4938,41	1,66579831	1,66612351	0,44243876589462163	7	-0,0110940123	0,00073715765
2	1	0	0	0	4939,66	1,67829931	1,67870426	0,29341301484964768	7	-0,010633857	0,000492553692
2	1	0	1	0	4940,91	1,69080019	1,69116461	0,17309054650831955	7	-0,0103477072	0,00029272461
2	1	0	1	0	4942,16	1,70330107	1,70374548	0,10867743679167053	7	-0,0101767061	0,000185158686
2	1	0	0	0	4943,41	1,71580219	1,71633637	0,082323009090032422	7	-0,0100593474	0,000141293975
2	1	0	0	0	4944,66	1,72830307	1,72868645	0,070357290212996083	7	-0,00996431615	0,000121625693
2	1	0	0	0	4945,91	1,74080384	1,74118698	0,063428491043547917	7	-0,00988065265	0,000110440866
2	1	0	1	0	4947,16	1,75330508	1,7539084	0,058619955069540544	7	-0,0098041594	0,000102814032
2	1	0	1	0	4948,41	1,76580596	1,76624835	0,054869707576775392	7	-0,00973285642	9,6913529E-005
2	1	0	0	0	4949,66	1,77830696	1,7788192	0,05208564640876512	7	-0,00966548361	9,26509456E-005
2	1	0	0	0	4950,91	1,79080784	1,79111934	0,049808565274967437	7	-0,00960130338	8,92130847E-005
2	1	0	1	0	4952,20	1,80370879	1,8039608	0,047895281789048173	7	-0,00953773409	8,64012109E-005
2	1	0	1	0	4953,45	1,81620967	1,81655169	0,046350140454402752	7	-0,0094783511	8,41974252E-005
2	1	0	0	0	4954,70	1,82871068	1,82910216	0,045023548028742086	7	-0,00942073576	8,23526716E-005
2	1	0	0	0	4955,95	1,84121168	1,84174323	0,043972924147965402	7	-0,00936468039	8,09868361E-005
2	1	0	1	0	4957,20	1,8537128	1,85425389	0,043052684961973286	7	-0,00930991117	7,98306064E-005
2	1	0	1	0	4958,45	1,86621356	1,8668046	0,042250779224559667	7	-0,00925628096	7,8873949E-005
2	1	0	0	0	4959,70	1,87871456	1,87913477	0,041552814732616128	7	-0,0092036128	7,80833361E-005
2	1	0	0	0	4960,95	1,89121568	1,89170551	0,041015286959009357	7	-0,0091518024	7,75888475E-005
2	1	0	1	0	4962,20	1,90371644	1,90415597	0,040422618369727085	7	-0,00910069048	7,69709732E-005
2	1	0	1	0	4963,45	1,91621733	1,91674674	0,039830681712677005	7	-0,00905022118	7,63453281E-005
2	1	0	0	0	4964,70	1,92871833	1,92921734	0,039459726812007546	7	-0,00900025573	7,61263873E-005
2	1	0	0	0	4965,95	1,94121933	1,94197845	0,039150876303513773	7	-0,00895077176	7,60301555E-005
2	1	0	1	0	4967,20	1,95372045	1,95417845	0,03895380399383913	7	-0,00890164357	7,61226838E-005
2	1	0	1	0	4968,45	1,96622121	1,96655869	0,038746635497470093	7	-0,00885285065	7,61975316E-005
2	1	0	0	0	4969,70	1,97872221	1,97917962	0,03847953231888823	7	-0,00880427845	7,61579067E-005
2	1	0	0	0	4970,95	1,99122334	1,99170017	0,038332422196011405	7	-0,00875592884	7,63466887E-005
2	1	0	1	0	4972,20	2,0037241	2,0041306	0,038296397969437082	7	-0,00870771334	7,67509846E-005
2	1	0	1	0	4973,45	2,01622486	2,01662111	0,038189618896770637	7	-0,00865964312	7,70139886E-005
2	1	0	1	0	4974,70	2,02872491	2,02934217	0,038192818627297952	7	-0,0086116856	7,75062945E-005
2	1	0	0	0	4975,95	2,0412271	2,0418129	0,037980768548247085	7	-0,00856382679	7,75496228E-005
2	1	0	0	0	4977,20	2,0537281	2,05404258	0,037909202396606362	7	-0,00851605646	7,78671165E-005
2	1	0	1	0	4978,45	2,06622887	2,06680369	0,037850399356102573	7	-0,00846834108	7,82293428E-005
2	1	0	1	0	4979,70	2,07872987	2,07911396	0,037907813840623475	7	-0,00842067041	7,88146644E-005
2	1	0	0	0	4980,95	2,09123087	2,09181499	0,037672894696394566	7	-0,00837301649	7,88047255E-005
2	1	0	0	0	4982,20	2,10373163	2,10411525	0,037930585492479904	7	-0,00832540449	7,9810321E-005
2	1	0	1	0	4983,45	2,11623287	2,11676621	0,037848389862726042	7	-0,0082777096	8,0116195E-005
2	1	0	1	0	4984,70	2,12873363	2,12915635	0,037928071309579622	7	-0,00822998676	8,07547913E-005
2	1	0	0	0	4985,95	2,14123464	2,14163709	0,038023012564129542	7	-0,00818218291	8,14314917E-005
2	1	0	0	0	4987,20	2,1537354	2,15409732	0,03814281494123847	7	-0,00813431945	8,21633366E-005
2	1	0	1	0	4988,45	2,16623664	2,16684866	0,038245603257867731	7	-0,00808634423	8,28724369E-005
2	1	0	1	0	4989,70	2,1787374	2,17924881	0,038189546447635168	7	-0,00803827308	8,32245205E-005
2	1	0	0	0	4990,95	2,1912384	2,19166946	0,038319629151374074	7	-0,00799004547	8,39839631E-005
2	1	0	0	0	4992,20	2,2037394	2,20433044	0,038432381707631635	7	-0,00794170983	8,47176707E-005
2	1	0	1	0	4993,45	2,21624017	2,21674085	0,038605608909468512	7	-0,00789318606	8,55786275E-005
2	1	0	1	0	4994,70	2,22874117	2,2290709	0,038809988453673824	7	-0,00784450956	8,65102193E-005
2	1	0	0	0	4995,95	2,24124241	2,24174213	0,038889974947475648	7	-0,00779562723	8,71812954E-005
2	1	0	0	0	4997,20	2,25374317	2,2544229	0,038999553032529722	7	-0,0077465591	8,79214858E-005
2	1	0	1	0	4998,45	2,26624417	2,26680326	0,039206871316612934	7	-0,00769725069	8,88742652E-005
2	1	0	1	0	4999,70	2,27874517	2,27909327	0,039453003128680051	7	-0,00764772808	8,99170773E-005
2	1	0	0	0	5000,95	2,29124618	2,29155397	0,03967339480489801	7	-0,00759793073	9,09137234E-005
2	1	0	0	0	5002,20	2,30374694	2,3041749	0,039878727383135584	7	-0,00754789263	9,18875594E-005
2	1	0	1	0	5003,45	2,31624889	2,31663632	0,039963807603005523	7	-0,00749752484	9,25816057E-005
2	1	0	1	0	5004,70	2,32874894	2,32916594	0,040229274590577235	7	-0,00744687626	9,37006553E-005
2	1	0	0	0	5005,95	2,34125018	2,34169698	0,040475622473694797	7	-0,00739589287	9,47816443E-005
2	1	0	0	0	5007,20	2,35375071	2,35403681	0,040724607873319994	7	-0,00734462356	9,58672244E-005
2	1	0	0	0	5008,45	2,36625195	2,36662769	0,040994625858729677	7	-0,00729303854	9,70190158E-005
2	1	0	1	0	5009,70	2,37875271	2,37924838	0,041301413701148704	7	-0,00724116154	9,82663187E-005
2	1	0	1	0	5010,95	2,39125371	2,39165878	0,041626616691549491	7	-0,00718895346	9,95566661E-005
2	1	0	0	0	5012,20	2,40375471	2,40433979	0,041932637483114266	7	-0,00713642174	0,000100820311
2	1	0	0	0	5013,45	2,41625547	2,41682053	0,042293898237403424	7	-0,00708348909	0,000102216763
2	1	0	1	0	5014,70	2,42875648	2,42937112	0,042739014354689632	7	-0,00703014154	0,000103828927
2	1	0	1	0	5015,95	2,44125772	2,44185162	0,04300679174290656	7	-0,00697632646	0,000105016203
2	1	0	0	0	5017,21	2,45375848	2,45415163	0,043349422310711827	7	-0,0069220094	0,000106386055
2	1	0	0	0	5018,46	2,46625948	2,46667266	0,043829463461103501	7	-0,00686714193	0,000108112938
2	1	0	1	0	5019,71	2,47876048	2,4790926	0,044291044139147974	7	-0,00681174872	0,0001098016
2	1	0	1	0	5020,96	2,49126148	2,49171352	0,044752745753309344	7	-0,00675581815	0,000111511021
2	1	0	0	0	5022,21	2,50376225	2,50413418	0,045021015199987693	7	-0,0066994545	0,000112738664
2	1	0	0	0	5023,46	2,51626348	2,5166347	0,045369236322585382	7	-0,00664260285	0,000114177798
2	1	0	1	0	5024,71	2,52876425	2,52922559	0,045761619005740243	7	-0,00658528088	0,000115741459
2	1	0	1	0	5025,96	2,54126525	2,54171586	0,046191178262233734	7	-0,00652748439	0,000117404852
2	1	0	0	0	5027,21	2,55376601	2,55432677	0,046640677804437702	7	-0,00646920549	0,000119135533
2	1	0	0	0	5028,46	2,56626725	2,56664705	0,047093082326076378	7	-0,00641041482	0,000120871322
2	1	0	1	0	5029,71	2,57876849	2,57921886	0,047362077643137798	7	-0,00635108585	0,000122157158
2	1	0	1	0	5030,96	2,59126902	2,5917685	0,047835774816727834	7	-0,00629122555	0,000123979247
2	1	0	0	0	5032,21	2,60376978	2,60431123	0,04819945341983545	7	-0,0062308074	0,000125526378
2	1	0	0	0	5033,46	2,61627078	2,61660933	0,048775017484634445	7	-0,00616984628	0,000127625171
2	1	0	0	0	5034,71	2,62877131	2,62911868	0,049222019060541747	7	-0,00610829797	0,000129410531
2	1	0	1	0	5035,96	2,64127302	2,64160037	0,049702578301851872	7	-0,00604615919	0,00013129435
2	1	0	1	0	5037,21	2,65377378	2,65426135	0,050130633074635168	7	-0,00598341366	0,000133059802
2	1	0	0	0	5038,46	2,66627479	2,666682	0,050668659154325722	7	-0,00592005393	0,000135117196
2	1	0	0	0	5039,71	2,67877579	2,67915225	0,051244492060504851	7	-0,00585604087	0,00013729179
2	1	0	1	0	5040,96	2,69127655	2,69154286	0,051800632247856474	7	-0,00579139963	0,000139423617
2	1	0	1	0	5042,21	2,70377755	2,70420361	0,05229279596824199	7	-0,00572608365	0,000141410361
2	1	0	0	0	5043,46	2,71627879	2,71683455	0,052693778823595494	7	-0,00566012366	0,000143160272
2	1	0	0	0	5044,71	2,72877955	2,72933507	0,053259289862277683	7	-0,00559347635	0,000145362443
2	1	0	1	0	5045,96	2,74128056	2,74168515	0,053810899902600794	7	-0,00552617386	0,000147532541
2	1	0	1	0	5047,21	2,75378132	2,75428629	0,05438929371302953	7	-0,00545819895	0,000149803687
2	1	0	0	0	5048,46	2,76628256	2,76679683	0,05493941443273792	7	-0,0053895656	0,000152006192
2	1	0	0	0	5049,71	2,77878332	2,77913713	0,055367695516906682	7	-0,00532024261	0,000153874425
2	1	0	1	0	5050,96	2,79128432	2,79177809	0,055912453467802394	7	-0,00525024673	0,000156095164
2	1	0	1	0	5052,21	2,80378532	2,80413818	0,05650230714430393	7	-0,00517956773	0,000158440278
2	1	0	0	0	5053,46	2,81628609	2,8164885	0,057073852668205747	7	-0,00510822237	0,000160747848
2	1	0	0	0	5054,71	2,82878709	2,82937002	0,057690552028361485	7	-0,0050361678	0,000163227916
2	1	0	1	0	5055,96	2,84128833	2,84154987	0,058098265862402739	7	-0,00496342778	0,000165089121
2	1	0	1	0	5057,21	2,85378909	2,85437107	0,058598230204855334	7	-0,00488997903	0,000167261096
2	1	0	0	0	5058,46	2,86629009	2,86676145	0,059163651254493517	7	-0,00481582386	0,000169608073
2	1	0	0	0	5059,71	2,87879109	2,87925196	0,05976054305210688	7	-0,0047409446	0,000172065658
2	1	0	0	0	5060,96	2,8912909	2,89168143	0,060337700467131546	7	-0,00466537382	0,000174477405
2	1	0	1	0	5062,21	2,90379286	2,90456414	0,060950593246767552	7	-0,00458906172	0,000177034904
2	1	0	1	0	5063,46	2,9162941	2,91674376	0,06155018159778825	7	-0,00451211492	0,000179526105
2	1	0	0	0	5064,71	2,92879486	2,9292345	0,062210230486622554	7	-0,00443441514	0,000182228352
2	1	0	0	0	5065,96	2,94129586	2,94160461	0,062777756228266752	7	-0,00435603596	0,00018466734
2	1	0	1	0	5067,21	2,95379663	2,95415521	0,063416493571518234	7	-0,00427690661	0,000187342172
2	1	0	1	0	5068,46	2,96629786	2,96673608	0,064031697945514138	7	-0,00419706665	0,000189965154
2	1	0	0	0	5069,71	2,97879863	2,97921658	0,064492434399046938	7	-0,0041164523	0,000192136926
2	1	0	0	0	5070,96	2,99129963	2,99178743	0,065118127929357222	7	-0,00403508916	0,0001948196
2	1	0	1	0	5072,21	3,00380063	3,00418782	0,065789712651167181	7	-0,00395290973	0,000197644651
2	1	0	1	0	5073,46	3,01630139	3,01662827	0,066462121574053043	7	-0,00386997056	0,000200491515
2	1	0	0	0	5074,71	3,02880239	3,02921891	0,067190341243985907	7	-0,00378617784	0,000203534248
2	1	0	0	0	5075,96	3,04130363	3,04158926	0,06780342113537097	7	-0,00370154693	0,000206230165
2	1	0	1	0	5077,21	3,0538044	3,05423021	0,068464741227216909	7	-0,0036160266	0,000209107078
2	1	0	1	0	5078,46	3,0663054	3,06663036	0,069221260220122534	7	-0,00352962548	0,00021227602
2	1	0	0	0	5079,71	3,0788064	3,07910109	0,070016772369854157	7	-0,0034422949	0,00021558872
2	1	0	0	0	5080,96	3,09130716	3,09204268	0,07077004475286208	7	-0,00335406465	0,000218824003
2	1	0	1	0	5082,21	3,10380816	3,10424256	0,071500495949294413	7	-0,0032648989	0,000221954877
2	1	0	1	0	5083,46	3,1163094	3,11680341	0,072078722296282432	7	-0,00317481346	0,000224655203
2	1	0	0	0	5084,71	3,12880969	3,12928391	0,072913533445292506	7	-0,00308377505	0,000228167148
2	1	0	0	0	5085,96	3,14131069	3,14173436	0,073669427462543014	7	-0,00299179042	0,000231449769
2	1	0	0	0	5087,21	3,15381098	3,15431404	0,074552097112889677	7	-0,00289882859	0,000235160725
2	1	0	1	0	5088,46	3,16631293	3,16692591	0,075354829333567462	7	-0,00280484417	0,000238643159
2	1	0	0	0	5089,71	3,17881465	3,1792171	0,076118499276827507	7	-0,00270983553	0,00024199723
2	1	0	0	0	5090,96	3,19131446	3,19188666	0,07704356244842825	7	-0,00261373539	0,000245914329
2	1	0	1	0	5092,21	3,20381594	3,20433903	0,077993421706980429	7	-0,00251651276	0,000249917357
2	1	0	1	0	5093,46	3,21631646	3,21678758	0,078976981982123046	7	-0,00241810875	0,000254052167
2	1	0	1	0	5094,71	3,2288177	3,22941899	0,08005386330963415	7	-0,00231850729	0,000258527463
2	1	0	0	0	5095,96	3,2413187	3,24189949	0,080996694877588198	7	-0,00221755821	0,00026258314
2	1	0	0	0	5097,21	3,2538197	3,2544601	0,08203831433396192	7	-0,00211528549	0,000266990421
2	1	0	1	0	5098,46	3,26632023	3,26682019	0,083267218937786957	7	-0,00201152568	0,000272019039
2	1	0	1	0	5099,71	3,27882123	3,27929068	0,084546431142371034	7	-0,00190627226	0,000277252315
2	1	0	0	0	5100,96	3,29132247	3,29190135	0,085920323637159066	7	-0,00179937936	0,00028284124
2	1	0	0	0	5102,21	3,30382347	3,30409145	0,087315021878263347	7	-0,001690801	0,000288496813
2	1	0	1	0	5103,46	3,31632447	3,31674242	0,088714065709306406	7	-0,00158037164	0,000294241705
2	1	0	1	0	5104,71	3,328825	3,32930326	0,090305635220526477	7	-0,00146802096	0,00030065485
2	1	0	0	0	5105,96	3,341326	3,34172344	0,091999488979733094	7	-0,00135364197	0,000307436858
2	1	0	0	0	5107,21	3,353827	3,35432434	0,09377393246783561	7	-0,00123719254	0,000314548175
2	1	0	1	0	5108,46	3,36632824	3,36671495	0,095598042030663475	7	-0,00111848977	0,000321851345
2	1	0	1	0	5109,71	3,37882924	3,37941599	0,097350065693414093	7	-0,000997478492	0,000328986382
2	1	0	0	0	5111,00	3,39172983	3,39200664	0,099492686800658253	7	-0,000869969954	0,00033747984
2	1	0	0	0	5112,25	3,40423083	3,40482807	0,10154891343942496	7	-0,000743776676	0,000345756591
2	1	0	1	0	5113,50	3,41673183	3,41731858	0,1037549179357784	7	-0,000614847988	0,000354563614
2	1	0	1	0	5114,75	3,42923284	3,42989922	0,1060374601123235	7	-0,000483163778	0,000363697793
2	1	0	0	0	5116,00	3,44173408	3,44216919	0,10835121187847062	7	-0,000348589005	0,000372963201
2	1	0	0	0	5117,25	3,4542346	3,45455956	0,11076177928286323	7	-0,000211125283	0,000382633152
2	1	0	1	0	5118,50	3,4667356	3,46715069	0,11326641143144411	7	-7,06350984E-005	0,000392711721
2	1	0	1	0	5119,75	3,4792366	3,47975135	0,11578502727206774	7	7,28911327E-005	0,000402903097
2	1	0	1	0	5121,00	3,49173641	3,49232054	0,11842201073087066	7	0,000219614143	0,000413567614
2	1	0	0	0	5122,25	3,50423884	3,50485277	0,12115841289050872	7	0,000369636196	0,000424642407
2	1	0	0	0	5123,50	3,51673961	3,51735353	0,12397741572931397	7	0,000523092924	0,000436072412
2	1	0	1	0	5124,75	3,52924037	3,52977347	0,12670809581565301	7	0,00068008306	0,000447250874
2	1	0	1	0	5126,00	3,54174137	3,54233456	0,12973782839253456	7	0,000840749592	0,000459574803
2	1	0	0	0	5127,25	3,55424237	3,5549252	0,1328871683217584	7	0,00100530044	0,000472403946
2	1	0	0	0	5128,50	3,56674337	3,56711507	0,13626632385421544	7	0,00117386284	0,000486077653
2	1	0	1	0	5129,75	3,57924438	3,57990623	0,13965729286428496	7	0,00134662725	0,000499960035
2	1	0	1	0	5131,00	3,59174514	3,59240675	0,14306787944709232	7	0,00152365793	0,000513957988
2	1	0	0	0	5132,25	3,60424614	3,60458708	0,14648294910633286	7	0,00170506304	0,00052801054
2	1	0	0	0	5133,50	3,61674714	3,61723781	0,1499826471554111	7	0,00189074397	0,000542522874
2	1	0	1	0	5134,75	3,62924814	3,62972832	0,1532805763029801	7	0,00208068499	0,000556366867
2	1	0	1	0	5136,00	3,64174938	3,64217854	0,15655080489038208	7	0,00227464666	0,000570186006
2	1	0	0	0	5137,25	3,65424991	3,6549499	0,159418730686108	7	0,00247245119	0,000582667475
2	1	0	0	0	5138,50	3,66675091	3,66730046	0,16211739593806352	7	0,00267380499	0,000594533223
2	1	0	1	0	5139,75	3,67925191	3,67972064	0,16471756078923728	7	0,00287856394	0,000606114627
2	1	0	1	0	5141,00	3,69175291	3,6922915	0,16734921792522006	7	0,0030864994	0,000617902086
2	1	0	0	0	5142,25	3,70425415	3,70452142	0,16972571273799942	7	0,00329757691	0,000628752518
2	1	0	0	0	5143,50	3,71675491	3,71714234	0,17215448567488534	7	0,00351158949	0,000639922742
2	1	0	1	0	5144,75	3,72925568	3,72982359	0,17435466932753686	7	0,00372860837	0,000650312169
2	1	0	1	0	5146,00	3,74175668	3,74242425	0,17668778961524368	7	0,00394835975	0,000661240658
2	1	0	1	0	5147,25	3,75425696	3,75478268	0,17907993797281274	7	0,00417113118	0,000672406226
2	1	0	0	0	5148,51	3,76675868	3,767205	0,1814964586325607	7	0,00439684233	0,000683734368
2	1	0	0	0	5149,76	3,77925968	3,77955437	0,18397353148482765	7	0,00462558353	0,000695337949
2	1	0	1	0	5151,01	3,79176044	3,79204559	0,18630944766725088	7	0,0048573399	0,000706493913
2	1	0	1	0	5152,26	3,80426145	3,80460644	0,18878467656516797	7	0,00509221153	0,000718251395
2	1	0	0	0	5153,51	3,81676245	3,81714702	0,19151854484031629	7	0,00533038797	0,000731054461
2	1	0	0	0	5154,76	3,82926345	3,82978797	0,19435418905535085	7	0,00557199121	0,000744335353
2	1	0	1	0	5156,01	3,84176469	3,84199786	0,19737437025954298	7	0,00581721496	0,000758311886
2	1	0	1	0	5157,26	3,85426521	3,8548193	0,20046947205749664	7	0,00606622035	0,000772773579
2	1	0	0	0	5158,51	3,86676621	3,86731982	0,20356953151834461	7	0,00631916709	0,000787268509
2	1	0	0	0	5159,76	3,87926722	3,87961006	0,2068755781122792	7	0,00657617813	0,000802596565
2	1	0	1	0	5161,01	3,89176822	3,89238095	0,21029587268518867	7	0,00683740759	0,000818551634
2	1	0	1	0	5162,26	3,90426946	3,90509248	0,21385616591821056	7	0,00710291183	0,000835128129
2	1	0	0	0	5163,51	3,91677022	3,91739225	0,21743629414898669	7	0,00737287011	0,000851783261
2	1	0	0	0	5164,76	3,92927098	3,92968225	0,22095202926235878	7	0,00764734019	0,00086827128
2	1	0	1	0	5166,01	3,94177198	3,94228339	0,22467415461627027	7	0,00792649947	0,000885729212
2	1	0	1	0	5167,26	3,95427299	3,95488429	0,22853554381678531	7	0,00821035355	0,00090383162
2	1	0	0	0	5168,51	3,96677399	3,96727467	0,23231915485424358	7	0,00849902071	0,000921673898
2	1	0	0	0	5169,76	3,97927499	3,9797852	0,2360434308648105	7	0,00879237894	0,000939402147
2	1	0	1	0	5171,01	3,99177575	3,99256635	0,23973987290325206	7	0,00909033976	0,00095717737
2	1	0	1	0	5172,26	4,00427675	4,00476599	0,24330021045170637	7	0,00939268805	0,000974360388
2	1	0	0	0	5173,51	4,01677752	4,0172267	0,24674810042294304	7	0,00969938096	0,000991243054
2	1	0	0	0	5174,76	4,02927876	4,02972698	0,25015293403218131	7	0,0100103077	0,00100804807
2	1	0	1	0	5176,01	4,04178047	4,0422287	0,25342401553560269	7	0,0103253694	0,00102439779
2	1	0	1	0	5177,26	4,05428076	4,05483866	0,25647511271138957	7	0,0106443195	0,00103996519
2	1	0	0	0	5178,51	4,066782	4,06730986	0,25904288026875834	7	0,0109669473	0,00105360767
2	1	0	0	0	5179,76	4,07928228	4,0800705	0,26154824765399075	7	0,011292791	0,00106713525
2	1	0	0	0	5181,01	4,09178257	4,09221888	0,26355555799014352	7	0,0116213765	0,00107852707
2	1	0	1	0	5182,26	4,10428476	4,10480118	0,26526003703474998	7	0,0119522773	0,00108883972
2	1	0	0	0	5183,51	4,11678553	4,11734152	0,26679462667865027	7	0,0122851692	0,00109848462
2	1	0	0	0	5184,76	4,12928629	4,12970209	0,26830680047472288	7	0,0126198996	0,00110802718
2	1	0	1	0	5186,01	4,14178705	4,14248323	0,26996285344163606	7	0,0129567143	0,00111831655
2	1	0	1	0	5187,26	4,15428829	4,15480328	0,27204192359931811	7	0,0132958135	0,00113028067
2	1	0	0	0	5188,51	4,16679001	4,16719389	0,27439512895717043	7	0,0136376787	0,00114345772
2	1	0	0	0	5189,76	4,17929029	4,18003464	0,27735327696427702	7	0,0139827142	0,00115934631
2	1	0	1	0	5191,01	4,19179201	4,1922369	0,28049081065895498	7	0,0143316807	0,00117588392
2	0	0	1	1	5192,21	4,19619131	4,19702673	0,24035234741556154	7	0,014660893	0,00100876519
2	0	0	0	1	5193,46	4,18369055	4,18430519	0,18109260076501642	7	0,0149194365	0,000757746689
2	0	0	0	1	5194,71	4,17118931	4,17186499	0,1445000946599375	7	0,0151209477	0,000602834858
2	0	0	1	1	5195,96	4,15868902	4,15935421	0,11831085643886218	7	0,0152839394	0,000492096762
2	0	0	1	1	5197,21	4,14618731	4,14669323	0,098544817805911398	7	0,0154185314	0,000408635125
2	0	0	0	1	5198,46	4,13368702	4,13427353	0,083139283795996442	7	0,01553139	0,000343720545
2	0	0	0	1	5199,71	4,12118578	4,12167215	0,070793442408709325	7	0,0156270564	0,00029178735
2	0	0	1	1	5200,96	4,10868454	4,1091218	0,060866527045921754	7	0,0157088693	0,000250107987
2	0	0	1	1	5202,21	4,09618425	4,09670115	0,052467486297246067	7	0,0157791451	0,000214943604
2	0	0	0	1	5203,50	4,08328295	4,08374929	0,045042783225653843	7	0,0158414915	0,000183943441
2	0	0	0	1	5204,75	4,07078218	4,07125902	0,038797751049666374	7	0,0158933867	0,000157955699
2	0	0	1	1	5206,00	4,05828094	4,05895853	0,033384073904017011	7	0,0159380753	0,000135504568
2	0	0	1	1	5207,25	4,04577971	4,04628754	0,028524019871838336	7	0,015976388	0,000115416384
2	0	0	0	1	5208,50	4,03327847	4,03382587	0,024269979283456909	7	0,0160090867	9,79008692E-005
2	0	0	0	1	5209,75	4,02077818	4,02123594	0,020508096087723971	7	0,0160367228	8,24678937E-005
2	0	0	1	1	5211,00	4,00827646	4,00884485	0,017082344186108934	7	0,0160598215	6,84804691E-005
2	0	0	1	1	5212,25	3,99577641	3,99623537	0,01390684440654391	7	0,0160788298	5,5575023E-005
2	0	0	0	1	5213,50	3,98327541	3,98385525	0,011056142264957714	7	0,016094109	4,40460717E-005
2	0	0	0	1	5214,75	3,97077417	3,97143459	0,0083835122350137677	7	0,0161060169	3,3294571E-005
2	0	0	1	1	5216,00	3,95827198	3,9586215	0,0061654803604937613	7	0,0161148254	2,44068033E-005
2	0	0	1	1	5217,29	3,94537258	3,94564152	0,0036043880439440986	7	0,0161209628	1,42216231E-005
2	0	0	1	1	5218,54	3,93287182	3,93320012	0,001835659220992384	7	0,0161242764	7,22001505E-006
2	0	0	0	1	5219,79	3,92037058	3,92094088	-4,6150123608868051E-005	7	0,0161252338	1,80951901E-007
2	0	0	0	1	5221,04	3,90786958	3,90829015	-0,0017132583968001782	7	0,0161240064	6,695911E-006
2	0	0	1	1	5222,29	3,89536834	3,89585972	-0,003361516943793191	7	0,0161207877	1,30959988E-005
2	0	0	1	1	5223,54	3,88286781	3,88324881	-0,0047563038873098259	7	0,0161157101	1,84699111E-005
2	0	0	0	1	5224,79	3,87036681	3,87070799	-0,005967510927196919	7	0,0161089636	2,30984915E-005
2	0	0	0	1	5226,04	3,85786581	3,85832787	-0,0071699930801211699	7	0,0161006469	2,7664184E-005
2	0	0	1	1	5227,29	3,84536481	3,84559655	-0,0082809788703646912	7	0,0160909053	3,18453021E-005
2	0	0	1	1	5228,54	3,83286357	3,83307576	-0,0093492813175543859	7	0,0160798244	3,58365032E-005
2	0	0	0	1	5229,83	3,81996274	3,82050514	-0,010074566732024947	7	0,0160671826	3,84899322E-005
2	0	0	0	1	5231,08	3,80746198	3,80789447	-0,010972834369264702	7	0,0160537343	4,17833944E-005
2	0	0	1	1	5232,33	3,79496098	3,79552412	-0,011744944398136202	7	0,0160392728	4,45782207E-005
2	0	0	1	1	5233,58	3,78245997	3,782933	-0,012371395219815894	7	0,0160238128	4,68001599E-005
2	0	0	0	1	5234,83	3,76995897	3,77053308	-0,013082810973476966	7	0,0160074588	4,932917E-005
2	0	0	0	1	5236,08	3,75745797	3,75808287	-0,01379811061390987	7	0,0159902386	5,18544439E-005
2	0	0	1	1	5237,33	3,74495721	3,74555159	-0,014469251191864442	7	0,0159722343	5,41953268E-005
2	0	0	1	1	5238,58	3,73245621	3,73318148	-0,015074466427904541	7	0,0159534421	5,62757195E-005
2	0	0	0	1	5239,83	3,71995521	3,72033024	-0,015538099755455392	7	0,0159339979	5,78068612E-005
2	0	0	0	1	5241,08	3,7074542	3,70787978	-0,016093003112473526	7	0,0159137659	5,96709215E-005
2	0	0	1	1	5242,33	3,6949532	3,69556952	-0,016653012406701875	7	0,0158928651	6,15423633E-005
2	0	0	1	1	5243,58	3,68245244	3,6829586	-0,017265517225799456	7	0,0158712696	6,35881879E-005
2	0	0	1	1	5244,83	3,66995192	3,67056727	-0,017757146397632874	7	0,0158490669	6,51787996E-005
2	0	0	0	1	5246,08	3,65745044	3,6580174	-0,018173036514781414	7	0,0158262011	6,64772815E-005
2	0	0	1	1	5247,33	3,64494824	3,64560699	-0,018532909943219101	7	0,0158027317	6,75637057E-005
2	0	0	1	1	5248,58	3,63244843	3,63323712	-0,019043456564152947	7	0,0157786682	6,91893947E-005
2	0	0	1	1	5249,83	3,61994743	3,62045574	-0,019527288299286781	7	0,0157540515	7,06976862E-005
2	0	0	0	1	5251,08	3,60744667	3,60797524	-0,019942956734060656	7	0,015728863	7,19536911E-005
2	0	0	0	1	5252,33	3,59494567	3,59550476	-0,020371079173249568	7	0,0157031808	7,3244315E-005
2	0	0	1	1	5253,58	3,58244467	3,58296394	-0,020876345738846253	7	0,0156770106	7,47991944E-005
2	0	0	1	1	5254,83	3,56994367	3,57039309	-0,021210319721528093	7	0,015650386	7,57291782E-005
2	0	0	0	1	5256,08	3,55744267	3,55795264	-0,021577878350702435	7	0,0156233218	7,67730671E-005
2	0	0	0	1	5257,33	3,5449419	3,54552221	-0,021942315346677706	7	0,0155958692	7,7796969E-005
2	0	0	1	1	5258,58	3,5324409	3,53289127	-0,022283083152918438	7	0,0155680291	7,87237077E-005
2	0	0	1	1	5259,83	3,5199399	3,52030039	-0,022383559242977469	7	0,0155398501	7,87968529E-005
2	0	0	0	1	5261,08	3,5074389	3,50803041	-0,022662151556384454	7	0,0155113228	7,9499514E-005
2	0	0	0	1	5262,33	3,4949379	3,49556017	-0,022914970351848829	7	0,0154824732	8,01006609E-005
2	0	0	1	1	5263,58	3,48243713	3,48302937	-0,023219248604921942	7	0,0154533135	8,08733239E-005
2	0	0	1	1	5264,83	3,46993613	3,47052884	-0,023490988101305789	7	0,0154238706	8,15261519E-005
2	0	0	0	1	5266,08	3,45743513	3,45792794	-0,023668614002720746	7	0,0153941195	8,18443586E-005
2	0	0	0	1	5267,33	3,44493413	3,44548726	-0,023820749716833235	7	0,0153640956	8,20740897E-005
2	0	0	1	1	5268,58	3,43243313	3,43265605	-0,024095249735789082	7	0,0153337857	8,27107069E-005
2	0	0	1	1	5269,83	3,41993213	3,42062664	-0,024301446935472426	7	0,0153032178	8,31261787E-005
2	0	0	0	1	5271,09	3,40743136	3,4081161	-0,024638654955197098	7	0,0152723705	8,39713975E-005
2	0	0	0	1	5272,34	3,39493036	3,3956356	-0,024770945155372246	7	0,0152412569	8,41131041E-005
2	0	0	1	1	5273,59	3,38242888	3,38308454	-0,024890658335704253	7	0,0152098713	8,42072041E-005
2	0	0	1	1	5274,84	3,36992836	3,37058401	-0,025114727478164013	7	0,0151782054	8,46512994E-005
2	0	0	1	1	5276,09	3,35742784	3,35801458	-0,025399352986731738	7	0,015146276	8,52913945E-005
2	0	0	0	1	5277,34	3,3449266	3,34542274	-0,025592810503439978	7	0,0151140587	8,56187689E-005
2	0	0	0	1	5278,59	3,33242559	3,33294225	-0,025917651257865811	7	0,0150815891	8,63820314E-005
2	0	0	1	1	5279,84	3,31992459	3,32047153	-0,02604028600035241	7	0,0150488224	8,64660251E-005
2	0	0	1	1	5281,09	3,30742359	3,30785084	-0,02622697375287919	7	0,0150157707	8,6754917E-005
2	0	0	0	1	5282,34	3,29492259	3,29526997	-0,026509088318562192	7	0,0149824591	8,73546014E-005
2	0	0	0	1	5283,59	3,28242183	3,28268909	-0,02677124420491367	7	0,0149488961	8,78816718E-005
2	0	0	1	1	5284,84	3,26992083	3,27020884	-0,027012977293149302	7	0,0149150463	8,83380781E-005
2	0	0	1	1	5286,09	3,25741982	3,25781798	-0,027076201484305898	7	0,014880958	8,82093373E-005
2	0	0	0	1	5287,34	3,24491882	3,24569845	-0,027224887492290435	7	0,0148465931	8,83637767E-005
2	0	0	0	1	5288,59	3,23241782	3,23295736	-0,02748957897226023	7	0,0148119796	8,88726354E-005
2	0	0	1	1	5289,84	3,21991682	3,22020602	-0,027687473426340218	7	0,0147771044	8,91593663E-005
2	0	0	1	1	5291,09	3,20741606	3,20798635	-0,02787675988899241	7	0,014742041	8,94282639E-005
2	0	0	0	1	5292,34	3,19491506	3,19549584	-0,028082787806245846	7	0,0147067187	8,97384307E-005
2	0	0	0	1	5293,59	3,18241405	3,18310547	-0,028156614862382467	7	0,0146711813	8,96254714E-005
2	0	0	1	1	5294,84	3,16991305	3,17037439	-0,028346056739489312	7	0,0146353981	8,98676153E-005
2	0	0	1	1	5296,09	3,15741205	3,15794373	-0,028536530483203565	7	0,0145994388	9,01167587E-005
2	0	0	0	1	5297,34	3,14491129	3,14527297	-0,028740064405913811	7	0,014563255	9,03953478E-005
2	0	0	0	1	5298,59	3,13241029	3,13272214	-0,028889537459084179	7	0,0145269055	9,05028937E-005
2	0	0	1	1	5299,84	3,11990952	3,12043214	-0,02888398087816313	7	0,0144903474	9,01305029E-005
2	0	0	1	1	5301,09	3,10740852	3,10774112	-0,029037642147159206	7	0,0144536374	9,02414758E-005
2	0	0	0	1	5302,34	3,09490848	3,09556174	-0,029142602618659866	7	0,0144167366	9,02127285E-005
2	0	0	0	1	5303,59	3,08240652	3,08270979	-0,029284409063014496	7	0,0143797006	9,02753309E-005
2	0	0	0	1	5304,84	3,06990647	3,07054043	-0,029392738434506406	7	0,0143425036	9,02515894E-005
2	0	0	1	1	5306,09	3,05740476	3,05797958	-0,029561512414754048	7	0,0143051874	9,03984983E-005
2	0	0	1	1	5307,34	3,04490352	3,04539871	-0,029705804180897274	7	0,0142677296	9,04660192E-005
2	0	0	0	1	5308,59	3,03240275	3,03275752	-0,029770495467043206	7	0,0142302047	9,02866959E-005
2	0	0	0	1	5309,84	3,01990175	3,02040744	-0,029949092238287846	7	0,0141925793	9,04584595E-005
2	0	0	1	1	5311,09	3,00740075	3,00778651	-0,0300366797406848	7	0,0141548757	9,03439213E-005
2	0	0	1	1	5312,34	2,99489999	2,99528575	-0,03007756880833776	7	0,0141170779	9,00909145E-005
2	0	0	0	1	5313,59	2,98239899	2,98271513	-0,029985001669653402	7	0,0140792066	8,94367186E-005
2	0	0	0	1	5314,84	2,96989775	2,97025466	-0,030091605255923693	7	0,0140412552	8,93797333E-005
2	0	0	1	1	5316,09	2,95739698	2,95798469	-0,03017137714778073	7	0,014003247	8,92464741E-005
2	0	0	1	1	5317,34	2,94489598	2,94530368	-0,030273300362750886	7	0,0139651652	8,91640593E-005
2	0	0	0	1	5318,59	2,93239522	2,93296337	-0,030321475768384179	7	0,0139270481	8,89317744E-005
2	0	0	0	1	5319,84	2,91989422	2,92048264	-0,030279390931051891	7	0,0138888769	8,84304391E-005
2	0	0	1	1	5321,09	2,90739322	2,90807247	-0,030225954503597082	7	0,0138507048	8,78992651E-005
2	0	0	1	1	5322,34	2,89489222	2,89538145	-0,030373521042444467	7	0,0138124824	8,79429281E-005
2	0	0	0	1	5323,59	2,88239121	2,88300133	-0,030414108410089555	7	0,0137742124	8,76839185E-005
2	0	0	0	1	5324,84	2,86989021	2,87026	-0,030493807697591078	7	0,0137359165	8,75251571E-005
2	0	0	1	1	5326,09	2,85738945	2,85790968	-0,030394321841110182	7	0,0136976	8,68642237E-005
2	0	0	1	1	5327,34	2,84488821	2,84553933	-0,030375535871523085	7	0,0136592733	8,64347821E-005
2	0	0	0	1	5328,59	2,83238745	2,83271813	-0,030359313338218842	7	0,0136209261	8,59993743E-005
2	0	0	0	1	5329,84	2,81988645	2,82031775	-0,030453236434065414	7	0,0135825817	8,58878047E-005
2	0	0	0	1	5331,09	2,80738616	2,80779815	-0,030386116835156742	7	0,0135442205	8,53180827E-005
2	0	0	1	1	5332,34	2,79488468	2,79520631	-0,030483138747513293	7	0,0135058863	8,52066587E-005
2	0	0	1	1	5333,59	2,78238344	2,78274584	-0,030385347826177242	7	0,0134675186	8,45547038E-005
2	0	0	0	1	5334,84	2,76988244	2,77038574	-0,030424055526964365	7	0,0134291677	8,42863665E-005
2	0	0	1	1	5336,09	2,7573812	2,75776362	-0,030437527952130394	7	0,0133907963	8,3939507E-005
2	0	0	1	1	5337,34	2,74488068	2,74526405	-0,030497828711910854	7	0,0133524453	8,37245898E-005
2	0	0	1	1	5338,59	2,73237991	2,7326932	-0,030530905341341478	7	0,0133140683	8,34315942E-005
2	0	0	0	1	5339,84	2,71987891	2,7203331	-0,030383931851247411	7	0,0132756913	8,26544128E-005
2	0	0	0	1	5341,09	2,70737791	2,70780253	-0,030415942455874784	7	0,0132372743	8,23603696E-005
2	0	0	1	1	5342,34	2,69487691	2,69528198	-0,030445807904470714	7	0,0131988516	8,20600399E-005
2	0	0	1	1	5343,59	2,68237591	2,68279123	-0,030536098900483974	7	0,013160374	8,19219786E-005
2	0	0	0	1	5344,84	2,66987491	2,67034078	-0,030617217436277658	7	0,0131218629	8,17584078E-005
2	0	0	0	1	5346,09	2,65737414	2,65786028	-0,030604789547699962	7	0,0130832745	8,13432562E-005
2	0	0	1	1	5347,34	2,64487314	2,64526939	-0,030638714641099795	7	0,0130446199	8,10476558E-005
2	0	0	1	1	5348,59	2,63237214	2,63271904	-0,03072770561751287	7	0,0130058667	8,08974146E-005
2	0	0	0	1	5349,84	2,61987114	2,62033844	-0,030846282616645683	7	0,0129670193	8,08277036E-005
2	0	0	0	1	5351,09	2,60737014	2,60792804	-0,031008351788235245	7	0,0129280379	8,08675468E-005
2	0	0	1	1	5352,34	2,59486938	2,59539747	-0,031078143986330074	7	0,0128889242	8,06601383E-005
2	0	0	1	1	5353,59	2,58236861	2,58301735	-0,031093884210955974	7	0,0128496299	8,03160437E-005
2	0	0	0	1	5354,84	2,56986713	2,57020593	-0,031261974373289146	7	0,0128101576	8,03497096E-005
2	0	0	0	1	5356,09	2,55736637	2,55788565	-0,031421537326726477	7	0,0127704674	8,03727016E-005
2	0	0	1	1	5357,34	2,54486537	2,54557538	-0,031610267789801696	7	0,0127305603	8,04663214E-005
2	0	0	1	1	5358,59	2,53236461	2,53284431	-0,031833592540351674	7	0,0126904007	8,06295357E-005
2	0	0	0	1	5359,84	2,51986361	2,52041388	-0,032122189722334496	7	0,0126499813	8,09612102E-005
2	0	0	0	1	5361,09	2,5073626	2,50784326	-0,03239708736267255	7	0,0126092779	8,12468206E-005
2	0	0	1	1	5362,34	2,49486089	2,49519205	-0,032626575584521978	7	0,0125683453	8,14095692E-005
2	0	0	1	1	5363,59	2,4823606	2,48275208	-0,03298233779302487	7	0,0125270532	8,18869667E-005
2	0	0	1	1	5364,84	2,46986008	2,47018933	-0,033259935972560992	7	0,0124854334	8,2158338E-005
2	0	0	0	1	5366,09	2,45735884	2,45765018	-0,033486835425719616	7	0,012443467	8,22989241E-005
2	0	0	0	1	5367,34	2,44485784	2,44534016	-0,033679060084977952	7	0,0124011524	8,23567607E-005
2	0	0	1	1	5368,59	2,43235683	2,43264937	-0,034012525167781971	7	0,0123584531	8,27405456E-005
2	0	0	1	1	5369,84	2,41985583	2,42048931	-0,034363080204154182	7	0,0123154009	8,3175466E-005
2	0	0	0	1	5371,09	2,40735483	2,40795851	-0,034696209273533894	7	0,0122719621	8,35470346E-005
2	0	0	0	1	5372,34	2,39485407	2,39516735	-0,034982220774206099	7	0,0122281509	8,37882762E-005
2	0	0	1	1	5373,59	2,38235331	2,3828373	-0,035244208469521197	7	0,0121839289	8,39812128E-005
2	0	0	1	1	5374,84	2,36985183	2,37033677	-0,035570502611032422	7	0,0121393101	8,43140733E-005
2	0	0	0	1	5376,09	2,35735106	2,3576355	-0,035970240540336845	7	0,0120942621	8,4804713E-005
2	0	0	0	1	5377,34	2,34485006	2,34528518	-0,036315884441137312	7	0,0120488182	8,51711084E-005
2	0	0	1	1	5378,59	2,3323493	2,33282495	-0,036715773176789869	7	0,0120029505	8,56514744E-005
2	0	0	1	1	5379,84	2,3198483	2,32030392	-0,036875784203099808	7	0,0119566554	8,55630278E-005
2	0	0	0	1	5381,09	2,3073473	2,30789399	-0,037277056466943347	7	0,0119099235	8,60314976E-005
2	0	0	0	1	5382,34	2,2948463	2,29540324	-0,037595630157739034	7	0,0118627539	8,62971283E-005
2	0	0	1	1	5383,59	2,28234529	2,28278255	-0,038036784681026003	7	0,0118151447	8,68297066E-005
2	0	0	1	1	5384,84	2,26984429	2,27031183	-0,038384542645265638	7	0,0117670801	8,71448792E-005
2	0	0	0	1	5386,09	2,25734353	2,25776124	-0,038747320950885069	7	0,0117185749	8,74821999E-005
2	0	0	0	1	5387,34	2,24484253	2,24530077	-0,039068530692020486	7	0,0116695929	8,77206039E-005
2	0	0	1	1	5388,59	2,23234153	2,23278999	-0,039462439977796774	7	0,0116201621	8,81113447E-005
2	0	0	1	1	5389,84	2,21984053	2,22040987	-0,03989197741611872	7	0,0115702543	8,85765403E-005
2	0	0	1	1	5391,09	2,20734048	2,20791101	-0,040304020819730112	7	0,0115198912	8,89876901E-005
2	0	0	0	1	5392,34	2,19483876	2,19520807	-0,040669903275556838	7	0,011469027	8,9278903E-005
2	0	0	0	1	5393,59	2,182338	2,18273759	-0,040907765864782733	7	0,0114177242	8,92909156E-005
2	0	0	1	1	5394,84	2,16983652	2,17037725	-0,041313774495696122	7	0,0113658905	8,96664787E-005
2	0	0	1	1	5396,09	2,15733576	2,1578567	-0,041759520041523501	7	0,01131358	9,01110616E-005
2	0	0	0	1	5397,34	2,14483476	2,14526558	-0,042222135351039469	7	0,011260747	9,05776906E-005
2	0	0	0	1	5398,59	2,13233399	2,13259506	-0,042640293696119322	7	0,0112074241	9,09344817E-005
2	0	0	1	1	5399,84	2,11983299	2,12027454	-0,042950284211353165	7	0,0111535657	9,10663948E-005
2	0	0	0	1	5400,64	2,11183286	2,11197495	-0,043343717853228326	7	0,0111189485	9,15408455E-005