File: Experimentelles/Rohdaten/Batterietests/AlteZelle/Studenten_Batterietests/LLTO_LP30_Li CV/ECLab-Export/LLTO_LP30_Li_02_CV_C01_loop2.mpt
EC-Lab ASCII FILE
Nb header lines : 3
mode	ox/red	error	control changes	counter inc.	time/s	control/V	Ewe/V	<I>/mA	cycle number	(Q-Qo)/C	P/W
2	0	0	1	0	2080,30	2,10933256	2,10988975	-0,046189095824956896	3	0	9,74538998E-005
2	0	0	0	0	2081,53	2,09703088	2,09758902	-0,04272215722206352	3	-5,30273137E-005	8,96135243E-005
2	0	0	0	0	2082,78	2,08452988	2,0852387	-0,043344314501155392	3	-0,000107228225	9,03832406E-005
2	0	0	1	0	2084,03	2,07202911	2,07239723	-0,043977632245514541	3	-0,000162199853	9,11391253E-005
2	0	0	1	0	2085,28	2,05952811	2,05997729	-0,044549655722221472	3	-0,000217864173	9,17712823E-005
2	0	0	0	0	2086,53	2,04702735	2,04755664	-0,045134317896251219	3	-0,000274230784	9,24150736E-005
2	0	0	0	0	2087,78	2,03452635	2,03482533	-0,04572581019601785	3	-0,000331243733	9,30440365E-005
2	0	0	1	0	2089,03	2,02202535	2,0223949	-0,04622352156244841	3	-0,000388934248	9,34822165E-005
2	0	0	1	0	2090,28	2,00952435	2,0099144	-0,046606545753699379	3	-0,000447279337	9,36751676E-005
2	0	0	0	0	2091,53	1,99702334	1,99744415	-0,047201436410735571	3	-0,000506318524	9,42822298E-005
2	0	0	0	0	2092,78	1,98452246	1,98484313	-0,04776891058039223	3	-0,000566011935	9,48137967E-005
2	0	0	1	0	2094,03	1,97202146	1,97252309	-0,048393241925320243	3	-0,000626428111	9,54567877E-005
2	0	0	1	0	2095,28	1,95952058	1,95994222	-0,048965830375285178	3	-0,000687535794	9,59702011E-005
2	0	0	0	0	2096,53	1,94701958	1,94742155	-0,04949611580620217	3	-0,00074939552	9,63898055E-005
2	0	0	0	0	2097,78	1,93451858	1,93510139	-0,050079649566517562	3	-0,00081198418	9,69091998E-005
2	0	0	1	0	2099,03	1,92201769	1,92271113	-0,05073061094541753	3	-0,000875333906	9,75403091E-005
2	0	0	1	0	2100,28	1,90951669	1,91003001	-0,051372538475940813	3	-0,000939418911	9,81230914E-005
2	0	0	1	0	2101,53	1,89701545	1,8972882	-0,052065054348996	3	-0,00100430625	9,87824169E-005
2	0	0	0	0	2102,78	1,88451493	1,88504899	-0,052627268247306566	3	-0,00106998137	9,92049754E-005
2	0	0	0	0	2104,03	1,87201381	1,87240791	-0,053265167497253632	3	-0,00113650563	9,97341194E-005
2	0	0	1	0	2105,28	1,85951293	1,86007798	-0,054004051218119712	3	-0,00120392931	0,000100451747
2	0	0	1	0	2106,53	1,84701192	1,84753716	-0,054834468969299219	3	-0,00127227989	0,000101308717
2	0	0	0	0	2107,78	1,83451092	1,83496654	-0,055657830593797306	3	-0,00134163594	0,00010213026
2	0	0	0	0	2109,03	1,82201004	1,8223356	-0,056547082145698368	3	-0,00141200563	0,000103047758
2	0	0	1	0	2110,28	1,80950904	1,80999541	-0,057317820300037734	3	-0,00148351258	0,000103744991
2	0	0	1	0	2111,53	1,79700804	1,79720402	-0,058377708502424294	3	-0,00155614852	0,000104916653
2	0	0	0	0	2112,78	1,78450727	1,78506422	-0,059384078757527053	3	-0,00163003616	0,000106004394
2	0	0	0	0	2114,03	1,77200615	1,77269399	-0,060500116048691098	3	-0,00170515501	0,00010724819
2	0	0	1	0	2115,28	1,75950527	1,76003313	-0,061593639082275328	3	-0,00178170565	0,000108406843
2	0	0	1	0	2116,53	1,74700439	1,7472719	-0,062745311666124954	3	-0,0018597343	0,000109633118
2	0	0	0	0	2117,78	1,73450327	1,73468101	-0,064119475505625357	3	-0,00193942664	0,000111226836
2	0	0	0	0	2119,03	1,72200239	1,72235084	-0,065617559768725299	3	-0,00202085543	0,00011301646
2	0	0	1	0	2120,28	1,70950139	1,71007085	-0,06719170415696407	3	-0,00210422068	0,000114902577
2	0	0	1	0	2121,53	1,69700038	1,69740987	-0,068861530337017139	3	-0,00218954519	0,000116886244
2	0	0	0	0	2122,78	1,68449962	1,68478906	-0,070501506250972454	3	-0,00227700081	0,000118780168
2	0	0	0	0	2124,03	1,6719985	1,67263925	-0,072179916198365389	3	-0,00236660475	0,000120730961
2	0	0	1	0	2125,28	1,65949762	1,65983784	-0,073972270125523264	3	-0,00245841406	0,000122781974
2	0	0	1	0	2126,53	1,64699674	1,64706659	-0,075847164475514483	3	-0,0025524206	0,000124925326
2	0	0	0	0	2127,78	1,63449562	1,63499713	-0,077832407027017331	3	-0,00264879479	0,000127255757
2	0	0	0	0	2129,03	1,62199473	1,62258661	-0,07986588834319264	3	-0,002747647	0,000129589316
2	0	0	0	0	2130,28	1,60949397	1,60998583	-0,082083954572832627	3	-0,00284932321	0,000132154004
2	0	0	1	0	2131,53	1,59699273	1,59763575	-0,08483275260853929	3	-0,00295416196	0,000135531838
2	0	0	1	0	2132,78	1,58449197	1,58503497	-0,088050843294089293	3	-0,00306268735	0,000139563665
2	0	0	0	0	2134,03	1,57199085	1,57246411	-0,091851263151814579	3	-0,00317554246	0,000144432808
2	0	0	0	0	2135,28	1,55949008	1,56004381	-0,096715477605660902	3	-0,00329376757	0,000150880383
2	0	0	1	0	2136,57	1,54658914	1,5469017	-0,10279993336492542	3	-0,0034227944	0,000159021394
2	0	0	1	0	2137,82	1,53408813	1,53435087	-0,11077305127400926	3	-0,00355657516	0,000169964726
2	0	0	0	0	2139,07	1,52158725	1,52205086	-0,12086382958417195	3	-0,0037015148	0,000183960889
2	0	0	0	0	2140,32	1,50908625	1,50950003	-0,13360932872941155	3	-0,00386063848	0,000201683288
2	0	0	1	0	2141,57	1,49658525	1,4969393	-0,14931157347746259	3	-0,00403746078	0,00022351036
2	0	0	1	0	2142,82	1,48408437	1,48441875	-0,16816140889810992	3	-0,00423584785	0,000249621953
2	0	0	0	0	2144,07	1,47158337	1,47192812	-0,19011307135224432	3	-0,00445974711	0,000279832777
2	0	0	0	0	2145,32	1,45908248	1,45960796	-0,21517506490151094	3	-0,00471309014	0,000314071251
2	0	0	1	0	2146,57	1,44658148	1,44724774	-0,24298770578267715	3	-0,00499963108	0,000351663417
2	0	0	1	0	2147,82	1,43408048	1,4344666	-0,27328431940016685	3	-0,00532245217	0,000392017217
2	0	0	0	0	2149,07	1,4215796	1,42201591	-0,30556970842493139	3	-0,00568445213	0,000434524991
2	0	0	0	0	2150,32	1,4090786	1,4093852	-0,3393560680560761	3	-0,00608770922	0,000478283415
2	0	0	1	0	2151,57	1,3965776	1,39723539	-0,37414089411807706	3	-0,00653404929	0,000522762886
2	0	0	1	0	2152,82	1,38407671	1,384444	-0,40986570979778867	3	-0,00702441391	0,000567436102
2	0	0	0	0	2154,07	1,37157571	1,37214398	-0,44588441432764013	3	-0,00755974092	0,000611817639
2	0	0	0	0	2155,32	1,35907483	1,35938263	-0,48213878134265542	3	-0,00814008527	0,000655411102
2	0	0	1	0	2156,57	1,34657383	1,34706271	-0,51815457828343091	3	-0,00876577385	0,000697986688
2	0	0	1	0	2157,82	1,33407283	1,3342613	-0,55390693076575827	3	-0,00943624135	0,000739056559
2	0	0	1	0	2159,07	1,32157111	1,32195997	-0,58918043260006848	3	-0,0101513024	0,000778872927
2	0	0	0	0	2160,32	1,30907094	1,30941045	-0,62388158263638438	3	-0,0109100891	0,000816917047
2	0	0	0	0	2161,57	1,29656994	1,29703021	-0,65804769610985933	3	-0,0117118452	0,000853507721
2	0	0	1	0	2162,82	1,28406906	1,28448963	-0,69157504197210074	3	-0,0125559624	0,000888320967
2	0	0	1	0	2164,07	1,27156806	1,27227962	-0,72406691607709005	3	-0,0134413159	0,000921215571
2	0	0	0	0	2165,32	1,25906718	1,25962865	-0,75669155859699085	3	-0,0143673383	0,000953150389
2	0	0	0	0	2166,57	1,24656618	1,24715817	-0,79120806076874214	3	-0,015335096	0,000986761646
2	0	0	1	0	2167,82	1,23406518	1,23437679	-0,82776590219388352	3	-0,0163474437	0,00102177507
2	0	0	1	0	2169,07	1,22156429	1,22196651	-0,86524281588693517	3	-0,0174060576	0,00105729769
2	0	0	0	0	2170,32	1,20906329	1,20954609	-0,90273640149583834	3	-0,0185117014	0,00109190133
2	0	0	0	0	2171,57	1,19656229	1,19690514	-0,93843036144971942	3	-0,0196631327	0,00112321216
2	0	0	1	0	2172,82	1,18406141	1,1845448	-0,97220233517388262	3	-0,0208582953	0,00115161727
2	0	0	1	0	2174,11	1,17116046	1,17163336	-1,0044400915503485	3	-0,0221342631	0,0011768355
2	0	0	0	0	2175,36	1,15865946	1,15906262	-1,0333197368308885	3	-0,023409009	0,00119768223
2	0	0	0	0	2176,61	1,14615846	1,14660215	-1,0600322516014178	3	-0,0247182846	0,00121543522
2	0	0	1	0	2177,86	1,13365757	1,13402128	-1,0838139019906542	3	-0,0260592103	0,00122906803
2	0	0	1	0	2179,11	1,12115645	1,12176132	-1,1050940522303226	3	-0,027428098	0,00123965181
2	0	0	0	0	2180,36	1,10865569	1,10911036	-1,1237472534800546	3	-0,0288221482	0,00124635966
2	0	0	0	0	2181,61	1,09615469	1,09683025	-1,1400053147226608	3	-0,030237725	0,00125039229
2	0	0	1	0	2182,87	1,08365369	1,08394873	-1,1539227670679448	3	-0,0316725075	0,00125079311
2	0	0	1	0	2184,12	1,07115281	1,07150841	-1,1661744148780901	3	-0,0331233479	0,00124956574
2	0	0	0	0	2185,37	1,0586518	1,05905783	-1,1759968949481862	3	-0,0345880724	0,00124544872
2	0	0	0	0	2186,62	1,0461508	1,04665756	-1,183746652367212	3	-0,0360637307	0,00123897742
2	0	0	0	0	2187,87	1,0336498	1,03417671	-1,1895322571558946	3	-0,0375479981	0,00123018655
2	0	0	1	0	2189,12	1,02114892	1,02154613	-1,1933355654279403	3	-0,0390382633	0,00121904735
2	0	0	1	0	2190,37	1,00864804	1,00906551	-1,1946338812510078	3	-0,0405314378	0,00120546389
2	0	0	0	0	2191,62	0,996147156	0,996474683	-1,1934822856759034	3	-0,0420250148	0,00118927483
2	0	0	0	0	2192,87	0,983646214	0,983853877	-1,1900331921254677	3	-0,0435155481	0,00117081881
2	0	0	1	0	2194,12	0,971145272	0,971503615	-1,1839521927759051	3	-0,0450002514	0,00115021388
2	0	0	1	0	2195,37	0,958644271	0,959153354	-1,175254578391713	3	-0,0464754552	0,00112724933
2	0	0	0	0	2196,62	0,946143329	0,946612716	-1,1639864050472824	3	-0,0479382351	0,00110184436
2	0	0	0	0	2197,87	0,933642387	0,934252501	-1,1502953323846122	3	-0,0493850634	0,00107466627
2	0	0	1	0	2199,12	0,921141446	0,921631575	-1,1347520106161646	3	-0,0508137792	0,00104582333
2	0	0	1	0	2200,37	0,908640444	0,909000695	-1,1182181040445939	3	-0,0522221774	0,00101646106
2	0	0	0	0	2201,62	0,896139503	0,896600306	-1,1024130377918517	3	-0,0536105558	0,000988423824
2	0	0	0	0	2202,87	0,883638561	0,884129822	-1,0895569212734779	3	-0,0549804717	0,00096330978
2	0	0	1	0	2204,12	0,871137619	0,871689379	-1,0825338074937498	3	-0,0563377142	0,000943633204
2	0	0	1	0	2205,37	0,858636618	0,858797848	-1,0845530815422571	3	-0,057691399	0,000931411865
2	0	0	0	0	2206,62	0,846135676	0,846417487	-1,0966254556551584	3	-0,0590540692	0,000928202935
2	0	0	0	0	2207,87	0,833634734	0,833926976	-1,120220288944739	3	-0,0604388677	0,00093418191
2	0	0	1	0	2209,12	0,821133792	0,821466446	-1,1541311924035381	3	-0,0618598871	0,000948080036
2	0	0	1	0	2210,37	0,808632791	0,809066176	-1,1972287464886869	3	-0,0633291677	0,000968637294
2	1	0	0	0	2211,56	0,803332388	0,803522527	-1,1730554004510277	3	-0,064770259	0,000942576444
2	1	0	0	0	2212,81	0,815833449	0,816243649	-0,98499330195287629	3	-0,0661147982	0,000803994539
2	1	0	1	0	2214,06	0,828334272	0,828473628	-0,82288030690203405	3	-0,0672419667	0,000681734644
2	1	0	1	0	2215,31	0,840835154	0,841064453	-0,67792574812968627	3	-0,0681776181	0,000570179254
2	1	0	0	0	2216,56	0,853336215	0,853735447	-0,54598798369989152	3	-0,0689408332	0,000466129306
2	1	0	0	0	2217,85	0,866237164	0,866697252	-0,42149893225480992	3	-0,0695631802	0,000365311978
2	1	0	1	0	2219,10	0,878738105	0,879057348	-0,30953723083560691	3	-0,070018664	0,000272100966
2	1	0	1	0	2220,35	0,891239047	0,891768515	-0,20516596036031843	3	-0,0703390464	0,000182960546
2	1	0	1	0	2221,60	0,903740823	0,904059649	-0,10742931999968829	3	-0,0705332607	9,71225163E-005
2	1	0	0	0	2222,89	0,916641057	0,917140663	-0,012773135075500874	3	-0,0706096962	1,1714762E-005
2	1	0	0	0	2224,14	0,929142058	0,9296211	0,073711269612734669	3	-0,0705706626	6,852355E-005
2	1	0	1	0	2225,43	0,942042887	0,942592919	0,15831861823486771	3	-0,0704199597	0,000149230007
2	1	0	1	0	2226,68	0,954543948	0,954963148	0,23635926268373898	3	-0,0701723397	0,000225714379
2	1	0	0	0	2227,93	0,96704483	0,96777451	0,31109752599149901	3	-0,0698291808	0,000301072258
2	1	0	0	0	2229,18	0,979545772	0,979964316	0,38281951410074912	3	-0,0693946034	0,000375149451
2	1	0	1	0	2230,43	0,992046714	0,992434919	0,45035766499737926	3	-0,0688727945	0,000446950668
2	1	0	1	0	2231,68	1,00454772	1,00499558	0,51060061389580461	3	-0,0682707503	0,000513151346
2	1	0	0	0	2232,93	1,0170486	1,01761639	0,55736309460674758	3	-0,0676008835	0,000567181793
2	1	0	0	0	2234,18	1,0295496	1,02996671	0,58472066295022707	3	-0,066884242	0,000602242828
2	1	0	1	0	2235,43	1,0420506	1,04257762	0,58963220038761574	3	-0,066147387	0,000614737335
2	1	0	1	0	2236,68	1,05455148	1,05486763	0,57696531387045978	3	-0,0654165745	0,000608622038
2	1	0	0	0	2237,93	1,06705248	1,067729	0,55746860088159968	3	-0,0647069439	0,00059522537
2	1	0	0	0	2239,18	1,07955337	1,08002925	0,54094641376286835	3	-0,0640206784	0,000584237976
2	1	0	1	0	2240,43	1,09205437	1,09247959	0,53126423542077197	3	-0,0633507669	0,000580395339
2	1	0	1	0	2241,68	1,10455537	1,10510051	0,52861463309576307	3	-0,0626885667	0,000584172318
2	1	0	0	0	2242,93	1,11705625	1,1175108	0,53189160690332749	3	-0,0620257184	0,000594394631
2	1	0	0	0	2244,18	1,12955725	1,13008165	0,53997845388948653	3	-0,0613558628	0,000610219722
2	1	0	1	0	2245,43	1,14205813	1,14265239	0,55170846497639834	3	-0,0606733896	0,00063041097
2	1	0	1	0	2246,68	1,15455914	1,15518308	0,56625795317813664	3	-0,0599744581	0,000654131582
2	1	0	0	0	2247,93	1,16706014	1,16740286	0,58332921098917811	3	-0,05925541	0,000680980214
2	1	0	0	0	2249,18	1,17956102	1,1802243	0,60221147242312486	3	-0,0585140251	0,000710744585
2	1	0	1	0	2250,43	1,19206202	1,19265473	0,62248897319659814	3	-0,0577480346	0,000742414442
2	1	0	1	0	2251,68	1,20456302	1,20503509	0,64387292523557798	3	-0,0569562241	0,000775889494
2	1	0	1	0	2252,93	1,21706367	1,21756566	0,66574434574810586	3	-0,0561371446	0,000810587429
2	1	0	0	0	2254,18	1,22956491	1,22995603	0,68820919794961805	3	-0,0552902035	0,000846467039
2	1	0	0	0	2255,43	1,24206579	1,24261713	0,71114940320451763	3	-0,0544150248	0,000883686414
2	1	0	1	0	2256,68	1,25456679	1,2550174	0,73341260322679782	3	-0,0535114445	0,0009204456
2	1	0	1	0	2257,93	1,26706779	1,2675581	0,75529408066843738	3	-0,0525803752	0,000957379118
2	1	0	0	0	2259,18	1,27956867	1,27996838	0,77669854446624691	3	-0,051621858	0,000994149595
2	1	0	0	0	2260,43	1,29206967	1,29255927	0,79733005072921165	3	-0,0506373383	0,00103059632
2	1	0	1	0	2261,68	1,30457067	1,30499971	0,81722917159398272	3	-0,0496273376	0,00106648379
2	1	0	1	0	2262,93	1,31707156	1,3176707	0,83644299053897165	3	-0,0485930294	0,00110215647
2	1	0	0	0	2264,18	1,32957256	1,32981038	0,85474154166877274	3	-0,0475352183	0,00113664416
2	1	0	0	0	2265,43	1,34207344	1,34243131	0,87432320136576627	3	-0,0464533754	0,00117371883
2	1	0	1	0	2266,68	1,35457444	1,35512221	0,89074507883439578	3	-0,0453494936	0,00120706845
2	1	0	1	0	2267,93	1,36707544	1,36738241	0,90630332566797018	3	-0,0442258269	0,00123926322
2	1	0	0	0	2269,18	1,37957633	1,38005328	0,92092500564952934	3	-0,0430831239	0,00127092563
2	1	0	0	0	2270,43	1,39207733	1,3925941	0,93483664498974234	3	-0,0419228934	0,00130184798
2	1	0	1	0	2271,68	1,40457833	1,40506446	0,9480225636313353	3	-0,040745642	0,00133203284
2	1	0	1	0	2272,93	1,41707921	1,41756511	0,96024026597539341	3	-0,0395525768	0,00136120315
2	1	0	0	0	2274,18	1,42958021	1,43010581	0,97298743606855526	3	-0,0383438803	0,00139147497
2	1	0	0	0	2275,43	1,44208109	1,44239593	0,99075745170314982	3	-0,0371171497	0,00142906455
2	1	0	1	0	2276,71	1,45488203	1,45545781	1,0158710367977629	3	-0,0358328074	0,00147855747
2	1	0	1	0	2277,96	1,46738303	1,46773791	1,0450041011596731	3	-0,0345448367	0,00153379212
2	1	0	0	0	2279,21	1,47988403	1,48039889	1,0771734320248107	3	-0,0332179442	0,00159464637
2	1	0	0	0	2280,46	1,49238491	1,49268889	1,1094276141375339	3	-0,0318506993	0,0016560303
2	1	0	0	0	2281,71	1,50488567	1,50542879	1,1379553997368373	3	-0,0304449163	0,00171311083
2	1	0	1	0	2282,96	1,51738691	1,51783049	1,1612478292857578	3	-0,0290066693	0,00176257733
2	1	0	1	0	2284,21	1,5298878	1,53029096	1,1778095001354813	3	-0,0275436118	0,00180239126
2	1	0	0	0	2285,46	1,54238868	1,5428617	1,186396625513833	3	-0,0260645114	0,00183044595
2	1	0	0	0	2286,71	1,55488968	1,55520189	1,1844564853236133	3	-0,0245811939	0,00184206897
2	1	0	1	0	2287,96	1,56739056	1,5676924	1,1688498274112754	3	-0,0231083389	0,00183239696
2	1	0	1	0	2289,21	1,57989144	1,58030331	1,1369436789924912	3	-0,0216650218	0,00179671589
2	1	0	0	0	2290,46	1,59239256	1,59284389	1,0883611446867394	3	-0,0202719439	0,00173358945
2	1	0	0	0	2291,71	1,60489333	1,60541475	1,0231858038653918	3	-0,0189503096	0,00164263754
2	1	0	1	0	2292,96	1,61739457	1,61800551	0,94150527442494797	3	-0,0177205764	0,00152336073
2	1	0	1	0	2294,21	1,62989545	1,63019538	0,84523397156347802	3	-0,0166025124	0,00137789652
2	1	0	0	0	2295,46	1,64239621	1,64271605	0,74029923044145114	3	-0,0156105012	0,00121610146
2	1	0	0	0	2296,71	1,65489733	1,65534687	0,62996304733678694	3	-0,0147531182	0,00104280736
2	1	0	1	0	2297,96	1,66739821	1,66801786	0,5031248360561833	3	-0,0140424753	0,000839221233
2	1	0	1	0	2299,25	1,68029916	1,68079913	0,34978080238215622	3	-0,0134913437	0,000587911287
2	1	0	0	0	2300,50	1,69280016	1,69325972	0,22218847949989053	3	-0,013138731	0,000376222801
2	1	0	0	0	2301,75	1,70530117	1,70577037	0,14753383755063011	3	-0,012912998	0,000251658843
2	1	0	1	0	2303,00	1,71780205	1,71836102	0,11445096690052515	3	-0,0127518773	0,000196668087
2	1	0	1	0	2304,25	1,73030305	1,73072135	0,099440416243548045	3	-0,0126187271	0,000172103653
2	1	0	0	0	2305,50	1,74280405	1,7434926	0,09060657666608041	3	-0,012499894	0,000157971896
2	1	0	0	0	2306,75	1,75530493	1,75580287	0,084306220310584653	3	-0,012390391	0,000148025109
2	1	0	1	0	2308,01	1,76780593	1,76843357	0,079426725763672269	3	-0,0122878253	0,000140460892
2	1	0	1	0	2309,26	1,78030682	1,78085411	0,075315575192992806	3	-0,0121907964	0,00013412605
2	1	0	0	0	2310,51	1,79280782	1,79297376	0,071878780745125107	3	-0,0120984139	0,000128876767
2	1	0	0	0	2311,76	1,80530882	1,80566478	0,069067711612054822	3	-0,0120099299	0,000124713129
2	1	0	0	0	2313,01	1,8178097	1,8182255	0,066594847148128858	3	-0,0119247995	0,000121084449
2	1	0	1	0	2314,26	1,8303107	1,83074594	0,064412257265454848	3	-0,0118425936	0,000117922478
2	1	0	1	0	2315,51	1,8428117	1,84317648	0,06235316616948672	3	-0,011763012	0,000114927891
2	1	0	0	0	2316,76	1,85531259	1,85589767	0,060532945926145984	3	-0,0116857169	0,000112342954
2	1	0	0	0	2318,01	1,86781359	1,86830807	0,058947263033284352	3	-0,0116105201	0,000110131645
2	1	0	1	0	2319,26	1,88031447	1,88079858	0,057542731888437062	3	-0,0115371505	0,00010822629
2	1	0	1	0	2320,51	1,89281547	1,89335942	0,056287681082418886	3	-0,0114654796	0,000106572814
2	1	0	0	0	2321,76	1,90531647	1,90584993	0,055197083080808173	3	-0,0113952952	0,00010519736
2	1	0	0	0	2323,01	1,91781735	1,91831028	0,054239509394392371	3	-0,011326489	0,000104048209
2	1	0	1	0	2324,26	1,93031836	1,9308511	0,053321616995769094	3	-0,0112588862	0,000102956103
2	1	0	1	0	2325,51	1,94281936	1,94315124	0,05252345990932841	3	-0,0111924056	0,000102061029
2	1	0	0	0	2326,76	1,95532024	1,95576203	0,051844876492395981	3	-0,0111268889	0,000101396239
2	1	0	0	0	2328,01	1,96782124	1,96824253	0,051211668741113158	3	-0,0110622616	0,000100796984
2	1	0	1	0	2329,26	1,98032212	1,98094368	0,050508341034098067	3	-0,0109983739	0,000100054182
2	1	0	1	0	2330,51	1,99282312	1,99327385	0,049968709761742502	3	-0,0109351957	9,96013259E-005
2	1	0	0	0	2331,80	2,00572419	2,00610518	0,049517822781732781	3	-0,0108706215	9,93379581E-005
2	1	0	0	0	2333,05	2,01822519	2,01864576	0,04900221414087991	3	-0,0108087016	9,89181135E-005
2	1	0	1	0	2334,30	2,03072596	2,03135681	0,048611077402407885	3	-0,0107473601	9,87464446E-005
2	1	0	1	0	2335,55	2,04322672	2,04371715	0,048210806494656314	3	-0,0106865922	9,852925E-005
2	1	0	0	0	2336,80	2,05572772	2,0561676	0,047798466538855053	3	-0,0106263282	9,82816564E-005
2	1	0	0	0	2338,05	2,06822896	2,06863809	0,047318890729608646	3	-0,0105665559	9,78856624E-005
2	1	0	1	0	2339,30	2,08072996	2,0811286	0,047038319326626611	3	-0,0105072102	9,78927928E-005
2	1	0	1	0	2340,55	2,09323072	2,09373951	0,04670669584690279	3	-0,0104483012	9,7791657E-005
2	1	0	1	0	2341,80	2,10573077	2,10634995	0,046540774238579206	3	-0,0103897359	9,80311597E-005
2	1	0	0	0	2343,05	2,11823249	2,11861038	0,046302819129778074	3	-0,0103314789	9,80976329E-005
2	1	0	0	0	2344,30	2,13073301	2,13108063	0,046008709401071046	3	-0,0102734948	9,80482728E-005
2	1	0	1	0	2345,55	2,14323449	2,14342117	0,045756964488342765	3	-0,0102157509	9,80764453E-005
2	1	0	1	0	2346,80	2,15573549	2,15624237	0,045683638551660467	3	-0,0101582324	9,85049992E-005
2	1	0	0	0	2348,05	2,16823626	2,1687429	0,045527703313079373	3	-0,0101008918	9,87378808E-005
2	1	0	0	0	2349,30	2,18073726	2,18123364	0,045525077856533728	3	-0,0100437263	9,93008289E-005
2	1	0	1	0	2350,55	2,19323826	2,19370413	0,045296706104030266	3	-0,00998667255	9,93675712E-005
2	1	0	1	0	2351,80	2,2057395	2,20621467	0,045194343421220198	3	-0,00992976036	9,97084207E-005
2	1	0	0	0	2353,05	2,21824026	2,21870565	0,045169024970770413	3	-0,00987289473	0,00010021677
2	1	0	0	0	2354,30	2,23074126	2,23124623	0,045189045815883898	3	-0,009816112	0,000100827885
2	1	0	1	0	2355,55	2,24324203	2,24367642	0,045207577951562995	3	-0,00975934416	0,000101431178
2	1	0	1	0	2356,80	2,25574303	2,2562573	0,045194048628521363	3	-0,00970261171	0,000101969403
2	1	0	0	0	2358,05	2,26824403	2,26877809	0,045092943590134464	3	-0,00964583084	0,000102305879
2	1	0	0	0	2359,30	2,28074527	2,28139901	0,045184639049694106	3	-0,00958901271	0,000103084189
2	1	0	1	0	2360,55	2,29324603	2,29378915	0,04530031876250473	3	-0,0095320791	0,000103909377
2	1	0	1	0	2361,80	2,30574679	2,30624962	0,045450677260911789	3	-0,00947504211	0,00010482061
2	1	0	0	0	2363,05	2,3182478	2,31859994	0,045637504673019526	3	-0,00941781327	0,000105815117
2	1	0	0	0	2364,30	2,3307488	2,33123064	0,045691787536876691	3	-0,0093603991	0,000106518099
2	1	0	1	0	2365,55	2,3432498	2,34352088	0,045848597859730835	3	-0,00930275861	0,000107447144
2	1	0	1	0	2366,80	2,3557508	2,35604143	0,046039038822830893	3	-0,00924494211	0,000108469882
2	1	0	1	0	2368,05	2,36825109	2,36856174	0,046217166859393587	3	-0,00918691419	0,000109468216
2	1	0	0	0	2369,30	2,38075256	2,38121295	0,046440174240463763	3	-0,00912870653	0,000110583947
2	1	0	0	0	2370,55	2,39325356	2,39369416	0,046507549289375782	3	-0,00907025766	0,000111324851
2	1	0	1	0	2371,80	2,40575457	2,40620446	0,046666697016917005	3	-0,00901158154	0,000112289614
2	1	0	1	0	2373,05	2,41825581	2,41860509	0,046925854912661325	3	-0,00895256922	0,000113495109
2	1	0	0	0	2374,30	2,43075657	2,43133569	0,047232660464942458	3	-0,00889320672	0,000114838454
2	1	0	0	0	2375,55	2,44325733	2,4437561	0,047625281624884051	3	-0,00883340463	0,000116384574
2	1	0	1	0	2376,80	2,45575833	2,45619655	0,048076418024720627	3	-0,00877312385	0,000118085132
2	1	0	1	0	2378,05	2,46825933	2,46882772	0,048578728824698822	3	-0,00871230755	0,000119932512
2	1	0	0	0	2379,30	2,48076057	2,48116755	0,048999346249426368	3	-0,00865096785	0,000121575591
2	1	0	0	0	2380,55	2,49326134	2,49362826	0,04942884267074976	3	-0,00858911406	0,000123257152
2	1	0	1	0	2381,80	2,5057621	2,50643969	0,049832052337781875	3	-0,00852686167	0,000124901038
2	1	0	1	0	2383,05	2,5182631	2,5186193	0,050223466823808851	3	-0,00846412499	0,000126493789
2	1	0	0	0	2384,30	2,5307641	2,53125024	0,05044618749525376	3	-0,00840094127	0,000127691921
2	1	0	0	0	2385,55	2,5432651	2,5437808	0,050830187276005747	3	-0,0083372863	0,000129300854
2	1	0	1	0	2386,80	2,55576611	2,55633163	0,051245352350330451	3	-0,00827314518	0,00013100011
2	1	0	1	0	2388,05	2,56826687	2,56875181	0,051727388170547757	3	-0,00820847135	0,000132874819
2	1	0	0	0	2389,30	2,58076787	2,58146334	0,05219114451513929	3	-0,00814326853	0,000134729533
2	1	0	0	0	2390,55	2,59326887	2,59383321	0,052603278212094061	3	-0,00807749946	0,000136444127
2	1	0	1	0	2391,80	2,60576987	2,606354	0,052976022823713722	3	-0,00801115204	0,000138074276
2	1	0	1	0	2393,05	2,61827087	2,61892462	0,053554231281547571	3	-0,00794422254	0,000140254488
2	1	0	0	0	2394,30	2,63077188	2,63113451	0,054050637467298432	3	-0,0078766793	0,0001422145
2	1	0	0	0	2395,55	2,64327264	2,64383578	0,054651908382462963	3	-0,00780850044	0,000144490667
2	1	0	1	0	2396,80	2,65577364	2,65630603	0,055103866441641114	3	-0,00773965288	0,000146372739
2	1	0	1	0	2398,05	2,66827464	2,66878676	0,055589623244789613	3	-0,00767014222	0,000148356849
2	1	0	0	0	2399,30	2,68077588	2,68138838	0,056134124716379238	3	-0,00759990793	0,000150517386
2	1	0	0	0	2400,55	2,69327664	2,69378781	0,056787218568691347	3	-0,00752897607	0,000152972716
2	1	0	0	0	2401,80	2,70577717	2,7061677	0,057335438496143085	3	-0,00745732104	0,000155159316
2	1	0	1	0	2403,05	2,71827841	2,71877885	0,058047683502081779	3	-0,0073849461	0,000157818809
2	1	0	1	0	2404,30	2,73077941	2,73150015	0,058504146174527821	3	-0,007311814	0,000159804084
2	1	0	0	0	2405,55	2,74328041	2,74382019	0,059082010198229453	3	-0,00723795407	0,000162110417
2	1	0	0	0	2406,80	2,75578141	2,7563107	0,059743281259822349	3	-0,00716332719	0,000164671044
2	1	0	1	0	2408,05	2,76828218	2,76890182	0,060375324178797542	3	-0,00708797481	0,000167173348
2	1	0	1	0	2409,30	2,78078318	2,7811718	0,061033245719348544	3	-0,00701184617	0,000169743944
2	1	0	0	0	2410,55	2,79328418	2,79376245	0,061547251185402048	3	-0,00693495153	0,000171948399
2	1	0	0	0	2411,80	2,80578518	2,8062129	0,062132724929445658	3	-0,00685726851	0,000174357658
2	1	0	1	0	2413,05	2,81828618	2,81887388	0,062764429952949171	3	-0,00677882507	0,000176925008
2	1	0	1	0	2414,30	2,83078718	2,83130455	0,063459516522319181	3	-0,00669955136	0,000179673225
2	1	0	0	0	2415,55	2,84328794	2,84380484	0,064138481160625818	3	-0,00661947252	0,000182397329
2	1	0	0	0	2416,80	2,85578895	2,85635591	0,06478682750215159	3	-0,00653855037	0,000185054232
2	1	0	1	0	2418,05	2,86828995	2,86873603	0,065387217308549683	3	-0,00645679189	0,000187578669
2	1	0	1	0	2419,30	2,88079071	2,88147736	0,066095499690466906	3	-0,00637416355	0,000190452687
2	1	0	0	0	2420,55	2,89329195	2,89370728	0,066835232835728614	3	-0,006290677	0,000193401604
2	1	0	0	0	2421,80	2,90579271	2,90631819	0,067587389649512832	3	-0,00620628847	0,000196430454
2	1	0	1	0	2423,05	2,91829371	2,91879845	0,06829630651433632	3	-0,00612107944	0,000199343151
2	1	0	1	0	2424,30	2,93079472	2,93132901	0,068852782618098854	3	-0,00603493582	0,00020183016
2	1	0	0	0	2425,55	2,94329572	2,94381976	0,06953958485973993	3	-0,00594789442	0,000204712007
2	1	0	0	0	2426,80	2,95579672	2,95603967	0,070321453715829658	3	-0,00585994311	0,000207873003
2	1	0	1	0	2428,05	2,96829748	2,96866894	0,071094301440342016	3	-0,00577106141	0,000211055449
2	1	0	1	0	2429,30	2,98079848	2,98132157	0,071888541996789402	3	-0,00568118505	0,000214322863
2	1	0	1	0	2430,55	2,99329853	2,99377012	0,072772459377149824	3	-0,00559030985	0,000217864013
2	1	0	0	0	2431,80	3,00580025	3,00628257	0,073726897283146854	3	-0,00549835619	0,000221643888
2	1	0	0	0	2433,05	3,01830149	3,01860285	0,074597322556655744	3	-0,00540534826	0,000225179683
2	1	0	1	0	2434,30	3,03080249	3,03143406	0,075610312458593178	3	-0,00531117059	0,000229207682
2	1	0	1	0	2435,55	3,04330325	3,04378438	0,076602303287169664	3	-0,00521583622	0,000233160899
2	1	0	0	0	2436,80	3,05580401	3,05618477	0,07754761830437929	3	-0,00511926739	0,000236999855
2	1	0	0	0	2438,05	3,06830525	3,0689261	0,078418380309206886	3	-0,00502147153	0,000240660214
2	1	0	1	0	2439,31	3,08080602	3,08127594	0,079524562209068762	3	-0,00492236903	0,00024503711
2	1	0	1	0	2440,56	3,09330726	3,09378672	0,080596039246302323	3	-0,0048219841	0,000249346951
2	1	0	0	0	2441,81	3,10580802	3,10604668	0,081717471456310029	3	-0,00472024828	0,000253818289
2	1	0	0	0	2443,06	3,11830902	3,11868787	0,082809461338911091	3	-0,00461719092	0,000258256856
2	1	0	1	0	2444,31	3,13080978	3,13109779	0,083869323638888602	3	-0,00451271981	0,000262603047
2	1	0	1	0	2445,56	3,14331079	3,14369869	0,085038784018252045	3	-0,00440681307	0,00026733632
2	1	0	0	0	2446,81	3,15581179	3,15629935	0,086298077056805261	3	-0,00429939711	0,000272382575
2	1	0	0	0	2448,06	3,16831279	3,16880035	0,087615504802670298	3	-0,0041904375	0,000277636049
2	1	0	1	0	2449,31	3,18081379	3,18126082	0,088992430343447834	3	-0,00407982804	0,000283108122
2	1	0	1	0	2450,56	3,19331455	3,19378114	0,090275646691831411	3	-0,00396752264	0,000288320647
2	1	0	0	0	2451,81	3,20581555	3,20607162	0,091745155184374208	3	-0,00385339675	0,00029414153
2	1	0	0	0	2453,06	3,21831656	3,21882248	0,093255994026548941	3	-0,00373739167	0,000300174492
2	1	0	0	0	2454,31	3,2308166	3,23152351	0,095023470122457715	3	-0,00361938751	0,000307070586
2	1	0	1	0	2455,56	3,24331856	3,24416447	0,096762470163715085	3	-0,00349923177	0,000313913362
2	1	0	1	0	2456,81	3,25581861	3,25647306	0,098650972517031475	3	-0,0033768178	0,000321254221
2	1	0	0	0	2458,10	3,26872015	3,26928592	0,10071523790247739	3	-0,00324791041	0,000329266913
2	1	0	1	0	2459,35	3,28122187	3,28147531	0,10277544821311568	3	-0,00312035088	0,0003372551
2	1	0	1	0	2460,60	3,29372239	3,2942071	0,10511326615232941	3	-0,00298999855	0,00034626486
2	1	0	1	0	2461,85	3,30622339	3,3066175	0,10758457608365734	3	-0,0028567072	0,000355741038
2	1	0	0	0	2463,10	3,31872439	3,31914783	0,11021951900329397	3	-0,00272023794	0,000365834887
2	1	0	0	0	2464,35	3,33122516	3,33168864	0,11307160812430062	3	-0,00258038961	0,000376719399
2	1	0	1	0	2465,60	3,34372592	3,34410906	0,11592820290631301	3	-0,00243693148	0,000387676555
2	1	0	1	0	2466,85	3,35622668	3,35664964	0,11894782306626416	3	-0,00228970754	0,000399266166
2	1	0	0	0	2468,10	3,36872816	3,36938071	0,12234399149504771	3	-0,00213839766	0,000412223482
2	1	0	0	0	2469,35	3,38122916	3,38153076	0,12587703900256509	3	-0,00198286492	0,000425657083
2	1	0	1	0	2470,60	3,39372993	3,39446235	0,12961188917203482	3	-0,00182277593	0,000439962663
2	1	0	1	0	2471,85	3,40623069	3,40687275	0,13348538964055501	3	-0,00165798422	0,000454767724
2	1	0	0	0	2473,10	3,41873169	3,41913271	0,13750332430936374	3	-0,00148816104	0,000470142113
2	1	0	0	0	2474,35	3,43123293	3,43176341	0,1416592785778139	3	-0,00131325808	0,000486141129
2	1	0	1	0	2475,60	3,44373393	3,44415379	0,14598436964054941	3	-0,00113303168	0,000502792594
2	1	0	1	0	2476,85	3,45623493	3,45677471	0,15034234907943712	3	-0,000947479333	0,00051969965
2	1	0	0	0	2478,10	3,46873546	3,4689846	0,15483590463797235	3	-0,000756357855	0,000537123356
2	1	0	0	0	2479,35	3,48123646	3,48160553	0,15930997234924371	3	-0,000559571607	0,000554654456
2	1	0	1	0	2480,60	3,49373722	3,49423647	0,16411590265731024	3	-0,000356831995	0,00057345978
2	1	0	1	0	2481,85	3,5062387	3,50672698	0,1691114614562439	3	-0,000148006438	0,00059302774
2	1	0	0	0	2483,10	3,5187397	3,51929808	0,17436203810696816	3	6,72662281E-005	0,000613631972
2	1	0	0	0	2484,35	3,53124022	3,5316782	0,17978212768988032	3	0,000289136369	0,000634932599
2	1	0	1	0	2485,60	3,54374123	3,54425907	0,18550622820854202	3	0,000517979672	0,000657482131
2	1	0	1	0	2486,85	3,55624199	3,55673933	0,19146110051466726	3	0,000753988978	0,000680977246
2	1	0	1	0	2488,10	3,56874228	3,56934953	0,19762908429615946	3	0,000997520285	0,000705407292
2	1	0	0	0	2489,35	3,58124447	3,58209157	0,20402961208795478	3	0,00124890683	0,000730852771
2	1	0	0	0	2490,60	3,59374523	3,5941813	0,21061582643997712	3	0,00150830299	0,000756991445
2	1	0	1	0	2491,85	3,60624599	3,60665154	0,21720060294804355	3	0,00177596684	0,000783366908
2	1	0	1	0	2493,10	3,618747	3,61918235	0,22377550648525347	3	0,00205193995	0,000809884339
2	1	0	0	0	2494,35	3,63124776	3,63184309	0,23022325057536387	3	0,00233612815	0,000836134714
2	1	0	0	0	2495,60	3,64374924	3,64418364	0,23645955882966474	3	0,00262820721	0,000861702079
2	1	0	1	0	2496,85	3,65625024	3,65675426	0,24212054271871786	3	0,00292773708	0,00088537531
2	1	0	1	0	2498,10	3,66875076	3,66912484	0,24721752774591277	3	0,00323391566	0,000907071983
2	1	0	0	0	2499,35	3,68125176	3,68174529	0,25149676785804333	3	0,00354607776	0,000925947039
2	1	0	0	0	2500,60	3,69375253	3,69437623	0,25543365945729056	3	0,00386339216	0,000943668012
2	1	0	1	0	2501,85	3,70625401	3,70669603	0,25891887776864019	3	0,00418535527	0,000959733559
2	1	0	1	0	2503,10	3,71875501	3,71928716	0,26221029988179635	3	0,00451141549	0,000975235424
2	1	0	0	0	2504,35	3,73125553	3,7316978	0,26504554195950368	3	0,00484130485	0,000989069813
2	1	0	0	0	2505,60	3,74375653	3,74428844	0,26785957153576189	3	0,00517471367	0,00100294349
2	1	0	1	0	2506,85	3,7562573	3,75674868	0,27050923168038298	3	0,00551169273	0,00101623521
2	1	0	1	0	2508,10	3,7687583	3,76911902	0,27331922094648275	3	0,00585204549	0,00103017269
2	1	0	0	0	2509,35	3,78125978	3,78195047	0,27602835915361811	3	0,00619584555	0,00104392553
2	1	0	0	0	2510,60	3,79376054	3,79436111	0,2788483310335632	3	0,00654297555	0,00105805125
2	1	0	1	0	2511,85	3,8062613	3,80682158	0,28163736422235664	3	0,00689365342	0,0010721432
2	1	0	1	0	2513,10	3,8187623	3,819242	0,28447970367657581	3	0,00724784145	0,00108649686
2	1	0	1	0	2514,35	3,83126259	3,83179045	0,2875402663769009	3	0,00760578504	0,00110179407
2	1	0	0	0	2515,60	3,84376454	3,84419298	0,29073547998753766	3	0,00796755031	0,00111764332
2	1	0	0	0	2516,85	3,85626554	3,85686493	0,29404555866921101	3	0,00833336636	0,00113409397
2	1	0	1	0	2518,10	3,86876607	3,86909389	0,29743642491909216	3	0,00870330259	0,00115080946
2	1	0	1	0	2519,35	3,88126659	3,8817029	0,30072285934661824	3	0,00907752477	0,0011673168
2	1	0	0	0	2520,60	3,89376783	3,89437556	0,30429246354227194	3	0,00945619214	0,00118502916
2	1	0	0	0	2521,85	3,90626884	3,90669584	0,3080552469473328	3	0,0098393634	0,0012034782
2	1	0	1	0	2523,10	3,91877031	3,91946721	0,31185960521300646	3	0,0102272518	0,00122232351
2	1	0	1	0	2524,35	3,93127084	3,93153644	0,31589098748130163	3	0,0106199263	0,00124193693
2	1	0	0	0	2525,60	3,94377184	3,94419765	0,31976979621686086	3	0,0110176327	0,00126123533
2	1	0	0	0	2526,85	3,9562726	3,95674801	0,3239698644417017	3	0,0114204306	0,00128186715
2	1	0	1	0	2528,10	3,9687736	3,96951938	0,32825675816275315	3	0,0118285399	0,00130302156
2	1	0	1	0	2529,35	3,98127508	3,98177934	0,33246203271361715	3	0,0122419102	0,00132379041
2	1	0	0	0	2530,60	3,99377584	3,99456096	0,33664107392542138	3	0,0126605872	0,00134473329
2	1	0	0	0	2531,85	4,00627661	4,00695086	0,34075897916530566	3	0,0130843828	0,00136540446
2	1	0	1	0	2533,10	4,01877785	4,0193615	0,34464279422536582	3	0,0135133453	0,00138524396
2	1	0	1	0	2534,35	4,03127861	4,03191185	0,34874400054104627	3	0,0139473528	0,00140610512
2	1	0	0	0	2535,60	4,04377985	4,04438257	0,35289748548530042	3	0,0143865477	0,00142725243
2	1	0	0	0	2536,85	4,05628061	4,05680275	0,35689628318262611	3	0,014830756	0,00144785782
2	1	0	1	0	2538,10	4,06878138	4,06935358	0,36066388292238029	3	0,0152798947	0,00146766892
2	1	0	1	0	2539,35	4,08128262	4,08186436	0,3641738242780144	3	0,0157334432	0,00148650818
2	1	0	0	0	2540,60	4,0937829	4,094275	0,36710657683822048	3	0,0161909852	0,00150303531
2	1	0	0	0	2541,85	4,10628414	4,10668468	0,3695595032380279	3	0,0166517776	0,00151766441
2	1	0	1	0	2543,10	4,11878538	4,11925602	0,37155043217353434	3	0,0171153955	0,0015305113
2	1	0	1	0	2544,35	4,13128614	4,13177633	0,37337193638086317	3	0,0175812524	0,00154268928
2	1	0	0	0	2545,60	4,14378738	4,14448786	0,3750045693013808	3	0,0180493724	0,00155420194
2	1	0	0	0	2546,85	4,15628815	4,15702868	0,37688712372133984	3	0,0185196847	0,00156673056
2	1	0	1	0	2548,10	4,16878891	4,16935825	0,37911250193913658	3	0,0189926475	0,00158065581
2	1	0	1	0	2549,35	4,18129015	4,18205929	0,38176780473440838	3	0,0194685459	0,0015965756
2	1	0	0	0	2550,60	4,19379091	4,19426966	0,38486602413467974	3	0,0199480709	0,00161423185
2	0	0	0	1	2551,80	4,19419098	4,19488096	0,32820068835280659	3	0,0203914214	0,00137676287
2	0	0	1	1	2553,05	4,18168974	4,18220997	0,26430443682087024	3	0,0207582358	0,00110537664
2	0	0	1	1	2554,30	4,16918898	4,16982985	0,2199868859412768	3	0,0210589785	0,000917307858
2	0	0	0	1	2555,55	4,15668821	4,15705824	0,18677483196370371	3	0,0213118102	0,000776433852
2	0	0	0	1	2556,80	4,14418745	4,14487839	0,16081301646772771	3	0,0215277988	0,000666550419
2	0	0	1	1	2558,05	4,13168669	4,13214779	0,13991987697469699	3	0,0217146687	0,000578169595
2	0	0	1	1	2559,30	4,11918497	4,11986732	0,12280207235986952	3	0,021877896	0,000505928241
2	0	0	0	1	2560,55	4,10668421	4,10733652	0,10849455406423658	3	0,0220216326	0,000445623649
2	0	0	0	1	2561,80	4,09418344	4,09469604	0,096343154339895603	3	0,0221489184	0,000394495932
2	0	0	1	1	2563,06	4,08168221	4,08214474	0,085851519349186227	3	0,0222621746	0,000350458315
2	0	0	1	1	2564,31	4,06918144	4,06977463	0,076690687700950771	3	0,0223632343	0,000312113814
2	0	0	0	1	2565,56	4,0566802	4,05748463	0,068643515114671821	3	0,0224536359	0,000278520019
2	0	0	0	1	2566,81	4,04417992	4,04475403	0,061506814071132339	3	0,0225346014	0,000248779921
2	0	0	1	1	2568,06	4,0316782	4,03217411	0,055124688062043738	3	0,0226071849	0,000222272341
2	0	0	1	1	2569,35	4,01877785	4,01931143	0,049139368270213037	3	0,0226741508	0,000197506422
2	0	0	0	1	2570,60	4,00627661	4,00661039	0,044078047225009965	3	0,0227321163	0,000176603557
2	0	0	0	1	2571,85	3,99377561	3,99421	0,039438855475358195	3	0,0227839202	0,000157527073
2	0	0	1	1	2573,10	3,98127508	3,98161912	0,035220400779507942	3	0,0228301808	0,000140234217
2	0	0	1	1	2574,35	3,9687736	3,96920872	0,031296269085335782	3	0,0228713676	0,00012422142
2	0	0	1	1	2575,60	3,95627379	3,95677924	0,027732078767299552	3	0,0229079463	0,000109729714
2	0	0	0	1	2576,85	3,94377184	3,94433808	0,024461252736121693	3	0,0229402576	9,64834471E-005
2	0	0	0	1	2578,10	3,93127084	3,9316864	0,021602889841831146	3	0,0229687039	8,49357893E-005
2	0	0	1	1	2579,35	3,91877031	3,91937661	0,018802782806839446	3	0,0229935702	7,36951843E-005
2	0	0	1	1	2580,60	3,90626884	3,90693641	0,016263425156163706	3	0,023015162	6,35401666E-005
2	0	0	0	1	2581,85	3,89376783	3,89421535	0,013897381106896034	3	0,0230337624	5,41193949E-005
2	0	0	0	1	2583,10	3,88126707	3,88193536	0,011775161850285542	3	0,0230495743	4,57104179E-005
2	0	0	1	1	2584,35	3,86876607	3,86915374	0,0099177743832115366	3	0,0230628345	3,83733932E-005
2	0	0	1	1	2585,60	3,85626554	3,85674334	0,0081574084397288691	3	0,0230737347	3,14610297E-005
2	0	0	0	1	2586,85	3,84376454	3,8442831	0,0064138447584506381	3	0,0230824649	2,46566342E-005
2	0	0	0	1	2588,14	3,83086348	3,83132124	0,0047101830326331283	3	0,0230893809	1,80462248E-005
2	0	0	1	1	2589,39	3,818362	3,81913185	0,0031556250639065626	3	0,0230941977	1,20517479E-005
2	0	0	1	1	2590,64	3,80586147	3,8063705	0,0018226824461938387	3	0,0230972655	6,93780476E-006
2	0	0	0	1	2591,89	3,79336047	3,79349875	0,0005392089380317575	3	0,0230987426	2,04548837E-006
2	0	0	0	1	2593,14	3,78085971	3,78120875	-0,00049474284545188672	3	0,0230987184	1,87072601E-006
2	0	0	1	1	2594,39	3,76835871	3,76882839	-0,0016089208541719283	3	0,0230972972	6,0637467E-006
2	0	0	1	1	2595,64	3,75585723	3,75640821	-0,002711798302091967	3	0,0230945237	1,01866217E-005
2	0	0	0	1	2596,89	3,74335647	3,74387741	-0,0037469459712155955	3	0,0230905022	1,40281063E-005
2	0	0	0	1	2598,14	3,7308557	3,73127675	-0,004722298025929689	3	0,0230852403	1,76202011E-005
2	0	0	1	1	2599,39	3,7183547	3,71891618	-0,0054749270238971802	3	0,0230788887	2,03607942E-005
2	0	0	1	1	2600,64	3,70585394	3,70634556	-0,0063752636851859277	3	0,0230713114	2,36289306E-005
2	0	0	0	1	2601,89	3,69335246	3,69372463	-0,0073187694773271949	3	0,0230626203	2,70335186E-005
2	0	0	0	1	2603,14	3,68085146	3,68146467	-0,0082349900694680397	3	0,0230527911	3,03168254E-005
2	0	0	1	1	2604,39	3,66835189	3,66868353	-0,0091407690296595418	3	0,0230418798	3,35345903E-005
2	0	0	1	1	2605,68	3,65544987	3,65592194	-0,0097918479004874829	3	0,0230295006	3,57982317E-005
2	0	0	1	1	2606,93	3,64294934	3,64336205	-0,010626364605568379	3	0,0230164211	3,87156942E-005
2	0	0	0	1	2608,18	3,6304481	3,63098121	-0,011354824642088131	3	0,0230022855	4,12291556E-005
2	0	0	0	1	2609,43	3,61794686	3,6183095	-0,012142462847128248	3	0,0229871608	4,39351898E-005
2	0	0	1	1	2610,68	3,6054461	3,60580969	-0,012959856874658755	3	0,0229710359	4,67307764E-005
2	0	0	1	1	2611,93	3,5929451	3,59365964	-0,01372468685440259	3	0,0229540057	4,9321854E-005
2	0	0	0	1	2613,18	3,5804441	3,58093858	-0,01445645375739936	3	0,0229360685	5,17676744E-005
2	0	0	0	1	2614,43	3,56794333	3,56872892	-0,014894462437951059	3	0,022917321	5,31542973E-005
2	0	0	1	1	2615,68	3,55544233	3,55615783	-0,015505478450601629	3	0,0228977725	5,5139928E-005
2	0	0	1	1	2616,93	3,54294133	3,54366732	-0,016060355386192272	3	0,0228775069	5,6912555E-005
2	0	0	0	1	2618,18	3,53044033	3,5310967	-0,016607871022036618	3	0,0228565373	5,86440001E-005
2	0	0	0	1	2619,43	3,51793933	3,51841593	-0,017112992674810752	3	0,0228349511	6,02106265E-005
2	0	0	1	1	2620,68	3,50543857	3,50591493	-0,017643311502373194	3	0,0228127427	6,18559498E-005
2	0	0	1	1	2621,93	3,49293756	3,49333429	-0,018146784583223136	3	0,0227899775	6,33927848E-005
2	0	0	0	1	2623,18	3,48043656	3,48090363	-0,018633324948799213	3	0,0227666479	6,48608111E-005
2	0	0	0	1	2624,43	3,46793556	3,46829295	-0,019072565793370243	3	0,0227428209	6,6149245E-005
2	0	0	1	1	2625,68	3,45543456	3,45563197	-0,019520504754230672	3	0,022718465	6,74556795E-005
2	0	0	1	1	2626,93	3,44293356	3,44327188	-0,019865967168395117	3	0,0226936433	6,8403926E-005
2	0	0	0	1	2628,18	3,4304328	3,43087149	-0,020090198057005181	3	0,0226683393	6,89268854E-005
2	0	0	0	1	2629,43	3,4179318	3,4187119	-0,020505675745274205	3	0,0226425957	7,01030003E-005
2	0	0	1	1	2630,68	3,40543079	3,40612078	-0,020895473746350022	3	0,0226163827	7,11725079E-005
2	0	0	1	1	2631,93	3,39292979	3,39337945	-0,021270001011240963	3	0,0225897394	7,21771867E-005
2	0	0	0	1	2633,18	3,38042855	3,38097811	-0,021667508762445194	3	0,0225626621	7,32573753E-005
2	0	0	0	1	2634,43	3,36792803	3,36849856	-0,021873752829075443	3	0,0225351714	7,36817019E-005
2	0	0	1	1	2635,68	3,35542631	3,35578728	-0,022226941977985971	3	0,0225072391	7,45888901E-005
2	0	0	1	1	2636,93	3,34292603	3,34338713	-0,02257959036311752	3	0,0224789102	7,54923094E-005
2	0	0	1	1	2638,18	3,33042502	3,33101702	-0,022996193171517603	3	0,0224501584	7,66007142E-005
2	0	0	0	1	2639,43	3,31792402	3,318326	-0,023397077364885888	3	0,02242098	7,76391316E-005
2	0	0	0	1	2640,68	3,30542326	3,30572534	-0,023585924447009686	3	0,0223914068	7,7968587E-005
2	0	0	1	1	2641,93	3,29292226	3,29326463	-0,023789358640594061	3	0,022361435	7,83446521E-005
2	0	0	1	1	2643,18	3,28042126	3,28068376	-0,024195660463495526	3	0,0223310702	7,93783111E-005
2	0	0	0	1	2644,43	3,26792026	3,26831365	-0,024458481658560573	3	0,022300303	7,99379923E-005
2	0	0	0	1	2645,68	3,25541925	3,25580311	-0,024883638174893974	3	0,022269167	8,10162237E-005
2	0	0	1	1	2646,93	3,24291825	3,24360299	-0,025118306065754381	3	0,0222376324	8,1473816E-005
2	0	0	1	1	2648,18	3,23041749	3,23099232	-0,025324476019401686	3	0,0222057514	8,18231856E-005
2	0	0	0	1	2649,43	3,21791649	3,21831131	-0,025651500114084512	3	0,0221734829	8,25545139E-005
2	0	0	0	1	2650,68	3,20541549	3,20603132	-0,025981759021912464	3	0,0221408922	8,32983351E-005
2	0	0	1	1	2651,93	3,19291449	3,19327021	-0,0262884806725196	3	0,022107929	8,39462227E-005
2	0	0	1	1	2653,18	3,18041348	3,18097019	-0,026579037851964582	3	0,022074651	8,45471295E-005
2	0	0	0	1	2654,43	3,16791272	3,1683588	-0,02668465200501191	3	0,0220410246	8,45465547E-005
2	0	0	0	1	2655,68	3,15541172	3,15585876	-0,026937209603299094	3	0,0220071152	8,50100259E-005
2	0	0	1	1	2656,93	3,14291072	3,14331794	-0,027200881964139056	3	0,021972876	8,55010221E-005
2	0	0	1	1	2658,18	3,13040972	3,13074684	-0,027470548287965414	3	0,0219383724	8,60033324E-005
2	0	0	0	1	2659,43	3,11790872	3,11812615	-0,027710606897017014	3	0,0219035689	8,6405169E-005
2	0	0	0	1	2660,68	3,10540819	3,10577583	-0,027854398348912067	3	0,0218685195	8,65095208E-005
2	0	0	1	1	2661,93	3,09290695	3,09349632	-0,028010961766898102	3	0,0218331888	8,66518094E-005
2	0	0	1	1	2663,18	3,08040619	3,08108568	-0,028219802392413846	3	0,0217976384	8,6947628E-005
2	0	0	1	1	2664,43	3,06790638	3,0685358	-0,028409109706636128	3	0,0217618439	8,71743687E-005
2	0	0	0	1	2665,68	3,05540419	3,05590391	-0,028622710252723894	3	0,0217258539	8,74682519E-005
2	0	0	0	1	2666,93	3,0429039	3,04329395	-0,028733747741915949	3	0,0216896497	8,7445238E-005
2	0	0	1	1	2668,18	3,03040242	3,03081274	-0,028740089367299085	3	0,0216532741	8,71058292E-005
2	0	0	1	1	2669,43	3,01790142	3,01819181	-0,0288866733317264	3	0,0216166973	8,71855227E-005
2	0	0	0	1	2670,68	3,00540042	3,00586152	-0,02902242023264992	3	0,0215799771	8,72373785E-005
2	0	0	0	1	2671,93	2,99289942	2,99335098	-0,029161824893283949	3	0,0215430781	8,72915771E-005
2	0	0	1	1	2673,18	2,98039842	2,98066998	-0,029281474174543629	3	0,0215060357	8,72784076E-005
2	0	0	1	1	2674,43	2,96789742	2,96819949	-0,029501824397205722	3	0,0214688461	8,75672995E-005
2	0	0	0	1	2675,68	2,95539665	2,9557991	-0,029637838752629818	3	0,0214315411	8,76034974E-005
2	0	0	0	1	2676,93	2,94289565	2,94318795	-0,029765228828182445	3	0,0213940907	8,76046615E-005
2	0	0	1	1	2678,18	2,93039465	2,93091822	-0,029889937412614656	3	0,0213565342	8,76049598E-005
2	0	0	1	1	2679,43	2,91789365	2,91823721	-0,030030061141587846	3	0,0213188604	8,76348422E-005
2	0	0	0	1	2680,68	2,90539289	2,90579677	-0,029972761248548864	3	0,0212811437	8,70947551E-005
2	0	0	0	1	2681,93	2,89289165	2,89337635	-0,03001582920357271	3	0,021243291	8,68470888E-005
2	0	0	1	1	2683,18	2,88039088	2,88072538	-0,030095150131577043	3	0,0212053452	8,66958653E-005
2	0	0	1	1	2684,43	2,86788988	2,86820459	-0,030201806618909754	3	0,0211673211	8,66249611E-005
2	0	0	0	1	2685,68	2,85538888	2,85574436	-0,030270751400773178	3	0,0211292319	8,64455287E-005
2	0	0	0	1	2686,93	2,84288788	2,84336376	-0,030343760319131885	3	0,0210910793	8,6278349E-005
2	0	0	1	1	2688,18	2,83038712	2,83088326	-0,030278253485448659	3	0,0210528728	8,57142004E-005
2	0	0	1	1	2689,43	2,81788611	2,8183229	-0,030346254847245293	3	0,0210146215	8,55255421E-005
2	0	0	0	1	2690,68	2,80538511	2,8058722	-0,030375394009752307	3	0,0209763348	8,52294761E-005
2	0	0	0	1	2691,93	2,79288411	2,7933917	-0,030492393212625798	3	0,0209380127	8,51771983E-005
2	0	0	0	1	2693,19	2,78038335	2,78081131	-0,030511901511955373	3	0,0208996627	8,48478376E-005
2	0	0	1	1	2694,44	2,76788211	2,76848078	-0,030405017149557011	3	0,0208612792	8,41757064E-005
2	0	0	1	1	2695,69	2,75538111	2,75594974	-0,030385493085741677	3	0,020822864	8,37408952E-005
2	0	0	0	1	2696,94	2,74288034	2,74323893	-0,03050424204169161	3	0,0207844432	8,36804247E-005
2	0	0	0	1	2698,19	2,73037934	2,73079872	-0,030487576625697952	3	0,0207459945	8,3255436E-005
2	0	0	1	1	2699,44	2,71787834	2,71810746	-0,030623964519084749	3	0,0207075253	8,32392252E-005
2	0	0	1	1	2700,69	2,70537758	2,70587754	-0,030508451677936474	3	0,02066903	8,25521347E-005
2	0	0	0	1	2701,94	2,69287634	2,69337702	-0,030523246959395123	3	0,0206305292	8,22106085E-005
2	0	0	0	1	2703,19	2,68037558	2,68072581	-0,030580563499825094	3	0,020591978	8,19781053E-005
2	0	0	1	1	2704,44	2,66787457	2,66829538	-0,030655266561855898	3	0,0205534007	8,1797305E-005
2	0	0	1	1	2705,69	2,65537357	2,6556747	-0,030754401823893773	3	0,0205147639	8,16736865E-005
2	0	0	0	1	2706,94	2,64287257	2,64335442	-0,030753108963835987	3	0,0204760898	8,1291364E-005
2	0	0	0	1	2708,19	2,63037181	2,63072348	-0,030714348569745197	3	0,02043733	8,08009572E-005
2	0	0	1	1	2709,44	2,61787081	2,61821318	-0,030809131373340845	3	0,0203984957	8,0664875E-005
2	0	0	1	1	2710,69	2,60537004	2,60568237	-0,03092668880708521	3	0,0203595459	8,05851305E-005
2	0	0	0	1	2711,94	2,5928688	2,59336233	-0,031059911930545606	3	0,0203205012	8,0549602E-005
2	0	0	0	1	2713,19	2,58036804	2,58083129	-0,031189111866600256	3	0,0202813018	8,04938391E-005
2	0	0	1	1	2714,44	2,5678668	2,56846118	-0,031243930085717408	3	0,0202419534	8,02488212E-005
2	0	0	1	1	2715,69	2,55536604	2,55573034	-0,031388826086185984	3	0,0202024058	8,02213763E-005
2	0	0	0	1	2716,94	2,54286504	2,54347014	-0,031564478713941523	3	0,0201626681	8,02833092E-005
2	0	0	0	1	2718,19	2,53036404	2,53072882	-0,031812316301511603	3	0,0201226976	8,05083473E-005
2	0	0	1	1	2719,44	2,51786304	2,51825833	-0,03202953190581575	3	0,0200824831	8,06586322E-005
2	0	0	1	1	2720,69	2,50536227	2,50583792	-0,032152082305401619	3	0,0200420022	8,05679083E-005
2	0	0	0	1	2721,94	2,49286032	2,49336433	-0,032281704242219731	3	0,0200013015	8,04900483E-005
2	0	0	0	1	2723,19	2,48036027	2,48065615	-0,032562739176986157	3	0,0199602451	8,07769611E-005
2	0	0	1	1	2724,44	2,46785855	2,46841574	-0,032828872221423168	3	0,0199188702	8,10353013E-005
2	0	0	1	1	2725,69	2,45535827	2,45563507	-0,03310326515929776	3	0,0198771507	8,12895378E-005
2	0	0	1	1	2726,94	2,44285727	2,44348526	-0,033415850630262867	3	0,0198351014	8,16511383E-005
2	0	0	0	1	2728,19	2,4303565	2,43093443	-0,033777368303466003	3	0,019792676	8,21105641E-005
2	0	0	0	1	2729,44	2,4178555	2,41824389	-0,034117401558129702	3	0,0197499022	8,25042007E-005
2	0	0	1	1	2730,69	2,40535474	2,4055829	-0,034460228819322534	3	0,0197067317	8,28969351E-005
2	0	0	1	1	2731,94	2,3928535	2,39328265	-0,034805480934058662	3	0,0196632016	8,32993537E-005
2	0	0	0	1	2733,19	2,38035274	2,38062167	-0,035154581826646048	3	0,0196192563	8,36897598E-005
2	0	0	0	1	2734,44	2,3678515	2,36849213	-0,03535213044960983	3	0,019574916	8,373124E-005
2	0	0	1	1	2735,69	2,35535073	2,35579085	-0,035676520259585248	3	0,0195301361	8,40464199E-005
2	0	0	1	1	2736,94	2,34284973	2,3433404	-0,036057550751138394	3	0,019484954	8,44951137E-005
2	0	0	0	1	2738,19	2,33034897	2,33077979	-0,036449014626365792	3	0,019439334	8,49546268E-005
2	0	0	0	1	2739,44	2,31784773	2,31835938	-0,036830380830603443	3	0,0193933006	8,5386062E-005
2	0	0	1	1	2740,69	2,30534697	2,30568814	-0,037124726135516429	3	0,0193468109	8,55980397E-005
2	0	0	1	1	2741,94	2,29284573	2,29326773	-0,037418279408787725	3	0,0192998927	8,58101339E-005
2	0	0	0	1	2743,19	2,28034496	2,28090763	-0,037820144896007437	3	0,0192525089	8,62642555E-005
2	0	0	0	1	2744,44	2,26784396	2,26867771	-0,038228086904079206	3	0,019204678	8,67272101E-005
2	0	0	1	1	2745,69	2,25534296	2,25581598	-0,038670672850761203	3	0,0191563759	8,72339224E-005
2	0	0	1	1	2746,94	2,24284196	2,24330568	-0,038976247946266138	3	0,0191076212	8,7435641E-005
2	0	0	0	1	2748,19	2,2303412	2,23090529	-0,039256027961770579	3	0,0190583859	8,75764817E-005
2	0	0	0	1	2749,44	2,21784019	2,21829438	-0,039648764388403034	3	0,0190086793	8,79526342E-005
2	0	0	1	1	2750,69	2,20533991	2,20577383	-0,040100161741651098	3	0,0189584792	8,84518886E-005
2	0	0	1	1	2751,94	2,19283819	2,19321299	-0,040422353883817178	3	0,0189077966	8,86548296E-005
2	0	0	1	1	2753,19	2,18033862	2,1806035	-0,04096516719983856	3	0,0188566409	8,9328787E-005
2	0	0	0	1	2754,44	2,16783619	2,16838217	-0,041250925889471296	3	0,0188049506	8,94477707E-005
2	0	0	0	1	2755,69	2,15533543	2,15572143	-0,041668807185487821	3	0,0187527668	8,98263388E-005
2	0	0	1	1	2756,94	2,14283466	2,14312077	-0,042104434086165043	3	0,0187000446	9,02348838E-005
2	0	0	1	1	2758,19	2,13033366	2,13076043	-0,042573074946024691	3	0,0186468158	9,07130234E-005
2	0	0	0	1	2759,44	2,11783242	2,1180892	-0,043066067145749344	3	0,0185930301	9,12177711E-005
2	0	0	1	1	2760,25	2,10963273	2,11037087	-0,043754194370087456	3	0,0185577311	9,23375774E-005