File: Experimentelles/Rohdaten/Batteriemessungen/AlteZelle/Studenten_Batterietests/LiNiMnO_LATP_LTO-Spinell/CV/ECLab-Export/LiNiMnO-LATP-LTO_Spinell_C01.mpt
EC-Lab ASCII FILE
Nb header lines : 55

Cyclic Voltammetry

Run on channel : 1 (SN 6985)
Grouped channel(s) : 1
User :
CE vs. WE compliance from -10 V to 10 V
Electrode connection : standard
Ewe ctrl range : min = -5,00 V, max = 5,00 V
Acquisition started on : 02.10.2015 14:36:53
Saved on :
	File : LiNiMnO-LATP-LTO_Spinell_C01.mpr
	Directory : C:\Hupfer\Studenten Batterietests\LiNiMnO_LATP_LTO-Spinell\CV\
	Host : 192.168.0.2
Device : VMP3 (SN 0324)
Address : 192.168.0.1
EC-Lab for windows v10.33 (software)
Internet server v10.33 (firmware)
Command interpretor v10.32 (firmware)
Electrode material :
Initial state :
Electrolyte :
Comments :
Mass of active material : 0,001 mg
 at x = 0,000
Molecular weight of active material (at x = 0) : 0,001 g/mol
Atomic weight of intercalated ion : 0,001 g/mol
Acquisition started at : xo = 0,000
Number of e- transfered per intercalated ion : 1
for DX = 1, DQ = 26,801 mA.h
Battery capacity : 0,000 A.h
Electrode surface area : 0,001 cm²
Characteristic mass : 0,001 g
Ei (V)              0,000
vs.                 Eoc
dE/dt               20,000
dE/dt unit          mV/s
E1 (V)              1,000
vs.                 Ref
Step percent        50
N                   10
E range min (V)     -5,000
E range max (V)     5,000
I Range             Auto
Bandwidth           5
E2 (V)              -1,000
vs.                 Ref
nc cycles           0
Reverse Scan        1
Ef (V)              0,000
vs.                 Eoc

mode	ox/red	error	control changes	counter inc.	time/s	control/V	Ewe/V	<I>/mA	cycle number	(Q-Qo)/C	P/W
2	1	0	1	0	0,0000	0,493685216	0,494432837	2,0373672668938525E-005	1	0	1,00734132E-008
2	1	0	0	0	0,4552	0,502785563	0,503227532	2,067564332930015E-005	1	6,43482378E-009	1,04045528E-008
2	1	0	0	0	0,9552	0,512786269	0,513260901	3,5263475103453869E-005	1	2,05510258E-008	1,80993638E-008
2	1	0	0	0	1,4552	0,522786856	0,523472607	4,9503249312221043E-005	1	4,18830979E-008	2,59135948E-008
2	1	0	0	0	1,9552	0,532787442	0,53344363	6,351510205604416E-005	1	7,02350889E-008	3,38817259E-008
2	1	0	0	0	2,4552	0,542788029	0,543401361	7,7486621556225741E-005	1	1,05625588E-007	4,21063362E-008
2	1	0	0	0	2,9552	0,552788615	0,553372443	9,1009964434205427E-005	1	1,47855303E-007	5,03624058E-008
2	1	0	1	0	3,4554	0,562789261	0,56348604	0,00010467553012724118	1	1,9689088E-007	5,89832005E-008
2	1	0	1	0	3,9554	0,572789967	0,573461592	0,00011831503491487624	1	2,52697902E-007	6,7849129E-008
2	1	0	1	0	4,4554	0,582790554	0,583352447	0,00013206466588531768	1	3,15363877E-007	7,7040248E-008
2	1	0	1	0	4,9554	0,59279108	0,593368113	0,00014504721935669264	1	3,84762416E-007	8,60663931E-008
2	1	0	1	0	5,4554	0,602791727	0,603361428	0,00015841066370167402	1	4,60674954E-007	9,55788835E-008
2	1	0	1	0	5,9554	0,612792373	0,613350332	0,00017129060107537149	1	5,43217766E-007	1,05061147E-007
2	1	0	1	0	6,4554	0,622793019	0,623566449	0,00018465183588718723	1	6,32298395E-007	1,1514269E-007
2	1	0	0	0	6,9556	0,632793605	0,633363724	0,00019778793793429235	1	7,28065061E-007	1,25271711E-007
2	1	0	0	0	7,4556	0,642794192	0,643259108	0,00021102667994488973	1	8,30359511E-007	1,35744827E-007
2	1	0	0	0	7,9556	0,652794719	0,653328121	0,00022399849135749971	1	9,39235861E-007	1,46344519E-007
2	1	0	0	0	8,4556	0,662795365	0,663303614	0,0002371346122513559	1	1,05460686E-006	1,57292249E-007
2	1	0	0	0	8,9556	0,672796011	0,673207879	0,00024984329761705558	1	1,17644959E-006	1,68196479E-007
2	1	0	0	0	9,4556	0,682796657	0,683441818	0,0002624378732636809	1	1,30461228E-006	1,79361024E-007
2	1	0	1	0	9,9558	0,692797244	0,693328202	0,00027535550119258317	1	1,43924001E-006	1,90911734E-007
2	1	0	1	0	10,4558	0,702797771	0,703299284	0,00028807405962854445	1	1,58024375E-006	2,0260228E-007
2	1	0	1	0	10,9558	0,712798476	0,713453054	0,0003007347682055465	1	1,72754369E-006	2,14560146E-007
2	1	0	1	0	11,4558	0,722799122	0,723285973	0,00031281507782060384	1	1,88110494E-006	2,26254755E-007
2	1	0	1	0	11,9558	0,732799709	0,73330152	0,00032592102457716397	1	2,04092839E-006	2,38998382E-007
2	1	0	1	0	12,4558	0,742800295	0,743410766	0,0003385650877168727	1	2,20714969E-006	2,51692938E-007
2	1	0	1	0	12,9558	0,752800882	0,753395259	0,00035108386300971955	1	2,37966879E-006	2,64504905E-007
2	1	0	0	0	13,4560	0,762801528	0,763281703	0,00036349737096046458	1	2,55846635E-006	2,7745088E-007
2	1	0	0	0	13,9560	0,772802114	0,773707151	0,00037629321475294522	1	2,74354738E-006	2,91140765E-007
2	1	0	0	0	14,4560	0,78280282	0,783392966	0,00038860984568600544	1	2,93489961E-006	3,04434224E-007
2	1	0	0	0	14,9560	0,792803288	0,793328464	0,00040102096884058784	1	3,13239275E-006	3,1814136E-007
2	1	0	0	0	15,4560	0,802803874	0,803620279	0,00041338779529151264	1	3,33610024E-006	3,3220681E-007
2	1	0	0	0	15,9560	0,81280452	0,813292801	0,00042570382437487616	1	3,54595227E-006	3,46221867E-007
2	1	0	1	0	16,4562	0,822805226	0,823219359	0,00043792313853272499	1	3,76205571E-006	3,60506817E-007
2	1	0	1	0	16,9562	0,832805872	0,833257318	0,0004500859120323904	1	3,98418524E-006	3,75037388E-007
2	1	0	1	0	17,4562	0,842806399	0,843406498	0,0004624536057370439	1	4,21242612E-006	3,90036377E-007
2	1	0	1	0	17,9562	0,852807045	0,853444457	0,00047465965797999744	1	4,44681518E-006	4,05095648E-007
2	1	0	1	0	18,4562	0,862807572	0,86332196	0,00048675333878405062	1	4,68726466E-006	4,20224836E-007
2	1	0	1	0	18,9562	0,872808278	0,873297453	0,00049892712943094138	1	4,93378548E-006	4,35711797E-007
2	1	0	1	0	19,4562	0,882808983	0,88312155	0,00051098079523028813	1	5,18637808E-006	4,5125816E-007
2	1	0	0	0	19,9564	0,892809451	0,893431187	0,00052298466983268563	1	5,44499744E-006	4,67250828E-007
2	1	0	0	0	20,4564	0,902810037	0,903375566	0,00053574772984440544	1	5,70973862E-006	4,8398141E-007
2	1	0	0	0	20,9564	0,912810624	0,913373232	0,00054725910909096461	1	5,98052111E-006	4,99851808E-007
2	1	0	0	0	21,4564	0,922811389	0,923170686	0,00055919955189488723	1	6,2572376E-006	5,16236639E-007
2	1	0	0	0	21,9564	0,932811975	0,933489203	0,00057117297903999034	1	6,53991492E-006	5,33183822E-007
2	1	0	0	0	22,4564	0,942812562	0,943326533	0,00058325061905230118	1	6,82864402E-006	5,50195807E-007
2	1	0	1	0	22,9566	0,952813148	0,95335108	0,00059527985144490611	1	7,12350766E-006	5,6751071E-007
2	1	0	1	0	23,4566	0,962813735	0,963504851	0,0006071911755296032	1	7,42421844E-006	5,85031671E-007
2	1	0	1	0	23,9566	0,972814322	0,97324425	0,00061913671271651187	1	7,73090233E-006	6,0257122E-007
2	1	0	1	0	24,4566	0,982815027	0,983184099	0,0006310964710320608	1	8,04354113E-006	6,20484002E-007
2	1	0	1	0	24,9566	0,992815614	0,993262112	0,00064272903020739379	1	8,36210165E-006	6,38398376E-007
2	0	0	0	0	25,3672	0,998816013	0,999263525	0,0006485109201835081	1	8,62790057E-006	6,48033335E-007
2	0	0	0	0	25,8672	0,988815308	0,989203274	0,0006292046600046199	1	8,94704408E-006	6,22411335E-007
2	0	0	0	0	26,3672	0,978814721	0,979214489	0,00061127978585352218	1	9,25708991E-006	5,98574047E-007
2	0	0	0	0	26,8672	0,968814135	0,969274521	0,0005949429870708151	1	9,55852829E-006	5,76663069E-007
2	0	0	0	0	27,3672	0,958813548	0,959494948	0,00057856080982471923	1	9,85174938E-006	5,55126178E-007
2	0	0	1	0	27,8674	0,948812902	0,949328005	0,00056247798629219424	1	1,01369988E-005	5,33976106E-007
2	0	0	1	0	28,3674	0,938812256	0,939405918	0,0005465943221578432	1	1,04141418E-005	5,13473935E-007
2	0	0	1	0	28,8674	0,928811669	0,929354548	0,00053100283467857453	1	1,06834323E-005	4,93489893E-007
2	0	0	1	0	29,3674	0,918811083	0,91923213	0,00051554867705918586	1	1,09449584E-005	4,73908898E-007
2	0	0	1	0	29,8674	0,908810496	0,909336746	0,0005002579829899191	1	1,1198792E-005	4,5490296E-007
2	0	0	1	0	30,3674	0,89880985	0,899401307	0,00048530883550820717	1	1,14450831E-005	4,36487397E-007
2	0	0	1	0	30,8674	0,888809264	0,889461398	0,00047013560833875091	1	1,16838019E-005	4,18167474E-007
2	0	0	0	0	31,3676	0,878808558	0,879521608	0,00045521152329726022	1	1,19151127E-005	4,00368378E-007
2	0	0	0	0	31,8676	0,868807971	0,869278789	0,00044039325196839155	1	1,21389103E-005	3,8282451E-007
2	0	0	0	0	32,3676	0,858807504	0,859205186	0,00042565305671747424	1	1,23553109E-005	3,65723309E-007
2	0	0	0	0	32,8676	0,848806739	0,849336565	0,0004110690411767721	1	1,2564401E-005	3,49135973E-007
2	0	0	0	0	33,3676	0,838806093	0,839093745	0,00039638257051895565	1	1,2766156E-005	3,32602127E-007
2	0	0	0	0	33,8676	0,828805566	0,829176188	0,00038195772244593946	1	1,29606287E-005	3,16710242E-007
2	0	0	1	0	34,3678	0,81880492	0,819267452	0,00036752375914754022	1	1,31479474E-005	3,01100243E-007
2	0	0	1	0	34,8678	0,808804333	0,809247315	0,00035315603172084154	1	1,33280082E-005	2,85790577E-007
2	0	0	1	0	35,3678	0,798803747	0,799467921	0,00033892831662443462	1	1,35009141E-005	2,70962317E-007
2	0	0	1	0	35,8678	0,788803101	0,789385378	0,0003247216559261511	1	1,3666714E-005	2,56330537E-007
2	0	0	1	0	36,3678	0,778802514	0,779405475	0,00031056698376401466	1	1,38254272E-005	2,4205761E-007
2	0	0	1	0	36,8678	0,768801928	0,769421041	0,00029645854007227411	1	1,39771082E-005	2,28101442E-007
2	0	0	1	0	37,3678	0,758801341	0,759392083	0,00028254239748127466	1	1,41217643E-005	2,14560458E-007
2	0	0	0	0	37,8680	0,748800755	0,749327481	0,00026870265470211936	1	1,42595409E-005	2,01346282E-007
2	0	0	0	0	38,3680	0,738799989	0,739392042	0,00025475673437877402	1	1,43903044E-005	1,88365107E-007
2	0	0	0	0	38,8680	0,728799403	0,729340792	0,00024093307409337427	1	1,45141166E-005	1,7572232E-007
2	0	0	0	0	39,3680	0,718798816	0,719258249	0,00022718961631822045	1	1,46310467E-005	1,63408004E-007
2	0	0	0	0	39,8680	0,70879823	0,709349692	0,00021336209334145254	1	1,47410792E-005	1,51348331E-007
2	0	0	0	0	40,3680	0,698797584	0,699400842	0,0001996343961999864	1	1,48442341E-005	1,39624461E-007
2	0	0	1	0	40,8682	0,688797057	0,68923825	0,00018587327677879478	1	1,49405514E-005	1,28110969E-007
2	0	0	1	0	41,3682	0,678796351	0,679235995	0,00017224893763004378	1	1,50299638E-005	1,16997676E-007
2	0	0	1	0	41,8682	0,668795764	0,669220388	0,00015861810583441232	1	1,51126042E-005	1,06150473E-007
2	0	0	1	0	42,3682	0,658795178	0,659396291	0,00014506987837295213	1	1,51884124E-005	9,56585424E-008
2	0	0	1	0	42,8682	0,648794591	0,649215877	0,00013168980863324754	1	1,52574867E-005	8,54951168E-008
2	0	0	1	0	43,3682	0,638793945	0,639382899	0,00011793060780797066	1	1,53197416E-005	7,54028164E-008
2	0	0	1	0	43,8682	0,628793299	0,629358351	0,00010481112854500299	1	1,53753663E-005	6,59637607E-008
2	0	0	0	0	44,3684	0,618792713	0,619440794	9,1568567448255962E-005	1	1,54243899E-005	5,6721305E-008
2	0	0	0	0	44,8684	0,608792126	0,609376073	7,8199518813764531E-005	1	1,5466725E-005	4,76529145E-008
2	0	0	0	0	45,3684	0,59879148	0,599489748	6,4968434900139008E-005	1	1,55023936E-005	3,89479098E-008
2	0	0	0	0	45,8684	0,588790834	0,589402854	5,1797432408622925E-005	1	1,55314865E-005	3,05295558E-008
2	0	0	0	0	46,3684	0,578790307	0,579244614	3,8534987475537005E-005	1	1,55539401E-005	2,23211831E-008
2	0	0	0	0	46,8684	0,568789601	0,569393873	2,5312153544139958E-005	1	1,55697817E-005	1,44125849E-008
2	0	0	1	0	47,3686	0,558789015	0,559454024	1,2193116806891141E-005	1	1,55790713E-005	6,82148826E-009
2	0	0	1	0	47,8686	0,548788428	0,549425006	-7,0654357004546726E-007	1	1,55818398E-005	3,881927E-010
2	0	0	1	0	48,3686	0,538787782	0,539213359	-1,4038481040230493E-005	1	1,55780581E-005	7,56973684E-009
2	0	0	1	0	48,8686	0,528787136	0,529416084	-2,7057402470981491E-005	1	1,55676807E-005	1,43246242E-008
2	0	0	1	0	49,3686	0,51878655	0,519333601	-4,0056006549059859E-005	1	1,55507933E-005	2,080243E-008
2	0	0	1	0	49,8686	0,508785963	0,509313524	-5,2963468230397434E-005	1	1,55273628E-005	2,69750107E-008
2	0	0	1	0	50,3686	0,498785377	0,499355853	-6,5736070517367386E-005	1	1,54975933E-005	3,28256924E-008
2	0	0	0	0	50,8688	0,48878476	0,489260018	-7,8278987117570227E-005	1	1,54615045E-005	3,82987793E-008
2	0	0	0	0	51,3688	0,478784084	0,479382485	-9,1615338129081664E-005	1	1,54188638E-005	4,39187886E-008
2	0	0	0	0	51,8688	0,468783468	0,469455957	-0,00010429915964441181	1	1,53697838E-005	4,89638623E-008
2	0	0	0	0	52,3688	0,458782881	0,459284425	-0,00011703406643290563	1	1,53142828E-005	5,37519256E-008
2	0	0	0	0	52,8688	0,448782295	0,449464858	-0,0001296924206818169	1	1,52525272E-005	5,82921871E-008
2	0	0	0	0	53,3688	0,438781679	0,439449251	-0,00014235519071277179	1	1,51844224E-005	6,25578807E-008
2	0	0	1	0	53,8690	0,428781033	0,42929104	-0,00015505902112838282	1	1,51099457E-005	6,65654483E-008
2	0	0	1	0	54,3690	0,418780416	0,419319957	-0,00016743277575625514	1	1,50291862E-005	7,02079035E-008
2	0	0	1	0	54,8690	0,40877983	0,409326613	-0,0001798375817795919	1	1,49421458E-005	7,36123056E-008
2	0	0	1	0	55,3690	0,398779213	0,39944914	-0,00019301978611312858	1	1,48488498E-005	7,71015891E-008
2	0	0	1	0	55,8690	0,388778627	0,389482528	-0,00020564485502863693	1	1,47490791E-005	8,00950772E-008
2	0	0	1	0	56,3690	0,378778011	0,379288703	-0,00021811709919145712	1	1,46429638E-005	8,27293505E-008
2	0	0	1	0	56,8690	0,368777364	0,369259685	-0,00023055960378702381	1	1,45306994E-005	8,51363637E-008
2	0	0	0	0	57,3692	0,358776778	0,359275311	-0,00024309648967944061	1	1,44121204E-005	8,73385702E-008
2	0	0	0	0	57,8692	0,348776132	0,349273026	-0,00025548349724515578	1	1,42872777E-005	8,92334953E-008
2	0	0	0	0	58,3692	0,338775575	0,339297533	-0,00026768305340536032	1	1,41563924E-005	9,08242015E-008
2	0	0	0	0	58,8692	0,328774929	0,329411119	-0,00028018654056386058	1	1,40192587E-005	9,22965597E-008
2	0	0	0	0	59,3692	0,318774343	0,319181621	-0,00029249725887186496	1	1,3876017E-005	9,33597519E-008
2	0	0	0	0	59,8692	0,308773726	0,309477866	-0,00030494004692661414	1	1,37265033E-005	9,43721972E-008
2	0	0	1	0	60,3694	0,29877311	0,29947117	-0,00031723355254211155	1	1,35708169E-005	9,50023065E-008
2	0	0	1	0	60,8694	0,288772494	0,289513499	-0,0003293980914383641	1	1,34090624E-005	9,53651949E-008
2	0	0	1	0	61,3694	0,278771847	0,279408753	-0,00034157439532228435	1	1,32412206E-005	9,54388781E-008
2	0	0	1	0	61,8694	0,268771261	0,269304037	-0,00035393076207886413	1	1,30672333E-005	9,53149808E-008
2	0	0	1	0	62,3694	0,258770674	0,259297341	-0,00036601208514049946	1	1,28871507E-005	9,4905964E-008
2	0	0	1	0	62,8694	0,248770043	0,249393076	-0,00037843045353198534	1	1,27010808E-005	9,43779312E-008
2	0	0	1	0	63,3694	0,238769427	0,239506677	-0,00039029020121638099	1	1,25087345E-005	9,34771123E-008
2	0	0	0	0	63,8696	0,228768826	0,229397506	-0,00040304544395271296	1	1,23102263E-005	9,24576185E-008
2	0	0	0	0	64,3696	0,218768194	0,219439805	-0,00041483570694927744	1	1,21056783E-005	9,10314668E-008
2	0	0	0	0	64,8696	0,208767593	0,209415257	-0,00042696974526700448	1	1,18951548E-005	8,94139802E-008
2	0	0	0	0	65,3696	0,198766991	0,199444205	-0,00043892062010989376	1	1,1678686E-005	8,75401724E-008
2	0	0	0	0	65,8696	0,188766375	0,189388484	-0,00045107766453400877	1	1,14559843E-005	8,54289155E-008
2	0	0	0	0	66,3696	0,178765759	0,179363951	-0,00046296037059316128	1	1,1227412E-005	8,3038401E-008
2	0	0	1	0	66,8698	0,168765143	0,169272602	-0,00047499312502084	1	1,09927405E-005	8,04033249E-008
2	0	0	1	0	67,3698	0,158764541	0,159270361	-0,00048668255496724966	1	1,07522001E-005	7,75141089E-008
2	0	0	1	0	67,8698	0,148763925	0,149321556	-0,00049856897122582502	1	1,05057434E-005	7,44470938E-008
2	0	0	1	0	68,3698	0,138763309	0,139568821	-0,00051047258656817043	1	1,02533704E-005	7,12460562E-008
2	0	0	1	0	68,8698	0,128762707	0,129392788	-0,00052246784468513478	1	9,99504391E-006	6,76035725E-008
2	0	0	1	0	69,3698	0,118762083	0,119390547	-0,00053432304540129446	1	9,73074202E-006	6,37931237E-008
2	0	0	1	0	69,8698	0,108761474	0,109535322	-0,00054618909497448038	1	9,46053387E-006	5,98269949E-008
2	0	0	0	0	70,3700	0,0987608582	0,0994528681	-0,00055794768781601728	1	9,18428395E-006	5,54894974E-008
2	0	0	0	0	70,8700	0,0887602493	0,089330323	-0,00056967877935676282	1	8,90226056E-006	5,08895894E-008
2	0	0	0	0	71,3700	0,078759633	0,0792924315	-0,00058202660181484083	1	8,61434728E-006	4,61503049E-008
2	0	0	0	0	71,8700	0,0687590241	0,069290176	-0,00059358558751733235	1	8,3203704E-006	4,1129649E-008
2	0	0	0	0	72,3700	0,0587584116	0,0592879243	-0,00060533063515322112	1	8,02058457E-006	3,58887959E-008
2	0	0	0	0	72,8700	0,0487577952	0,0492990427	-0,00061709603687632077	1	7,71488158E-006	3,04222425E-008
2	0	0	1	0	73,3702	0,0387571864	0,0394081734	-0,00062885298602513856	1	7,40319456E-006	2,47819472E-008
2	0	0	1	0	73,8702	0,0287565738	0,0293212682	-0,00064043665817599987	1	7,08580637E-006	1,87784153E-008
2	0	0	1	0	74,3702	0,0187559631	0,0192922857	-0,00065212107882770074	1	6,76256832E-006	1,25809061E-008
2	0	0	1	0	74,8702	0,00875534955	0,00934795197	-0,0006638459781242967	1	6,43346675E-006	6,20560048E-009
2	0	0	1	0	75,3702	-0,00124526303	-0,000885976595	-0,00067571631828926886	1	6,09864583E-006	5,98668837E-010
2	0	0	1	0	75,8702	-0,0112458803	-0,0108124921	-0,0006871061257158889	1	5,75781587E-006	7,4293296E-009
2	0	0	1	0	76,3702	-0,0212464966	-0,0206855424	-0,00069862383147496653	1	5,4112802E-006	1,44514125E-008
2	0	0	0	0	76,8704	-0,031247111	-0,0306254271	-0,00071038244277588262	1	5,05878597E-006	2,17557652E-008
2	0	0	0	0	77,3704	-0,0412477292	-0,0404940248	-0,00072189535664317094	1	4,70060786E-006	2,92324476E-008
2	0	0	0	0	77,8704	-0,051248353	-0,050447274	-0,00073349112574726605	1	4,33666946E-006	3,70026285E-008
2	0	0	0	0	78,3704	-0,0612489656	-0,0606500134	-0,00074496555222409651	1	3,96692485E-006	4,51821691E-008
2	0	0	0	0	78,8704	-0,0712495819	-0,0705453455	-0,00075659074523341606	1	3,59141677E-006	5,33739559E-008
2	0	0	0	0	79,3704	-0,0812501982	-0,0806055218	-0,00076816723621622733	1	3,21013499E-006	6,19185201E-008
2	0	0	1	0	79,8706	-0,0912508145	-0,0905097649	-0,0007797123775903671	1	2,82287601E-006	7,05715806E-008
2	0	0	1	0	80,3706	-0,101251431	-0,100596674	-0,00079139498659599501	1	2,4299809E-006	7,96117021E-008
2	0	0	1	0	80,8706	-0,111252047	-0,110696934	-0,00080280784903960768	1	2,03132618E-006	8,88683687E-008
2	0	0	1	0	81,3706	-0,121252663	-0,12060564	-0,00081451966266117555	1	1,626874E-006	9,82356667E-008
2	0	0	1	0	81,8706	-0,131253287	-0,130607888	-0,0008260270769824256	1	1,21662504E-006	1,07885654E-007
2	0	0	1	0	82,3706	-0,141253889	-0,140641347	-0,00083752597681639206	1	8,0061875E-007	1,17790783E-007
2	0	0	1	0	82,8706	-0,151254505	-0,150603488	-0,00084918078560063027	1	3,78887165E-007	1,27889592E-007
2	0	0	0	0	83,3708	-0,161255136	-0,160677046	-0,0008604426593929321	1	-4,88037699E-008	1,38253384E-007
2	0	0	0	0	83,8708	-0,171255738	-0,170630291	-0,00087187321615702758	1	-4,8203259E-007	1,48767981E-007
2	0	0	0	0	84,3708	-0,181256369	-0,180601358	-0,00088313051593204992	1	-9,20858497E-007	1,59494576E-007
2	0	0	0	0	84,8708	-0,191256985	-0,190532327	-0,00089470123404883021	1	-1,36545839E-006	1,70469505E-007
2	0	0	0	0	85,3708	-0,201257601	-0,200677156	-0,00090596337098826714	1	-1,81570533E-006	1,81806158E-007
2	0	0	0	0	85,8708	-0,211258203	-0,210599184	-0,00091741246258068198	1	-2,27164787E-006	1,93206318E-007
2	0	0	1	0	86,3710	-0,221258834	-0,220445544	-0,00092875456175534054	1	-2,73348746E-006	2,04739806E-007
2	0	0	1	0	86,8710	-0,231259465	-0,230670571	-0,00094027023159368525	1	-3,20085155E-006	2,16892673E-007
2	0	0	1	0	87,3710	-0,241260082	-0,240712926	-0,00095178237420945856	1	-3,67394387E-006	2,2910632E-007
2	0	0	1	0	87,8710	-0,251260698	-0,250701785	-0,00096308061148630195	1	-4,15273826E-006	2,41446031E-007
2	0	0	1	0	88,3710	-0,261261314	-0,26060158	-0,00097455506046470464	1	-4,63723882E-006	2,53970597E-007
2	0	0	1	0	88,8710	-0,27126193	-0,270728588	-0,00098588958172950682	1	-5,12746738E-006	2,66908501E-007
2	0	0	1	0	89,3710	-0,281262517	-0,280606091	-0,0009973994829461271	1	-5,62339574E-006	2,7987636E-007
2	0	0	0	0	89,8712	-0,291263163	-0,290697455	-0,0010088059655875766	1	-6,12525128E-006	2,9325733E-007
2	0	0	0	0	90,3712	-0,301263779	-0,300601691	-0,0010200234470108573	1	-6,63258697E-006	3,06620763E-007
2	0	0	0	0	90,8712	-0,311264396	-0,310719788	-0,0010315676780818534	1	-7,14558018E-006	3,205285E-007
2	0	0	0	0	91,3712	-0,321265012	-0,320695311	-0,0010428605304763603	1	-7,66427365E-006	3,34440472E-007
2	0	0	0	0	91,8712	-0,331265628	-0,330595106	-0,0010543237197756152	1	-8,18867011E-006	3,48554266E-007
2	0	0	0	0	92,3712	-0,341266245	-0,340641886	-0,0010657036630921813	1	-8,71876273E-006	3,63023304E-007
2	0	0	1	0	92,8714	-0,351266831	-0,350688756	-0,0010769884306851222	1	-9,25473705E-006	3,77687741E-007
2	0	0	1	0	93,3714	-0,361267477	-0,360646427	-0,0010883430015248362	1	-9,79616561E-006	3,92507019E-007
2	0	0	1	0	93,8714	-0,371268094	-0,370497197	-0,0010996996761942109	1	-1,03432703E-005	4,07435635E-007
2	0	0	1	0	94,3714	-0,38126871	-0,380450428	-0,0011109893538458776	1	-1,08960385E-005	4,22676379E-007
2	0	0	1	0	94,8714	-0,391269356	-0,39051953	-0,0011224277364413475	1	-1,14544946E-005	4,38329948E-007
2	0	0	1	0	95,3714	-0,401269972	-0,40066883	-0,001133682927536064	1	-1,20186205E-005	4,54231412E-007
2	0	0	1	0	95,8714	-0,411270589	-0,4105241	-0,0011450549273932746	1	-1,25884162E-005	4,70072649E-007
2	0	0	0	0	96,3716	-0,421271175	-0,420539647	-0,0011564946428363894	1	-1,316413E-005	4,86351837E-007
2	0	0	0	0	96,8716	-0,431271791	-0,430599838	-0,0011677766734566019	1	-1,37452671E-005	5,02844443E-007
2	0	0	0	0	97,3716	-0,441272378	-0,440735787	-0,001179404069531563	1	-1,43321868E-005	5,19805553E-007
2	0	0	0	0	97,8716	-0,451273054	-0,450555354	-0,0011877096107195082	1	-1,49244361E-005	5,35128947E-007
2	0	0	0	0	98,3716	-0,46127367	-0,460432827	-0,0012023942166437053	1	-1,55218622E-005	5,5362176E-007
2	0	0	0	0	98,8716	-0,471274257	-0,470724702	-0,001213191914656719	1	-1,61256139E-005	5,71079397E-007
2	0	0	1	0	99,3718	-0,481274873	-0,480539858	-0,0012256222249157414	1	-1,67352518E-005	5,88960347E-007
2	0	0	1	0	99,8718	-0,49127546	-0,490769327	-0,0012363986279524432	1	-1,73508652E-005	6,067865E-007
2	0	0	1	0	100,3718	-0,501276135	-0,500646889	-0,0012472771450120482	1	-1,79718718E-005	6,2444542E-007
2	0	0	1	0	100,8718	-0,511276722	-0,510644615	-0,0012587377715573435	1	-1,85984991E-005	6,42767645E-007
2	0	0	1	0	101,3718	-0,521277368	-0,520597875	-0,0012698729879048179	1	-1,92307652E-005	6,61093168E-007
2	0	0	1	0	101,8718	-0,531277955	-0,530462086	-0,001281157852914749	1	-1,9868623E-005	6,79605648E-007
2	0	0	1	0	102,3718	-0,541278541	-0,540633619	-0,001292477957812713	1	-2,05121232E-005	6,98757049E-007
2	0	0	0	0	102,8720	-0,551279247	-0,550453186	-0,0013037631024080538	1	-2,11615516E-005	7,17660555E-007
2	0	0	0	0	103,3720	-0,561279833	-0,560584664	-0,0013150625057244646	1	-2,18163495E-005	7,37203891E-007
2	0	0	0	0	103,8720	-0,57128042	-0,570644796	-0,001326385728774495	1	-2,24768046E-005	7,56895133E-007
2	0	0	0	0	104,3720	-0,581281006	-0,580549002	-0,0013376548933458125	1	-2,3142904E-005	7,76574211E-007
2	0	0	0	0	104,8720	-0,591281712	-0,59068054	-0,0013490576822261061	1	-2,38146786E-005	7,96862139E-007
2	0	0	0	0	105,3720	-0,601282299	-0,600709438	-0,0013605418284391227	1	-2,44921557E-005	8,17290299E-007
2	0	0	1	0	105,8722	-0,611282885	-0,610653818	-0,0013716360633595658	1	-2,51755628E-005	8,37594825E-007
2	0	0	1	0	106,3722	-0,621283531	-0,620531321	-0,001383059830846769	1	-2,58643649E-005	8,58231942E-007
2	0	0	1	0	106,8722	-0,631284058	-0,630662799	-0,0013944435670930926	1	-2,65588624E-005	8,79423681E-007
2	0	0	1	0	107,3722	-0,641284704	-0,640607178	-0,0014057738445882526	1	-2,72590241E-005	9,00548798E-007
2	0	0	1	0	107,8722	-0,65128535	-0,650783122	-0,0014170565633254139	1	-2,79648302E-005	9,22196477E-007
2	0	0	1	0	108,3722	-0,661286056	-0,660700738	-0,0014283810558953085	1	-2,86762752E-005	9,43732402E-007
2	0	0	1	0	108,8722	-0,671286583	-0,670756459	-0,0014397650428926989	1	-2,9393419E-005	9,65731715E-007
2	0	0	0	0	109,3724	-0,681287169	-0,680540383	-0,001450956130779727	1	-3,01164982E-005	9,87434191E-007
2	0	0	0	0	109,8724	-0,691287816	-0,690725327	-0,0014623563888394378	1	-3,08449271E-005	1,01008663E-006
2	0	0	0	0	110,3724	-0,701288462	-0,700589418	-0,0014736763203270829	1	-3,15790385E-005	1,03244201E-006
2	0	0	0	0	110,8724	-0,711289108	-0,710391223	-0,001484924486215249	1	-3,23187815E-005	1,05487732E-006
2	0	0	0	0	111,3724	-0,721289694	-0,720598459	-0,0014962729141256291	1	-3,30641778E-005	1,07821199E-006
2	0	0	0	0	111,8724	-0,731290281	-0,730640829	-0,0015075693496597805	1	-3,38152568E-005	1,10149176E-006
2	0	0	1	0	112,3726	-0,741290867	-0,740531623	-0,0015189218882167427	1	-3,45722801E-005	1,12480973E-006
2	0	0	1	0	112,8726	-0,751291513	-0,750672162	-0,001530274017972663	1	-3,53346768E-005	1,1487341E-006
2	0	0	1	0	113,3726	-0,761292219	-0,760456085	-0,0015415411288375696	1	-3,61027305E-005	1,17227432E-006
2	0	0	1	0	113,8726	-0,771292806	-0,770783484	-0,0015528922328182163	1	-3,68764522E-005	1,19694369E-006
2	0	0	1	0	114,3726	-0,781293392	-0,780549645	-0,0015642774723582387	1	-3,76558601E-005	1,22099618E-006
2	0	0	1	0	114,8726	-0,791294038	-0,790636659	-0,0015755651332222432	1	-3,84409141E-005	1,24569954E-006
2	0	0	1	0	115,3726	-0,801294625	-0,80078584	-0,0015869977979929491	1	-3,92316761E-005	1,27084536E-006
2	0	0	0	0	115,8728	-0,811295271	-0,810734689	-0,0015983721785704403	1	-4,00284371E-005	1,29585578E-006
2	0	0	0	0	116,3728	-0,821295917	-0,820612073	-0,0016095773028576323	1	-4,08305423E-005	1,32083858E-006
2	0	0	0	0	116,8728	-0,831296444	-0,830592215	-0,0016209533498988995	1	-4,16382645E-005	1,34635127E-006
2	0	0	0	0	117,3728	-0,84129703	-0,840491891	-0,0016321865022527437	1	-4,24516293E-005	1,37183952E-006
2	0	0	0	0	117,8728	-0,851297677	-0,850471854	-0,0016435831359423725	1	-4,32706693E-005	1,39782117E-006
2	0	0	0	0	118,3728	-0,861298382	-0,860527635	-0,0016545872993581901	1	-4,40953481E-005	1,42381805E-006
2	0	0	1	0	118,8730	-0,871298969	-0,870538712	-0,0016659112438059466	1	-4,49259096E-005	1,45024023E-006
2	0	0	1	0	119,3730	-0,881299555	-0,880451798	-0,0016770005186791251	1	-4,57617243E-005	1,47651815E-006
2	0	0	1	0	119,8730	-0,891300201	-0,890641332	-0,0016882788978465379	1	-4,66031343E-005	1,50365099E-006
2	0	0	1	0	120,3730	-0,901300788	-0,9005723	-0,0016996711743154822	1	-4,7450234E-005	1,53067674E-006
2	0	0	1	0	120,8730	-0,911301434	-0,910743833	-0,0017108881605694195	1	-4,8303009E-005	1,55818088E-006
2	0	0	1	0	121,3730	-0,921302021	-0,920639157	-0,0017223192909215005	1	-4,91614082E-005	1,58563455E-006
2	0	0	1	0	121,8730	-0,931302607	-0,930543303	-0,001734539334763585	1	-5,00255555E-005	1,61406399E-006
2	0	0	0	0	122,3732	-0,941303194	-0,940385222	-0,0017447726619408358	1	-5,08957382E-005	1,64075846E-006
2	0	0	0	0	122,8732	-0,95130384	-0,950596869	-0,0017562640851893907	1	-5,17710978E-005	1,66949917E-006
2	0	0	0	0	123,3732	-0,961304545	-0,960612476	-0,0017675437662142621	1	-5,2652169E-005	1,69792463E-006
2	0	0	0	0	123,8732	-0,971305132	-0,970543444	-0,0017790590397823869	1	-5,35389154E-005	1,72665409E-006
2	0	0	0	0	124,3732	-0,981305718	-0,980510116	-0,0017903422097636582	1	-5,4431348E-005	1,75544869E-006
2	0	0	0	0	124,8732	-0,991306305	-0,990605831	-0,0018015325431069533	1	-5,53294049E-005	1,78460868E-006
2	1	0	1	1	125,3088	-1,00000668	-0,99954313	-0,0018006261312760973	1	-5,61163433E-005	1,7998035E-006
2	1	0	0	1	125,7640	-0,990906358	-0,990093589	-0,001792473003054816	1	-5,69362528E-005	1,774716E-006
2	1	0	0	1	126,2640	-0,980905712	-0,980309665	-0,0017740747878431456	1	-5,78277395E-005	1,7391427E-006
2	1	0	0	1	126,7640	-0,970905006	-0,970191479	-0,0017563908056925162	1	-5,87102149E-005	1,70403541E-006
2	1	0	0	1	127,2640	-0,960904419	-0,960309565	-0,0017390827825120442	1	-5,95839447E-005	1,67005783E-006
2	1	0	0	1	127,7640	-0,950903833	-0,950044394	-0,0017221070030009923	1	-6,04491288E-005	1,63607808E-006
2	1	0	0	1	128,2640	-0,940903246	-0,940086782	-0,0017053463870305926	1	-6,13058655E-005	1,60317359E-006
2	1	0	1	1	128,7642	-0,93090266	-0,930289447	-0,0016887394616518294	1	-6,21546133E-005	1,57101647E-006
2	1	0	1	1	129,2642	-0,920902014	-0,920113325	-0,0016723458034835728	1	-6,29947317E-005	1,53874771E-006
2	1	0	1	1	129,7642	-0,910901368	-0,910155654	-0,0016562260565546397	1	-6,3826752E-005	1,50742346E-006
2	1	0	1	1	130,2642	-0,900900781	-0,900153458	-0,0016402682091143859	1	-6,46507833E-005	1,47649314E-006
2	1	0	1	1	130,7642	-0,890900195	-0,890204608	-0,0016240969260386957	1	-6,54667601E-005	1,44577859E-006
2	1	0	1	1	131,2642	-0,880899608	-0,880237997	-0,0016081949444789469	1	-6,62747916E-005	1,41559428E-006
2	1	0	1	1	131,7642	-0,870898843	-0,869968414	-0,0015920630623306208	1	-6,70747322E-005	1,38504458E-006
2	1	0	0	1	132,2644	-0,860898256	-0,860059738	-0,0015761902681400986	1	-6,7867004E-005	1,35561777E-006
2	1	0	0	1	132,7644	-0,85089767	-0,850044191	-0,0015603558546259872	1	-6,86510321E-005	1,32637138E-006
2	1	0	0	1	133,2644	-0,840897083	-0,840162158	-0,0015445066857393136	1	-6,94271221E-005	1,29763612E-006
2	1	0	0	1	133,7644	-0,830896497	-0,830329299	-0,0015288562008882525	1	-7,0195325E-005	1,26945406E-006
2	1	0	0	1	134,2644	-0,820895851	-0,820273578	-0,0015131961141984646	1	-7,09557207E-005	1,24123483E-006
2	1	0	0	1	134,7644	-0,810895085	-0,810378194	-0,0014977729250083974	1	-7,17083458E-005	1,21376252E-006
2	1	0	1	1	135,2646	-0,800894618	-0,800228834	-0,0014821270789845341	1	-7,24534984E-005	1,18604078E-006
2	1	0	1	1	135,7646	-0,790894032	-0,790124178	-0,0014666563028758566	1	-7,31905893E-005	1,15884063E-006
2	1	0	1	1	136,2646	-0,780893326	-0,780113041	-0,0014516867564385338	1	-7,39199968E-005	1,13247972E-006
2	1	0	1	1	136,7646	-0,77089268	-0,770052731	-0,0014359638448190152	1	-7,46418809E-005	1,10576786E-006
2	1	0	1	1	137,2646	-0,760892093	-0,759983718	-0,0014205853774371875	1	-7,53558706E-005	1,07962171E-006
2	1	0	1	1	137,7646	-0,750891447	-0,75025326	-0,0014053408679804547	1	-7,60622133E-005	1,05436152E-006
2	1	0	1	1	138,2646	-0,740890861	-0,740130663	-0,001390100811005579	1	-7,67609745E-005	1,02885622E-006
2	1	0	0	1	138,7648	-0,730890274	-0,730222046	-0,0013749069748209198	1	-7,74524087E-005	1,00398734E-006
2	1	0	0	1	139,2648	-0,720889688	-0,720081627	-0,0013596741882793139	1	-7,81359631E-005	9,7907639E-007
2	1	0	0	1	139,7648	-0,710889041	-0,710141718	-0,0013444869707907643	1	-7,88118996E-005	9,54776283E-007
2	1	0	0	1	140,2648	-0,700888336	-0,700099409	-0,0013295201583618867	1	-7,94802982E-005	9,30796261E-007
2	1	0	0	1	140,7648	-0,690887809	-0,690230787	-0,001314477219205367	1	-8,01411952E-005	9,07292645E-007
2	1	0	0	1	141,2648	-0,680887163	-0,680005789	-0,0012994087607054416	1	-8,07945544E-005	8,8360548E-007
2	1	0	1	1	141,7650	-0,670886517	-0,67035991	-0,0012844686782584688	1	-8,14406885E-005	8,61056321E-007
2	1	0	1	1	142,2650	-0,66088593	-0,660348773	-0,0012697150315809109	1	-8,20791174E-005	8,38454753E-007
2	1	0	1	1	142,7650	-0,650885284	-0,650310874	-0,0012549351289366032	1	-8,27101539E-005	8,16097952E-007
2	1	0	1	1	143,2650	-0,640884697	-0,640179396	-0,0012400105810633656	1	-8,33337763E-005	7,93829201E-007
2	1	0	1	1	143,7650	-0,630884111	-0,630038977	-0,0012251690429736683	1	-8,39499626E-005	7,7190424E-007
2	1	0	1	1	144,2650	-0,620883524	-0,620050132	-0,0012104759135346056	1	-8,45588002E-005	7,50555728E-007
2	1	0	1	1	144,7650	-0,610882878	-0,610132575	-0,0011957464413609557	1	-8,51602454E-005	7,29563851E-007
2	1	0	0	1	145,2652	-0,600882173	-0,600312948	-0,0011810555857933898	1	-8,57545601E-005	7,09002961E-007
2	1	0	0	1	145,7652	-0,590881586	-0,590266109	-0,0011662491280596334	1	-8,6341257E-005	6,88397336E-007
2	1	0	0	1	146,2652	-0,580881059	-0,580148101	-0,0011515175772526808	1	-8,69205687E-005	6,68050745E-007
2	1	0	0	1	146,7652	-0,570880413	-0,570226014	-0,001136864062573295	1	-8,74925536E-005	6,48269463E-007
2	1	0	0	1	147,2652	-0,560879827	-0,56024605	-0,0011222691902259171	1	-8,80572261E-005	6,28746875E-007
2	1	0	0	1	147,7652	-0,55087918	-0,550132453	-0,0011077524321552613	1	-8,86145936E-005	6,09410563E-007
2	1	0	1	1	148,2654	-0,540878534	-0,540228188	-0,0010932085184591662	1	-8,91649252E-005	5,90582033E-007
2	1	0	1	1	148,7654	-0,530877948	-0,530083299	-0,0010785984656346662	1	-8,97077625E-005	5,71747023E-007
2	1	0	1	1	149,2654	-0,520877361	-0,520116687	-0,0010642640840227683	1	-9,02433603E-005	5,53541497E-007
2	1	0	1	1	149,7654	-0,510876715	-0,510167897	-0,0010497371018842646	1	-9,07717331E-005	5,35542142E-007
2	1	0	1	1	150,2654	-0,500876069	-0,500299335	-0,0010352792184373013	1	-9,12928735E-005	5,17949502E-007
2	1	0	1	1	150,7654	-0,490875453	-0,490212411	-0,0010209459489690045	1	-9,18068326E-005	5,00480382E-007
2	1	0	1	1	151,2654	-0,480874836	-0,480348229	-0,0010065082522622234	1	-9,23135813E-005	4,8347448E-007
2	1	0	0	1	151,7656	-0,47087428	-0,470234662	-0,00099212592801820736	1	-9,2813345E-005	4,66532015E-007
2	1	0	0	1	152,2656	-0,460873663	-0,460143268	-0,00097780210665035162	1	-9,33057236E-005	4,49929047E-007
2	1	0	0	1	152,7656	-0,450873047	-0,450136602	-0,00096347780318293069	1	-9,37909281E-005	4,33696613E-007
2	1	0	0	1	153,2656	-0,440872371	-0,440214485	-0,00094919857292552474	1	-9,42689876E-005	4,1785097E-007
2	1	0	0	1	153,7656	-0,430871755	-0,430145413	-0,00093493790242333594	1	-9,47398876E-005	4,02159259E-007
2	1	0	0	1	154,2656	-0,420871168	-0,420209914	-0,00092077997329330022	1	-9,52036862E-005	3,86920874E-007
2	1	0	1	1	154,7658	-0,410870552	-0,41002059	-0,00090651283540797325	1	-9,56605727E-005	3,71688941E-007
2	1	0	1	1	155,2658	-0,400869966	-0,400058419	-0,00089239926873469286	1	-9,61101905E-005	3,57011828E-007
2	1	0	1	1	155,7658	-0,39086929	-0,390247732	-0,0008783858721909815	1	-9,6552787E-005	3,42788098E-007
2	1	0	1	1	156,2658	-0,380868673	-0,380085111	-0,00086510621123899418	1	-9,69884568E-005	3,28813996E-007
2	1	0	1	1	156,7658	-0,370868027	-0,370114028	-0,00085023938636705382	1	-9,74170762E-005	3,14685536E-007
2	1	0	1	1	157,2658	-0,360867441	-0,360004872	-0,00083617762626359782	1	-9,78385433E-005	3,01028024E-007
2	1	0	1	1	157,7658	-0,350866824	-0,350167483	-0,00082216783684324787	1	-9,82529891E-005	2,87896455E-007
2	1	0	0	1	158,2660	-0,340866208	-0,340330005	-0,00080822504349742707	1	-9,86606319E-005	2,75063229E-007
2	1	0	0	1	158,7660	-0,330865622	-0,330323309	-0,00079403574138134029	1	-9,90610861E-005	2,62288523E-007
2	1	0	0	1	159,2660	-0,320865005	-0,320343345	-0,0007800881089847465	1	-9,9454468E-005	2,49896033E-007
2	1	0	0	1	159,7660	-0,310864359	-0,310158402	-0,00076606081387985306	1	-9,98409014E-005	2,37600204E-007
2	1	0	0	1	160,2660	-0,300863713	-0,300316542	-0,0007521384574863104	1	-0,00010022035	2,25879617E-007
2	1	0	0	1	160,7660	-0,290863127	-0,290207386	-0,00073823732627378675	1	-0,000100592843	2,14241922E-007
2	1	0	1	1	161,2662	-0,28086254	-0,280285299	-0,00072436368544812582	1	-0,000100958518	2,03028492E-007
2	1	0	1	1	161,7662	-0,270861894	-0,270144969	-0,000710399668605536	1	-0,000101317099	1,919109E-007
2	1	0	1	1	162,2662	-0,260861278	-0,260289699	-0,00069668877848825037	1	-0,000101668789	1,81340909E-007
2	1	0	1	1	162,7662	-0,250860691	-0,250260711	-0,0006829467926123735	1	-0,00010201359	1,70914745E-007
2	1	0	1	1	163,2662	-0,24086003	-0,240334183	-0,00066915152590943731	1	-0,0001023515	1,6081998E-007
2	1	0	1	1	163,7662	-0,230859444	-0,230171546	-0,00065576419830095949	1	-0,000102682548	1,50938263E-007
2	1	0	1	1	164,2662	-0,220858827	-0,220178217	-0,00064157450011676941	1	-0,000103006831	1,41260728E-007
2	1	0	0	1	164,7664	-0,210858196	-0,210184872	-0,00062795648719421453	1	-0,000103324244	1,31986951E-007
2	1	0	0	1	165,2664	-0,200857595	-0,200244993	-0,00061416399876179558	1	-0,000103634673	1,22983266E-007
2	1	0	0	1	165,7664	-0,190856948	-0,19026944	-0,0006006111010787287	1	-0,00010393824	1,14277938E-007
2	1	0	0	1	166,2664	-0,180856362	-0,180271655	-0,00058680767593883955	1	-0,000104234976	1,05784792E-007
2	1	0	0	1	166,7664	-0,170855731	-0,170126826	-0,00057312815106005773	1	-0,000104524843	9,75044756E-008
2	1	0	0	1	167,2664	-0,160855114	-0,160280511	-0,00055951792388374106	1	-0,000104807892	8,96798156E-008
2	1	0	1	1	167,7666	-0,150854498	-0,150247052	-0,0005458284103951865	1	-0,000105084233	8,20091088E-008
2	1	0	1	1	168,2666	-0,140853867	-0,140195787	-0,0005324340461946263	1	-0,000105353669	7,46450084E-008
2	1	0	1	1	168,7666	-0,130853251	-0,130296022	-0,00051875722797208211	1	-0,000105616346	6,75920049E-008
2	1	0	1	1	169,2666	-0,120852642	-0,120235853	-0,00050530161947621997	1	-0,000105872248	6,07553687E-008
2	1	0	1	1	169,7666	-0,110852025	-0,110233575	-0,00049191389290273274	1	-0,000106121457	5,42254277E-008
2	1	0	1	1	170,2666	-0,100851409	-0,100347169	-0,0004785046230271865	1	-0,000106363972	4,80165845E-008
2	1	0	1	1	170,7666	-0,0908507928	-0,0902691707	-0,0004650749467853335	1	-0,000106599742	4,19819308E-008
2	1	0	0	1	171,2668	-0,0808501765	-0,0801377073	-0,00045155985160952749	1	-0,000106828898	3,61869716E-008
2	1	0	0	1	171,7668	-0,0708495602	-0,0701443627	-0,00043813662543672973	1	-0,000107051223	3,07328136E-008
2	1	0	0	1	172,2668	-0,0608489364	-0,0602534898	-0,00042487696764173696	1	-0,000107266853	2,56003201E-008
2	1	0	0	1	172,7668	-0,0508483276	-0,05017104	-0,00041141930402470003	1	-0,000107475804	2,0641334E-008
2	1	0	0	1	173,2668	-0,0408477075	-0,0399504676	-0,00039797547591054541	1	-0,000107678032	1,58993068E-008
2	1	0	0	1	173,7668	-0,0308470894	-0,0300774164	-0,00038466944331756045	1	-0,000107873588	1,15698633E-008
2	1	0	1	1	174,2670	-0,0208464712	-0,0200929809	-0,00037121721996098182	1	-0,000108062501	7,4588602E-009
2	1	0	1	1	174,7670	-0,0108458549	-0,0102511188	-0,00035793061754332224	1	-0,000108244676	3,66918917E-009
2	1	0	1	1	175,2670	-0,00084523845	-0,000435986702	-0,00034471942763047821	1	-0,000108420209	1,50293084E-010
2	1	0	1	1	175,7670	0,00915537495	0,00973111298	-0,00033153236529836256	1	-0,000108589178	3,22617888E-009
2	1	0	1	1	176,2670	0,0191559866	0,0196219832	-0,00031835001253191974	1	-0,000108751556	6,24665875E-009
2	1	0	1	1	176,7670	0,0291566011	0,0297712609	-0,00030507241252861626	1	-0,00010890729	9,08238995E-009
2	1	0	1	1	177,2670	0,0391572118	0,0396398529	-0,0002920626134423561	1	-0,00010905644	1,15773187E-008
2	1	0	0	1	177,7672	0,0491578244	0,0497757606	-0,00027881344208759021	1	-0,000109199078	1,38781511E-008
2	1	0	0	1	178,2672	0,0591584332	0,0598403886	-0,00026564123224185686	1	-0,000109335058	1,58960738E-008
2	1	0	0	1	178,7672	0,0691590533	0,0697045326	-0,00025253352470355328	1	-0,000109464483	1,76027317E-008
2	1	0	0	1	179,2672	0,0791596621	0,0798493475	-0,0002393567704159608	1	-0,000109587338	1,91124823E-008
2	1	0	0	1	179,7672	0,089160271	0,0896822959	-0,00022631944041980435	1	-0,000109703629	2,02968469E-008
2	1	0	0	1	180,2672	0,0991608873	0,0997959226	-0,00021314637507640742	1	-0,000109813394	2,12711395E-008
2	1	0	1	1	180,7674	0,109161504	0,109882839	-0,00020007267920408157	1	-0,00010991664	2,19845546E-008
2	1	0	1	1	181,2674	0,119162112	0,119831622	-0,00018704507478846563	1	-0,000110013301	2,24139143E-008
2	1	0	1	1	181,7674	0,129162714	0,129856154	-0,00017388450982657162	1	-0,000110103421	2,25799734E-008
2	1	0	1	1	182,2674	0,13916333	0,139796034	-0,00016085043432246486	1	-0,000110186993	2,24862529E-008
2	1	0	1	1	182,7674	0,149163947	0,149651259	-0,00014787244548710106	1	-0,000110264082	2,21292975E-008
2	1	0	1	1	183,2674	0,159164563	0,15990299	-0,00013485690883667501	1	-0,00011033468	2,15640235E-008
2	1	0	1	1	183,7674	0,169165179	0,169727042	-0,00012193206521260458	1	-0,000110398803	2,06951682E-008
2	1	0	0	1	184,2676	0,179165795	0,179845139	-0,00010904624163972451	1	-0,00011045648	1,9611436E-008
2	1	0	0	1	184,7676	0,189166397	0,189842924	-9,627820487299616E-005	1	-0,000110507681	1,82777367E-008
2	1	0	0	1	185,2676	0,199166998	0,199662521	-8,3402547530837939E-005	1	-0,000110552603	1,6652363E-008
2	1	0	0	1	185,7676	0,209167629	0,209905371	-7,1154389548542758E-005	1	-0,000110591209	1,49356882E-008
2	1	0	0	1	186,2676	0,219168231	0,219511077	-5,792507121677088E-005	1	-0,000110623092	1,27151951E-008
2	1	0	0	1	186,7676	0,229168832	0,229807362	-4,4660713313162739E-005	1	-0,000110648572	1,02633608E-008
2	1	0	1	1	187,2678	0,239169464	0,239827469	-3,1611612101827251E-005	1	-0,00011066725	7,58133289E-009
2	1	0	1	1	187,7678	0,24917008	0,249869794	-1,9291162767895302E-005	1	-0,000110679961	4,82027884E-009
2	1	0	1	1	188,2678	0,259170681	0,259604722	-6,3725066445260954E-006	1	-0,000110686291	1,65433278E-009
2	1	0	1	1	188,7678	0,269171298	0,269785196	6,3174946075427085E-006	1	-0,000110686189	1,70436654E-009
2	1	0	1	1	189,2678	0,279171914	0,279729515	1,9107761144394099E-005	1	-0,000110679684	5,34500488E-009
2	1	0	1	1	189,7678	0,2891725	0,289932281	3,1977383518669389E-005	1	-0,000110666791	9,2712753E-009
2	1	0	1	1	190,2678	0,299173146	0,299796432	4,4647805823303571E-005	1	-0,000110647525	1,33852529E-008
2	1	0	0	1	190,7680	0,309173733	0,309780836	5,734722647806256E-005	1	-0,000110621913	1,77650712E-008
2	1	0	0	1	191,2680	0,319174349	0,319604903	6,9984363899830336E-005	1	-0,000110589957	2,23673453E-008
2	1	0	0	1	191,7680	0,329174966	0,329776406	8,2704116241277197E-005	1	-0,000110551679	2,72738667E-008
2	1	0	0	1	192,2680	0,339175582	0,339604944	9,5382189354293286E-005	1	-0,000110507055	3,23922613E-008
2	1	0	0	1	192,7680	0,349176168	0,349656194	0,00010796544286980291	1	-0,000110456131	3,77507874E-008
2	1	0	0	1	193,2680	0,359176815	0,359765351	0,00012060685004918826	1	-0,000110398876	4,33901661E-008
2	1	0	1	1	193,7682	0,369177401	0,369838864	0,0001333046576561447	1	-0,000110335255	4,93012422E-008
2	1	0	1	1	194,2682	0,379178017	0,379698604	0,00014579736987933082	1	-0,000110265399	5,53590596E-008
2	1	0	1	1	194,7682	0,389178634	0,389816701	0,00015835559763757008	1	-0,000110189263	6,17296578E-008
2	1	0	1	1	195,2682	0,39917922	0,399627388	0,0001708809980266743	1	-0,000110106848	6,82887276E-008
2	1	0	1	1	195,7682	0,409179837	0,409709752	0,00018348368924610736	1	-0,000110018154	7,51750591E-008
2	1	0	1	1	196,2682	0,419180483	0,419783354	0,00019606370827844957	1	-0,000109923174	8,23042825E-008
2	1	0	1	1	196,7682	0,429181099	0,429643005	0,00020843832397885158	1	-0,000109821958	8,95540708E-008
2	1	0	0	1	197,2684	0,439181715	0,4398413	0,00022108666261946938	1	-0,000109714405	9,72430456E-008
2	1	0	0	1	197,7684	0,449182302	0,449754417	0,00023352400579891878	1	-0,000109600638	1,05028455E-007
2	1	0	0	1	198,2684	0,459182888	0,459859163	0,00024598063447666893	1	-0,000109480658	1,1311645E-007
2	1	0	0	1	198,7684	0,469183505	0,469914824	0,00025843727538207027	1	-0,000109354449	1,21443506E-007
2	1	0	0	1	199,2684	0,47918418	0,479859233	0,00027085327524724051	1	-0,000109222034	1,2997144E-007
2	1	0	0	1	199,7684	0,489184767	0,489710003	0,00028327753190953658	1	-0,000109083419	1,38723834E-007
2	1	0	0	1	199,9878	0,493685216	0,493951648	0,0002775964716089552	1	-0,000109020701	1,3711923E-007