File: Experimentelles/Ausgewaehlte_Daten/LTO/CV/schlecht/LTO_LP30_Li_Aufladen_03_CV_C03.mpt
EC-Lab ASCII FILE
Nb header lines : 64

Cyclic Voltammetry

Run on channel : 3 (SN 6987)
Grouped channel(s) : 3
User :
CE vs. WE compliance from -10 V to 10 V
Electrode connection : standard
Ewe ctrl range : min = -5,00 V, max = 5,00 V
Acquisition started on : 05.11.2015 15:06:40
Saved on :
	File : LTO_LP30_Li_Aufladen_03_CV_C03.mpr
	Directory : C:\Hupfer\150511_LLTO_LTO_Tests\LTO_Aufladen\
	Host : 192.168.0.2
Device : VMP3 (SN 0324)
Address : 192.168.0.1
EC-Lab for windows v10.33 (software)
Internet server v10.33 (firmware)
Command interpretor v10.32 (firmware)
Electrode material :
Initial state :
Electrolyte :
Comments :
Mass of active material : 0,001 mg
 at x = 0,000
Molecular weight of active material (at x = 0) : 0,001 g/mol
Atomic weight of intercalated ion : 0,001 g/mol
Acquisition started at : xo = 0,000
Number of e- transfered per intercalated ion : 1
for DX = 1, DQ = 26,801 mA.h
Battery capacity : 0,000 A.h
Electrode surface area : 0,001 cm²
Characteristic mass : 0,001 g
Ei (V)              0,000
vs.                 Eoc
dE/dt               20,000
dE/dt unit          mV/s
E1 (V)              4,000
vs.                 Ref
Step percent        50
N                   10
E range min (V)     -5,000
E range max (V)     5,000
I Range             Auto
Bandwidth           5
E2 (V)              1,000
vs.                 Ref
nc cycles           0
Reverse Scan        1
Ef (V)              0,000
vs.                 Eoc

Number of loops : 7
Loop 0 from point number 0 to 3002
Loop 1 from point number 3003 to 6002
Loop 2 from point number 6003 to 9003
Loop 3 from point number 9004 to 12003
Loop 4 from point number 12004 to 15003
Loop 5 from point number 15004 to 18003
Loop 6 from point number 18004 to 21003

mode	ox/red	error	control changes	counter inc.	time/s	control/V	Ewe/V	<I>/mA	cycle number	(Q-Qo)/C	P/W
2	1	0	0	0	295223,9078	1,29745698	1,29819894	0,0087835211306810381	1	0	1,1402758E-005
2	1	0	1	0	295227,9426	1,37815261	1,37890959	0,44083154332582317	1	0,000975274772	0,000607866852
2	1	0	0	0	295231,9424	1,45814872	1,45897996	0,95070253698912845	1	0,00369651243	0,00138705596
2	1	0	1	0	295235,9722	1,53874481	1,53961539	1,6099863099279315	1	0,00883550104	0,00247875974
2	1	0	0	0	295239,9720	1,61874092	1,6196146	2,3045315894263965	1	0,0166592132	0,0037324531
2	1	0	1	0	295243,9718	1,69873703	1,69965398	3,0227981656788787	1	0,0273112413	0,00513771083
2	1	0	0	0	295247,9716	1,77873313	1,77939939	3,7495909796821037	1	0,0408605561	0,00667202007
2	1	0	1	0	295251,9714	1,85872924	1,85965657	4,4584908490931891	1	0,057295993	0,0082912622
2	1	0	0	0	295255,9712	1,93872523	1,93936229	5,1337686622585254	1	0,0764810815	0,00995623693
2	1	0	1	0	295259,9710	2,01872134	2,01957965	5,7899153431255424	1	0,0983297676	0,0116931954
2	1	0	0	0	295263,9708	2,09871745	2,09946322	6,4216981916516646	1	0,122760743	0,013482119
2	1	0	1	0	295267,9706	2,17871356	2,17952013	7,0263268351552307	1	0,149706677	0,0153140211
2	1	0	0	0	295271,9704	2,25870967	2,2596395	7,4592495328849715	1	0,178733885	0,0168552157
2	1	0	1	0	295275,9702	2,33870578	2,33943844	7,7550659599128269	1	0,209226519	0,018142499
2	1	0	0	0	295279,9699	2,41870189	2,41952205	7,7938756401891776	1	0,240444928	0,018857453
2	1	0	1	0	295283,9697	2,49869776	2,49946809	6,6597223557807898	1	0,270221144	0,0166457631
2	1	0	0	0	295287,9695	2,57869411	2,57959604	4,8422130556017466	1	0,293023646	0,0124909533
2	1	0	1	0	295291,9693	2,65869045	2,65950656	2,51696069317844	1	0,308484465	0,00669387355
2	1	0	0	0	295295,9691	2,73868608	2,73958135	0,98305593099856742	1	0,314323187	0,0026931616
2	1	0	1	0	295299,9689	2,81868243	2,81946468	0,79920670873034189	1	0,317821264	0,0022533352
2	1	0	0	0	295303,9687	2,89867854	2,89956641	0,72529700357051392	1	0,320856184	0,00210304675
2	1	0	1	0	295307,9685	2,97867441	2,97935653	0,68120767114063962	1	0,32366395	0,00202956051
2	1	0	0	0	295311,9683	3,05867076	3,0595026	0,65945196751918682	1	0,326343358	0,00201759511
2	1	0	1	0	295315,9681	3,13866663	3,13947058	0,6464530290276969	1	0,328956515	0,00202952023
2	1	0	0	0	295319,9679	3,21866274	3,2193985	0,63999997907213581	1	0,331530243	0,00206041499
2	1	0	1	0	295323,9677	3,29865885	3,29932666	0,63771939319040781	1	0,334089756	0,00210404466
2	1	0	0	0	295327,9675	3,3786552	3,37955284	0,6343298052886039	1	0,336632818	0,00214375113
2	1	0	1	0	295331,9673	3,45865107	3,45957875	0,63453740205754496	1	0,339175552	0,00219523208
2	1	0	0	0	295335,9671	3,53864717	3,53952003	0,6447591588452823	1	0,341725886	0,00228213798
2	1	0	1	0	295339,9669	3,61864328	3,61950159	0,67324690341396122	1	0,344360858	0,00243681832
2	1	0	0	0	295343,9667	3,69863963	3,69954967	0,7150051703469655	1	0,347135037	0,00264519709
2	1	0	1	0	295347,9665	3,77863503	3,77935266	0,77378754465427059	1	0,350109249	0,00292441598
2	1	0	1	0	295351,9665	3,8586328	3,859519	0,85184035676160614	1	0,353358477	0,00328769395
2	1	0	0	0	295355,9663	3,93862772	3,9395647	0,93809583065687718	1	0,356939852	0,00369568914
2	0	0	1	0	295359,7865	3,98482561	3,98565722	0,85561249584510259	1	0,360613942	0,003410178
2	0	0	0	0	295363,8263	3,90402913	3,90486622	0,46012353434882592	1	0,363163143	0,0017967209
2	0	0	1	0	295367,8261	3,82403326	3,82480454	0,26548124332395507	1	0,364571333	0,0010154139
2	0	0	0	0	295371,8259	3,74403715	3,7449789	0,15901240773705776	1	0,365397722	0,000595498132
2	0	0	1	0	295375,8257	3,66404104	3,66488194	0,095862028421830118	1	0,365893424	0,000351323019
2	0	0	0	0	295379,8255	3,58404493	3,58490491	0,058546233249620493	1	0,366192788	0,000209882681
2	0	0	1	0	295383,8653	3,50324845	3,50406909	0,034261985750937363	1	0,366374016	0,000120056364
2	0	0	0	0	295387,8651	3,42325282	3,42388749	0,017481060345070272	1	0,366474152	5,98531842E-005
2	0	0	1	0	295391,9049	3,34245658	3,34319019	0,0028858302587954912	1	0,366512895	9,64787978E-006
2	0	0	0	0	295395,9047	3,26246047	3,26316428	-0,0086363938839729984	1	0,366500229	2,81819721E-005
2	0	0	1	0	295399,9445	3,18166447	3,1824708	-0,017940024069200157	1	0,366444528	5,70936027E-005
2	0	0	0	0	295403,9443	3,1016686	3,10249853	-0,026566577445785501	1	0,36635232	8,24227682E-005
2	0	0	1	0	295407,9441	3,02167249	3,02258801	-0,033325769675517094	1	0,366229951	0,000100730074
2	0	0	0	0	295411,9438	2,94167638	2,94250894	-0,038472880320450931	1	0,366084695	0,000113206792
2	0	0	1	0	295415,9436	2,86168027	2,86249185	-0,04298843027316704	1	0,365922302	0,000123054037
2	0	0	0	0	295419,9434	2,78168416	2,7824614	-0,047766098950956512	1	0,36573872	0,000132907327
2	0	0	1	0	295423,9433	2,70168829	2,70248032	-0,052561982129620378	1	0,365536124	0,00014204772
2	0	0	1	0	295427,9432	2,62169194	2,62250304	-0,05638606801491111	1	0,365316004	0,000147872634
2	0	0	0	0	295431,9430	2,54169583	2,54247284	-0,059804627576979686	1	0,365082115	0,000152051638
2	0	0	1	0	295435,9428	2,46169972	2,46248698	-0,063148483168332045	1	0,364832759	0,000155502319
2	0	0	0	0	295439,9426	2,38170362	2,38232732	-0,068007418290816474	1	0,364567101	0,000162015931
2	0	0	1	0	295443,9424	2,30170751	2,30245304	-0,072112833891337933	1	0,364285052	0,000166036407
2	0	0	0	0	295447,9422	2,2217114	2,22247124	-0,075787983610535962	1	0,363987267	0,000168436614
2	0	0	1	0	295451,9420	2,14171529	2,14238787	-0,080028624308331571	1	0,363673747	0,000171452353
2	0	0	0	0	295455,9418	2,06171942	2,06255317	-0,086598708820356006	1	0,363338858	0,000178614442
2	0	0	1	0	295459,9816	1,98092318	1,9816153	-0,10649826834668419	1	0,362956196	0,000211038598
2	0	0	0	0	295463,9814	1,90092707	1,90166497	-0,13060941136683768	1	0,362476379	0,000248375349
2	0	0	1	0	295467,9812	1,82093108	1,82169235	-0,15625838818097661	1	0,361904323	0,000284654699
2	0	0	0	0	295471,9810	1,74093485	1,74163961	-0,1962104079279161	1	0,361202091	0,000341727806
2	0	0	1	0	295475,9808	1,66093886	1,66154718	-0,24895770371788829	1	0,360318214	0,000413654983
2	0	0	0	0	295479,9806	1,58094263	1,58174348	-0,32091533130516755	1	0,359183818	0,000507605728
2	0	0	1	0	295483,9804	1,50094664	1,50167775	-0,42699844700595603	1	0,357701957	0,000641214079
2	0	0	0	0	295487,9802	1,42095053	1,42174518	-0,60066919939385869	1	0,355671972	0,000853998528
2	0	0	1	0	295491,9800	1,34095454	1,34167039	-0,88172509328083674	1	0,352743298	0,00118298444
2	0	0	0	0	295496,0098	1,26035845	1,26105285	-1,3201832382215102	1	0,348377466	0,00166482083
2	0	0	1	0	295500,0096	1,18036234	1,18124032	-1,9843718602701123	1	0,341812938	0,00234401994
2	0	0	0	0	295504,0094	1,10036612	1,10116994	-2,8025854155422144	1	0,332250208	0,00308612292
2	0	0	1	0	295508,0092	1,02037013	1,02109075	-3,6905780186256294	1	0,319274336	0,00376841496
2	1	0	0	1	295511,8794	1,05716836	1,05796945	-3,0826092036785722	1	0,305449575	0,00326130632
2	1	0	1	1	295515,8792	1,13716447	1,13801336	-2,065542277362649	1	0,295203149	0,00235061464
2	1	0	1	1	295519,8791	1,2171613	1,21785319	-1,1828979573162144	1	0,288750738	0,00144059607
2	1	0	0	1	295523,8790	1,29715681	1,29799867	-0,39935409526030298	1	0,285619766	0,000518361107
2	1	0	1	0	295527,7996	1,37435293	1,37515497	0,28774202301133123	2	-0,000155198504	0,000395689887
2	1	0	0	0	295531,8144	1,45464885	1,45541227	1,0058595201828648	2	0,00243831892	0,00146394025
2	1	0	1	0	295535,8292	1,53494501	1,5358963	1,7306035298992413	2	0,00793866441	0,00265802746
2	1	0	0	0	295539,8290	1,61494112	1,61570883	2,4557692433396134	2	0,0163140483	0,00396780809
2	1	0	1	0	295543,8288	1,69493711	1,69584143	3,1813300903198182	2	0,0275934692	0,00539503153
2	1	0	0	0	295547,8285	1,77493334	1,77562702	3,8664491706424755	2	0,0417208597	0,00686537148
2	1	0	1	0	295551,8283	1,85492945	1,85582209	3,9462238787499827	2	0,0579280034	0,00732348952
2	1	0	0	0	295555,8281	1,93492556	1,93564785	1,6574199530813658	2	0,0695757642	0,00320818136
2	1	0	1	0	295559,8679	2,01572132	2,01640773	0,32606313494896621	2	0,0725823194	0,000657476252
2	1	0	0	0	295563,8677	2,09571743	2,09652686	0,18450959604578899	2	0,0735670105	0,000386829313
2	1	0	1	0	295567,8675	2,17571354	2,1765573	0,11984814306790302	2	0,0741583034	0,000260856352
2	1	0	0	0	295571,8673	2,25570989	2,25639653	0,089664259175253888	2	0,0745680481	0,00020231813
2	1	0	1	0	295575,8671	2,335706	2,33653808	0,084323237124073638	2	0,0749155283	0,000197024448
2	1	0	0	0	295579,8669	2,4157021	2,41646171	0,08398851918712247	2	0,0752537698	0,000202955038
2	1	0	1	0	295583,8667	2,49569821	2,49665666	0,085379830975499674	2	0,0755948201	0,000213164123
2	1	0	0	0	295587,8665	2,57569408	2,57641983	0,08914048586005929	2	0,0759446844	0,000229663317
2	1	0	1	0	295591,8663	2,65569043	2,65657473	0,091508720604769562	2	0,0763068348	0,000243099756
2	1	0	0	0	295595,8661	2,73568654	2,73645854	0,095627685017122483	2	0,0766833648	0,000261681183
2	1	0	1	0	295599,8659	2,81568265	2,81643105	0,10117745999660621	2	0,0770792812	0,000284959329
2	1	0	0	0	295603,8657	2,89567876	2,89661241	0,10721403712200006	2	0,0774984583	0,000310557516
2	1	0	1	0	295607,8655	2,97567487	2,97644734	0,11403588910966563	2	0,0779431164	0,000339421822
2	1	0	0	0	295611,8653	3,05567098	3,05650401	0,12185410448108642	2	0,0784171	0,000372447568
2	1	0	1	0	295615,8651	3,13566661	3,13636971	0,13150803699951515	2	0,07892593	0,000412457826
2	1	0	0	0	295619,8649	3,21566319	3,21662712	0,14309006879382086	2	0,0794768855	0,000460267387
2	1	0	1	0	295623,8647	3,29565907	3,29644799	0,15844518367063421	2	0,0800808072	0,000522306305
2	1	0	0	0	295627,8645	3,37565517	3,37641668	0,17954740638809507	2	0,0807570219	0,000606226851
2	1	0	1	0	295631,8643	3,45565128	3,45638895	0,20986545817168301	2	0,0815350786	0,000725376653
2	1	0	0	0	295635,8641	3,53564739	3,5364728	0,25184557228176496	2	0,0824569091	0,000890645024
2	1	0	1	0	295639,8639	3,6156435	3,61640549	0,30883306464939533	2	0,0835737735	0,00111686555
2	1	0	1	0	295643,8638	3,6956408	3,69645023	0,39070226104550086	2	0,0849667639	0,00144421146
2	1	0	0	0	295647,8636	3,77563477	3,77645326	0,49287571438889357	2	0,0867320746	0,00186132209
2	1	0	1	0	295651,8635	3,85563183	3,85656333	0,60546707513707302	2	0,0889289826	0,0023350222
2	1	0	0	0	295655,8633	3,93562794	3,93646002	0,7226494448604352	2	0,0915872902	0,00284468057
2	0	0	1	0	295659,7335	3,98682547	3,9878366	0,69629205239040909	2	0,094546549	0,00277669891
2	0	0	0	0	295663,7333	3,9068296	3,90772223	0,36706810893007782	2	0,0965781584	0,00143440021
2	0	0	1	0	295667,7331	3,82683325	3,82769608	0,2107147186028664	2	0,0976967812	0,000806551892
2	0	0	0	0	295671,7329	3,74683714	3,74757719	0,12207688881015688	2	0,098346442	0,00045749257
2	0	0	1	0	295675,7327	3,66684079	3,66770673	0,06379426988186537	2	0,0987074226	0,000233978673
2	0	0	0	0	295679,7725	3,58604479	3,58679986	0,027053090954992253	2	0,098881647	9,70340261E-005
2	0	0	1	0	295683,7722	3,50604868	3,50674725	0,005930778187272841	2	0,0989418179	2,07977409E-005
2	0	0	0	0	295687,8120	3,42525291	3,42603159	-0,0085592708255042624	2	0,098934032	2,9324332E-005
2	0	0	1	0	295691,8518	3,34445667	3,34510303	-0,019135625970428858	2	0,098876968	6,40106373E-005
2	0	0	0	0	295695,8516	3,2644608	3,26529074	-0,027095152664481702	2	0,0987815037	8,84735491E-005
2	0	0	1	0	295699,8514	3,18446398	3,18529129	-0,03597104461449607	2	0,0986516401	0,000114578252
2	0	0	0	0	295703,8512	3,10446835	3,10527444	-0,042227310154380083	2	0,0984925181	0,000131127381
2	0	0	1	0	295707,8510	3,02447224	3,02527952	-0,047583488734543546	2	0,0983100235	0,000143953352
2	0	0	0	0	295711,8508	2,94447613	2,94532013	-0,05173575533209049	2	0,098108992	0,000152378358
2	0	0	0	0	295715,8507	2,8644793	2,86532855	-0,055165953472912563	2	0,0978929028	0,000158068578
2	0	0	1	0	295719,8505	2,78448439	2,78519392	-0,058602899531095398	2	0,0976631567	0,000163220437
2	0	0	0	0	295723,8504	2,7044878	2,70533586	-0,06257021345232777	2	0,0974187478	0,000169273437
2	0	0	1	0	295727,8502	2,62449193	2,62535453	-0,066120795405435251	2	0,0971586257	0,000173590524
2	0	0	0	0	295731,8500	2,54449558	2,54529309	-0,06897266906755017	2	0,0968867689	0,000175555659
2	0	0	1	0	295735,8498	2,46449971	2,46530724	-0,072152195300008832	2	0,0966023877	0,000177877329
2	0	0	0	0	295739,8496	2,3845036	2,38529921	-0,075630672560590477	2	0,096304372	0,000180401781
2	0	0	1	0	295743,8494	2,30450749	2,30513525	-0,079055681134815206	2	0,0959931239	0,000182234042
2	0	0	0	0	295747,8492	2,22451115	2,22534084	-0,082216719881183398	2	0,0956685767	0,000182960226
2	0	0	1	0	295751,8490	2,14451504	2,14543033	-0,085559747328429082	2	0,0953309685	0,000183562472
2	0	0	0	0	295755,8488	2,06451917	2,06535554	-0,090688835657025907	2	0,0949768722	0,000187304686
2	0	0	1	0	295759,8886	1,98372328	1,98445797	-0,1075212699361121	2	0,0945788622	0,000213371444
2	0	0	0	0	295763,8884	1,90372705	1,90449429	-0,1316788002710605	2	0,0940958485	0,000250781537
2	0	0	1	0	295767,8882	1,82373071	1,8242991	-0,15210080489999501	2	0,0935287178	0,000277477375
2	0	0	0	0	295771,8880	1,74373472	1,74441576	-0,18699393467976845	2	0,0928527489	0,000326195179
2	0	0	1	0	295775,8878	1,66373861	1,66436744	-0,23731857538223146	2	0,0920067355	0,000394985313
2	0	0	0	0	295779,8876	1,58374274	1,58449733	-0,30312829426730656	2	0,0909308121	0,000480305986
2	0	0	1	0	295783,8874	1,50374651	1,50464499	-0,39830668953556717	2	0,0895402059	0,000599310151
2	0	0	0	0	295787,8872	1,4237504	1,42465031	-0,55598807238318259	2	0,0876539722	0,000792088569
2	0	0	1	0	295791,8870	1,34375441	1,34442842	-0,8103033490479081	2	0,0849581137	0,00108939491
2	0	0	0	0	295795,9168	1,2631582	1,26391327	-1,2072830607218386	2	0,080953382	0,00152590114
2	0	0	1	0	295799,9166	1,18316209	1,18386948	-1,8346243473115216	2	0,074938044	0,00217195577
2	0	0	0	0	295803,9164	1,1031661	1,10399497	-2,6383180289908205	2	0,0660346448	0,00291268993
2	0	0	1	0	295807,9162	1,02317011	1,02404022	-3,5347432433454387	2	0,0536969192	0,0036197193
2	1	0	0	1	295811,8264	1,05516851	1,05612803	-2,9877396993062317	2	0,0401452631	0,00315543567
2	1	0	1	1	295815,8261	1,13516402	1,13607752	-1,9753208841223328	2	0,0302780177	0,00224411767
2	1	0	1	1	295819,8261	1,21516061	1,21595287	-1,0958397649228626	2	0,0241821185	0,00133248954
2	1	0	0	1	295823,8659	1,29595673	1,29677963	-0,31577900300423533	2	0,021370003	0,000409495784
2	1	0	1	0	295827,8865	1,37515271	1,37580013	0,38109766257304934	3	0,000205841163	0,000524314237
2	1	0	0	0	295831,9163	1,45574892	1,45664012	1,1016855455107138	3	0,00318936608	0,00160475937
2	1	0	1	0	295835,9161	1,53574502	1,53660369	1,8242948187722224	3	0,00904430822	0,00280321809
2	1	0	0	0	295839,9159	1,61574101	1,61658525	2,5578510565338278	3	0,0178077836	0,00413498422
2	1	0	1	0	295843,9157	1,69573724	1,69653547	3,2912563482919379	3	0,0295129661	0,00558373332
2	1	0	0	0	295847,9155	1,77573335	1,77645457	3,9535512355741958	3	0,0440680124	0,00702330424
2	1	0	1	0	295851,9153	1,85572946	1,85659158	3,1980132057709837	3	0,0593443438	0,00593740446
2	1	0	0	0	295855,9151	1,93572557	1,93660426	0,72571492953984422	3	0,0670959651	0,00140542258
2	1	0	1	0	295859,9549	2,01652145	2,01747966	0,22450693665692435	3	0,0685983971	0,000452938169
2	1	0	0	0	295863,9547	2,09651756	2,09719396	0,13430218714186194	3	0,0692919269	0,000281657733
2	1	0	1	0	295867,9545	2,17651367	2,17722917	0,092748712334364211	3	0,0697401166	0,000201935196
2	1	0	0	0	295871,9543	2,25650978	2,25733972	0,081625780642584627	3	0,0700844377	0,000184257122
2	1	0	1	0	295875,9541	2,33650589	2,33737421	0,079633525753805171	3	0,0704084337	0,000186133344
2	1	0	0	0	295879,9539	2,416502	2,41725349	0,079727872688736819	3	0,0707291514	0,00019272248
2	1	0	1	0	295883,9537	2,49649787	2,49726152	0,081319575508433933	3	0,0710536838	0,000203076241
2	1	0	0	0	295887,9535	2,57649446	2,57736754	0,083866873868156723	3	0,0713867173	0,000216155764
2	1	0	1	0	295891,9533	2,65649033	2,6573267	0,086700791587916544	3	0,0717301965	0,000230392325
2	1	0	0	0	295895,9531	2,7364862	2,7371347	0,090628791893663245	3	0,0720871761	0,00024806321
2	1	0	1	0	295899,9529	2,81648254	2,81747198	0,095577269171673472	3	0,0724616647	0,000269286276
2	1	0	0	0	295903,9527	2,89647865	2,89713764	0,10055862605157317	3	0,0728562772	0,000291332195
2	1	0	1	0	295907,9525	2,97647476	2,97725272	0,10622216150578568	3	0,0732723475	0,000316250225
2	1	0	0	0	295911,9523	3,05647063	3,05718493	0,11264337221574762	3	0,0737124458	0,000344371627
2	1	0	1	0	295915,9521	3,13646674	3,13719749	0,12057109406494093	3	0,0741809085	0,000378255325
2	1	0	0	0	295919,9519	3,21646285	3,21731663	0,13044350320059595	3	0,0746842474	0,00041967805
2	1	0	1	0	295923,9517	3,29645896	3,29734302	0,14266429829445704	3	0,0752315596	0,000470413128
2	1	0	0	0	295927,9515	3,37645507	3,37726641	0,16053019350187715	3	0,0758387297	0,000542153255
2	1	0	1	0	295931,9513	3,45645118	3,45740795	0,18663842291399302	3	0,0765323192	0,000645285181
2	1	0	0	0	295935,9511	3,53644729	3,53730512	0,22324135275213664	3	0,0773507282	0,000789672777
2	1	0	1	0	295939,9509	3,6164434	3,61736202	0,27416867828342096	3	0,0783415139	0,000991767389
2	1	0	0	0	295943,9507	3,6964395	3,69729424	0,34746264476604602	3	0,0795803219	0,0012846716
2	1	0	0	0	295947,9506	3,7764349	3,77725339	0,43842874952478982	3	0,0811512247	0,0016560565
2	1	0	1	0	295951,9503	3,85642982	3,85728621	0,53501532626888704	3	0,0831002668	0,00206370722
2	1	0	0	0	295955,9502	3,93642807	3,93737197	0,63415972308978573	3	0,0854410455	0,00249692262
2	0	0	1	0	295959,7804	3,98682547	3,98777008	0,59644721634685107	3	0,0880006775	0,00237849448
2	0	0	0	0	295963,7802	3,90682936	3,90773129	0,29433309731797965	3	0,0896873623	0,00115017465
2	0	0	1	0	295967,7800	3,82683349	3,82762456	0,15966540611245898	3	0,0905610844	0,000611139229
2	0	0	0	0	295971,7798	3,74683714	3,74767447	0,090764226529887142	3	0,09104193	0,000340154773
2	0	0	1	0	295975,8196	3,6660409	3,66690111	0,041168097182418342	3	0,0912957937	0,000150959342
2	0	0	0	0	295979,8194	3,58604455	3,58687568	0,01123563261676841	3	0,091392763	4,03008162E-005
2	0	0	1	0	295983,8592	3,50524902	3,50589752	-0,0072657655034195354	3	0,0913965479	2,54730294E-005
2	0	0	0	0	295987,8990	3,42445254	3,4250617	-0,018422013424612778	3	0,0913419202	6,30965296E-005
2	0	0	1	0	295991,8988	3,34445667	3,34521842	-0,027160429253449082	3	0,0912478939	9,08575676E-005
2	0	0	0	0	295995,8986	3,26446056	3,26526809	-0,034569724898405875	3	0,0911217779	0,000112879417
2	0	0	1	0	295999,8984	3,18446445	3,18535376	-0,041435577160747974	3	0,0909670144	0,000131986977
2	0	0	0	0	296003,8982	3,10446835	3,10521674	-0,046790121274105754	3	0,0907879621	0,000145293467
2	0	0	1	0	296007,8980	3,02447248	3,025213	-0,051129655929767149	3	0,0905893072	0,000154678099
2	0	0	0	0	296011,8978	2,94447613	2,94531155	-0,05458920648217824	3	0,0903751925	0,00016078222
2	0	0	0	0	296015,8977	2,8644793	2,86528039	-0,057659341854748531	3	0,0901486352	0,000165210178
2	0	0	1	0	296019,8975	2,78448486	2,78526449	-0,060331193686650637	3	0,0899107382	0,000168038328
2	0	0	0	0	296023,8974	2,70448804	2,70521593	-0,063793436529254285	3	0,0896605849	0,000172575019
2	0	0	1	0	296027,8972	2,62449193	2,6252079	-0,067262909168169126	3	0,089396365	0,000176579124
2	0	0	0	0	296031,8970	2,54449606	2,5453198	-0,069836749841838349	3	0,0891198963	0,000177756869
2	0	0	1	0	296035,8968	2,46449971	2,46532083	-0,072863883614815219	3	0,0888325125	0,000179632843
2	0	0	0	0	296039,8966	2,3845036	2,38506794	-0,076139336632977344	3	0,0885324851	0,000181597497
2	0	0	1	0	296043,8964	2,30450749	2,30527759	-0,079336451452778573	3	0,0882196575	0,000182892545
2	0	0	0	0	296047,8962	2,22451138	2,22518492	-0,082424955528782822	3	0,0878941715	0,000183410768
2	0	0	1	0	296051,8960	2,14451528	2,14528799	-0,085369752461300301	3	0,0875566304	0,000183142707
2	0	0	0	0	296055,8958	2,06451893	2,06506205	-0,090524169702630003	3	0,0872039348	0,000186938021
2	0	0	1	0	296059,9356	1,98372293	1,98440886	-0,10522153573455294	3	0,0868115723	0,00020880255
2	0	0	0	0	296063,9354	1,90372717	1,90444982	-0,12948232597705701	3	0,0863383859	0,000246592594
2	0	0	1	0	296067,9352	1,82373071	1,82446373	-0,1484816981376048	3	0,0857819766	0,000270899473
2	0	0	0	0	296071,9350	1,74373472	1,74446011	-0,18161521408775539	3	0,0851241946	0,000316820486
2	0	0	1	0	296075,9348	1,66373861	1,66430521	-0,23009747004619264	3	0,0843033195	0,000382952421
2	0	0	0	0	296079,9346	1,58374274	1,58445728	-0,2937495719503481	3	0,0832599849	0,000465433637
2	0	0	1	0	296083,9343	1,50374663	1,50458717	-0,3858280891759671	3	0,0819122493	0,000580511987
2	0	0	0	0	296087,9341	1,42375052	1,42454791	-0,53930934118454131	3	0,0800853148	0,000768271973
2	0	0	1	0	296091,9339	1,34375441	1,34436178	-0,7891441346318455	3	0,0774624646	0,00106089527
2	0	0	0	0	296095,9637	1,26315832	1,26395762	-1,1756969889005138	3	0,0735596716	0,00148603122
2	0	0	1	0	296099,9635	1,18316233	1,18402088	-1,7922754720957456	3	0,0676926598	0,0021220916
2	0	0	0	0	296103,9633	1,1031661	1,10397255	-2,5843508094548966	3	0,0589804202	0,00285305246
2	0	0	1	0	296107,9631	1,02316999	1,02407122	-3,4741172884349811	3	0,0468728431	0,0035577435
2	1	0	0	1	296111,8733	1,05516827	1,05602562	-2,9269882424009094	3	0,0335653238	0,00309097464
2	1	0	1	1	296115,8731	1,13516402	1,13595772	-1,9188161211416563	3	0,0239299946	0,0021796939
2	1	0	1	1	296119,8730	1,21515882	1,21599114	-1,047925564706004	3	0,0180412624	0,00127426826
2	1	0	0	1	296123,9129	1,29595649	1,2966994	-0,2756226428749975	3	0,0154023999	0,000357399724
2	1	0	1	0	296127,8775	1,37395287	1,37467444	0,4031694623193136	4	0,000323250773	0,000554226746
2	1	0	0	0	296131,9073	1,45454884	1,45535886	1,1183533774757901	4	0,00338634034	0,00162760552
2	1	0	1	0	296135,9071	1,53454494	1,53538024	1,8397668191680906	4	0,00930376537	0,00282474165
2	1	0	0	0	296139,9069	1,61454117	1,61533952	2,5762181477966397	4	0,0181340985	0,00416146684
2	1	0	1	0	296143,9067	1,69453704	1,69537866	3,3134125493190541	4	0,0299203657	0,00561748911
2	1	0	0	0	296147,9065	1,77453339	1,77526677	3,9596002300580685	4	0,0445497259	0,00702934666
2	1	0	1	0	296151,9063	1,85452926	1,85535479	2,9267039047898963	4	0,0593378097	0,00543007394
2	1	0	0	0	296155,9061	1,93452537	1,93524301	0,5315929464995648	4	0,0657619163	0,0010287615
2	1	0	1	0	296159,9459	2,01532173	2,01603842	0,18937044707989958	4	0,066963695	0,000381778111
2	1	0	0	0	296163,9457	2,09531784	2,09593511	0,11767210623387192	4	0,0675573945	0,000246633106
2	1	0	1	0	296167,9455	2,17531395	2,17600584	0,085553957356345856	4	0,0679532662	0,000186165911
2	1	0	0	0	296171,9453	2,25531006	2,25605822	0,079404802949824	4	0,0682821423	0,000179141862
2	1	0	1	0	296175,9451	2,33530617	2,33604884	0,07825482436628151	4	0,0685989335	0,000182807096
2	1	0	0	0	296179,9449	2,41530204	2,41604328	0,078366369267719194	4	0,0689137951	0,000189336541
2	1	0	1	0	296183,9447	2,49529791	2,4961226	0,080089940844724646	4	0,0692326277	0,000199914313
2	1	0	0	0	296187,9445	2,57529449	2,57593489	0,082341054092267328	4	0,0695600286	0,000212105195
2	1	0	1	0	296191,9443	2,65529013	2,65620112	0,085165177954841459	4	0,0698973164	0,000226215838
2	1	0	0	0	296195,9441	2,73528647	2,73622704	0,088748307450227213	4	0,0702473074	0,000242835522
2	1	0	1	0	296199,9439	2,81528234	2,81611037	0,093228812320843341	4	0,0706136227	0,000262542628
2	1	0	0	0	296203,9437	2,89527845	2,89606977	0,098007394880470502	4	0,0709982887	0,000283836242
2	1	0	1	0	296207,9435	2,9752748	2,97599339	0,10321883129438987	4	0,0714028478	0,000307178561
2	1	0	0	0	296211,9433	3,05527067	3,0560329	0,10881292971748136	4	0,0718291774	0,000332535885
2	1	0	1	0	296215,9431	3,13526678	3,13612962	0,11620593665995562	4	0,0722813085	0,000364436884
2	1	0	0	0	296219,9428	3,21526289	3,21604896	0,12479632996298573	4	0,0727652013	0,000401351106
2	1	0	1	0	296223,9426	3,295259	3,29606128	0,13622646257971272	4	0,0732884556	0,000449010782
2	1	0	0	0	296227,9424	3,37525511	3,37614512	0,15205134002974586	4	0,0738657415	0,00051334739
2	1	0	1	0	296231,9422	3,45525098	3,45601511	0,17585200925047674	4	0,0745211989	0,000607747177
2	1	0	0	0	296235,9420	3,53524733	3,53605461	0,20909161945046058	4	0,0752898455	0,000739359413
2	1	0	1	0	296239,9418	3,61524272	3,61599469	0,25544482164346016	4	0,0762154907	0,000923687126
2	1	0	1	0	296243,9417	3,69523859	3,69595432	0,32123956878114246	4	0,0773652866	0,00118728681
2	1	0	0	0	296247,9416	3,77523565	3,77611017	0,40180174744238605	4	0,0788115188	0,00151724764
2	1	0	1	0	296251,9414	3,85523152	3,85608292	0,48528642993833235	4	0,0805875286	0,0018713047
2	1	0	0	0	296255,9412	3,93522787	3,9360373	0,5740545254062601	4	0,0827073678	0,00225950009
2	0	0	1	0	296259,8314	3,98682547	3,98774362	0,53281127206152947	4	0,0850615427	0,00212471467
2	0	0	0	0	296263,8312	3,9068296	3,90766406	0,25007091955867011	4	0,086533986	0,000977193122
2	0	0	1	0	296267,8310	3,82683277	3,82763815	0,12869554858102573	4	0,0872586817	0,000492599967
2	0	0	0	0	296271,8308	3,74683714	3,74757671	0,066253565829591744	4	0,0876348168	0,000248290307
2	0	0	1	0	296275,8706	3,66604066	3,6669054	0,026387757716561546	4	0,0878139138	9,67614105E-005
2	0	0	0	0	296279,9104	3,58524466	3,58603477	0,00033918754903609555	4	0,0878618509	1,21633832E-006
2	0	0	1	0	296283,9502	3,50444889	3,50536823	-0,014780440268589456	4	0,087828964	5,18108864E-005
2	0	0	0	0	296287,9500	3,42445278	3,42508006	-0,024851144778679334	4	0,0877462775	8,51171571E-005
2	0	0	1	0	296291,9498	3,34445667	3,34512067	-0,032531102347464589	4	0,0876287296	0,000108820466
2	0	0	0	0	296295,9496	3,26446056	3,2653172	-0,038997098963052717	4	0,0874831825	0,000127337902
2	0	0	1	0	296299,9494	3,18446445	3,18534923	-0,044940417770436	4	0,0873126984	0,00014315093
2	0	0	0	0	296303,9492	3,10446835	3,10526538	-0,049625134759549773	4	0,0871209875	0,000154099209
2	0	0	1	0	296307,9490	3,02447224	3,02524829	-0,053469520441635776	4	0,0869121626	0,00016175858
2	0	0	0	0	296311,9488	2,94447613	2,94527578	-0,056515735651677446	4	0,0866898	0,000166454425
2	0	0	1	0	296315,9486	2,86448002	2,86534762	-0,059038257226349696	4	0,0864566565	0,000169165127
2	0	0	1	0	296319,9485	2,78448272	2,78534269	-0,061319658366717261	4	0,0862138271	0,000170796266
2	0	0	0	0	296323,9483	2,70448923	2,70538616	-0,064200219992140544	4	0,085960716	0,000173686392
2	0	0	1	0	296327,9482	2,62449169	2,62530565	-0,067507034805774131	4	0,0856950358	0,000177226597
2	0	0	0	0	296331,9480	2,54449606	2,54522204	-0,070262505655625523	4	0,0854169577	0,000178833681
2	0	0	1	0	296335,9478	2,46449971	2,46529841	-0,072976433792738995	4	0,0851283893	0,000179908689
2	0	0	0	0	296339,9476	2,3845036	2,38540149	-0,076060869299841408	4	0,0848278776	0,000181435709
2	0	0	1	0	296343,9474	2,30450749	2,30522871	-0,079299795130889587	4	0,0845152885	0,000182804171
2	0	0	0	0	296347,9472	2,22451138	2,22518969	-0,082008659899993779	4	0,0841907561	0,00018248483
2	0	0	1	0	296351,9469	2,14451504	2,14509225	-0,084815087435010432	4	0,0838547945	0,000181936193
2	0	0	0	0	296355,9467	2,06451917	2,06535554	-0,089708312250742272	4	0,0835046172	0,000185279554
2	0	0	1	0	296359,9865	1,98372328	1,98438239	-0,10348570826290682	4	0,0831170827	0,000205355216
2	0	0	0	0	296363,9863	1,90372705	1,90458333	-0,12748097100605848	4	0,0826518238	0,000242798138
2	0	0	1	0	296367,9861	1,82373083	1,82432592	-0,14619138557463683	4	0,0821037292	0,000266700721
2	0	0	0	0	296371,9859	1,74373472	1,74446905	-0,17827835313423424	4	0,0814575031	0,000311001058
2	0	0	1	0	296375,9857	1,66373885	1,66441214	-0,22571564983162419	4	0,0806521252	0,000375683856
2	0	0	0	0	296379,9855	1,58374274	1,58442616	-0,2883563592202103	4	0,079628177	0,000456879352
2	0	0	1	0	296383,9853	1,50374651	1,50455606	-0,37854547288131802	4	0,0783056319	0,00056954287
2	0	0	0	0	296387,9851	1,4237504	1,42451668	-0,5287542198267152	4	0,0765144154	0,000753219181
2	0	0	1	0	296391,9849	1,34375441	1,34455299	-0,77468662605516237	4	0,0739417374	0,00104160723
2	0	0	0	0	296396,0147	1,2631582	1,26382864	-1,156724912286883	4	0,0701063126	0,00146190205
2	0	0	1	0	296400,0145	1,18316233	1,18381619	-1,766606538384032	4	0,0643298626	0,00209133746
2	0	0	0	0	296404,0143	1,10316622	1,10404384	-2,5515851210112218	4	0,0557350852	0,00281706173
2	0	0	1	0	296408,0141	1,02317011	1,02391565	-3,439039870544633	4	0,043763984	0,00352128665
2	1	0	0	1	296411,9243	1,05516791	1,05594945	-2,8957019824125894	4	0,0305867326	0,00305771502
2	1	0	0	1	296415,9242	1,13516319	1,13592136	-1,8917714381634144	4	0,0210710727	0,00214890367
2	1	0	1	1	296419,9241	1,21516061	1,21593511	-1,0248892307281456	4	0,0152842719	0,00124619878
2	1	0	0	1	296423,9639	1,29595673	1,29661942	-0,2558898128293272	4	0,0127327787	0,0003317917
2	1	0	1	0	296427,9725	1,37495291	1,37586236	0,42843948173579174	5	0,000420479366	0,000589473755
2	1	0	0	0	296432,0023	1,45554888	1,45620406	1,141789766925319	5	0,00358225987	0,0016626789
2	1	0	1	0	296436,0021	1,53554499	1,53633237	1,862885826163823	5	0,00959295407	0,00286201178
2	1	0	0	0	296440,0019	1,6155411	1,61638045	2,5990104758077245	5	0,0185159799	0,00420098985
2	1	0	1	0	296444,0017	1,69553709	1,69632626	3,3368307346548109	5	0,0303969905	0,00566035369
2	1	0	0	0	296448,0015	1,77553332	1,77617431	3,9652000665663821	5	0,0451067686	0,00704288669
2	1	0	1	0	296452,0013	1,85552931	1,85639572	2,7074763609302899	5	0,0594730116	0,0050261477
2	1	0	0	0	296456,0311	1,93612528	1,93694222	0,43309379382818758	5	0,0650551245	0,000838877633
2	1	0	1	0	296460,0309	2,01612163	2,01688814	0,16915294859144493	5	0,0660844594	0,00034116258
2	1	0	0	0	296464,0307	2,09611726	2,096874	0,10659987062078179	5	0,0666232482	0,000223526498
2	1	0	1	0	296468,0305	2,17611384	2,17692661	0,08264731702877792	5	0,0669916198	0,000179917144
2	1	0	0	0	296472,0303	2,25610948	2,25680566	0,078136950714031757	5	0,0673132613	0,00017633992
2	1	0	1	0	296476,0301	2,33610606	2,33703613	0,077382703656672986	5	0,0676260442	0,000180846167
2	1	0	0	0	296480,0299	2,41610193	2,41685748	0,077604562604660749	5	0,0679376945	0,00018755917
2	1	0	1	0	296484,0297	2,49609804	2,49679899	0,079274416530368102	5	0,0682534873	0,000197932284
2	1	0	0	0	296488,0294	2,57609391	2,57674026	0,081522865643446912	5	0,0685779825	0,000210063256
2	1	0	1	0	296492,0292	2,65609026	2,65689087	0,084230444885583488	5	0,0689120367	0,000223791096
2	1	0	0	0	296496,0290	2,73608613	2,73686337	0,087661054985665126	5	0,0692581758	0,000239916335
2	1	0	1	0	296500,0288	2,81608224	2,81687117	0,091877922467473779	5	0,0696197823	0,000258808257
2	1	0	0	0	296504,0286	2,89607882	2,89699507	0,096329736100786214	5	0,0699986964	0,000279066764
2	1	0	1	0	296508,0284	2,97607446	2,97677183	0,10139104994703896	5	0,0703963712	0,000301818014
2	1	0	0	0	296512,0282	3,05607057	3,05698037	0,10663136484584101	5	0,0708146989	0,000325970002
2	1	0	1	0	296516,0280	3,13606668	3,13691282	0,11355151603411917	5	0,0712574497	0,000356201199
2	1	0	0	0	296520,0278	3,21606255	3,21693444	0,12171945996858248	5	0,0717299134	0,000391563517
2	1	0	1	0	296524,0276	3,29605913	3,29687095	0,13232217917080957	5	0,0722393543	0,00043624916
2	1	0	0	0	296528,0274	3,37605524	3,37690163	0,147110714335684	5	0,072799094	0,000496778404
2	1	0	1	0	296532,0272	3,45605135	3,45690966	0,16929608407533837	5	0,0734317973	0,000585241243
2	1	0	0	0	296536,0270	3,5360477	3,53689981	0,20031672153898493	5	0,0741701126	0,000708500156
2	1	0	1	0	296540,0268	3,61604285	3,61684847	0,24334205520293507	5	0,0750545263	0,000880131323
2	1	0	1	0	296544,0268	3,69604015	3,69692135	0,30334576763858003	5	0,0761450008	0,00112144544
2	1	0	0	0	296548,0266	3,77603531	3,77690196	0,37560962075021107	5	0,0775040537	0,00141864072
2	1	0	1	0	296552,0264	3,85603189	3,85698986	0,45049873394546803	5	0,0791571289	0,00173756899
2	1	0	0	0	296556,0262	3,93602753	3,9368782	0,53294474948888038	5	0,0811243206	0,00209813868
2	0	0	1	0	296559,8764	3,98682547	3,98770356	0,48814655336793766	5	0,0832851008	0,00194658374
2	0	0	0	0	296563,8762	3,90682936	3,90771317	0,2193715270539665	5	0,0846080929	0,000857240986
2	0	0	1	0	296567,8760	3,82683277	3,82772732	0,10737799389150205	5	0,0852302164	0,000411013694
2	0	0	0	0	296571,8758	3,74683714	3,74775028	0,051312493341458822	5	0,0855344832	0,000192306412
2	0	0	1	0	296575,9156	3,6660409	3,66677237	0,016336677652024902	5	0,0856637806	5,9902879E-005
2	0	0	0	0	296579,9554	3,58524466	3,58602166	-0,0066415205968680986	5	0,085678041	2,38166376E-005
2	0	0	1	0	296583,9952	3,50444889	3,50510979	-0,020079025953438682	5	0,0856205076	7,03791884E-005
2	0	0	0	0	296587,9950	3,42445278	3,42524457	-0,02919109631761008	5	0,0855185539	9,99866461E-005
2	0	0	1	0	296591,9948	3,34445667	3,34524107	-0,036156013513121382	5	0,0853850991	0,000120950579
2	0	0	0	0	296595,9946	3,26446056	3,26535702	-0,041986570598696646	5	0,0852263644	0,000137101146
2	0	0	1	0	296599,9944	3,18446445	3,1854291	-0,047333059582377101	5	0,0850451961	0,000150776104
2	0	0	0	0	296603,9942	3,10446858	3,10520315	-0,051526091432336109	5	0,0848448202	0,000159998977
2	0	0	1	0	296607,9940	3,02447224	3,02522182	-0,055085638072342682	5	0,0846289024	0,000166646278
2	0	0	0	0	296611,9938	2,94447613	2,94533372	-0,05773344110801193	5	0,0844007954	0,000170044252
2	0	0	1	0	296615,9936	2,86448002	2,86520123	-0,059985171123923878	5	0,0841631368	0,000171869586
2	0	0	0	0	296619,9933	2,78448415	2,78533483	-0,061992677152848282	5	0,0839170814	0,000172670363
2	0	0	0	0	296623,9932	2,70448852	2,70529509	-0,064540429760419622	5	0,0836619288	0,000174600907
2	0	0	1	0	296627,9931	2,62449121	2,62528276	-0,067603195344395405	5	0,0833955705	0,000177477501
2	0	0	0	0	296631,9929	2,54449558	2,54522634	-0,07049111040584832	5	0,0831170902	0,000179415831
2	0	0	1	0	296635,9927	2,46449971	2,46538281	-0,073029242800893018	5	0,0828279108	0,000180045041
2	0	0	0	0	296639,9925	2,38450336	2,38526797	-0,075973992701616538	5	0,0825275332	0,000181218333
2	0	0	1	0	296643,9923	2,30450749	2,30529118	-0,079031196845417818	5	0,082215637	0,00018218992
2	0	0	0	0	296647,9921	2,22451138	2,22526932	-0,081733055283418061	5	0,0818922147	0,000181878058
2	0	0	1	0	296651,9919	2,14451528	2,14534163	-0,084399626935246054	5	0,0815577582	0,000181066032
2	0	0	0	0	296655,9917	2,06451893	2,06526685	-0,089053745234932698	5	0,0812097564	0,00018391975
2	0	0	1	0	296660,0315	1,98372316	1,98434222	-0,1023167927956441	5	0,0808258951	0,000203031537
2	0	0	0	0	296664,0313	1,90372717	1,90444088	-0,12612724083440896	5	0,0803661197	0,000240201873
2	0	0	1	0	296668,0311	1,82373071	1,82443726	-0,1445609461861056	5	0,079824008	0,000263742375
2	0	0	0	0	296672,0309	1,74373496	1,74459374	-0,17600056832587562	5	0,0791855603	0,000307049486
2	0	0	1	0	296676,0307	1,66373861	1,66436303	-0,22286541197724573	5	0,0783902109	0,000370928959
2	0	0	0	0	296680,0305	1,5837425	1,58442152	-0,28501554499206883	5	0,0773784444	0,000451584754
2	0	0	1	0	296684,0303	1,50374663	1,50453365	-0,37415133754687437	5	0,0760712847	0,000562923262
2	0	0	0	0	296688,0301	1,42375052	1,42448115	-0,52267682828285952	5	0,0743004978	0,000744543271
2	0	0	1	0	296692,0299	1,34375441	1,34473109	-0,76640100970313971	5	0,0717565939	0,00103060331
2	0	0	0	0	296696,0697	1,26295829	1,26357508	-1,1453093262734195	5	0,0679498687	0,00144718436
2	0	0	1	0	296700,0695	1,18296218	1,18382955	-1,7508460396417994	5	0,0622279234	0,00207270333
2	0	0	0	0	296704,0693	1,10296607	1,10391474	-2,5311839597093178	5	0,0537046008	0,00279421126
2	0	0	1	0	296708,0691	1,02296996	1,02379549	-3,4042268174666752	5	0,0418365784	0,00348523213
2	1	0	1	1	296711,9694	1,05516779	1,05605662	-2,860841390822415	5	0,0288400892	0,00302121043
2	1	0	0	1	296715,9693	1,1351645	1,13613605	-1,8676184931838336	5	0,019445112	0,00212186878
2	1	0	1	1	296719,9691	1,21516061	1,21596169	-1,0070923652361978	5	0,0137410518	0,00122458569
2	1	0	0	1	296724,0089	1,29595673	1,29674828	-0,24363852237110262	5	0,0112494528	0,000315937825
2	1	0	1	0	296728,0655	1,37595296	1,37667203	0,44542121949295616	6	0,000488494174	0,000613198907
2	1	0	0	0	296732,0953	1,45654881	1,45717824	1,156195796612277	6	0,0037133093	0,00168478338
2	1	0	1	0	296736,0951	1,53654492	1,5372622	1,8745582766002541	6	0,00977491401	0,0028816876
2	1	0	0	0	296740,0949	1,61654091	1,61732793	2,6098188534378154	6	0,0187422223	0,00422093272
2	1	0	1	0	296744,0947	1,69653702	1,69733596	3,3449818602314278	6	0,0306607392	0,00567755802
2	1	0	0	0	296748,0945	1,77653325	1,77730858	3,9510793608647814	6	0,0453823656	0,00702228723
2	1	0	1	0	296752,0943	1,85652924	1,85719657	2,5436591977874262	6	0,059382055	0,00472407509
2	1	0	0	0	296756,1340	1,93732548	1,93817902	0,38843961670580109	6	0,0644540861	0,000752865511
2	1	0	1	0	296760,1338	2,01732135	2,01812935	0,15820463451867584	6	0,0654001534	0,000319277402
2	1	0	0	0	296764,1336	2,09731746	2,09811974	0,10018583978698725	6	0,0659061745	0,000210201892
2	1	0	1	0	296768,1334	2,17731357	2,17808771	0,081127874829151846	6	0,0662606657	0,00017670363
2	1	0	0	0	296772,1332	2,25730968	2,25799775	0,077478320406819904	6	0,0665783435	0,000174945875
2	1	0	1	0	296776,1330	2,33730578	2,33802843	0,076754821300573312	6	0,0668888241	0,000179454961
2	1	0	0	0	296780,1328	2,41730213	2,41789865	0,077185297686678259	6	0,0671986192	0,000186626232
2	1	0	1	0	296784,1326	2,49729824	2,49807143	0,078907224125472691	6	0,0675126612	0,000197115878
2	1	0	0	0	296788,1324	2,57729411	2,5781014	0,08121426230192919	6	0,0678353831	0,000209378602
2	1	0	1	0	296792,1322	2,65728998	2,65802503	0,083644540333707712	6	0,0681674629	0,000222329283
2	1	0	0	0	296796,1320	2,73728633	2,73801088	0,0870559634640784	6	0,0685111806	0,000238360182
2	1	0	1	0	296800,1318	2,81728244	2,81814361	0,09117044450680617	6	0,0688696876	0,000256931409
2	1	0	0	0	296804,1316	2,89727855	2,89810276	0,095380992956322957	6	0,0692446679	0,000276423933
2	1	0	1	0	296808,1314	2,97727466	2,97799969	0,099964545418820275	6	0,069637686	0,00029769438
2	1	0	0	0	296812,1312	3,05727077	3,05812335	0,1053550408601217	6	0,0700505674	0,000322188716
2	1	0	1	0	296816,1310	3,1372664	3,13808703	0,11180185902588048	6	0,0704869032	0,000350843969
2	1	0	0	0	296820,1308	3,21726298	3,21797943	0,11964742780697424	6	0,0709515661	0,000385022955
2	1	0	1	0	296824,1306	3,29725909	3,29789448	0,12954415079136949	6	0,0714513734	0,000427222927
2	1	0	0	0	296828,1304	3,37725496	3,378227	0,14383121817889722	6	0,0719990954	0,000485894503
2	1	0	1	0	296832,1302	3,45725107	3,45803499	0,16479925514646854	6	0,0726160705	0,00056988158
2	1	0	0	0	296836,1300	3,53724718	3,53806567	0,1942459568553696	6	0,0733331889	0,000687254942
2	1	0	1	0	296840,1299	3,61724377	3,6180346	0,23446513001560909	6	0,0741881058	0,000848302967
2	1	0	1	0	296844,1298	3,69724035	3,69803262	0,29029909304330426	6	0,0752352849	0,00107353553
2	1	0	0	0	296848,1296	3,77723551	3,77812552	0,35595904142355738	6	0,0765292048	0,00134485797
2	1	0	1	0	296852,1294	3,85723114	3,85814714	0,4250070961123207	6	0,078091085	0,00163973996
2	1	0	0	0	296856,1292	3,93722796	3,938097	0,50273637632252653	6	0,0799467042	0,00197982462
2	0	0	1	0	296860,0194	3,98482561	3,98577309	0,44434331605832966	6	0,0819957778	0,00177105167
2	0	0	0	0	296864,0192	3,90482974	3,90575147	0,19362998707219248	6	0,0831849426	0,000756270601
2	0	0	1	0	296868,0190	3,82483268	3,82572126	0,090462553849508966	6	0,0837235972	0,000346084504
2	0	0	0	0	296872,0588	3,74403691	3,74484086	0,039468281768711699	6	0,0839733779	0,000147802435
2	0	0	1	0	296876,0586	3,6640408	3,66492176	0,0083453282164149376	6	0,0840623453	3,05849753E-005
2	0	0	0	0	296880,1384	3,58244491	3,58334327	-0,011754620852621334	6	0,0840498209	4,21208424E-005
2	0	0	1	0	296884,1382	3,5024488	3,50334859	-0,024127007748811936	6	0,0839739069	8,45253162E-005
2	0	0	0	0	296888,1380	3,42245269	3,42322922	-0,032491286216235872	6	0,0838574022	0,000111225119
2	0	0	1	0	296892,1377	3,34245682	3,34329629	-0,038844442865982874	6	0,0837119967	0,00012986848
2	0	0	0	0	296896,1375	3,26246047	3,26318622	-0,044140490638608474	6	0,0835433826	0,00014403864
2	0	0	1	0	296900,1373	3,18246436	3,18325377	-0,049080992384847533	6	0,0833541229	0,000156237249
2	0	0	0	0	296904,1371	3,10246849	3,10322356	-0,053014492547072467	6	0,083147198	0,000164515819
2	0	0	1	0	296908,1369	3,02247238	3,02328205	-0,056259547920760378	6	0,0829259902	0,000170088475
2	0	0	0	0	296912,1367	2,94247627	2,94324279	-0,058694886198890739	6	0,0826936066	0,000172753294
2	0	0	1	0	296916,1365	2,86248016	2,86332822	-0,060712024345303859	6	0,0824525207	0,000173838445
2	0	0	0	0	296920,1363	2,78248405	2,78338242	-0,062504900550398592	6	0,0822038874	0,000173975044
2	0	0	1	0	296924,1361	2,70248795	2,70318294	-0,064799233460452685	6	0,0819471478	0,000175164183
2	0	0	0	0	296928,1359	2,62249279	2,62322998	-0,067452902386303309	6	0,0816805661	0,000176944479
2	0	0	0	0	296932,1359	2,54249549	2,54323316	-0,070383354413672717	6	0,0814021677	0,000179001276
2	0	0	1	0	296936,1357	2,46249962	2,46323419	-0,073043300804715494	6	0,0811128691	0,000179922761
2	0	0	0	0	296940,1355	2,38250375	2,38317275	-0,07592016311914263	6	0,0808125287	0,00018093086
2	0	0	1	0	296944,1353	2,3025074	2,30324006	-0,078865664571317722	6	0,0805009156	0,000181646552
2	0	0	0	0	296948,1351	2,22251129	2,22308087	-0,081439984582913677	6	0,0801783204	0,000181047668
2	0	0	1	0	296952,1349	2,14251518	2,14314365	-0,083996190344568294	6	0,0798451081	0,000180015908
2	0	0	0	0	296956,1347	2,06251907	2,0633626	-0,088562908159840691	6	0,0794986263	0,000182737393
2	0	0	1	0	296960,1745	1,98172319	1,98242486	-0,10188576091011648	6	0,0791164935	0,00020198086
2	0	0	0	0	296964,1743	1,90172708	1,90241671	-0,12524816759482715	6	0,0786591098	0,00023827421
2	0	0	1	0	296968,1741	1,82173109	1,82246208	-0,14369054200748504	6	0,078120254	0,000261870562
2	0	0	0	0	296972,1739	1,74173498	1,74247611	-0,17522694777559789	6	0,0774850473	0,00030532878
2	0	0	1	0	296976,1737	1,66173875	1,66233015	-0,22210579061950141	6	0,0766932294	0,000369213143
2	0	0	0	0	296980,1735	1,58174276	1,58253109	-0,28392646120241194	6	0,0756853446	0,000449322455
2	0	0	1	0	296984,1733	1,50174677	1,50243843	-0,37306282227790374	6	0,0743820071	0,000560503919
2	0	0	0	0	296988,1731	1,42175055	1,42256832	-0,52204639402527776	6	0,0726147443	0,000742646691
2	0	0	1	0	296992,1729	1,34175444	1,34241343	-0,76614836044606886	6	0,070072189	0,00102848781
2	0	0	0	0	296996,2027	1,26115847	1,26195586	-1,143893120189511	6	0,0662774667	0,00144354266
2	0	0	1	0	297000,2025	1,18116224	1,18196106	-1,7489842430309376	6	0,0605591275	0,00206723134
2	0	0	0	0	297004,2023	1,10116613	1,10189521	-2,5228054424126726	6	0,052054856	0,00277986727
2	0	0	1	0	297008,2021	1,02117002	1,02196717	-3,3946215582114118	6	0,0402316712	0,00346919172
2	1	0	1	1	297012,1124	1,05716872	1,05797064	-2,8090230234460022	6	0,0273725167	0,00297186384
2	1	0	0	1	297016,1123	1,13716447	1,13782203	-1,8231433831431206	6	0,0181660801	0,00207441277
2	1	0	1	1	297020,1121	1,2171607	1,21809268	-0,9719205181355584	6	0,0126209771	0,00118388922
2	1	0	0	1	297024,1518	1,29795647	1,29859912	-0,21641990704531011	6	0,0102544427	0,00028104271
2	1	0	1	0	297028,1526	1,37695265	1,37791312	0,45910106523446445	7	0,000544688315	0,000632601383
2	1	0	0	0	297032,1824	1,45754862	1,45833492	1,1665450400776222	7	0,00381813478	0,00170121342
2	1	0	1	0	297036,1822	1,53754497	1,53824079	1,8813504747770294	7	0,0099138869	0,00289397012
2	1	0	0	0	297040,1820	1,61754107	1,61841786	2,6136305875800829	7	0,0189025011	0,00422994653
2	1	0	1	0	297044,1818	1,69753718	1,69831467	3,3457738464630752	7	0,0308319014	0,00568217691
2	1	0	0	0	297048,1816	1,77753329	1,77833617	3,9292978114551571	7	0,0455355383	0,00698761223
2	1	0	1	0	297052,1814	1,8575294	1,85828221	2,4065482646778733	7	0,0591930188	0,00447204569
2	1	0	0	0	297056,2212	1,93832517	1,93911779	0,36005206637223706	7	0,063887544	0,000698183372
2	1	0	1	0	297060,2210	2,01832128	2,01910782	0,15071019490629107	7	0,0647774637	0,000304300134
2	1	0	0	0	297064,2208	2,09831738	2,09890699	0,095825937895653862	7	0,0652588978	0,000201129733
2	1	0	1	0	297068,2206	2,17831326	2,17908406	0,080139561081993267	7	0,0656048059	0,000174630841
2	1	0	0	0	297072,2204	2,2583096	2,25919461	0,077016393033169536	7	0,065919809	0,000173995024
2	1	0	1	0	297076,2202	2,33830547	2,33903337	0,07644548949233632	7	0,0662285835	0,00017880855
2	1	0	0	0	297080,2200	2,41830158	2,41909051	0,076891022070347149	7	0,0665370598	0,000186006335
2	1	0	1	0	297084,2198	2,49829793	2,49909902	0,078596020177766899	7	0,0668497756	0,000196419234
2	1	0	0	0	297088,2196	2,57829404	2,57915163	0,080840536574316006	7	0,0671711415	0,000208500001
2	1	0	1	0	297092,2194	2,65829015	2,65924859	0,08321595877512439	7	0,0675016269	0,000221291921
2	1	0	0	0	297096,2192	2,73828626	2,73908329	0,086595607585168819	7	0,0678434744	0,00023719258
2	1	0	1	0	297100,2190	2,81828213	2,81903338	0,090493737202551603	7	0,0681994483	0,000255104853
2	1	0	0	0	297104,2188	2,89827847	2,89916587	0,094472210630087706	7	0,0685713291	0,000273890619
2	1	0	1	0	297108,2186	2,97827435	2,97890282	0,098945398883961037	7	0,0689606294	0,000294748723
2	1	0	0	0	297112,2184	3,05827069	3,05909801	0,10415869528703325	7	0,0693692192	0,000318631646
2	1	0	1	0	297116,2182	3,13826656	3,13935471	0,11045248345989434	7	0,0698004663	0,000346749526
2	1	0	0	0	297120,2180	3,21826267	3,21902919	0,11797969550308074	7	0,070258975	0,000379780075
2	1	0	1	0	297124,2178	3,29825878	3,29901505	0,12745643745141555	7	0,0707514286	0,000420480705
2	1	0	0	0	297128,2176	3,37825489	3,37909937	0,1412085166925352	7	0,0712897778	0,00047715762
2	1	0	1	0	297132,2174	3,45825124	3,45897388	0,16129150772812163	7	0,0718945712	0,000557903084
2	1	0	0	0	297136,2172	3,53824711	3,53905749	0,18924669114251546	7	0,0725949407	0,000669754925
2	1	0	1	0	297140,2170	3,61824298	3,61906981	0,22729209779000925	7	0,0734260976	0,000822585949
2	1	0	0	0	297144,2168	3,69823813	3,69902706	0,27960786876924938	7	0,0744380653	0,00103427703
2	1	0	0	0	297148,2168	3,77823615	3,77910471	0,34011384808547994	7	0,0756793842	0,00128532585
2	1	0	1	0	297152,2166	3,85823154	3,8591032	0,40507074887001517	7	0,0771693215	0,00156320981
2	1	0	0	0	297156,2164	3,93822765	3,93899989	0,47925653922613286	7	0,0789377987	0,00188779144
2	0	0	1	0	297160,0565	3,98482537	3,98581266	0,41907363798882426	7	0,0808633342	0,00167034904
2	0	0	0	0	297164,0563	3,9048295	3,90566659	0,17704964746479491	7	0,0819700807	0,000691496884
2	0	0	1	0	297168,0561	3,82483339	3,82556534	0,07922155363485225	7	0,0824540257	0,000303067238
2	0	0	0	0	297172,0959	3,74403691	3,74484515	0,031498711845078739	7	0,0826653019	0,000117957796
2	0	0	1	0	297176,1357	3,66324115	3,66416955	0,0023455352646933395	7	0,0827279538	8,59443844E-006
2	0	0	0	0	297180,1755	3,58244538	3,5832808	-0,015538404115769235	7	0,0826969221	5,56784653E-005
2	0	0	1	0	297184,1753	3,5024488	3,50323749	-0,027016903920512675	7	0,0826077759	9,46466316E-005
2	0	0	0	0	297188,1751	3,42245293	3,4231627	-0,03477604647546423	7	0,082480967	0,000119044067
2	0	0	1	0	297192,1749	3,34245682	3,34321666	-0,040781368053070419	7	0,0823271275	0,000136340954
2	0	0	0	0	297196,1747	3,26246047	3,26332879	-0,045734835521285101	7	0,0821515769	0,000149247804
2	0	0	1	0	297200,1745	3,1824646	3,18324018	-0,050355765433912346	7	0,0819567293	0,000160294498
2	0	0	0	0	297204,1743	3,10246849	3,10325003	-0,054009789695826925	7	0,0817453042	0,000167605875
2	0	0	1	0	297208,1741	3,02247238	3,02335787	-0,057056181943389242	7	0,0815204456	0,000172501255
2	0	0	0	0	297212,1739	2,94247627	2,94318962	-0,059286630436505178	7	0,0812851861	0,000174491797
2	0	0	1	0	297216,1737	2,86248064	2,86319017	-0,061158732968142451	7	0,08104188	0,000175109089
2	0	0	0	0	297220,1735	2,78248405	2,78330207	-0,062840900892667059	7	0,0807917267	0,000174905203
2	0	0	1	0	297224,1733	2,70248842	2,7032721	-0,064950779832587238	7	0,0805340335	0,000175579626
2	0	0	1	0	297228,1732	2,62249231	2,6231699	-0,06751887994375849	7	0,08026696	0,000177113499
2	0	0	0	0	297232,1731	2,5424962	2,54310894	-0,070382223757743168	7	0,0799887106	0,000178989663
2	0	0	1	0	297236,1729	2,46249986	2,46327424	-0,072940038620599834	7	0,0796996653	0,000179671319
2	0	0	0	0	297240,1727	2,38250351	2,38327956	-0,075716443894501158	7	0,0793997496	0,000180453455
2	0	0	1	0	297244,1725	2,3025074	2,30325365	-0,078651324785488256	7	0,0790890008	0,000181153955
2	0	0	0	0	297248,1723	2,22251153	2,22315645	-0,081117542952093171	7	0,078767471	0,000180336996
2	0	0	1	0	297252,1721	2,14251518	2,14313054	-0,083684799778789504	7	0,0784356371	0,000179347451
2	0	0	0	0	297256,1719	2,06251907	2,06333137	-0,088107419217492211	7	0,0780908689	0,000181794807
2	0	0	1	0	297260,2117	1,98172319	1,98241127	-0,10106958000471877	7	0,0777112618	0,000200361479
2	0	0	0	0	297264,2115	1,90172696	1,9024477	-0,12425292592012992	7	0,077257514	0,000236384687
2	0	0	1	0	297268,2113	1,82173085	1,82248867	-0,14265665146349326	7	0,0767225921	0,000259990135
2	0	0	0	0	297272,2111	1,74173498	1,74239612	-0,17387810837545635	7	0,0760921016	0,00030296453
2	0	0	1	0	297276,2109	1,66173887	1,66238797	-0,22044734877568816	7	0,0753060132	0,00036646903
2	0	0	0	0	297280,2107	1,58174276	1,58246875	-0,2820458767107823	7	0,0743049234	0,000446328777
2	0	0	1	0	297284,2105	1,50174677	1,50244737	-0,3707090776965689	7	0,0730105564	0,000556970888
2	0	0	0	0	297288,2103	1,42175055	1,42249703	-0,51865561306478726	7	0,0712548718	0,00073778606
2	0	0	1	0	297292,2100	1,34175444	1,34255576	-0,76108592762439219	7	0,068728976	0,00102180033
2	0	0	0	0	297296,2398	1,26115823	1,2618624	-1,1360249789776891	7	0,0649599209	0,00143350719
2	0	0	1	0	297300,2396	1,18116224	1,1820277	-1,7368614152074499	7	0,0592814572	0,00205301819
2	0	0	0	0	297304,2394	1,10116613	1,10196626	-2,5045468898283517	7	0,050837975	0,00275992625
2	0	0	1	0	297308,2392	1,02117002	1,02194035	-3,3683820819414195	7	0,0391039811	0,00344228558
2	1	0	1	1	297312,1495	1,05717015	1,05802989	-2,7869390139236288	7	0,0263453927	0,00294866483
2	1	0	0	1	297316,1494	1,13716483	1,13799572	-1,8088639282899664	7	0,0172109995	0,00205847947
2	1	0	1	1	297320,1492	1,21716046	1,2179414	-0,96402927267326886	7	0,0117099369	0,00117413118
2	1	0	0	1	297324,1890	1,29795659	1,29882598	-0,21339588791684429	7	0,00936510973	0,00027716413
2	1	0	0	1	297324,4364	1,30305672	1,30388427	-0,1685907152982864	7	0,0093177231	0,000219822788