File: Experimentelles/Rohdaten/Batteriemessungen/AlteZelle/Studenten_Batterietests/S vs Li GCPL 200µm/ZView-Export/S vs Li GCPL 200µm_01_OCV_C05.txt
EC-Lab ASCII FILE
Nb header lines : 48

Open Circuit Voltage

Run on channel : 5 (SN 5436)
Grouped channel(s) : 5
User :
CE vs. WE compliance from -10 V to 10 V
Electrode connection : standard
Ewe ctrl range : min = 0,00 V, max = 5,00 V
Acquisition started on : 01.23.2015 15:07:20
Saved on :
	File : S vs Li GCPL 200µm_01_OCV_C05.mpr
	Directory : C:\Hupfer\Studenten Batterietests\S vs Li GCPL 200µm\
	Host : 192.168.0.2
Device : VMP3 (SN 0324)
Address : 192.168.0.1
EC-Lab for windows v10.33 (software)
Internet server v10.33 (firmware)
Command interpretor v10.32 (firmware)
Electrode material : S vs Li
Initial state : charged
Electrolyte : LP30
Comments : 200µm
Mass of active material : 0,001 mg
 at x = 0,000
Molecular weight of active material (at x = 0) : 0,001 g/mol
Atomic weight of intercalated ion : 0,001 g/mol
Acquisition started at : xo = 0,000
Number of e- transfered per intercalated ion : 1
for DX = 1, DQ = 26,801 mA.h
Battery capacity : 0,000 A.h
Reference electrode : Li+/Li (-3,020 V)
Electrode surface area : 0,001 cm²
Characteristic mass : 0,001 g
Create one data file per loop
tR (h:m:s)          1:00:0,0000
dER/dt (mV/h)       0,0
dER (mV)            0,00
dtR (s)             5,0000
E range min (V)     0,000
E range max (V)     5,000

Number of loops : 1
Loop 0 from point number 0 to 720

mode	error	time/s	Ewe/V
3	1	0,0000	2,18191576
3	0	5,0000	2,18147755
3	0	10,0000	2,18054438
3	0	15,0000	2,18029666
3	0	20,0000	2,18145847
3	0	25,0000	2,1804111
3	0	30,0000	2,18083
3	0	35,0000	2,18263936
3	0	40,0000	2,18220139
3	0	45,0000	2,1813252
3	0	50,0000	2,18134427
3	0	55,0000	2,18025875
3	0	60,0000	2,18048716
3	0	65,0000	2,1804111
3	0	70,0000	2,18014431
3	0	75,0000	2,18460107
3	0	80,0000	2,18528676
3	0	85,0000	2,18418217
3	0	90,0000	2,18191576
3	0	95,0000	2,18161082
3	0	100,0000	2,18056345
3	0	105,0000	2,18046808
3	0	110,0000	2,17953491
3	0	115,0000	2,17928743
3	0	120,0000	2,17959213
3	0	125,0000	2,17909694
3	0	130,0000	2,17892551
3	0	135,0000	2,17949677
3	0	140,0000	2,17896366
3	0	145,0000	2,17905879
3	0	150,0000	2,17905879
3	0	155,0000	2,17903972
3	0	160,0000	2,17919207
3	0	165,0000	2,17888737
3	0	170,0000	2,17865872
3	0	175,0000	2,17869687
3	0	180,0000	2,17844939
3	0	185,0000	2,17865872
3	0	190,0000	2,17810655
3	0	195,0000	2,17877316
3	0	200,0000	2,17822075
3	0	205,0000	2,1781826
3	0	210,0000	2,18003011
3	0	215,0000	2,18109679
3	0	220,0000	2,18037295
3	0	225,0000	2,18001103
3	0	230,0000	2,18029666
3	0	235,0000	2,18050623
3	0	240,0000	2,17961121
3	0	245,0000	2,17934442
3	0	250,0000	2,17919207
3	0	255,0000	2,17892551
3	0	260,0000	2,17903972
3	0	265,0000	2,17919207
3	0	270,0000	2,17883015
3	0	275,0000	2,17907786
3	0	280,0000	2,17886829
3	0	285,0000	2,18043017
3	0	290,0000	2,17833495
3	0	295,0000	2,1782589
3	0	300,0000	2,17820168
3	0	305,0000	2,17803025
3	0	310,0000	2,17747808
3	0	315,0000	2,1780684
3	0	320,0000	2,1779542
3	0	325,0000	2,1776495
3	0	330,0000	2,17726851
3	0	335,0000	2,17694473
3	0	340,0000	2,17688751
3	0	345,0000	2,17702079
3	0	350,0000	2,17728758
3	0	355,0000	2,17724943
3	0	360,0000	2,17703986
3	0	365,0000	2,17683053
3	0	370,0000	2,17721128
3	0	375,0000	2,17719221
3	0	380,0000	2,17709708
3	0	385,0000	2,17723036
3	0	390,0000	2,17677331
3	0	395,0000	2,17650676
3	0	400,0000	2,17660189
3	0	405,0000	2,17637324
3	0	410,0000	2,17654467
3	0	415,0000	2,17641139
3	0	420,0000	2,17660189
3	0	425,0000	2,17662096
3	0	430,0000	2,17677331
3	0	435,0000	2,17665911
3	0	440,0000	2,17408776
3	0	445,0000	2,17446876
3	0	450,0000	2,17412591
3	0	455,0000	2,17425919
3	0	460,0000	2,17387843
3	0	465,0000	2,17635417
3	0	470,0000	2,17675424
3	0	475,0000	2,17616391
3	0	480,0000	2,17524958
3	0	485,0000	2,17544007
3	0	490,0000	2,17574477
3	0	495,0000	2,17574477
3	0	500,0000	2,17643046
3	0	505,0000	2,17629719
3	0	510,0000	2,17850637
3	0	515,0000	2,177459
3	0	520,0000	2,17728758
3	0	525,0000	2,17662096
3	0	530,0000	2,17671609
3	0	535,0000	2,17753506
3	0	540,0000	2,17865872
3	0	545,0000	2,17886829
3	0	550,0000	2,17774463
3	0	555,0000	2,1771543
3	0	560,0000	2,17753506
3	0	565,0000	2,17730665
3	0	570,0000	2,1771543
3	0	575,0000	2,18105865
3	0	580,0000	2,18134427
3	0	585,0000	2,18023968
3	0	590,0000	2,17999196
3	0	595,0000	2,18244886
3	0	600,0000	2,18077302
3	0	605,0000	2,18063951
3	0	610,0000	2,18003011
3	0	615,0000	2,18027782
3	0	620,0000	2,1799159
3	0	625,0000	2,18111563
3	0	630,0000	2,17974448
3	0	635,0000	2,18025875
3	0	640,0000	2,17961121
3	0	645,0000	2,17938256
3	0	650,0000	2,17947769
3	0	655,0000	2,17919207
3	0	660,0000	2,17943978
3	0	665,0000	2,17953491
3	0	670,0000	2,17930627
3	0	675,0000	2,17921114
3	0	680,0000	2,18023968
3	0	685,0000	2,17955399
3	0	690,0000	2,17917299
3	0	695,0000	2,17911601
3	0	700,0000	2,1782589
3	0	705,0000	2,17879224
3	0	710,0000	2,17846847
3	0	715,0000	2,17831588
3	0	720,0000	2,1789825
3	0	725,0000	2,17839217
3	0	730,0000	2,17829704
3	0	735,0000	2,1778779
3	0	740,0000	2,17822075
3	0	745,0000	2,17844939
3	0	750,0000	2,17841125
3	0	755,0000	2,1782589
3	0	760,0000	2,17943978
3	0	765,0000	2,17673516
3	0	770,0000	2,17559242
3	0	775,0000	2,17429733
3	0	780,0000	2,17355442
3	0	785,0000	2,17305946
3	0	790,0000	2,1724689
3	0	795,0000	2,17250705
3	0	800,0000	2,1756115
3	0	805,0000	2,17578292
3	0	810,0000	2,1757257
3	0	815,0000	2,17587805
3	0	820,0000	2,17578292
3	0	825,0000	2,17610669
3	0	830,0000	2,17622089
3	0	835,0000	2,17709708
3	0	840,0000	2,17677331
3	0	845,0000	2,17724943
3	0	850,0000	2,17610669
3	0	855,0000	2,17286897
3	0	860,0000	2,17123103
3	0	865,0000	2,1717453
3	0	870,0000	2,1718595
3	0	875,0000	2,17302132
3	0	880,0000	2,17342114
3	0	885,0000	2,17315459
3	0	890,0000	2,17477345
3	0	895,0000	2,17389727
3	0	900,0000	2,17424011
3	0	905,0000	2,17559242
3	0	910,0000	2,17545915
3	0	915,0000	2,17639232
3	0	920,0000	2,17873502
3	0	925,0000	2,17892551
3	0	930,0000	2,17968726
3	0	935,0000	2,17957306
3	0	940,0000	2,18012524
3	0	945,0000	2,18027782
3	0	950,0000	2,18084908
3	0	955,0000	2,19189572
3	0	960,0000	2,19631433
3	0	965,0000	2,19736171
3	0	970,0000	2,20056152
3	0	975,0000	2,20229459
3	0	980,0000	2,20221853
3	0	985,0000	2,20172334
3	0	990,0000	2,20237088
3	0	995,0000	2,20332313
3	0	1000,0000	2,20309472
3	0	1005,0000	2,20480871
3	0	1010,0000	2,20435166
3	0	1015,0000	2,20446587
3	0	1020,0000	2,20391369
3	0	1025,0000	2,20389462
3	0	1030,0000	2,20341849
3	0	1035,0000	2,20288515
3	0	1040,0000	2,20269465
3	0	1045,0000	2,20269465
3	0	1050,0000	2,20202804
3	0	1055,0000	2,20208526
3	0	1060,0000	2,20200896
3	0	1065,0000	2,20160913
3	0	1070,0000	2,20229459
3	0	1075,0000	2,20214224
3	0	1080,0000	2,202847
3	0	1085,0000	2,20398974
3	0	1090,0000	2,20530391
3	0	1095,0000	2,20444679
3	0	1100,0000	2,20378017
3	0	1105,0000	2,20638943
3	0	1110,0000	2,20507526
3	0	1115,0000	2,20553255
3	0	1120,0000	2,20509434
3	0	1125,0000	2,20429444
3	0	1130,0000	2,20385647
3	0	1135,0000	2,20435166
3	0	1140,0000	2,20459914
3	0	1145,0000	2,20435166
3	0	1150,0000	2,20418024
3	0	1155,0000	2,20499921
3	0	1160,0000	2,20467544
3	0	1165,0000	2,20515156
3	0	1170,0000	2,2059896
3	0	1175,0000	2,20600867
3	0	1180,0000	2,20454216
3	0	1185,0000	2,20326614
3	0	1190,0000	2,20277095
3	0	1195,0000	2,20250416
3	0	1200,0000	2,20269465
3	0	1205,0000	2,20286608
3	0	1210,0000	2,20296121
3	0	1215,0000	2,20269465
3	0	1220,0000	2,20397067
3	0	1225,0000	2,20231366
3	0	1230,0000	2,20829415
3	0	1235,0000	2,2030375
3	0	1240,0000	2,20227575
3	0	1245,0000	2,20244718
3	0	1250,0000	2,20309472
3	0	1255,0000	2,20299935
3	0	1260,0000	2,20301843
3	0	1265,0000	2,20298028
3	0	1270,0000	2,2034564
3	0	1275,0000	2,20347548
3	0	1280,0000	2,2042563
3	0	1285,0000	2,20412302
3	0	1290,0000	2,20393252
3	0	1295,0000	2,20499921
3	0	1300,0000	2,2062943
3	0	1305,0000	2,20753241
3	0	1310,0000	2,20597053
3	0	1315,0000	2,2051897
3	0	1320,0000	2,20494199
3	0	1325,0000	2,20589447
3	0	1330,0000	2,20433259
3	0	1335,0000	2,20848465
3	0	1340,0000	2,21069384
3	0	1345,0000	2,20294213
3	0	1350,0000	2,20259953
3	0	1355,0000	2,20379925
3	0	1360,0000	2,20452309
3	0	1365,0000	2,20383739
3	0	1370,0000	2,2062943
3	0	1375,0000	2,20404696
3	0	1380,0000	2,20389462
3	0	1385,0000	2,2036469
3	0	1390,0000	2,20726562
3	0	1395,0000	2,20452309
3	0	1400,0000	2,20490408
3	0	1405,0000	2,20557046
3	0	1410,0000	2,20478964
3	0	1415,0000	2,20509434
3	0	1420,0000	2,20421839
3	0	1425,0000	2,20402789
3	0	1430,0000	2,20393252
3	0	1435,0000	2,20397067
3	0	1440,0000	2,20351362
3	0	1445,0000	2,20296121
3	0	1450,0000	2,20846558
3	0	1455,0000	2,20459914
3	0	1460,0000	2,20393252
3	0	1465,0000	2,20341849
3	0	1470,0000	2,20381832
3	0	1475,0000	2,20250416
3	0	1480,0000	2,20252323
3	0	1485,0000	2,20166612
3	0	1490,0000	2,20256138
3	0	1495,0000	2,20265651
3	0	1500,0000	2,20299935
3	0	1505,0000	2,20402789
3	0	1510,0000	2,20517063
3	0	1515,0000	2,20842743
3	0	1520,0000	2,20675135
3	0	1525,0000	2,20625615
3	0	1530,0000	2,20498013
3	0	1535,0000	2,20545626
3	0	1540,0000	2,20511341
3	0	1545,0000	2,2054944
3	0	1550,0000	2,20469451
3	0	1555,0000	2,20416117
3	0	1560,0000	2,20473266
3	0	1565,0000	2,20488501
3	0	1570,0000	2,20456123
3	0	1575,0000	2,20543718
3	0	1580,0000	2,20423746
3	0	1585,0000	2,20515156
3	0	1590,0000	2,20475149
3	0	1595,0000	2,20498013
3	0	1600,0000	2,20532298
3	0	1605,0000	2,20555162
3	0	1610,0000	2,20509434
3	0	1615,0000	2,20772266
3	0	1620,0000	2,20534205
3	0	1625,0000	2,20480871
3	0	1630,0000	2,20484686
3	0	1635,0000	2,20665622
3	0	1640,0000	2,20755124
3	0	1645,0000	2,20798945
3	0	1650,0000	2,20798945
3	0	1655,0000	2,2078371
3	0	1660,0000	2,2092464
3	0	1665,0000	2,21202707
3	0	1670,0000	2,20736098
3	0	1675,0000	2,20772266
3	0	1680,0000	2,20856071
3	0	1685,0000	2,20701814
3	0	1690,0000	2,206599
3	0	1695,0000	2,20589447
3	0	1700,0000	2,20438981
3	0	1705,0000	2,20427537
3	0	1710,0000	2,20398974
3	0	1715,0000	2,20423746
3	0	1720,0000	2,20341849
3	0	1725,0000	2,20358992
3	0	1730,0000	2,20330405
3	0	1735,0000	2,20318985
3	0	1740,0000	2,20317078
3	0	1745,0000	2,20311356
3	0	1750,0000	2,202847
3	0	1755,0000	2,20307565
3	0	1760,0000	2,20290422
3	0	1765,0000	2,20271373
3	0	1770,0000	2,20238996
3	0	1775,0000	2,20269465
3	0	1780,0000	2,20202804
3	0	1785,0000	2,20216131
3	0	1790,0000	2,20256138
3	0	1795,0000	2,20339942
3	0	1800,0000	2,20235181
3	0	1805,0000	2,20122814
3	0	1810,0000	2,20105672
3	0	1815,0000	2,20092344
3	0	1820,0000	2,2006948
3	0	1825,0000	2,20090437
3	0	1830,0000	2,20117092
3	0	1835,0000	2,20117092
3	0	1840,0000	2,20090437
3	0	1845,0000	2,20139956
3	0	1850,0000	2,20077109
3	0	1855,0000	2,20063782
3	0	1860,0000	2,20073295
3	0	1865,0000	2,2005043
3	0	1870,0000	2,20042825
3	0	1875,0000	2,20096159
3	0	1880,0000	2,20042825
3	0	1885,0000	2,20044732
3	0	1890,0000	2,20170426
3	0	1895,0000	2,20244718
3	0	1900,0000	2,20103765
3	0	1905,0000	2,20193291
3	0	1910,0000	2,20358992
3	0	1915,0000	2,20341849
3	0	1920,0000	2,20250416
3	0	1925,0000	2,20200896
3	0	1930,0000	2,20200896
3	0	1935,0000	2,20216131
3	0	1940,0000	2,20168519
3	0	1945,0000	2,20073295
3	0	1950,0000	2,20042825
3	0	1955,0000	2,20105672
3	0	1960,0000	2,20124722
3	0	1965,0000	2,20092344
3	0	1970,0000	2,20073295
3	0	1975,0000	2,20061874
3	0	1979,9999	2,20033288
3	0	1984,9999	2,2006948
3	0	1989,9999	2,20048523
3	0	1994,9999	2,20033288
3	0	1999,9999	2,20128536
3	0	2004,9999	2,20174241
3	0	2009,9999	2,20136142
3	0	2014,9999	2,20138049
3	0	2019,9999	2,20132327
3	0	2024,9999	2,20143771
3	0	2029,9999	2,20096159
3	0	2034,9999	2,20328498
3	0	2039,9999	2,2030375
3	0	2044,9999	2,20294213
3	0	2049,9999	2,202847
3	0	2054,9999	2,2031517
3	0	2059,9999	2,20301843
3	0	2064,9999	2,20328498
3	0	2069,9999	2,20343733
3	0	2074,9999	2,20309472
3	0	2079,9999	2,20320892
3	0	2084,9999	2,20625615
3	0	2089,9999	2,20806551
3	0	2094,9999	2,21589351
3	0	2099,9999	2,2118175
3	0	2104,9999	2,2093606
3	0	2109,9999	2,21016073
3	0	2114,9999	2,2104845
3	0	2119,9999	2,21225572
3	0	2124,9999	2,21654105
3	0	2129,9999	2,21716952
3	0	2134,9999	2,21223664
3	0	2139,9999	2,20903683
3	0	2144,9999	2,20899892
3	0	2149,9999	2,20705605
3	0	2154,9999	2,20650387
3	0	2159,9999	2,20471358
3	0	2164,9999	2,20741796
3	0	2169,9999	2,20427537
3	0	2174,9999	2,20256138
3	0	2179,9999	2,20416117
3	0	2184,9999	2,20572305
3	0	2189,9999	2,20625615
3	0	2194,9999	2,20762753
3	0	2199,9999	2,21014166
3	0	2204,9999	2,21012259
3	0	2209,9999	2,21204615
3	0	2214,9999	2,21149373
3	0	2219,9999	2,21223664
3	0	2224,9999	2,2121985
3	0	2229,9999	2,21286511
3	0	2234,9999	2,21164608
3	0	2239,9999	2,21002722
3	0	2244,9999	2,20747519
3	0	2249,9999	2,20743704
3	0	2254,9999	2,2081418
3	0	2259,9999	2,20741796
3	0	2264,9999	2,20566583
3	0	2269,9999	2,20534205
3	0	2274,9999	2,20616102
3	0	2279,9999	2,20591331
3	0	2284,9999	2,20492291
3	0	2289,9999	2,20560861
3	0	2294,9999	2,20513248
3	0	2299,9999	2,20452309
3	0	2304,9999	2,20459914
3	0	2309,9999	2,20440888
3	0	2314,9999	2,20419931
3	0	2319,9999	2,20389462
3	0	2324,9999	2,20393252
3	0	2329,9999	2,20358992
3	0	2334,9999	2,20360875
3	0	2339,9999	2,20827508
3	0	2344,9999	2,20947504
3	0	2349,9999	2,20808458
3	0	2354,9999	2,20856071
3	0	2359,9999	2,20920825
3	0	2364,9999	2,20941782
3	0	2369,9999	2,21044636
3	0	2374,9999	2,2104845
3	0	2379,9999	2,20873213
3	0	2384,9999	2,20888448
3	0	2389,9999	2,20871305
3	0	2394,9999	2,20840836
3	0	2399,9999	2,20823693
3	0	2404,9999	2,20907497
3	0	2409,9999	2,21276999
3	0	2414,9999	2,20816088
3	0	2419,9999	2,20816088
3	0	2424,9999	2,20755124
3	0	2429,9999	2,20736098
3	0	2434,9999	2,20739889
3	0	2439,9999	2,20819879
3	0	2444,9999	2,20808458
3	0	2449,9999	2,2078371
3	0	2454,9999	2,2095511
3	0	2459,9999	2,22132158
3	0	2464,9999	2,22196913
3	0	2469,9999	2,22254038
3	0	2474,9999	2,22040725
3	0	2479,9999	2,21918845
3	0	2484,9999	2,21863604
3	0	2489,9999	2,21880746
3	0	2494,9999	2,21947408
3	0	2499,9999	2,21846461
3	0	2504,9999	2,21939778
3	0	2509,9999	2,22063589
3	0	2514,9999	2,2202549
3	0	2519,9999	2,219455
3	0	2524,9999	2,21901703
3	0	2529,9999	2,22457838
3	0	2534,9999	2,22495914
3	0	2539,9999	2,23128247
3	0	2544,9999	2,21429348
3	0	2549,9999	2,21176052
3	0	2554,9999	2,21042728
3	0	2559,9999	2,21141768
3	0	2564,9999	2,21122718
3	0	2569,9999	2,20997024
3	0	2574,9999	2,21183658
3	0	2579,9999	2,21155095
3	0	2584,9999	2,21088433
3	0	2589,9999	2,21082711
3	0	2594,9999	2,2104845
3	0	2599,9999	2,21006536
3	0	2604,9999	2,21042728
3	0	2609,9999	2,21136045
3	0	2614,9999	2,21250319
3	0	2619,9999	2,21198893
3	0	2624,9999	2,21214128
3	0	2629,9999	2,21271276
3	0	2634,9999	2,2123127
3	0	2639,9999	2,21383643
3	0	2644,9999	2,21433163
3	0	2649,9999	2,21400785
3	0	2654,9999	2,21358895
3	0	2659,9999	2,21366501
3	0	2664,9999	2,21362686
3	0	2669,9999	2,21339846
3	0	2674,9999	2,21410322
3	0	2679,9999	2,21459818
3	0	2684,9999	2,21713138
3	0	2689,9999	2,21564579
3	0	2694,9999	2,21549344
3	0	2699,9999	2,21488404
3	0	2704,9999	2,21419835
3	0	2709,9999	2,2146554
3	0	2714,9999	2,21197009
3	0	2719,9999	2,21164608
3	0	2724,9999	2,21195102
3	0	2729,9999	2,21212244
3	0	2734,9999	2,21545529
3	0	2739,9999	2,21488404
3	0	2744,9999	2,2118175
3	0	2749,9999	2,2147696
3	0	2754,9999	2,21469355
3	0	2759,9999	2,21379828
3	0	2764,9999	2,21494102
3	0	2769,9999	2,21562672
3	0	2774,9999	2,21490312
3	0	2779,9999	2,21452212
3	0	2784,9999	2,21459818
3	0	2789,9999	2,21379828
3	0	2794,9999	2,20317078
3	0	2799,9999	2,18932438
3	0	2804,9999	2,18978167
3	0	2809,9999	2,18983865
3	0	2814,9999	2,19073391
3	0	2819,9999	2,19665718
3	0	2824,9999	2,19776177
3	0	2829,9999	2,1975143
3	0	2834,9999	2,19800949
3	0	2839,9999	2,19974256
3	0	2844,9999	2,1947906
3	0	2849,9999	2,19646668
3	0	2854,9999	2,19599056
3	0	2859,9999	2,19623804
3	0	2864,9999	2,19355273
3	0	2869,9999	2,19265747
3	0	2874,9999	2,19444776
3	0	2879,9999	2,19532394
3	0	2884,9999	2,19839025
3	0	2889,9999	2,19562864
3	0	2894,9999	2,19604754
3	0	2899,9999	2,19560957
3	0	2904,9999	2,19631433
3	0	2909,9999	2,19667625
3	0	2914,9999	2,19541907
3	0	2919,9999	2,19545722
3	0	2924,9999	2,19604754
3	0	2929,9999	2,19720936
3	0	2934,9999	2,1970191
3	0	2939,9999	2,19970441
3	0	2944,9999	2,19919014
3	0	2949,9999	2,20221853
3	0	2954,9999	2,20096159
3	0	2959,9999	2,200809
3	0	2964,9999	2,19875216
3	0	2969,9999	2,20029497
3	0	2974,9999	2,20046639
3	0	2979,9999	2,20183754
3	0	2984,9999	2,20357084
3	0	2989,9999	2,20414209
3	0	2994,9999	2,20461822
3	0	2999,9999	2,2061038
3	0	3004,9999	2,20555162
3	0	3009,9999	2,20541811
3	0	3014,9999	2,20663714
3	0	3019,9999	2,20456123
3	0	3024,9999	2,20469451
3	0	3029,9999	2,20389462
3	0	3034,9999	2,20349455
3	0	3039,9999	2,20341849
3	0	3044,9999	2,20440888
3	0	3049,9999	2,20499921
3	0	3054,9999	2,20564675
3	0	3059,9999	2,20509434
3	0	3064,9999	2,20499921
3	0	3069,9999	2,20515156
3	0	3074,9999	2,20541811
3	0	3079,9999	2,20532298
3	0	3084,9999	2,20492291
3	0	3089,9999	2,2080276
3	0	3094,9999	2,20597053
3	0	3099,9999	2,20747519
3	0	3104,9999	2,20002818
3	0	3109,9999	2,1999712
3	0	3114,9999	2,20075202
3	0	3119,9999	2,1999712
3	0	3124,9999	2,19882846
3	0	3129,9999	2,19810462
3	0	3134,9999	2,19846654
3	0	3139,9999	2,1980474
3	0	3144,9999	2,19440961
3	0	3149,9999	2,19303846
3	0	3154,9999	2,19351459
3	0	3159,9999	2,1958952
3	0	3164,9999	2,19336224
3	0	3169,9999	2,19227648
3	0	3174,9999	2,19046712
3	0	3179,9999	2,18812466
3	0	3184,9999	2,18730569
3	0	3189,9999	2,18275356
3	0	3194,9999	2,18231559
3	0	3199,9999	2,18157291
3	0	3204,9999	2,18338227
3	0	3209,9999	2,18328691
3	0	3214,9999	2,18239188
3	0	3219,9999	2,18454409
3	0	3224,9999	2,18410587
3	0	3229,9999	2,18465829
3	0	3234,9999	2,18267751
3	0	3239,9999	2,18296313
3	0	3244,9999	2,18248701
3	0	3249,9999	2,18271565
3	0	3254,9999	2,18239188
3	0	3259,9999	2,18229651
3	0	3264,9999	2,18357253
3	0	3269,9999	2,18313456
3	0	3274,9999	2,18098235
3	0	3279,9999	2,18119192
3	0	3284,9999	2,18155384
3	0	3289,9999	2,18170619
3	0	3294,9999	2,18182039
3	0	3299,9999	2,18187761
3	0	3304,9999	2,1804111
3	0	3309,9999	2,18003011
3	0	3314,9999	2,18296313
3	0	3319,9999	2,18176317
3	0	3324,9999	2,18119192
3	0	3329,9999	2,18098235
3	0	3334,9999	2,1802206
3	0	3339,9999	2,18284893
3	0	3344,9999	2,18033481
3	0	3349,9999	2,18058252
3	0	3354,9999	2,17989683
3	0	3359,9999	2,18050623
3	0	3364,9999	2,18183947
3	0	3369,9999	2,18044925
3	0	3374,9999	2,18079185
3	0	3379,9999	2,18035388
3	0	3384,9999	2,17862082
3	0	3389,9999	2,17873502
3	0	3394,9999	2,17829704
3	0	3399,9999	2,17911601
3	0	3404,9999	2,17909694
3	0	3409,9999	2,18309641
3	0	3414,9999	2,18311548
3	0	3419,9999	2,18111563
3	0	3424,9999	2,18065858
3	0	3429,9999	2,18033481
3	0	3434,9999	2,17980146
3	0	3439,9999	2,17951584
3	0	3444,9999	2,18134427
3	0	3449,9999	2,17875409
3	0	3454,9999	2,1783731
3	0	3459,9999	2,17871594
3	0	3464,9999	2,17843032
3	0	3469,9999	2,18079185
3	0	3474,9999	2,18338227
3	0	3479,9999	2,18315363
3	0	3484,9999	2,1869247
3	0	3489,9999	2,18761039
3	0	3494,9999	2,18762946
3	0	3499,9999	2,18810558
3	0	3504,9999	2,18869591
3	0	3509,9999	2,18778181
3	0	3514,9999	2,18500113
3	0	3519,9999	2,18383932
3	0	3524,9999	2,18307734
3	0	3529,9999	2,1806016
3	0	3534,9999	2,18067765
3	0	3539,9999	2,18296313
3	0	3544,9999	2,18185854
3	0	3549,9999	2,1799159
3	0	3554,9999	2,17995405
3	0	3559,9999	2,18566775
3	0	3564,9999	2,18503928
3	0	3569,9999	2,18382025
3	0	3574,9999	2,18357253
3	0	3579,9999	2,18265843
3	0	3584,9999	2,18185854
3	0	3589,9999	2,18235373
3	0	3594,9999	2,18216324
3	0	3599,9999	2,17934442