File: Experimentelles/Rohdaten/Batteriemessungen/AlteZelle/Studenten_Batterietests/S vs Li GCPL 200µm/ZView-Export/S vs Li GCPL 200µm_02_GCPL_C05_loop3.txt
EC-Lab ASCII FILE
Nb header lines : 3
mode	ox/red	error	control changes	Ns changes	counter inc.	Ns	time/s	control/V/mA	Ewe/V	dq/mA.h	<I>/mA	P/W	(Q-Qo)/mA.h	x	Capacity/mA.h
1	0	0	1	1	0	1	120443,69	-0,200000003	3,42136121	0	0	0	0	0	0
1	0	0	1	0	0	1	120473,69	-0,200000003	2,10698962	-0,0005547923662588	-0,19972130495230902	0,000420810713	-0,0016616300052151523	6,1997649579879949E-005	0,0016616300052151523
1	0	0	1	0	0	1	120503,69	-0,200000003	2,05455637	-0,00055479448351429574	-0,19972206683185901	0,000410340232	-0,0033260088908146266	0,00012409786358280795	0,0033260088908146266
1	0	0	1	0	0	1	120533,69	-0,200000003	2,04512882	-0,00055478498115142182	-0,19971864583725789	0,000408450345	-0,0049903746164949843	0,00018619758657145997	0,0049903746164949843
1	0	0	1	0	0	1	120563,69	-0,200000003	2,03493929	-0,00055478949683987437	-0,19972027207607203	0,000406418636	-0,0066547443847577216	0,0002482974603942959	0,0066547443847577216
1	0	0	1	0	0	1	120593,69	-0,200000003	2,02760649	-0,00055479254041612147	-0,19972136699786358	0,000404956343	-0,008319125196598016	0,00031039774626785875	0,008319125196598016
1	0	0	1	0	0	1	120623,69	-0,200000003	2,02678752	-0,0005547893628660176	-0,19972022384178669	0,000404790451	-0,0099834884341892698	0,00037249737642256109	0,0099834884341892698
1	0	0	1	0	0	1	120653,69	-0,200000003	2,02147388	-0,00055479061608761549	-0,19972067425329373	0,000403730141	-0,011647857960325525	0,00043459724121133235	0,011647857960325525
1	0	0	1	0	0	1	120683,69	-0,200000003	2,01720762	-0,00055479489563074381	-0,19972221560237792	0,000402881182	-0,01331223722522495	0,00049669746936645158	0,01331223722522495
1	0	0	1	0	0	1	120713,69	-0,200000003	2,01172233	-0,00055479470807313926	-0,1997221475714689	0,00040178551	-0,014976614589701472	0,00055879762661423706	0,014976614589701472
1	0	0	1	0	0	1	120743,69	-0,200000003	2,00755119	-0,00055479279612253107	-0,19972145927122832	0,000400951045	-0,016640999138521197	0,00062089805191952691	0,016640999138521197
1	0	0	1	0	0	1	120773,69	-0,200000003	2,0042944	-0,00055479159816934003	-0,19972102853740579	0,00040029973	-0,018305375380961805	0,00068299816730264384	0,018305375380961805
1	0	0	1	0	0	1	120803,70	-0,200000003	2,00052333	-0,00055479259386079174	-0,19972138623553021	0,00039954728	-0,019969741441116941	0,00074509790277099955	0,019969741441116941
1	0	0	1	0	0	1	120833,70	-0,200000003	1,99939966	-0,00055479278521405331	-0,19972145586534851	0,000399323006	-0,021634122085375462	0,00080719818239186112	0,021634122085375462
1	0	0	1	0	0	1	120863,70	-0,200000003	1,9975903	-0,00055479082407140077	-0,19972074912481402	0,000398960226	-0,02329849679370096	0,0008692982405350807	0,02329849679370096
1	0	0	1	0	0	1	120893,70	-0,200000003	1,99964726	-0,00055478700921850067	-0,19971937654774954	0,000399368291	-0,024962860804929872	0,00093139789955524416	0,024962860804929872
1	0	0	1	0	0	1	120923,70	-0,200000003	1,9954952	-0,00055479000704404384	-0,19972045514144186	0,000398541219	-0,026627226570995693	0,00099349762405073216	0,026627226570995693
1	0	0	1	0	0	1	120953,70	-0,200000003	1,99046707	-0,00055479345101780365	-0,19972169514279286	0,000397539465	-0,028291607190731875	0,0010555979027566322	0,028291607190731875
1	0	0	1	0	0	1	120983,70	-0,200000003	1,98863876	-0,00055479362973488038	-0,19972175981447203	0,000397174445	-0,029955984670824851	0,001117698064318223	0,029955984670824851
1	0	0	1	0	0	1	121013,70	-0,200000003	1,98551524	-0,00055480003955711923	-0,19972406663526362	0,000396555173	-0,031620376690698547	0,0011797987683785814	0,031620376690698547
1	0	0	1	0	0	1	121043,70	-0,200000003	1,98284876	-0,0005547955741319392	-0,19972245985798141	0,00039601943	-0,033284772786305562	0,0012418996245100298	0,033284772786305562
1	0	0	1	0	0	1	121073,70	-0,200000003	1,97951579	-0,00055480122871283034	-0,19972449472285834	0,000395357783	-0,034949167856244128	0,0013040004423724096	0,034949167856244128
1	0	0	1	0	0	1	121103,70	-0,200000003	1,97943962	-0,00055480573105977645	-0,19972611627974614	0,000395345793	-0,03661357666998311	0,0013661017730344614	0,03661357666998311
1	0	0	1	0	0	1	121133,70	-0,200000003	1,9756875	-0,00055481351347184838	-0,19972891717427046	0,000394601928	-0,03827800054702697	0,001428203665728671	0,03827800054702697
1	0	0	1	0	0	1	121163,70	-0,200000003	1,97157371	-0,00055479844683822656	-0,19972349369327766	0,000393769587	-0,039942421301102848	0,0014903054419007466	0,039942421301102848
1	0	0	1	0	0	1	121193,70	-0,200000003	1,98124897	-0,00055480078414662016	-0,19972433524717341	0,000395703624	-0,041606825255829805	0,0015524065912665264	0,041606825255829805
1	0	0	1	0	0	1	121223,70	-0,200000003	1,9841249	-0,0005548004423015648	-0,19972421161807331	0,000396277785	-0,043271228429254106	0,0016145077114808541	0,043271228429254106
1	0	0	1	0	0	1	121253,70	-0,200000003	1,97867775	-0,00055479316198246349	-0,19972159149900522	0,000395184674	-0,044935615903237997	0,001676608245927952	0,044935615903237997
1	0	0	1	0	0	1	121283,70	-0,200000003	1,97913492	-0,00055479789870232352	-0,19972329594044512	0,000395279349	-0,046599998370930093	0,0017387085935835718	0,046599998370930093
1	0	0	1	0	0	1	121313,71	-0,200000003	1,97829688	-0,00055480155851691962	-0,19972461419632634	0,000395114592	-0,048264400503370874	0,0018008096749574048	0,048264400503370874
1	0	0	1	0	0	1	121343,71	-0,200000003	1,97422099	-0,0005548022194554409	-0,19972485138314867	0,000394300994	-0,049928808512534906	0,0018629109755996835	0,049928808512534906
1	0	0	1	0	0	1	121373,71	-0,200000003	1,97401154	-0,00055479717651671834	-0,19972303649119917	0,000394255592	-0,05159320905382224	0,0019250119976054419	0,05159320905382224
1	0	0	1	0	0	1	121403,71	-0,200000003	1,96774542	-0,00055478953653077293	-0,19972028607621267	0,000392998685	-0,053257592126914566	0,0019871123678493584	0,053257592126914566
1	0	0	1	0	0	1	121433,71	-0,200000003	1,96789777	-0,00055479499659935629	-0,19972225120635146	0,000393032969	-0,054921971014737626	0,0020492125819352512	0,054921971014737626
1	0	0	1	0	0	1	121463,71	-0,200000003	1,96237457	-0,00055479568646351488	-0,1997225002965495	0,000391930342	-0,056586357538587891	0,0021113130809315862	0,056586357538587891
1	0	0	1	0	0	1	121493,71	-0,200000003	1,95845103	-0,0005547937722976009	-0,19972181046643088	0,000391145382	-0,058250743010441011	0,0021734135406764925	0,058250743010441011
1	0	0	1	0	0	1	121523,71	-0,200000003	1,95513713	-0,00055479659498814074	-0,19972282735662653	0,000390485511	-0,059915130799902362	0,0022355140868944787	0,059915130799902362
1	0	0	1	0	0	1	121553,71	-0,200000003	1,95142317	-0,00055479745595488282	-0,19972313655451674	0,000389744353	-0,061579520823103232	0,0022976147164562893	0,061579520823103232
1	0	0	1	0	0	1	121583,71	-0,200000003	1,9447571	-0,00055479745175027187	-0,1997231356732969	0,000388412998	-0,063243915208982464	0,0023597155087954957	0,063243915208982464
1	0	0	1	0	0	1	121613,71	-0,200000003	1,94096696	-0,00055480062157081235	-0,19972427651672538	0,00038765822	-0,064908315408849421	0,0024218165180624006	0,064908315408849421
1	0	0	1	0	0	1	121643,71	-0,200000003	1,93536758	-0,0005548053007663952	-0,19972596073314557	0,000386543164	-0,066572722261426714	0,002483917775550873	0,066572722261426714
1	0	0	1	0	0	1	121673,71	-0,200000003	1,93119657	-0,0005548048665399353	-0,19972580505642851	0,000385709776	-0,068237140349868634	0,0025460194522645613	0,068237140349868634
1	0	0	1	0	0	1	121703,71	-0,200000003	1,92500663	-0,00055479630234671955	-0,19972272126611136	0,000384467567	-0,069901537871969613	0,0026081203616204173	0,069901537871969613
1	0	0	1	0	0	1	121733,71	-0,200000003	1,91675973	-0,00055480303434282534	-0,19972514548082829	0,000382825121	-0,07156593699453312	0,0026702213306916822	0,07156593699453312
1	0	0	1	0	0	1	121763,71	-0,200000003	1,91363621	-0,00055480583501855526	-0,19972615296014378	0,000382203201	-0,073230347983025395	0,002732322742496704	0,073230347983025395
1	0	0	1	0	0	1	121793,71	-0,200000003	1,91877866	-0,00055480273883624218	-0,19972503910056058	0,000383228151	-0,074894756558103232	0,0027944240642539878	0,074894756558103232
1	0	0	1	0	0	1	121823,72	-0,200000003	1,91378868	-0,00055479796291722189	-0,19972331932008106	0,000382228231	-0,07655915423444448	0,0028565249793647555	0,07655915423444448
1	0	0	1	0	0	1	121853,72	-0,200000003	1,90843678	-0,00055480748281048403	-0,19972674635812045	0,000381165853	-0,078223576496153626	0,0029186268117886547	0,078223576496153626
1	0	0	1	0	0	1	121883,72	-0,200000003	1,91150308	-0,00055479729943556922	-0,19972308095501434	0,000381771271	-0,079887986388947789	0,0029807281827117062	0,079887986388947789
1	0	0	1	0	0	1	121913,72	-0,200000003	1,90693212	-0,00055479955369730784	-0,19972389172686355	0,000380859914	-0,081552379112777984	0,0030428289130376288	0,081552379112777984
1	0	0	1	0	0	1	121943,72	-0,200000003	1,90388477	-0,00055480239597625197	-0,19972491567107818	0,000380253216	-0,083216785456456627	0,0031049301515384077	0,083216785456456627
1	0	0	1	0	0	1	121973,72	-0,200000003	1,90137076	-0,00055480553105639085	-0,19972604353360234	0,00037975327	-0,084881192227217421	0,0031670314059741971	0,084881192227217421
1	0	0	1	0	0	1	122003,72	-0,200000003	1,89817107	-0,00055480908692297011	-0,19972732436458774	0,000379116624	-0,086545611613553805	0,003229133131114073	0,086545611613553805
1	0	0	1	0	0	1	122033,72	-0,200000003	1,88464856	-0,00055480328169630637	-0,1997252339287809	0,000376411888	-0,088210027707568026	0,0032912347334129824	0,088210027707568026
1	0	0	1	0	0	1	122063,72	-0,200000003	1,88022983	-0,00055480519104003904	-0,19972592143704422	0,000375530624	-0,089874437473267699	0,0033533360995939674	0,089874437473267699
1	0	0	1	0	0	1	122093,72	-0,200000003	1,87434471	-0,00055480098331305709	-0,19972440706657648	0,000374352385	-0,091538845208978035	0,003415437390033321	0,091538845208978035
1	0	0	1	0	0	1	122123,72	-0,200000003	1,86807859	-0,00055480552129364685	-0,19972604002140899	0,000373103947	-0,093203255694060237	0,0034775387830554355	0,093203255694060237
1	0	0	1	0	0	1	122153,72	-0,200000003	1,86188877	-0,00055480541706581907	-0,19972600324415526	0,000371867616	-0,094867666442469133	0,0035396401859026227	0,094867666442469133
1	0	0	1	0	0	1	122183,72	-0,200000003	1,85973656	-0,00055481046535240288	-0,1997278198473824	0,000371441129	-0,096532083744445965	0,0036017418332722413	0,096532083744445965
1	0	0	1	0	0	1	122213,72	-0,200000003	1,85337532	-0,00055481347181896371	-0,19972890289798563	0,000370172609	-0,09819652338693161	0,003663844314196281	0,09819652338693161
1	0	0	1	0	0	1	122243,72	-0,200000003	1,85028982	-0,00055480864978333318	-0,19972716631123779	0,000369553134	-0,09986095512774455	0,003725946500298288	0,09986095512774455
1	0	0	1	0	0	1	122273,72	-0,200000003	1,84459519	-0,00055480799934516352	-0,19972693251153715	0,000368415349	-0,1015253650495728	0,00378804787230464	0,1015253650495728
1	0	0	1	0	0	1	122303,72	-0,200000003	1,83937657	-0,00055480581580102438	-0,19972614662556256	0,000367371598	-0,10318978452026382	0,0038501496005919008	0,10318978452026382
1	0	0	1	0	0	1	122333,73	-0,200000003	1,83712912	-0,00055480915252781574	-0,19972734723754717	0,000366924913	-0,1048542151905848	0,0039122517467524147	0,1048542151905848
1	0	0	1	0	0	1	122363,73	-0,200000003	1,82848239	-0,00055480749111208646	-0,19972674988373165	0,000365196844	-0,10651864696435086	0,0039743539340839456	0,10651864696435086
1	0	0	1	0	0	1	122393,73	-0,200000003	1,82297814	-0,00055481059599998925	-0,19972786687754944	0,000364099542	-0,10818308060627798	0,004036456191119079	0,10818308060627798
1	0	0	1	0	0	1	122423,73	-0,200000003	1,81457889	-0,00055480365276585024	-0,1997253681063927	0,000362417428	-0,10984751930869074	0,004098558636967735	0,10984751930869074
1	0	0	1	0	0	1	122453,73	-0,200000003	1,80983651	-0,00055480453082919117	-0,19972568345892742	0,000361470826	-0,11151192719952963	0,0041606599331951443	0,11151192719952963
1	0	0	1	0	0	1	122483,73	-0,200000003	1,80549407	-0,00055480186727311872	-0,19972472510920579	0,000360601814	-0,11317633411577462	0,0042227611930591437	0,11317633411577462
1	0	0	1	0	0	1	122513,73	-0,200000003	1,79728508	-0,00055479699979639712	-0,19972297282664006	0,000358959107	-0,11484072092368739	0,0042848617026542317	0,11484072092368739
1	0	0	1	0	0	1	122543,73	-0,200000003	1,79084766	-0,00055479625300897498	-0,1997227035048744	0,00035767295	-0,11650510088536346	0,004346961956807024	0,11650510088536346
1	0	0	1	0	0	1	122573,73	-0,200000003	1,78640997	-0,00055479809498538566	-0,1997233673472887	0,000356787816	-0,1181694844412385	0,0044090623450642144	0,1181694844412385
1	0	0	1	0	0	1	122603,73	-0,200000003	1,78001058	-0,00055479212417784666	-0,1997212171550463	0,000355505879	-0,11983387008345411	0,0044711628111655738	0,11983387008345411
1	0	0	1	0	0	1	122633,73	-0,200000003	1,77189708	-0,00055479348420020614	-0,19972170749742531	0,000353886309	-0,12149825082292526	0,0045332630943389472	0,12149825082292526
1	0	0	1	0	0	1	122663,73	-0,200000003	1,76570714	-0,00055480157951100013	-0,19972462100770342	0,000352655188	-0,12316264462817994	0,0045953638650142701	0,12316264462817994
1	0	0	1	0	0	1	122693,73	-0,200000003	1,75873637	-0,00055479385254780454	-0,19972183996741405	0,000351258059	-0,1248270362964384	0,0046574645559553914	0,1248270362964384
1	0	0	1	0	0	1	122723,73	-0,200000003	1,75216556	-0,00055478830961717498	-0,19971984431932134	0,000349942246	-0,12649140545514429	0,0047195644070348416	0,12649140545514429
1	0	0	1	0	0	1	122753,73	-0,200000003	1,75218463	-0,00055479456123875245	-0,19972209456100774	0,000349949987	-0,12815577884097515	0,0047816644158340083	0,12815577884097515
1	0	0	1	0	0	1	122783,73	-0,200000003	1,74306166	-0,00055479424693104294	-0,19972198207306611	0,000348127738	-0,12982016101240485	0,0048437647524356794	0,12982016101240485
1	0	0	1	0	0	1	122813,73	-0,200000003	1,73494816	-0,00055479930424276326	-0,19972380192500246	0,000346510438	-0,13148454996270475	0,0049058653419661133	0,13148454996270475
1	0	0	1	0	0	1	122843,74	-0,200000003	1,73136747	-0,00055479979842818451	-0,19972398057341542	0,00034579559	-0,13314894793149203	0,0049679662679884358	0,13314894793149203
1	0	0	1	0	0	1	122873,74	-0,200000003	1,72096848	-0,00055479942127896678	-0,19972384405720298	0,00034371845	-0,13481335192576752	0,005030067418829824	0,13481335192576752
1	0	0	1	0	0	1	122903,74	-0,200000003	1,71102655	-0,00055479259767880038	-0,19972138832812579	0,000341728592	-0,13647773640788302	0,0050921678416462899	0,13647773640788302
1	0	0	1	0	0	1	122933,74	-0,200000003	1,7027607	-0,0005547946235371961	-0,19972211717633123	0,000340078957	-0,13814212090585834	0,0051542682650545069	0,13814212090585834
1	0	0	1	0	0	1	122963,74	-0,200000003	1,69304729	-0,00055479514117373357	-0,19972230343810083	0,000338139303	-0,1398065057990853	0,0052163687032100934	0,1398065057990853
1	0	0	1	0	0	1	122993,74	-0,200000003	1,68466711	-0,00055479540100528134	-0,19972239753361619	0,000336465746	-0,14147089887927181	0,0052784694468321485	0,14147089887927181
1	0	0	1	0	0	1	123023,74	-0,200000003	1,67341101	-0,00055479134167979155	-0,19972093546131424	0,000334215205	-0,14313526371476923	0,0053405691366068787	0,14313526371476923
1	0	0	1	0	0	1	123053,74	-0,200000003	1,66238356	-0,00055478950716969043	-0,19972027579473235	0,000332011696	-0,14479964147321341	0,0054026693085541274	0,14479964147321341
1	0	0	1	0	0	1	123083,74	-0,200000003	1,65063226	-0,00055479339493976704	-0,19972167462029571	0,000329667033	-0,14646401285842435	0,0054647692427074733	0,14646401285842435
1	0	0	1	0	0	1	123113,74	-0,200000003	1,6377002	-0,00055478897708157696	-0,19972008496445757	0,000327081623	-0,14812837969050099	0,0055268690069772595	0,14812837969050099
1	0	0	1	0	0	1	123143,74	-0,200000003	1,63137698	-0,00055479767660713856	-0,19972321616446173	0,000325823872	-0,14979276838039978	0,005588969586791776	0,14979276838039978
1	0	0	1	0	0	1	123173,74	-0,200000003	1,61356902	-0,00055479412933025101	-0,19972193928191299	0,000322265143	-0,15145715274967786	0,0056510700053981267	0,15145715274967786
1	0	0	1	0	0	1	123203,74	-0,200000003	1,59997034	-0,00055479536883450221	-0,1997223859131297	0,000319549901	-0,15312154104774483	0,0057131705705928717	0,15312154104774483
1	0	0	1	0	0	1	123233,74	-0,200000003	1,58414328	-0,00055480011120852499	-0,19972409242693482	0,000316391583	-0,1547859379842161	0,0057752714580980966	0,1547859379842161
1	0	0	1	0	0	1	123263,74	-0,200000003	1,57959127	-0,00055479525608155456	-0,19972234535978051	0,000315479672	-0,15645033307122144	0,0058373722765972608	0,15645033307122144
1	0	0	1	0	0	1	123293,74	-0,200000003	1,56961131	-0,00055479662043021792	-0,19972283577390752	0,000313487224	-0,15811473209941178	0,0058994732421473344	0,15811473209941178
1	0	0	1	0	0	1	123323,74	-0,200000003	1,55454612	-0,00055480193352782067	-0,19972474919525782	0,000310481322	-0,15977913317452659	0,0059615742840709146	0,15977913317452659
1	0	0	1	0	0	1	123353,75	-0,200000003	1,53955698	-0,00055480414010336	-0,19972554287713552	0,000307488866	-0,16144354630208221	0,0060236757756872653	0,16144354630208221
1	0	0	1	0	0	1	123383,75	-0,200000003	1,52521551	-0,00055479302149183226	-0,19972154055834944	0,000304618385	-0,16310794525699194	0,0060857767385031411	0,16310794525699194
1	0	0	1	0	0	1	123413,75	-0,200000003	1,51656866	-0,0005547890857723024	-0,1997201239551704	0,000302889268	-0,1647723171061687	0,0061478766899676787	0,1647723171061687
1	0	0	1	0	0	1	123443,75	-0,200000003	1,50752187	-0,00055478186810264986	-0,1997175250409512	0,000301078544	-0,1664366743289319	0,0062099760957010586	0,1664366743289319
1	1	0	0	0	0	2	123460,67	0,200000003	2,27312613	0,00055612707747105088	0,20020179100506134	0,000455083908	-0,16626436174143728	0,006203546881384896	0,00055613732045143834
1	1	0	0	0	0	2	123490,67	0,200000003	2,28249669	0,00055612687617871494	0,20020171867642794	0,000456959766	-0,16459598851738662	0,0061412976332439104	0,0022245105445020726
1	1	0	0	0	0	2	123520,67	0,200000003	2,29502892	0,00055612688661946189	0,20020172283588723	0,000459468749	-0,16292759873984218	0,0060790477674698138	0,003892900322046544
1	1	0	0	0	0	2	123550,67	0,200000003	2,30784655	0,00055613705913556941	0,20020538417012214	0,000462043303	-0,16125919760639014	0,0060167974779915366	0,005561301455498569
1	1	0	0	0	0	2	123580,67	0,200000003	2,318398	0,00055612847351200058	0,20020229415252413	0,000464148587	-0,15959081658870272	0,0059545479390594829	0,0072296824731859904
1	1	0	0	0	0	2	123610,67	0,200000003	2,32342625	0,0005561270533402761	0,20020178215501146	0,000465154066	-0,15792242687696013	0,0058922980757405427	0,0088980721849285901
1	1	0	0	0	0	2	123640,67	0,200000003	2,32976842	0,00055613118952761101	0,20020327189649146	0,000466427271	-0,15625403027695626	0,0058300479554113126	0,010566468784932459
1	1	0	0	0	0	2	123670,67	0,200000003	2,3359201	0,00055612850314213171	0,20020230413629024	0,000467656588	-0,15458563797928848	0,0057677979956080256	0,012234861082600222
1	1	0	0	0	0	2	123700,67	0,200000003	2,30314231	0,00055613852270195885	0,20020591144215098	0,000461102696	-0,15291722755702051	0,0057055473595515373	0,013903271504868234
1	1	0	0	0	0	2	123730,67	0,200000003	2,29716206	0,00055613565520114368	0,20020487935832432	0,000459903065	-0,15124881292491696	0,0056432965664204237	0,015571686136971744
1	1	0	0	0	0	2	123760,67	0,200000003	2,28723907	0,00055613429795785088	0,20020439016345962	0,000457915303	-0,14958039690099782	0,0055810457213587987	0,017240102160890899
1	1	0	0	0	0	2	123790,67	0,200000003	2,29266715	0,00055614168074147571	0,20020704865884794	0,000459008123	-0,14791197206768026	0,0055187945476066739	0,018908526994208499
1	1	0	0	0	0	2	123820,67	0,200000003	2,28887701	0,00055613322074628531	0,20020400237496077	0,000458242343	-0,14624356613586557	0,0054565440790950349	0,020576932926023178
1	1	0	0	0	0	2	123850,67	0,200000003	2,28308702	0,00055614005415058797	0,20020646310003066	0,000457088783	-0,14457516188288112	0,0053942936732228096	0,022245337179007635
1	1	0	0	0	0	2	123880,68	0,200000003	2,34304333	0,00055613332370999782	0,2002040394434953	0,00046908675	-0,14290675801638064	0,0053320432817708211	0,023913741045508125
1	1	0	0	0	0	2	123910,68	0,200000003	2,29104829	0,00055612929305682573	0,20020258894044656	0,000458673807	-0,14123837089851299	0,0052697935152328416	0,025582128163375792
1	1	0	0	0	0	2	123940,68	0,200000003	2,30169487	0,00055613074542830387	0,20020311177452339	0,000460806477	-0,13956997557552706	0,0052075434425508678	0,027250523486361738
1	1	0	0	0	0	2	123970,68	0,200000003	2,29125786	0,00055613243771178854	0,20020372049044416	0,000458718336	-0,13790158479110534	0,0051452935392088262	0,028918914270783462
1	1	0	0	0	0	2	124000,68	0,200000003	2,30192351	0,00055613358256883098	0,2002041333812984	0,000460854615	-0,13623318261125733	0,0050830432106881088	0,030587316450631456
1	1	0	0	0	0	2	124030,68	0,200000003	2,30074263	0,00055613819869938829	0,20020579440265786	0,000460622017	-0,13456477109028861	0,0050207925336376179	0,032255727971600166
1	1	0	0	0	0	2	124060,68	0,200000003	2,29870462	0,00055614915741400589	0,20020974020776954	0,000460223062	-0,13289633220963643	0,004958540835760553	0,033924166852252358
1	1	0	0	0	0	2	124090,68	0,200000003	2,29925704	0,00055613961759457984	0,20020630519483088	0,000460325769	-0,13122790573533098	0,0048962896007809632	0,03559259332655785
1	1	0	0	0	0	2	124120,68	0,200000003	2,3012569	0,00055614408345354925	0,20020791347855197	0,000460729847	-0,12955947166130907	0,0048340380822457357	0,037261027400579725
1	1	0	0	0	0	2	124150,68	0,200000003	2,30944657	0,00055614067053877651	0,20020668463938422	0,000462366646	-0,12789105542156562	0,0047717872291314157	0,038929443640323149
1	1	0	0	0	0	2	124180,68	0,200000003	2,29914284	0,00055614462900741229	0,20020810934237437	0,000460307027	-0,12622263359803424	0,0047095361676784602	0,040597865463854534
1	1	0	0	0	0	2	124210,68	0,200000003	2,30407548	0,00055614106776399744	0,20020682799131654	0,000461291638	-0,12455421147928517	0,0046472850952105357	0,042266287582603597
1	1	0	0	0	0	2	124240,68	0,200000003	2,30430412	0,00055613695145232813	0,20020534540492147	0,000461334013	-0,12288580064984789	0,0045850344439620141	0,043934698412040877
1	1	0	0	0	0	2	124270,68	0,200000003	2,30649447	0,0005561422913190391	0,20020726846475779	0,000461776945	-0,12121738530361699	0,0045227836241858477	0,04560311375827177
1	1	0	0	0	0	2	124300,68	0,200000003	2,3046279	0,00055613871954960954	0,20020598190736214	0,000461400283	-0,11954896789275901	0,0044605327273756704	0,047271531169129754
1	1	0	0	0	0	2	124330,68	0,200000003	2,31396031	0,00055613144778708614	0,20020336483310582	0,000463262637	-0,11788056270440299	0,0043982822866034746	0,04893993635748576
1	1	0	0	0	0	2	124360,68	0,200000003	2,30868459	0,00055612958745078899	0,20020269470576186	0,000462204887	-0,11621217003337838	0,0043360323128697421	0,050608329028510394
1	1	0	0	0	0	2	124390,69	0,200000003	2,30344701	0,00055614085870401728	0,20020675216485878	0,000461165648	-0,11454375220973258	0,0042737814006578957	0,052276746852156198
1	1	0	0	0	0	2	124420,69	0,200000003	2,30278039	0,00055613294301016474	0,20020390313773648	0,000461025629	-0,11287534984448928	0,0042115310652198317	0,053945149217399469
1	1	0	0	0	0	2	124450,69	0,200000003	2,30569458	0,00055613629472504051	0,20020510898544016	0,000461611839	-0,11120694903336677	0,0041492807877681018	0,055613550028522003
1	1	0	0	0	0	2	124480,69	0,200000003	2,30620861	0,00055613824719521741	0,20020581260662128	0,00046171638	-0,10953853750092995	0,0040870301102897222	0,057281961560958816
1	1	0	0	0	0	2	124510,69	0,200000003	2,35578489	0,00055612449986322067	0,20020086291940112	0,000471630163	-0,10787014777199058	0,0040247802463291456	0,058950351289898176
1	1	0	0	0	0	2	124540,69	0,200000003	2,35534692	0,00055613290615379814	0,20020388987028934	0,000471549603	-0,10620175095195782	0,0039625301177903411	0,060618748109930944
1	1	0	0	0	0	2	124570,69	0,200000003	2,32325482	0,00055613541761951309	0,2002047934213081	0,000465126766	-0,10453334100699554	0,0039002794995427699	0,062287158054893248
1	1	0	0	0	0	2	124600,69	0,200000003	2,31376982	0,00055612636943575411	0,20020153622226954	0,000463220262	-0,10286495558882384	0,0038380297964227322	0,063955543473064922
1	1	0	0	0	0	2	124630,69	0,200000003	2,31961703	0,00055613170967830547	0,20020345912140419	0,000464395358	-0,10119656553878349	0,003775779920481447	0,06562393352310528
1	1	0	0	0	0	2	124660,69	0,200000003	2,31234145	0,00055613246151804922	0,20020372906052861	0,000462939381	-0,099528176456542106	0,0037135300806500429	0,067292322605346662
1	1	0	0	0	0	2	124690,69	0,200000003	2,31716013	0,00055613563206212378	0,20020487117964243	0,000463906734	-0,09785977010904297	0,0036512795966286586	0,068960728952845786
1	1	0	0	0	0	2	124720,69	0,200000003	2,31100821	0,00055613322807186176	0,20020400501444682	0,00046267311	-0,096191364224908685	0,0035890291298960397	0,07062913483698007
1	1	0	0	0	0	2	124750,69	0,200000003	2,31397939	0,00055613471962180397	0,2002045427076184	0,000463269185	-0,094522959117018957	0,0035267786921261485	0,072297539944869798
1	1	0	0	0	0	2	124780,69	0,200000003	2,3198266	0,00055613127707110515	0,2002033027519591	0,000464436947	-0,092854550972534989	0,0034645281410568442	0,073965948089353766
1	1	0	0	0	0	2	124810,69	0,200000003	2,3106463	0,00055613152464644768	0,20020339217331066	0,000462599215	-0,091186154093563994	0,0034022780103189754	0,075634344968324762
1	1	0	0	0	0	2	124840,69	0,200000003	2,31055117	0,00055613445393741133	0,20020444693028061	0,000462582626	-0,089517752783191296	0,0033400277142395507	0,077302746278697459
1	1	0	0	0	0	2	124870,69	0,200000003	2,32178831	0,00055613854494856467	0,20020591904989766	0,000464835757	-0,087849330500480614	0,0032777766356539981	0,078971168561408141
1	1	0	0	0	0	2	124900,70	0,200000003	2,31117964	0,00055613752680685786	0,2002055532722281	0,000462711003	-0,086180926602128896	0,0032155262430135962	0,080639572459759859
1	1	0	0	0	0	2	124930,70	0,200000003	2,30449462	0,00055613906861262195	0,20020610756523226	0,000461373886	-0,084512518537401741	0,0031532756949201261	0,082307980524487014
1	1	0	0	0	0	2	124960,70	0,200000003	2,30756092	0,00055613932780921466	0,20020620162113814	0,000461988006	-0,08284410168430167	0,0030910248189206458	0,083976397377587085
1	1	0	0	0	0	2	124990,70	0,200000003	2,30957985	0,00055613359186881114	0,20020413597642938	0,000462387427	-0,081175695129180544	0,0030287743271526054	0,085644803932708211
1	1	0	0	0	0	2	125020,70	0,200000003	2,31224632	0,00055613843288189837	0,20020587919380253	0,000462925294	-0,07950727810321047	0,002966523444703113	0,087313220958678285
1	1	0	0	0	0	2	125050,70	0,200000003	2,30849433	0,00055613693329277971	0,20020533938967901	0,000462172902	-0,077838863699069888	0,0029042726600776038	0,088981635362818867
1	1	0	0	0	0	2	125080,70	0,200000003	2,34188151	0,0005561345915098985	0,20020449584243866	0,0004688552	-0,076170454199498342	0,00284202205844816	0,090650044862390413
1	1	0	0	0	0	2	125110,70	0,200000003	2,34247208	0,00055613076369961107	0,20020311860377146	0,000468970218	-0,074502048090722445	0,0027797715833338602	0,09231845097116631
1	1	0	0	0	0	2	125140,70	0,200000003	2,33323479	0,0005561280218569769	0,20020213081413238	0,000467118574	-0,072833662792789069	0,0027175218847000755	0,093986836269099686
1	1	0	0	0	0	2	125170,70	0,200000003	2,33915806	0,0005561328283515241	0,20020386186377216	0,000468308484	-0,071165258769691443	0,0026552714874052368	0,095655240292197312
1	1	0	0	0	0	2	125200,70	0,200000003	2,33820581	0,00055614207492685978	0,20020718981929747	0,000468125625	-0,069496839973893056	0,0025930205389210701	0,097323659087995699
1	1	0	0	0	0	2	125230,70	0,200000003	2,35367084	0,00055613433358487155	0,20020440357625482	0,000471215259	-0,067828423462341696	0,0025307696756652317	0,098992075599547059
1	1	0	0	0	0	2	125260,70	0,200000003	2,34521461	0,00055613653890457421	0,20020519729852912	0,000469524151	-0,066160020172850598	0,0024685193057422387	0,10066047888903816
1	1	0	0	0	0	2	125290,70	0,200000003	2,32154059	0,0005561418408577641	0,20020710560969395	0,000464788929	-0,064491599268582592	0,0024062682785882358	0,10232889979330616
1	1	0	0	0	0	2	125320,70	0,200000003	2,32314038	0,0005561361824224393	0,20020506930311005	0,000465104473	-0,062823183712213875	0,0023440174509715459	0,10399731534967488
1	1	0	0	0	0	2	125350,70	0,200000003	2,34014845	0,00055614160457915738	0,20020702049514064	0,000468514161	-0,061154764119687654	0,0022817664727603926	0,1056657349422011
1	1	0	0	0	0	2	125380,70	0,200000003	2,34433842	0,00055613935582505331	0,20020621170547542	0,0004693511	-0,059486355589245389	0,002219515907290465	0,10733414347264336
1	1	0	0	0	0	2	125410,71	0,200000003	2,31895041	0,00055613971712274682	0,20020634102426278	0,000464268582	-0,057817935792259507	0,002157264921450647	0,10900256326962923
1	1	0	0	0	0	2	125440,71	0,200000003	2,32525444	0,00055613670233223181	0,20020525640400915	0,000465528166	-0,056149525112925773	0,0020950142758026893	0,11067097394896298
1	1	0	0	0	0	2	125470,71	0,200000003	2,29438138	0,00055613666724744768	0,20020524340083251	0,000459347182	-0,054481119644314522	0,0020327638245737936	0,11233937941757424
1	1	0	0	0	0	2	125500,71	0,200000003	2,31830287	0,00055613090614395008	0,20020316928608	0,00046413159	-0,05281270972089847	0,0019705132071301414	0,11400778934099027
1	1	0	0	0	0	2	125530,71	0,200000003	2,3069706	0,00055613628090090221	0,20020510475698678	0,000461867283	-0,051144298128789133	0,0019082625274252986	0,1156762009330996
1	1	0	0	0	0	2	125560,71	0,200000003	2,27097392	0,00055612483652349971	0,20020098411674544	0,000454651221	-0,049475908043184672	0,0018460126501570688	0,11734459101870405
1	1	0	0	0	0	2	125590,71	0,200000003	2,30786562	0,00055613016348249389	0,2002029025298792	0,000462041382	-0,047807516196724902	0,00178376270718896	0,11901298286516382
1	1	0	0	0	0	2	125620,71	0,200000003	2,29579067	0,00055613490478446093	0,20020460861672144	0,00045962786	-0,046139118591106227	0,001721512549338889	0,1206813804707825
1	1	0	0	0	0	2	125650,71	0,200000003	2,30205679	0,00055613207348932819	0,20020359011642115	0,000460880023	-0,044470718937890854	0,0016592623150902323	0,12234978012399787
1	1	0	0	0	0	2	125680,71	0,200000003	2,30108547	0,00055613276741902035	0,20020383938779734	0,000460686133	-0,04280232631400025	0,0015970123431151341	0,12401817274788848
1	1	0	0	0	0	2	125710,71	0,200000003	2,31588411	0,00055613369643274285	0,20020417388002352	0,00046364966	-0,041133931598239104	0,0015347622930895328	0,12568656746364962
1	1	0	0	0	0	2	125740,71	0,200000003	2,30089498	0,00055613330508685779	0,20020403348277018	0,000460648444	-0,039465526068326131	0,0014725118395733869	0,12735497299356258
1	1	0	0	0	0	2	125770,71	0,200000003	2,30399942	0,00055613855130556563	0,20020592133837277	0,000461274321	-0,037797124509246438	0,0014102615342143702	0,12902337455264226
1	1	0	0	0	0	2	125800,71	0,200000003	2,29451466	0,00055613458184483981	0,20020449310889142	0,000459372153	-0,036128708228612563	0,0013480106795743734	0,13069179083327611
1	1	0	0	0	0	2	125830,71	0,200000003	2,34273863	0,00055613690318829478	0,2002053280302129	0,000469028746	-0,034460300285313312	0,0012857601360115413	0,13236019877657538
1	1	0	0	0	0	2	125860,71	0,200000003	2,33780575	0,00055614291859666515	0,20020749428024067	0,00046804623	-0,032791886988815776	0,0012235093927136835	0,1340286120730729
1	1	0	0	0	0	2	125890,71	0,200000003	2,33763433	0,00055613381292836538	0,20020421566117472	0,000468004233	-0,031123479035800147	0,00116125884878832	0,13569702002608854
1	1	0	0	0	0	2	125920,72	0,200000003	2,3376534	0,0005561441082656384	0,20020792217037603	0,000468016719	-0,029455047631885062	0,0010990074298783677	0,13736545143000365
1	1	0	0	0	0	2	125950,72	0,200000003	2,33546305	0,00055613818927192026	0,20020579165442816	0,000467573234	-0,027786619611849837	0,0010367561372255224	0,13903387945003883
1	1	0	0	0	0	2	125980,72	0,200000003	2,34614778	0,00055613719758639738	0,2002054340114351	0,000469711522	-0,026118198849655309	0,00097450511537247219	0,14070230021223338
1	1	0	0	0	0	2	126010,72	0,200000003	2,34370995	0,00055614120978944832	0,20020687911946845	0,000469226856	-0,024449777958200659	0,00091225408869655296	0,14237072110368802
1	1	0	0	0	0	2	126040,72	0,200000003	2,31331277	0,00055614203816735085	0,20020717658380515	0,000463141827	-0,022781353990904608	0,00085000294725685555	0,14403914507098403
1	1	0	0	0	0	2	126070,72	0,200000003	2,30458975	0,00055613855734301933	0,20020592425762362	0,000461392512	-0,021112944163485155	0,00078775233339496512	0,14570755489840349
1	1	0	0	0	0	2	126100,72	0,200000003	2,30718017	0,00055613537091513466	0,20020477642073862	0,000461908494	-0,01944452671106287	0,00072550143503396736	0,14737597235082579
1	1	0	0	0	0	2	126130,72	0,200000003	2,29695249	0,00055613951285928486	0,20020626794767958	0,000459864299	-0,017776109429776288	0,00066325054305827264	0,14904438963211235
1	1	0	0	0	0	2	126160,72	0,200000003	2,3034091	0,00055613763227976032	0,20020559102701114	0,000461155374	-0,016107696663211238	0,00060099981953290816	0,15071280239867741
1	1	0	0	0	0	2	126190,72	0,200000003	2,30097103	0,00055614430717875571	0,20020799341176605	0,000460672803	-0,014439272518801638	0,00053874867148486624	0,15238122654308701
1	1	0	0	0	0	2	126220,72	0,200000003	2,30485654	0,00055613979325195162	0,2002063691783776	0,000461446965	-0,012770857854246712	0,00047649787714294771	0,15404964120764192
1	1	0	0	0	0	2	126250,72	0,200000003	2,31335092	0,00055612743144151238	0,20020191826876618	0,000463137287	-0,011102458500298806	0,00041424765406036256	0,15571804056158982
1	1	0	0	0	0	2	126280,72	0,200000003	2,30298996	0,00055613547556102278	0,20020481484502064	0,000461069692	-0,0094340514898817907	0,00035199714530462074	0,15738644757200685
1	1	0	0	0	0	2	126310,72	0,200000003	2,3125701	0,00055613267346388774	0,20020380535952237	0,000462985336	-0,0077656497174257523	0,00028974683198424538	0,15905484934446288
1	1	0	0	0	0	2	126340,72	0,200000003	2,30879903	0,00055614825930198042	0,20020941670970442	0,000462243304	-0,0060972317348698266	0,00022749591384324858	0,16072326732701882
1	1	0	0	0	0	2	126370,72	0,200000003	2,31114149	0,0005561351477636231	0,20020469651865997	0,00046270137	-0,0044288149945682432	0,00016524504205243155	0,16239168406732038
1	1	0	0	0	0	2	126400,72	0,200000003	2,30996084	0,00055613656250139078	0,2002052054109887	0,000462466181	-0,0027603978569238864	0,00010299415543622136	0,16406010120496474
1	1	0	0	0	0	2	126430,73	0,200000003	2,29963779	0,00055614174439509702	0,20020707157369878	0,000460403739	-0,0010919768310433776	4,0743123744692563E-005	0,16572852223084522
1	1	0	0	0	0	2	126460,73	0,200000003	2,3147223	0,00055612729599326854	0,20020186950603152	0,000463411736	0,00057642720493629722	-2,1507274030792954E-005	0,1673969262668249
1	1	0	0	0	0	2	126490,73	0,200000003	2,32203579	0,00055613073361913357	0,20020310777297427	0,000464878773	0,0022448149775187686	-8,3757064997062438E-005	0,16906531403940736
1	1	0	0	0	0	2	126520,73	0,200000003	2,31281757	0,00055612803582102067	0,20020213583875814	0,000463031029	0,0039131991789526918	-0,00014600672271897814	0,17073369824084131
1	1	0	0	0	0	2	126550,73	0,200000003	2,3101511	0,00055613693294922509	0,20020533941283283	0,000462504599	0,0055815943008408467	-0,0002082567878977239	0,17240209336272947
1	1	0	0	0	0	2	126580,73	0,200000003	2,30108547	0,00055612051901800762	0,20019943017876211	0,000460676005	0,0072499624429183386	-0,00027050584642345914	0,17407046150480698
1	1	0	0	0	0	2	126610,73	0,200000003	2,31569362	0,00055612646802928717	0,20020157157773414	0,000463605509	0,0089183389113234662	-0,00033275521561567328	0,17573883797321213
1	1	0	0	0	0	2	126640,73	0,200000003	2,31512213	0,00055612228321035699	0,2002000656879704	0,00046348761	0,010586712165832901	-0,00039500446489311808	0,17740721122772157
1	1	0	0	0	0	2	126670,73	0,200000003	2,31955981	0,00055612896903769843	0,20020247179245261	0,000464381621	0,012255098724296077	-0,00045725421055896416	0,17907559778618474
1	1	0	0	0	0	2	126700,73	0,200000003	2,31942654	0,00055613445721235533	0,20020444824208368	0,000464359502	0,0139234984874398	-0,00051950444890919546	0,18074399754932845
1	1	0	0	0	0	2	126730,73	0,200000003	2,31816959	0,00055613042361123699	0,20020299542857664	0,000464104494	0,015591891022624621	-0,00058175441757456205	0,18241239008451328
1	1	0	0	0	0	2	126760,73	0,200000003	2,32121682	0,00055613133553332755	0,20020332445984134	0,000464715326	0,017260283805965104	-0,00064400439549895002	0,18408078286785376
1	1	0	0	0	0	2	126790,73	0,200000003	2,32517838	0,00055613383729010822	0,20020422455009133	0,000465510529	0,018928686020713267	-0,0007062547253218391	0,18574918508260195
1	1	0	0	0	0	2	126820,73	0,200000003	2,32493067	0,00055613687884642029	0,2002053194980457	0,000465463498	0,020597094524415386	-0,00076850528979405594	0,18741759358630406
1	1	0	0	0	0	2	126850,73	0,200000003	2,32178831	0,00055613065811081069	0,20020308059022384	0,00046482918	0,022265497031925837	-0,00083075563054029952	0,1890859960938145
1	1	0	0	0	0	2	126880,73	0,200000003	2,32245493	0,00055613950035472717	0,20020626298960941	0,000464970013	0,023933908931562022	-0,0008930063217193824	0,19075440799345069
1	1	0	0	0	0	2	126910,73	0,200000003	2,32426405	0,0005561273689377639	0,20020189651190896	0,000465322082	0,025602300642662957	-0,00095525625963707098	0,19242279970455165
1	1	0	0	0	0	2	126940,74	0,200000003	2,34464312	0,000556131056047976	0,20020322310013734	0,000469405117	0,027270685923169437	-0,0010175059576206346	0,19409118498505814
1	1	0	0	0	0	2	126970,74	0,200000003	2,32689238	0,00055612415794945414	0,20020074057837786	0,000465845573	0,028939068961745715	-0,001079755571954768	0,19575956802363443
1	1	0	0	0	0	2	127000,74	0,200000003	2,3351202	0,00055612434719585709	0,20020080808346691	0,000467492937	0,030607447577397408	-0,0011420050212636387	0,19742794663928611
1	1	0	0	0	0	2	127030,74	0,200000003	2,34258628	0,0005561311640284128	0,20020326230910186	0,000468993414	0,03227583259986048	-0,0012042547096192558	0,19909633166174918
1	1	0	0	0	0	2	127060,74	0,200000003	2,37107873	0,00055612438955903053	0,20020082386528435	0,000474691915	0,033944211869760896	-0,0012665041833390259	0,20076471093164963
1	1	0	0	0	0	2	127090,74	0,200000003	2,45095706	0,00055613162270519469	0,20020342708920816	0,000490689999	0,035612600268433869	-0,0013287539976655736	0,20243309933032262
1	1	0	0	0	0	2	127120,74	0,200000003	2,34850955	0,00055612176567398842	0,20019987937855952	0,000470171333	0,037280980621933485	-0,0013910035118158869	0,20410147968382224
1	1	0	0	0	0	2	127150,74	0,200000003	2,37275481	0,00055612288425945574	0,20020028131558067	0,000475026172	0,038949349579319731	-0,0014532526007618877	0,20576984864120851
1	1	0	0	0	0	2	127180,74	0,200000003	2,36317468	0,00055613228178024288	0,20020366510199923	0,000473116233	0,040617732919632109	-0,001515502226354201	0,2074382319815209
1	1	0	0	0	0	2	127210,74	0,200000003	2,3379581	0,00055613920175946426	0,200206155525116	0,000468073617	0,042286141076788685	-0,0015777527778963376	0,20910664013867744
1	1	0	0	0	0	2	127240,74	0,200000003	2,38140154	0,00055613887786368525	0,20020603933513616	0,000476770976	0,043954549900793747	-0,001640003354319488	0,2107750489626825
1	1	0	0	0	0	2	127270,74	0,200000003	2,3818779	0,00055613426393518848	0,2002043784751881	0,000476862391	0,045622970089844909	-0,0017022543547877885	0,21244346915173366
1	1	0	0	0	0	2	127300,74	0,200000003	2,37355471	0,00055613462569067872	0,20020450814523706	0,000475196342	0,047291381292956115	-0,0017645050199785878	0,2141118803548449
1	1	0	0	0	0	2	127330,74	0,200000003	2,38083029	0,00055612860144923136	0,20020234020785178	0,000476647809	0,048959767492484262	-0,0018267547522520854	0,21578026655437302
1	1	0	0	0	0	2	127360,74	0,200000003	2,38856292	0,00055613296186510054	0,20020390917957632	0,000478199625	0,050628167851882227	-0,0018890050128493642	0,21744866691377098
1	1	0	0	0	0	2	127390,74	0,200000003	2,37260246	0,00055613657610201171	0,20020521102728611	0,000475007371	0,052296576939118778	-0,0019512555990940352	0,21911707600100752
1	1	0	0	0	0	2	127420,74	0,200000003	2,36519361	0,00055613694892409779	0,20020534449477654	0,000473524415	0,053964984992740435	-0,002013506146773145	0,22078548405462915
1	1	0	0	0	0	2	127450,75	0,200000003	2,36709833	0,00055613115959200602	0,20020326092644461	0,000473900815	0,055633385531411782	-0,0020757564140593549	0,22245388459330048
1	1	0	0	0	0	2	127480,75	0,200000003	2,37443089	0,00055612758801546362	0,2002019750910744	0,000475365756	0,057301777750529728	-0,002138006370931841	0,22412227681241843
1	1	0	0	0	0	2	127510,75	0,200000003	2,37959218	0,00055613526126990714	0,20020473696059875	0,000476405636	0,058970184184547482	-0,0022002568581813514	0,22579068324643616
1	1	0	0	0	0	2	127540,75	0,200000003	2,37764955	0,00055612953296138189	0,20020267554676445	0,000476011803	0,06063858124767529	-0,0022625069957903587	0,227459080309564
1	1	0	0	0	0	2	127570,75	0,200000003	2,38844872	0,00055612789386345286	0,20020208473737443	0,000478172413	0,062306962260360064	-0,0023247565345357562	0,22912746132224877
1	1	0	0	0	0	2	127600,75	0,200000003	2,37157393	0,00055613078022499878	0,20020312455046285	0,000474796514	0,063975346517156749	-0,0023870061943233309	0,23079584557904547
1	1	0	0	0	0	2	127630,75	0,200000003	2,37115502	0,00055613415742499962	0,20020433957263309	0,000474715518	0,065643751332672461	-0,0024492566211843542	0,23246425039456122
1	1	0	0	0	0	2	127660,75	0,200000003	2,36993599	0,00055614057587749421	0,20020665081312534	0,000474476954	0,067312167082887078	-0,0025115074560336954	0,23413266614477581
1	1	0	0	0	0	2	127690,75	0,200000003	2,38283014	0,00055613388014667571	0,2002042401086664	0,000477052701	0,068980575505931686	-0,002573758017496472	0,23580107456782042
1	1	0	0	0	0	2	127720,75	0,200000003	2,3687551	0,00055613321834968198	0,2002040016240711	0,000474234257	0,07064896995544055	-0,0026360080575878426	0,23746946901732928
1	1	0	0	0	0	2	127750,75	0,200000003	2,40444708	0,0005561262856746713	0,20020150654431933	0,000481373922	0,072317347916872499	-0,0026982574824868944	0,23913784697876118
1	1	0	0	0	0	2	127780,75	0,200000003	2,41193199	0,00055612965174681606	0,20020271756054659	0,00048287533	0,073985734306068416	-0,002760507221837152	0,24080623336795712
1	1	0	0	0	0	2	127810,75	0,200000003	2,46657467	0,00055613054469972851	0,20020303976537171	0,000493815751	0,075654130576296346	-0,0028227573298619987	0,24247462963818506
1	1	0	0	0	0	2	127840,75	0,200000003	2,41579843	0,00055613296923372486	0,20020391183455923	0,000483652286	0,077322526429117914	-0,0028850074223128531	0,24414302549100662
1	1	0	0	0	0	2	127870,75	0,200000003	2,44177699	0,0005561407080748016	0,20020669850809549	0,000488860125	0,078990932271177101	-0,002947257887475593	0,24581143133306586
1	1	0	0	0	0	2	127900,75	0,200000003	2,39896178	0,00055613487309879725	0,20020459745482544	0,000480283168	0,080659332178680794	-0,003009508131212089	0,24747983124056954
1	1	0	0	0	0	2	127930,76	0,200000003	2,40037131	0,00055613183114512102	0,20020350234517766	0,00048056274	0,082327726607382682	-0,0030717581705271232	0,24914822566927142
1	1	0	0	0	0	2	127960,76	0,200000003	2,38136363	0,00055612996320592032	0,20020283043173754	0,000476755726	0,083996113379040909	-0,0031340079241475635	0,25081661244092963
1	1	0	0	0	0	2	127990,76	0,200000003	2,53298736	0,00055612742092377613	0,20020191448012534	0,000507108925	0,085664500307004019	-0,0031962576835999494	0,25248499936889274
1	1	0	0	0	0	2	128020,76	0,200000003	2,82774067	0,00055612865016029933	0,20020235774232438	0,000566120376	0,087332887914893901	-0,0032585074684213165	0,25415338697678262
1	1	0	0	0	0	2	128050,76	0,200000003	3,03088331	0,00055613597509099386	0,20020499391945763	0,000606797985	0,089001283514926362	-0,0033207575514402694	0,25582178257681514
1	1	0	0	0	0	2	128080,76	0,200000003	3,1364162	0,00055613301744063693	0,20020392993246832	0,000627922826	0,090669685439055526	-0,0033830078704197728	0,25749018450094429
1	1	0	0	0	0	2	128110,76	0,200000003	3,2844975	0,0005561302841968007	0,2002029453872008	0,000657566066	0,092338085201591629	-0,0034452581087473331	0,25915858426348042
1	1	0	0	0	0	2	128140,76	0,200000003	3,40370536	0,00055613234493219181	0,2002036874050848	0,000681434351	0,094006482898576768	-0,0035075082700064096	0,26082698196046557
1	1	0	0	0	0	2	128164,10	0,200000003	3,50019169	0,00018573444361819162	0,20020484933247555	0,000700755336	0,095304476962016243	-0,0035559381736849152	0,26212497602390499