File: Experimentelles/Rohdaten/Batteriemessungen/AlteZelle/Studenten_Batterietests/S vs Li GCPL 200µm/ZView-Export/S vs Li GCPL 200µm_02_GCPL_C05_loop4.txt
EC-Lab ASCII FILE
Nb header lines : 3
mode	ox/red	error	control changes	Ns changes	counter inc.	Ns	time/s	control/V/mA	Ewe/V	dq/mA.h	<I>/mA	P/W	(Q-Qo)/mA.h	x	Capacity/mA.h
1	0	0	1	1	0	1	128164,15	-0,200000003	3,35372949	0	0	0	0	0	0
1	0	0	1	0	0	1	128184,15	-0,200000003	2,01633143	-0,00055479272582547539	-0,19972143448791734	0,000402704609	-0,0011068460096110195	4,1297912788874496E-005	0,0011068460096110195
1	0	0	1	0	0	1	128204,15	-0,200000003	1,94738543	-0,00055479032872782816	-0,19972057080581494	0,000388932938	-0,0022164338606933046	8,2698127369486976E-005	0,0022164338606933046
1	0	0	1	0	0	1	128224,15	-0,200000003	1,94325256	-0,00055479253046959642	-0,1997213641332905	0,000388109067	-0,0033260219056570816	0,00012409834918407858	0,0033260219056570816
1	0	0	1	0	0	1	128244,15	-0,200000003	1,93673885	-0,00055479870191133677	-0,19972358557590864	0,000386812433	-0,0044356198701624358	0,00016549894111010342	0,0044356198701624358
1	0	0	1	0	0	1	128264,15	-0,200000003	1,93180597	-0,00055479801018039386	-0,19972333607408227	0,000385826745	-0,0055452106104416282	0,00020689926349053706	0,0055452106104416282
1	0	0	1	0	0	1	128284,15	-0,200000003	1,92154026	-0,00055479830780708128	-0,19972344395693504	0,000383776642	-0,0066548084598371686	0,00024829985112165997	0,0066548084598371686
1	0	0	1	0	0	1	128304,15	-0,200000003	1,91394103	-0,00055479659757349229	-0,1997228275456489	0,000382257713	-0,0077644027795607142	0,0002897003070559751	0,0077644027795607142
1	0	0	1	0	0	1	128324,15	-0,200000003	1,90531325	-0,00055480079087283872	-0,19972433740118333	0,000380537414	-0,0088740024437719885	0,00033110096240031309	0,0088740024437719885
1	0	0	1	0	0	1	128344,15	-0,200000003	1,89788532	-0,00055480008425894707	-0,19972408347161907	0,00037905341	-0,0099836042016402842	0,00037250169586180941	0,0099836042016402842
1	0	0	1	0	0	1	128364,15	-0,200000003	1,89165735	-0,00055479540414197581	-0,19972239791879469	0,00037780634	-0,01109319547336525	0,00041390203807119942	0,01109319547336525
1	0	0	1	0	0	1	128384,15	-0,200000003	1,88697207	-0,00055479924455450643	-0,19972378118166906	0,000376873184	-0,012202791399832994	0,00045530255395530086	0,012202791399832994
1	0	0	1	0	0	1	128404,15	-0,200000003	1,8803823	-0,0005547933836927017	-0,19972167094111046	0,000375553092	-0,013312380765941174	0,0004967028250635664	0,013312380765941174
1	0	0	1	0	0	1	128424,16	-0,200000003	1,87272584	-0,00055479517451011475	-0,1997223152506336	0,000374025141	-0,014421971036575501	0,00053810312992091872	0,014421971036575501
1	0	0	1	0	0	1	128444,16	-0,200000003	1,86739302	-0,00055479328648994368	-0,19972163632081232	0,000372958777	-0,015531550915923978	0,00057950304706542464	0,015531550915923978
1	0	0	1	0	0	1	128464,16	-0,200000003	1,85623217	-0,00055479996102220474	-0,19972403836092819	0,000370734197	-0,016641145361067286	0,00062090350767931981	0,016641145361067286
1	0	0	1	0	0	1	128484,16	-0,200000003	1,84888041	-0,00055479607672906592	-0,19972264044323242	0,000369263289	-0,017750738446284269	0,00066230391755253517	0,017750738446284269
1	0	0	1	0	0	1	128504,16	-0,200000003	1,84320474	-0,00055479054503556755	-0,19972064941673971	0,000368126057	-0,01886032379296399	0,00070370403869052083	0,01886032379296399
1	0	0	1	0	0	1	128524,16	-0,200000003	1,83488178	-0,00055479148188564512	-0,19972098593209891	0,000366464403	-0,019969907479204838	0,00074510409787529958	0,019969907479204838
1	0	0	1	0	0	1	128544,16	-0,200000003	1,83034885	-0,0005547877644995849	-0,19971964844356675	0,000365556625	-0,021079486981965376	0,0007865040009688032	0,021079486981965376
1	0	0	1	0	0	1	128564,16	-0,200000003	1,82198775	-0,00055478876753234202	-0,19972000905392355	0,000363887404	-0,022189059379882886	0,00082790363897106086	0,022189059379882886
1	0	0	1	0	0	1	128584,16	-0,200000003	1,81393135	-0,00055478869553489818	-0,19971998286565594	0,000362278341	-0,023298642800170288	0,00086930368823275904	0,023298642800170288
1	0	0	1	0	0	1	128604,16	-0,200000003	1,8075701	-0,0005547833261382249	-0,1997180506673768	0,000361004379	-0,024408202880952694	0,00091070286666614541	0,024408202880952694
1	0	0	1	0	0	1	128624,16	-0,200000003	1,79705656	-0,00055477756990989056	-0,19971597772214109	0,000358900899	-0,025517762931209242	0,00095210204396057101	0,025517762931209242
1	0	0	1	0	0	1	128644,16	-0,200000003	1,78854311	-0,00055477728190935315	-0,1997158745647863	0,00035720045	-0,02662731932573577	0,00099350108485479437	0,02662731932573577
1	0	0	1	0	0	1	128664,16	-0,200000003	1,77976298	-0,00055478416325234701	-0,19971835197600586	0,000355451339	-0,027736890503434442	0,0010349006773290467	0,027736890503434442
1	0	0	1	0	0	1	128684,16	-0,200000003	1,77509677	-0,00055478032749560141	-0,19971697043337578	0,00035451696	-0,028846453121263718	0,0010762999504230629	0,028846453121263718
1	0	0	1	0	0	1	128704,16	-0,200000003	1,76286936	-0,00055478769109480915	-0,19971962202069472	0,000352079602	-0,02995603024624679	0,0011176997647984923	0,02995603024624679
1	0	0	1	0	0	1	128724,16	-0,200000003	1,75519383	-0,00055477661368581984	-0,1997156336463761	0,00035053966	-0,031065591904433005	0,0011590990020869358	0,031065591904433005
1	0	0	1	0	0	1	128744,16	-0,200000003	1,75205123	-0,00055477655437091994	-0,19971561222833558	0,000349911978	-0,032175150930670163	0,0012004981411738211	0,032175150930670163
1	0	0	1	0	0	1	128764,16	-0,200000003	1,7441473	-0,00055477921279354227	-0,19971656989255347	0,000348335103	-0,033284707802724275	0,0012418971998852406	0,033284707802724275
1	0	0	1	0	0	1	128784,16	-0,200000003	1,73837638	-0,00055478897550702093	-0,199720083653628	0,000347188674	-0,034394279570693542	0,0012832968143832824	0,034394279570693542
1	0	0	1	0	0	1	128804,16	-0,200000003	1,73033905	-0,00055479297072854304	-0,19972152252805347	0,000345585955	-0,035503856960732672	0,0013246966386483101	0,035503856960732672
1	0	0	1	0	0	1	128824,16	-0,200000003	1,72420633	-0,00055479142107648986	-0,19972096462713875	0,00034436016	-0,03661343794357671	0,0013660965969657187	0,03661343794357671
1	0	0	1	0	0	1	128844,16	-0,200000003	1,71262646	-0,0005547893036388688	-0,19972020177875846	0,000342046114	-0,037723011876947955	0,0014074962922578197	0,037723011876947955
1	0	0	1	0	0	1	128864,16	-0,200000003	1,69689453	-0,00055479327012019027	-0,19972163042810816	0,000338906539	-0,03883259945084711	0,0014488964964963571	0,03883259945084711
1	0	0	1	0	0	1	128884,16	-0,200000003	1,68893337	-0,00055479602554440499	-0,19972262167301402	0,000337318197	-0,039942191024972928	0,0014902968499887293	0,039942191024972928
1	0	0	1	0	0	1	128904,16	-0,200000003	1,67960095	-0,00055478348675618566	-0,19971810794697997	0,000335446734	-0,041051765835247699	0,00153169657799928	0,041051765835247699
1	0	0	1	0	0	1	128924,17	-0,200000003	1,66931617	-0,00055478511194967558	-0,19971869354446973	0,000333393633	-0,042161337624235053	0,001573096193281535	0,042161337624235053
1	0	0	1	0	0	1	128944,17	-0,200000003	1,6574887	-0,00055478411796109542	-0,19971833497165805	0,000331030897	-0,043270902841563616	0,0016144955633663648	0,043270902841563616
1	0	0	1	0	0	1	128964,17	-0,200000003	1,64794683	-0,00055479194924483693	-0,19972115491278704	0,000329129834	-0,044380488864123584	0,0016558957097223507	0,044380488864123584
1	0	0	1	0	0	1	128984,17	-0,200000003	1,63625264	-0,00055479120177113344	-0,19972088555787005	0,000326793815	-0,045490067244594054	0,0016972955709417034	0,045490067244594054
1	0	0	1	0	0	1	129004,17	-0,200000003	1,62295866	-0,00055479273500376282	-0,19972143704802992	0,000324139633	-0,046599652816042893	0,0017386957004661267	0,046599652816042893
1	0	0	1	0	0	1	129024,17	-0,200000003	1,60591269	-0,00055479147197554515	-0,1997209831108624	0,000320734456	-0,047709231175588826	0,0017800955609047568	0,047709231175588826
1	0	0	1	0	0	1	129044,17	-0,200000003	1,59633255	-0,00055478469650695712	-0,1997185432463767	0,000318817212	-0,048818801150031149	0,0018214951084838966	0,048818801150031149
1	0	0	1	0	0	1	129064,17	-0,200000003	1,58231485	-0,00055477795228941574	-0,19971611568294352	0,000316013786	-0,049928360358771942	0,0018628942543802378	0,049928360358771942
1	0	0	1	0	0	1	129084,17	-0,200000003	1,56298339	-0,00055478382483704218	-0,19971823019540323	0,000312156277	-0,051037926462551552	0,0019042936575397478	0,051037926462551552
1	0	0	1	0	0	1	129104,17	-0,200000003	1,56027889	-0,00055478195562379232	-0,19971755654793974	0,000311615091	-0,052147494421012461	0,001945693129899911	0,052147494421012461
1	0	0	1	0	0	1	129124,17	-0,200000003	1,54355657	-0,00055478378925141357	-0,19971821738483008	0,000308276358	-0,053257058979672448	0,0019870924754089309	0,053257058979672448
1	0	0	1	0	0	1	129144,17	-0,200000003	1,52491081	-0,0005547798345461488	-0,19971679333777466	0,000304550311	-0,05436661935578759	0,0020284916648615786	0,05436661935578759
1	0	0	1	0	0	1	129164,17	-0,200000003	1,50805521	-0,00055477586128231552	-0,19971536262837158	0,000301181804	-0,055476169110196096	0,0020698904580040707	0,055476169110196096
1	1	0	0	1	0	2	129169,41	0,200000003	2,12742877	1,0050538513395523E-008	0,060303239916491392	0,000128290849	-0,055766824481288358	0,0020807352006898256	1,0050538513395523E-008
1	1	0	0	0	0	2	129189,41	0,200000003	2,45901346	0,00055613969909482528	0,20020633528248195	0,000492310093	-0,054654554378289907	0,002039234907683895	0,0011122801535369621
1	1	0	0	0	0	2	129209,41	0,200000003	2,46185112	0,00055613384402626086	0,20020422675364774	0,00049287302	-0,05354228254414823	0,0019977345500866829	0,0022245519876786403
1	1	0	0	0	0	2	129229,41	0,200000003	2,46230841	0,00055613699758963456	0,20020536275983187	0,000492967374	-0,052430010033061696	0,0019562341672317482	0,0033368244987651706
1	1	0	0	0	0	2	129249,41	0,200000003	2,4628036	0,00055613808688521382	0,20020575455355408	0,000493067433	-0,051317734375782899	0,0019147336669881504	0,0044491001560439667
1	1	0	0	0	0	2	129269,41	0,200000003	2,46516514	0,00055613568724526298	0,20020489029937334	0,0004935381	-0,050205461690244339	0,001873233277624176	0,0055613728415825293
1	1	0	0	0	0	2	129289,41	0,200000003	2,46007991	0,00055613951567808781	0,20020626925143066	0,000492523424	-0,049093187258679603	0,0018317328231136173	0,0066736472731472704
1	1	0	0	0	0	2	129309,41	0,200000003	2,45678496	0,00055612935475673946	0,20020261064623222	0,000491854735	-0,047980921486138234	0,0017902326916828627	0,0077859130456886349
1	1	0	0	0	0	2	129329,41	0,200000003	2,45684218	0,00055612324916074669	0,20020041305733574	0,000491860847	-0,046868675524769325	0,0017487332994335888	0,0088981590070575462
1	1	0	0	0	0	2	129349,41	0,200000003	2,41177964	0,00055613195167978605	0,20020354626585251	0,000482846837	-0,045756418860339226	0,0017072335078387117	0,010010415671487648
1	1	0	0	0	0	2	129369,41	0,200000003	2,418998	0,00055613767850812941	0,20020560713750605	0,000484296965	-0,044644143614548544	0,0016657330229482883	0,01112269091727833
1	1	0	0	0	0	2	129389,41	0,200000003	2,40934181	0,00055613191383332006	0,20020353264168534	0,000482358737	-0,043531876871604646	0,0016242328553105107	0,012234957660222218
1	1	0	0	0	0	2	129409,41	0,200000003	2,42025518	0,0005561330877956416	0,20020395480296509	0,000484544667	-0,042419612231319744	0,0015827327661257674	0,013347222300507126
1	1	0	0	0	0	2	129429,41	0,200000003	2,41753149	0,00055613785232355194	0,20020566970982141	0,000484003511	-0,041307337336229549	0,0015412322943204506	0,014459497195597322
1	1	0	0	0	0	2	129449,42	0,200000003	2,34637642	0,00055613852015634374	0,20020591087068496	0,000469758437	-0,040195063465298643	0,0014997318607278941	0,015571771066528227
1	1	0	0	0	0	2	129469,42	0,200000003	2,37401175	0,00055613490193088851	0,20020460758945565	0,000475288078	-0,039082788188516032	0,0014582313746811197	0,016684046343310838
1	1	0	0	0	0	2	129489,42	0,200000003	2,37473559	0,00055613536900447469	0,20020477623837312	0,000475433422	-0,037970514159260288	0,001416730935181251	0,017796320372566582
1	1	0	0	0	0	2	129509,42	0,200000003	2,36178446	0,00055613817761010592	0,20020578753083901	0,000472842919	-0,036858241804171533	0,0013752305581468029	0,018908592727655338
1	1	0	0	0	0	2	129529,42	0,200000003	2,36949801	0,00055613812012639315	0,20020576611926934	0,000474387169	-0,035745963184055123	0,0013337299473557499	0,020020871347771747
1	1	0	0	0	0	2	129549,42	0,200000003	2,37315488	0,0005561355889017383	0,20020485564221066	0,000475117122	-0,034633694224673606	0,0012922296970197046	0,021133140307153264
1	1	0	0	0	0	2	129569,42	0,200000003	2,37058353	0,00055613569480429094	0,20020489319769869	0,000474602421	-0,033521426799417965	0,0012507295039239582	0,022245407732408906
1	1	0	0	0	0	2	129589,42	0,200000003	2,37199306	0,00055613445882830362	0,20020444815258909	0,000474883564	-0,032409157999951571	0,0012092292595545616	0,023357676531875299
1	1	0	0	0	0	2	129609,42	0,200000003	2,36332726	0,00055614195611824589	0,20020714779485686	0,000473155	-0,031296876938816346	0,0011677285576858142	0,024469957593010531
1	1	0	0	0	0	2	129629,42	0,200000003	2,36909795	0,00055613840871469843	0,20020587000900586	0,000474307308	-0,030184602103492224	0,0011262280881104501	0,025582232428334653
1	1	0	0	0	0	2	129649,42	0,200000003	2,36681247	0,0005561303089972999	0,20020295477433683	0,00047384284	-0,029072333216526214	0,0010847278404763248	0,026694501315300659
1	1	0	0	0	0	2	129669,42	0,200000003	2,36816478	0,00055613746978176966	0,20020553260580214	0,000474119704	-0,027960062170352147	0,0010432275122792437	0,02780677236147473
1	1	0	0	0	0	2	129689,42	0,200000003	2,37096453	0,00055613564915292794	0,20020487658407309	0,000474678673	-0,026847787235067725	0,0010017270389742264	0,028919047296759149
1	1	0	0	0	0	2	129709,42	0,200000003	2,38385844	0,00055613549250778234	0,2002048209387416	0,00047725995	-0,025735517884848618	0,00096022677405550515	0,030031316646978259
1	1	0	0	0	0	2	129729,42	0,200000003	2,38804865	0,00055613307823323546	0,20020395114585718	0,000478096772	-0,024623250799203683	0,00091872659363109107	0,031143583732623194
1	1	0	0	0	0	2	129749,42	0,200000003	2,37462139	0,00055614372706164922	0,2002077847508671	0,000475417677	-0,023510964763773581	0,00087722570616471411	0,032255869768053293
1	1	0	0	0	0	2	129769,42	0,200000003	2,37561178	0,00055613144664300813	0,20020336445620528	0,000475605484	-0,022398701600830358	0,00083572567210157491	0,033368132930996518
1	1	0	0	0	0	2	129789,42	0,200000003	2,3703742	0,00055613429509351648	0,20020438913261098	0,000474559318	-0,021286434797367059	0,00079422550220573709	0,034480399734459821
1	1	0	0	0	0	2	129809,42	0,200000003	2,38378239	0,00055613635706653197	0,20020513214635584	0,000477245456	-0,02017416081290752	0,0007527250643772745	0,035592673718919366
1	1	0	0	0	0	2	129829,42	0,200000003	2,37584019	0,00055613120199905491	0,20020327613441488	0,000475651002	-0,019061894605147942	0,00071122491670794342	0,03670493992667895
1	1	0	0	0	0	2	129849,42	0,200000003	2,37816381	0,0005561331259210905	0,20020396823856534	0,000476117828	-0,017949633417273334	0,00066972495633726976	0,037817201114553555
1	1	0	0	0	0	2	129869,42	0,200000003	2,37869716	0,0005561361126345065	0,20020504417995069	0,000476227171	-0,016837365123922397	0,00062822473085172096	0,038929469407904486
1	1	0	0	0	0	2	129889,42	0,200000003	2,38204932	0,00055613744381070138	0,20020552264810189	0,00047689944	-0,015725090075377558	0,00058672425332080525	0,040041744456449325
1	1	0	0	0	0	2	129909,42	0,200000003	2,38283014	0,00055613495336059066	0,20020462639511286	0,000477053632	-0,014612821680423885	0,00054522402404432173	0,041154012851403002
1	1	0	0	0	0	2	129929,42	0,200000003	2,38412523	0,00055613950283742611	0,20020626463121443	0,000477316818	-0,013500547132518328	0,00050372356519293062	0,042266287399308557
1	1	0	0	0	0	2	129949,43	0,200000003	2,38355374	0,00055612882573571462	0,20020242020475808	0,000477193214	-0,012388282988803024	0,0004622234945358665	0,043378551543023859
1	1	0	0	0	0	2	129969,43	0,200000003	2,38534403	0,00055613566869580077	0,2002048843675055	0,000477557536	-0,01127601199000223	0,00042072316810634598	0,044490822541824646
1	1	0	0	0	0	2	129989,43	0,200000003	2,40023804	0,00055613043781783846	0,20020300092041315	0,000480534858	-0,010163745288369328	0,00037922300200993709	0,045603089243457555
1	1	0	0	0	0	2	130009,43	0,200000003	2,38250637	0,00055612972066799795	0,20020274237401235	0,000476984307	-0,0090514818774161434	0,00033772295869321286	0,046715352654410733
1	1	0	0	0	0	2	130029,43	0,200000003	2,39789534	0,00055612887250218131	0,20020243778615075	0,000480064482	-0,0079392199384493325	0,00029622297029827936	0,047827614593377555
1	1	0	0	0	0	2	130049,43	0,200000003	2,39899993	0,00055613211686826419	0,20020360498905827	0,000480288436	-0,0068269575157850355	0,00025472296385594224	0,048939877016041856
1	1	0	0	0	0	2	130069,43	0,200000003	2,39480996	0,00055613340942561626	0,20020407070137744	0,000479450711	-0,0057146904281052653	0,0002132227833556057	0,050052144103721626
1	1	0	0	0	0	2	130089,43	0,200000003	2,39353395	0,00055613130238817805	0,2002033125254927	0,000479193433	-0,0046024222449227539	0,00017172256198058896	0,051164412286904141
1	1	0	0	0	0	2	130109,43	0,200000003	2,40585637	0,00055613139660325312	0,20020334569644864	0,000481660507	-0,0034901612186860077	0,00013022260764084131	0,052276673313140883
1	1	0	0	0	0	2	130129,43	0,200000003	2,42235017	0,00055612983193662432	0,20020278317339418	0,00048496126	-0,0023779027270092934	8,8722747868936205E-005	0,0533889318048176
1	1	0	0	0	0	2	130149,43	0,200000003	2,41147494	0,00055613314478844403	0,20020397531035462	0,000482786883	-0,0012656364255570077	4,7222596703804186E-005	0,054501198106269888
1	1	0	0	0	0	2	130169,43	0,200000003	2,38938189	0,00055613001044591264	0,20020284668996042	0,000478361064	-0,00015337534277863334	5,7226402544123795E-006	0,055613459189048262
1	1	0	0	0	0	2	130189,43	0,200000003	2,39020085	0,00055612866309781862	0,20020236240003066	0,000478523871	0,00095888467178185408	-3,5777276338333837E-005	0,056725719203608742
1	1	0	0	0	0	2	130209,43	0,200000003	2,40458035	0,00055612392177846701	0,20020065481271178	0,000481398572	0,0020711322859751478	-7,7276730256707584E-005	0,057837966817802035
1	1	0	0	0	0	2	130229,43	0,200000003	2,40827537	0,00055612887652549478	0,200202439000288	0,000482142612	0,0031833903850352397	-0,00011877657537955861	0,058950224916862118
1	1	0	0	0	0	2	130249,43	0,200000003	2,39138174	0,0005561293706364103	0,20020261706198643	0,000478760892	0,0042956492117223437	-0,00016027644765115178	0,060062483743549235
1	1	0	0	0	0	2	130269,43	0,200000003	2,39690495	0,00055612964653058182	0,20020271568273939	0,000479866867	0,005407907092228759	-0,0002017762846194713	0,061174741624055642
1	1	0	0	0	0	2	130289,43	0,200000003	2,40058088	0,00055613597173078189	0,20020499345794294	0,000480608287	0,006520181150130327	-0,00024327672518815472	0,06228701568195721
1	1	0	0	0	0	2	130309,43	0,200000003	2,39968562	0,00055613697308136358	0,20020535335902723	0,00048042991	0,0076324565742672102	-0,00028477721673291466	0,063399291106094106
1	1	0	0	0	0	2	130329,43	0,200000003	2,39532423	0,00055613411478035981	0,20020432430709984	0,000479554263	0,0087447231619020915	-0,00032627737857590406	0,064511557693728986
1	1	0	0	0	0	2	130349,43	0,200000003	2,40002847	0,00055613736305468608	0,2002054943246505	0,000480498886	0,009856994070568247	-0,00036777770164238003	0,065623828602395149
1	1	0	0	0	0	2	130369,43	0,200000003	2,39795256	0,00055614110129409357	0,20020683931842941	0,000480086514	0,010969275964288477	-0,00040927843457599302	0,066736110496115366
1	1	0	0	0	0	2	130389,43	0,200000003	2,40288544	0,00055614023502833318	0,20020652809353757	0,000481073337	0,012081558802772126	-0,00045077920275999962	0,067848393334599027
1	1	0	0	0	0	2	130409,43	0,200000003	2,40686584	0,00055613826742602726	0,20020581974273757	0,000481868541	0,013193838332005901	-0,0004922798474714439	0,068960672863832794
1	1	0	0	0	0	2	130429,43	0,200000003	2,48744869	0,0005561438030368752	0,20020781192660691	0,000498006644	0,014306121901921328	-0,00053378064294615341	0,070072956433748237
1	1	0	0	0	0	2	130449,44	0,200000003	2,41610312	0,0005561362992723783	0,20020511137058746	0,000483716198	0,015418398188011744	-0,00057528116665155853	0,071185232719838656
1	1	0	0	0	0	2	130469,44	0,200000003	2,44690013	0,00055613708920362912	0,20020539505034534	0,000489882601	0,016530674957085216	-0,00061678170837771085	0,072297509488912128
1	1	0	0	0	0	2	130489,44	0,200000003	2,40019989	0,00055613967959996723	0,20020632771210477	0,000480535207	0,017642956347115568	-0,00065828242251797734	0,073409790878942477
1	1	0	0	0	0	2	130509,44	0,200000003	2,416008	0,00055613797587984141	0,2002057149350161	0,000483698619	0,018755232159929373	-0,00069978292856479578	0,074522066691756288
1	1	0	0	0	0	2	130529,44	0,200000003	2,43145418	0,00055613710357911066	0,20020540016715008	0,000486790261	0,019867514075228138	-0,00074128366230353306	0,075634348607055066
1	1	0	0	0	0	2	130549,44	0,200000003	2,42048359	0,00055613985988414957	0,20020639314451885	0,000484596298	0,020979790833114154	-0,00078278420361226624	0,076746625364941082
1	1	0	0	0	0	2	130569,44	0,200000003	2,44379568	0,00055613746605896288	0,2002055311330623	0,000489261409	0,022092065518109568	-0,00082428466757866419	0,077858900049936499
1	1	0	0	0	0	2	130589,44	0,200000003	2,40343761	0,00055613975390957459	0,20020635426725904	0,000481183495	0,023204346033107306	-0,00086578534907028749	0,078971180564934221
1	1	0	0	0	0	2	130609,44	0,200000003	2,42587376	0,00055613931278553267	0,20020619621155421	0,000485674944	0,02431662067307472	-0,00090728581135663014	0,080083455204901632
1	1	0	0	0	0	2	130629,44	0,200000003	2,45987034	0,00055613814045488838	0,20020577343621766	0,000492480234	0,025428896422407098	-0,0009487863150348713	0,08119573095423401
1	1	0	0	0	0	2	130649,44	0,200000003	2,42021704	0,00055614114328639373	0,20020685474067622	0,000484544027	0,026541177815492186	-0,00099028702928911411	0,082308012347319091
1	1	0	0	0	0	2	130669,44	0,200000003	2,4616797	0,00055613452834387616	0,2002044738465945	0,000492839317	0,027653451556850042	-0,0010317874580471261	0,083420286088676954
1	1	0	0	0	0	2	130689,44	0,200000003	2,42926383	0,0005561375517174601	0,20020556149609789	0,000486352132	0,028765728301233949	-0,0010732879988520774	0,084532562833060864
1	1	0	0	0	0	2	130709,44	0,200000003	2,38669634	0,00055613358134279648	0,20020413293527344	0,000477826485	0,029877989096903373	-0,0011147879445890482	0,085644823628730291
1	1	0	0	0	0	2	130729,44	0,200000003	2,43554902	0,00055613570442464627	0,20020489685673238	0,000487608835	0,030990258342531226	-0,0011562882056053291	0,086757092874358131
1	1	0	0	0	0	2	130749,44	0,200000003	2,41947436	0,00055613257771978778	0,20020377089232765	0,000484387885	0,03210252649372343	-0,0011977884257867446	0,087869361025550336
1	1	0	0	0	0	2	130769,44	0,200000003	2,35188055	0,00055613522552947206	0,20020472483077987	0,000470857602	0,033214791482748486	-0,0012392885279834522	0,088981626014575386
1	1	0	0	0	0	2	130789,44	0,200000003	2,45707083	0,0005561339739014704	0,2002042735077991	0,000491916086	0,034327060823792614	-0,0012807887925598426	0,090093895355619533
1	1	0	0	0	0	2	130809,44	0,200000003	2,46954584	0,00055613561609387398	0,20020486509557315	0,000494415115	0,035439327664206662	-0,0013222889638343626	0,091206162196033562
1	1	0	0	0	0	2	130829,44	0,200000003	2,49301028	0,00055613795503394477	0,20020570743297229	0,00049911486	0,036551605866985427	-0,001363789559053987	0,092318440398812314
1	1	0	0	0	0	2	130849,44	0,200000003	2,46006083	0,00055613569149374963	0,2002048918287983	0,000492516207	0,03766387299936537	-0,001405289741222147	0,093430707531192256
1	1	0	0	0	0	2	130869,44	0,200000003	2,45766115	0,00055613461311161523	0,20020450436470813	0,000492034829	0,038776142306346272	-0,0014467900045275926	0,094542976838173158
1	1	0	0	0	0	2	130889,44	0,200000003	2,5383203	0,00055613959429992576	0,2002062970699553	0,000508187688	0,039888417811041318	-0,0014882904990780861	0,095655252342868198
1	1	0	0	0	0	2	130909,44	0,200000003	2,46089888	0,00055613612737092698	0,20020504873915011	0,000492684369	0,041000691534408499	-0,0015297909271648419	0,096767526066235405
1	1	0	0	0	0	2	130929,44	0,200000003	2,47000289	0,00055612614633639654	0,20020145638353168	0,000494498177	0,042112950801374419	-0,0015712908158638294	0,097879785333201306
1	1	0	0	0	0	2	130949,44	0,200000003	2,48301125	0,00055613018662730848	0,20020291011371802	0,000497106055	0,043225212767752742	-0,0016127908052815235	0,098992047299579635
1	1	0	0	0	0	2	130969,45	0,200000003	2,49335313	0,00055613410564677587	0,20020432146451798	0,000499180052	0,044337480083141299	-0,0016542909942779808	0,10010431461496819
1	1	0	0	0	0	2	130989,45	0,200000003	2,49201989	0,00055613902629415194	0,20020609302105075	0,000498917594	0,045449755970472493	-0,0016957915031051434	0,10121659050229939
1	1	0	0	0	0	2	131009,45	0,200000003	2,49064851	0,00055614132779339942	0,20020692085423722	0,000498645066	0,04656203609261271	-0,0017372921699387242	0,10232887062443962
1	1	0	0	0	0	2	131029,45	0,200000003	2,51072288	0,00055613879513906112	0,20020600986250698	0,000502661802	0,047674314539320173	-0,0017787927742596563	0,10344114907114707
1	1	0	0	0	0	2	131049,45	0,200000003	2,51561761	0,00055613944097359987	0,20020624176169709	0,000503642368	0,048786596878657971	-0,0018202935238198598	0,10455343141048488
1	1	0	0	0	0	2	131069,45	0,200000003	2,52218843	0,00055613463077942534	0,20020451008173715	0,000504953496	0,049898870296500864	-0,0018617939405070938	0,10566570482832776
1	1	0	0	0	0	2	131089,45	0,200000003	2,52380729	0,00055612657041433786	0,2002055340245648	0,000505280157	0,051011122614655469	-0,0019032935699365885	0,10677795714648235
1	1	0	0	0	0	2	131109,45	0,200000003	2,53072095	0,00055612669757919181	0,20020557980390509	0,000506664452	0,052123376685772749	-0,0019447932647714778	0,10789021121759963
1	1	0	0	0	0	2	131129,45	0,200000003	2,5704124	0,00055612623776247104	0,20020541426991152	0,000514610496	0,053235626935026957	-0,0019862928170075168	0,10900246146685382
1	1	0	0	0	0	2	131149,45	0,200000003	2,55761361	0,0005561304473297463	0,20020692971389347	0,000512051978	0,054347885031324538	-0,002027792662027295	0,11011471956315141
1	1	0	0	0	0	2	131169,45	0,200000003	2,542377	0,00055613614633927744	0,20020898135700368	0,000509006728	0,055460154168817978	-0,0020692929190089357	0,11122698870064485
1	1	0	0	0	0	2	131189,45	0,200000003	2,59035349	0,00055613632016794547	0,2002090439353144	0,000518612214	0,056572424113795405	-0,0021107932061188896	0,11233925864562227
1	1	0	0	0	0	2	131209,45	0,200000003	2,78961086	0,00055613036982963488	0,20020690181385773	0,000558499363	0,057684683875997274	-0,0021522931132957965	0,11345151840782416
1	1	0	0	0	0	2	131229,45	0,200000003	2,93275928	0,0005561343606842889	0,20020833852130838	0,000587162853	0,058796951071352832	-0,0021937932978136611	0,11456378560317971
1	1	0	0	0	0	2	131249,45	0,200000003	3,00819969	0,0005561334820497367	0,20020802221291907	0,000602265703	0,059909221576104794	-0,0022352936058095555	0,11567605610793168
1	1	0	0	0	0	2	131269,45	0,200000003	2,95687127	0,00055612900510595898	0,2002064105134113	0,000591984601	0,061021482384534579	-0,0022767935520226326	0,11678831691636147
1	1	0	0	0	0	2	131289,45	0,200000003	2,94508195	0,0005561293694757753	0,20020654168652464	0,000589624688	0,062133741968395213	-0,0023182934525453882	0,11790057650022211
1	1	0	0	0	0	2	131309,45	0,200000003	2,9365685	0,00055613097322814995	0,20020711903728915	0,000587921939	0,063246001288828979	-0,0023597933432393334	0,11901283582065587
1	1	0	0	0	0	2	131329,45	0,200000003	2,90062904	0,00055612960983067744	0,20020662821427587	0,000580725144	0,064358255001425139	-0,0024012930246973171	0,12012508953325202
1	1	0	0	0	0	2	131349,45	0,200000003	2,84263444	0,00055613391386634784	0,20020817766687475	0,000569118652	0,065470515949663411	-0,0024427929761268371	0,12123735048149027
1	1	0	0	0	0	2	131369,45	0,200000003	2,79178214	0,00055613478476223027	0,20020849118934339	0,000558938482	0,066582784916477286	-0,0024842932267401936	0,12234961944830416
1	1	0	0	0	0	2	131389,45	0,200000003	2,85573792	0,00055612660177052026	0,2002055453127887	0,000571734563	0,067695047567919962	-0,0025257932417185594	0,12346188209974685
1	1	0	0	0	0	2	131409,45	0,200000003	2,72399807	0,00055612772171199322	0,2002059484916559	0,000545360614	0,068807303504927526	-0,0025672930061723238	0,1245741380367544
1	1	0	0	0	0	2	131429,45	0,200000003	2,67973542	0,00055612594068961005	0,2002053073236983	0,000536497275	0,069919553363635546	-0,00260879254383656	0,12568638789546242
1	1	0	0	0	0	2	131449,45	0,200000003	2,679564	0,00055612163095010656	0,20020375581771978	0,0005364588	0,071031797577916147	-0,0026502918708996202	0,12679863210974304
1	1	0	0	0	0	2	131469,45	0,200000003	2,64916682	0,00055611947163525549	0,20020297846449504	0,000530371093	0,072144038322796659	-0,0026917910685146976	0,12791087285462355
1	1	0	0	0	0	2	131489,45	0,200000003	2,64145327	0,00055612466619660454	0,20020484850628813	0,000528831733	0,073256286406201024	-0,002733290539939967	0,12902312093802792
1	1	0	0	0	0	2	131509,45	0,200000003	2,54233885	0,00055612154466493254	0,20020372475506202	0,000508985715	0,074368531180522739	-0,0027747898878989142	0,13013536571234965
1	1	0	0	0	0	2	131529,45	0,200000003	2,52601671	0,00055612564668390483	0,20020520148166096	0,000505721662	0,075480784010818662	-0,0028162895364370902	0,13124761854264558
1	1	0	0	0	0	2	131549,45	0,200000003	2,52654982	0,00055612792539844909	0,20020602181876854	0,000505830511	0,07659303991180681	-0,0028577892995469219	0,13235987444363373
1	1	0	0	0	0	2	131569,45	0,200000003	2,50508523	0,00055613086693071661	0,20020708077021914	0,000501535775	0,077705300700778163	-0,0028992892450339782	0,13347213523260507
1	1	0	0	0	0	2	131589,45	0,200000003	2,46604133	0,00055612634719825466	0,20020545366678742	0,000493714935	0,078817555975189875	-0,0029407889847654003	0,13458439050701678
1	1	0	0	0	0	2	131609,45	0,200000003	2,51757932	0,00055612491711643008	0,2002049388374111	0,000504031836	0,079929807160261005	-0,0029822885719180275	0,13569664169208792
1	1	0	0	0	0	2	131629,45	0,200000003	2,52453113	0,00055612769187572922	0,20020593775060256	0,000505426142	0,081042061926100211	-0,0030237882926739258	0,13680889645792715
1	1	0	0	0	0	2	131649,45	0,200000003	2,59460068	0,00055613190145128307	0,20020745319756483	0,000519458379	0,082154323184958157	-0,0030652882556930835	0,13792115771678512
1	1	0	0	0	0	2	131669,45	0,200000003	2,41145587	0,00055612397751543245	0,20020460058110496	0,000482784555	0,083266572605365094	-0,0031067877770037165	0,13903340713719203
1	1	0	0	0	0	2	131689,45	0,200000003	2,60656142	0,00055613049846722022	0,20020694812338122	0,000521851704	0,084378827407024192	-0,003148287499096103	0,14014566193885117
1	1	0	0	0	0	2	131709,45	0,200000003	2,61077046	0,00055613093895216781	0,20020710669793757	0,000522694783	0,085491088587762803	-0,0031897874592005229	0,14125792311958976
1	1	0	0	0	0	2	131729,45	0,200000003	2,59122944	0,00055612839031302272	0,20020618918798886	0,000518780143	0,086603344672551808	-0,0032312872291682118	0,14237017920437878
1	1	0	0	0	0	2	131749,45	0,200000003	2,5533855	0,00055612489172899066	0,20020492969793437	0,000511200342	0,087715590807352845	-0,003272786627888471	0,14348242533917982
1	1	0	0	0	0	2	131769,45	0,200000003	2,43133974	0,00055611878969437542	0,20020273296581661	0,000486760866	0,088827832826581478	-0,003314285873051191	0,14459466735840848
1	1	0	0	0	0	2	131789,45	0,200000003	2,4442718	0,00055612660234835411	0,2002055455208089	0,000489356753	0,089940085147510182	-0,0033557855025841914	0,14570691967933718
1	1	0	0	0	0	2	131809,45	0,200000003	2,44031048	0,00055612573076287898	0,20020523175008691	0,000488562917	0,091052335933880064	-0,0033972850748607386	0,14681917046570704
1	1	0	0	0	0	2	131829,45	0,200000003	2,45390916	0,00055612526513967245	0,20020506412575882	0,000491285056	0,092164587761312128	-0,0034387846859807155	0,1479314222931391
1	1	0	0	0	0	2	131849,45	0,200000003	2,48245883	0,0005561210044109159	0,2002035302636464	0,000496997032	0,09327682952212567	-0,0034802839215016205	0,14904366405395261
1	1	0	0	0	0	2	131869,45	0,200000003	2,48800111	0,00055612807614025146	0,2002060760858089	0,000498112931	0,094389085402138778	-0,0035217836838288454	0,1501559199339657
1	1	0	0	0	0	2	131889,45	0,200000003	2,47150755	0,00055612072612676365	0,20020343008136726	0,000494804292	0,095501329746225062	-0,0035632830157351296	0,15126816427805197
1	1	0	0	0	0	2	131909,45	0,200000003	2,51504612	0,00055611743234263526	0,20020224431926662	0,000503517862	0,09661356244124	-0,0036047819129988998	0,15238039697306691
1	1	0	0	0	0	2	131929,45	0,200000003	2,53959632	0,00055612163654632032	0,20020375783235645	0,0005084367	0,09772580501958752	-0,003646281179023097	0,15349263955141443
1	1	0	0	0	0	2	131949,45	0,200000003	2,48301125	0,0005561165211631191	0,2002019162946921	0,000497103611	0,098838040601187533	-0,0036877801839892371	0,1546048751330144
1	1	0	0	0	0	2	131969,45	0,200000003	2,47783065	0,00055612509270426298	0,20020500204902109	0,000496074092	0,099950286869554304	-0,0037292795876930144	0,15571712140138115
1	1	0	0	0	0	2	131989,45	0,200000003	2,47028852	0,00055612409572800006	0,20020464313762259	0,000494563254	0,1010625306627753	-0,0037707788990457741	0,15682936519460214
1	1	0	0	0	0	2	132009,45	0,200000003	2,50832295	0,0005561275586270624	0,20020588978108998	0,000502181007	0,10217477916734856	-0,0038122783861854214	0,15794161369917539
1	1	0	0	0	0	2	132029,45	0,200000003	2,49689555	0,00055612693724532922	0,20020566608370106	0,000499892631	0,10328702925943525	-0,0038537779325573299	0,15905386379126208
1	1	0	0	0	0	2	132049,45	0,200000003	2,48773456	0,00055611933901160947	0,20020293071998992	0,000498051755	0,1043992738730115	-0,003895277274518647	0,16016610840483837
1	1	0	0	0	0	2	132069,45	0,200000003	2,51062751	0,00055612354879991885	0,20020444624354416	0,00050263881	0,10551151954091861	-0,0039367766558184659	0,16127835407274547
1	1	0	0	0	0	2	132089,45	0,200000003	2,55262351	0,00055611964209708902	0,2002030398307455	0,000511043007	0,10662375545581702	-0,0039782756732204186	0,16239058998764387
1	1	0	0	0	0	2	132109,45	0,200000003	2,52639747	0,00055612351414892403	0,20020443376918797	0,000505795993	0,10773599884436965	-0,0040197749694744576	0,16350283337619654
1	1	0	0	0	0	2	132129,45	0,200000003	2,49413395	0,00055611726971632909	0,20020218577380554	0,000499331043	0,10884824308230917	-0,004061274297420263	0,16461507761413603
1	1	0	0	0	0	2	132149,45	0,200000003	2,59913349	0,00055612109676831302	0,20020356351230419	0,000520355767	0,10996048483332022	-0,0041027735325754246	0,1657273193651471
1	1	0	0	0	0	2	132169,45	0,200000003	2,50693274	0,00055612538801050848	0,20020510835925283	0,000501900737	0,11107273538275003	-0,0041442730960114189	0,1668395699145769
1	1	0	0	0	0	2	132189,45	0,200000003	2,46884108	0,00055611674852089747	0,20020199814347949	0,000494266918	0,11218497017741805	-0,0041857720716160691	0,16795180470924496
1	1	0	0	0	0	2	132209,45	0,200000003	2,50470424	0,00055611909452080717	0,20020284270331488	0,000501448929	0,11329720787027997	-0,0042272711553562291	0,16906404240210688
1	1	0	0	0	0	2	132229,45	0,200000003	2,71763659	0,00055612104243785146	0,20020354395334109	0,000544080453	0,11440945240466482	-0,004268770494362809	0,17017628693649174
1	1	0	0	0	0	2	132249,45	0,200000003	2,95898533	0,00055612110907501651	0,20020356794271674	0,000592399447	0,11552169326868344	-0,0043102696964230906	0,17128852780051034
1	1	0	0	0	0	2	132269,45	0,200000003	3,05021501	0,00055611706956393197	0,20020211371895382	0,000610659481	0,11663393049111651	-0,0043517687626109184	0,17240076502294342
1	1	0	0	0	0	2	132289,45	0,200000003	2,8952961	0,00055611216603881786	0,20020034845018896	0,00057963928	0,11774615232585886	-0,0043932672546633165	0,17351298685768579
1	1	0	0	0	0	2	132309,45	0,200000003	2,77128887	0,0005561122343614697	0,20020037304633978	0,000554813072	0,11885837798611592	-0,0044347658894508122	0,17462521251794282
1	1	0	0	0	0	2	132329,45	0,200000003	2,77825952	0,00055611755563649869	0,2002022887050505	0,000556213898	0,11997061302515472	-0,0044762648741732634	0,17573744755698163
1	1	0	0	0	0	2	132349,45	0,200000003	3,04044437	0,00055612754938254758	0,20020588645306518	0,000608714879	0,12108286256458795	-0,004517764399924928	0,17684969709641488
1	1	0	0	0	0	2	132369,45	0,200000003	3,15405273	0,00055612395761989888	0,20020459341871395	0,000631455856	0,12219510899705293	-0,0045592638097514298	0,17796194352887984
1	1	0	0	0	0	2	132389,45	0,200000003	3,19993424	0,00055612449452032646	0,20020478670283763	0,000640642131	0,12330736081883746	-0,0046007634206606893	0,17907419535066435
1	1	0	0	0	0	2	132409,45	0,200000003	3,22920752	0,00055612418640239373	0,20020467578039923	0,00064650242	0,12441961005993869	-0,0046422629352811859	0,18018644459176557
1	1	0	0	0	0	2	132429,45	0,200000003	3,26107121	0,00055610844292160544	0,20019900812820218	0,000652863237	0,12553183281181773	-0,0046837614615531878	0,18129866734364461
1	1	0	0	0	0	2	132449,45	0,200000003	3,29375386	0,00055611451329456442	0,2002011934621255	0,000659413461	0,12664406058794778	-0,0047252601752867488	0,18241089511977466
1	1	0	0	0	0	2	132469,45	0,200000003	3,31725645	0,00055611850366989766	0,2002026299970207	0,00066412345	0,12775629850903838	-0,0047667592675424288	0,18352313304086525
1	1	0	0	0	0	2	132489,45	0,200000003	3,36330914	0,00055611850574447046	0,20020263074386682	0,000673343311	0,12886853402730267	-0,0048082582701454278	0,18463536855912954
1	1	0	0	0	0	2	132509,45	0,200000003	3,38515472	0,00055612119247681568	0,20020359796735974	0,000677720178	0,12998077084161944	-0,004849757321105888	0,1857476053734463
1	1	0	0	0	0	2	132529,45	0,200000003	3,41261888	0,00055611925151199091	0,20020289922013219	0,000683216203	0,13109301152428512	-0,0048912565163996474	0,186859846056112
1	1	0	0	0	0	2	132549,45	0,200000003	3,47547007	0,00055611782205849882	0,20020238461695552	0,000695797382	0,13220524972245538	-0,0049327556189935411	0,18797208425428224
1	1	0	0	0	0	2	132556,02	0,200000003	3,50011539	0,00036564958232144512	0,20020354229168611	0,000700735487	0,1325708993047768	-0,0049463984965310458	0,18833773383660368