File: Experimentelles/Rohdaten/Batteriemessungen/AlteZelle/150511_LLTO_LTO_Tests/ECLab-Export/LLTO_LP30_LTO_02_CV_C01_loop10.mpt
EC-Lab ASCII FILE
Nb header lines : 3
mode	ox/red	error	control changes	counter inc.	time/s	control/V	Ewe/V	<I>/mA	cycle number	(Q-Qo)/C	P/W
2	1	0	1	0	8458,29	0,274492115	0,274808347	-0,74632894992828365	11	0	0,000205097429
2	1	0	0	0	8459,72	0,288793176	0,289083242	-0,44008614495396614	11	-0,000788984064	0,00012722153
2	1	0	1	0	8461,17	0,303294271	0,30353862	-0,29926591203548102	11	-0,00131693133	9,08387592E-005
2	1	0	1	0	8462,62	0,317795396	0,318244606	-0,20334305847063616	11	-0,00167606794	6,47128327E-005
2	1	0	0	0	8464,07	0,332296491	0,332720041	-0,13680865161586554	11	-0,00191885454	4,55189802E-005
2	1	0	0	0	8465,52	0,346797585	0,347385913	-0,089519150574536358	11	-0,00207992829	3,10976902E-005
2	1	0	1	0	8466,97	0,36129871	0,361670852	-0,056397629998779507	11	-0,00218378822	2,03973796E-005
2	1	0	1	0	8468,46	0,376199841	0,37652722	-0,03263590359711088	11	-0,00224846415	1,22883057E-005
2	1	0	0	0	8469,91	0,390700936	0,391082823	-0,015917219231293283	11	-0,0022824707	6,22495099E-006
2	1	0	0	0	8471,40	0,405601084	0,406078875	-0,0034996223789462707	11	-0,00229609618	1,42112276E-006
2	1	0	1	0	8472,85	0,420103222	0,420585036	0,0055252769658788237	11	-0,00229419838	2,32384878E-006
2	1	0	0	0	8474,34	0,435004324	0,435411304	0,012268832283249707	11	-0,00228047092	5,34198807E-006
2	1	0	0	0	8475,79	0,449505448	0,450037092	0,017911763289399974	11	-0,00225789589	8,06095795E-006
2	1	0	1	0	8477,24	0,464006543	0,464101553	0,022752074097904112	11	-0,00222797226	1,05592726E-005
2	1	0	1	0	8478,69	0,478507668	0,478707254	0,026871475148557811	11	-0,0021913501	1,28635702E-005
2	1	0	0	0	8480,14	0,493008763	0,493343055	0,030969426094088646	11	-0,00214890554	1,52785506E-005
2	1	0	0	0	8481,59	0,507509887	0,50778842	0,034346895952088173	11	-0,00210107793	1,74409561E-005
2	1	0	1	0	8483,04	0,522010922	0,522323966	0,03777671962355568	11	-0,00204829383	1,97316858E-005
2	1	0	0	0	8484,49	0,536512077	0,536999881	0,040694271350124154	11	-0,00199071411	2,18528185E-005
2	1	0	0	0	8485,94	0,551013172	0,551365018	0,044107435921129312	11	-0,0019284013	2,43192972E-005
2	1	0	1	0	8487,39	0,565514266	0,566020846	0,04723185060235335	11	-0,00186149846	2,6734213E-005
2	1	0	1	0	8488,84	0,580015361	0,580416143	0,050526880833785869	11	-0,0017898808	2,93266166E-005
2	1	0	0	0	8490,29	0,594516516	0,595081985	0,053702638251706899	11	-0,00171367475	3,19574719E-005
2	1	0	0	0	8491,74	0,609017611	0,609417081	0,057058959171020659	11	-0,00163275155	3,47727037E-005
2	1	0	1	0	8493,19	0,623518705	0,623882413	0,060489165829494592	11	-0,00154701108	3,77381257E-005
2	1	0	1	0	8494,64	0,6380198	0,638357878	0,063671527469220224	11	-0,00145639945	4,064522E-005
2	1	0	0	0	8496,10	0,652520955	0,652893484	0,067314826863973222	11	-0,00136079791	4,39494106E-005
2	1	0	1	0	8497,55	0,667022049	0,667539358	0,070790661828747712	11	-0,0012601607	4,72555512E-005
2	1	0	1	0	8499,00	0,681523144	0,681964576	0,074344673989495962	11	-0,00115446257	5,07004333E-005
2	1	0	0	0	8500,45	0,696024299	0,696700692	0,077725171965236454	11	-0,00104383577	5,41511799E-005
2	1	0	0	0	8501,90	0,710525393	0,710905433	0,080854726140387136	11	-0,000928500609	5,74800652E-005
2	1	0	1	0	8503,35	0,725026488	0,725521207	0,083713046624325043	11	-0,000808715471	6,07355905E-005
2	1	0	1	0	8504,80	0,739527583	0,739986598	0,086401997813178701	11	-0,000684887404	6,39363207E-005
2	1	0	0	0	8506,25	0,754028738	0,754552245	0,088438554511715674	11	-0,000557407737	6,67315107E-005
2	1	0	0	0	8507,70	0,768529832	0,7688573	0,090663450401431642	11	-0,000426798098	6,97072537E-005
2	1	0	1	0	8509,15	0,783030927	0,783302486	0,092427960713393882	11	-0,000293317426	7,23990524E-005
2	1	0	0	0	8510,60	0,797532022	0,798018634	0,093930186044114189	11	-0,000157497081	7,49580358E-005
2	1	0	0	0	8512,05	0,812033057	0,812433839	0,095091531829287309	11	-1,97236022E-005	7,72555795E-005
2	1	0	1	0	8513,50	0,826534212	0,826809049	0,096183565503451968	11	0,000119688455	7,95254455E-005
2	1	0	1	0	8514,95	0,841035366	0,84164542	0,09701072329577664	11	0,000260383153	8,16486281E-005
2	1	0	0	0	8516,40	0,855536461	0,856010497	0,097543164098169651	11	0,000402141683	8,34979728E-005
2	1	0	0	0	8517,85	0,870037496	0,870265305	0,098047668036694285	11	0,000544638664	8,53274832E-005
2	1	0	1	0	8519,30	0,884538651	0,88514179	0,098487507939959424	11	0,000687778753	8,71754091E-005
2	1	0	1	0	8520,79	0,899439752	0,899978042	0,098730340017937062	11	0,000835282553	8,88551367E-005
2	1	0	0	0	8522,18	0,913340867	0,91372174	0,09890366985928256	11	0,000973264687	9,03704349E-005
2	1	0	0	0	8523,63	0,927841127	0,928297281	0,099175024842982131	11	0,00111734902	9,20639068E-005
2	1	0	1	0	8525,08	0,942343175	0,942802846	0,099157725499632307	11	0,00126158097	9,34861891E-005
2	1	0	0	0	8526,53	0,956844211	0,957248211	0,099209528261174016	11	0,00140589883	9,49681416E-005
2	1	0	0	0	8527,98	0,971345305	0,971663535	0,098906717534797798	11	0,00155023427	9,61040496E-005
2	1	0	1	0	8529,43	0,985846341	0,986289322	0,099240328883751782	11	0,0016947618	9,78796743E-005
2	1	0	1	0	8530,88	1,0003475	1,00078475	0,099370101738410765	11	0,0018394537	9,94480797E-005
2	1	0	0	0	8532,33	1,01484859	1,01526022	0,099730513912314893	11	0,00198451942	0,000101252423
2	1	0	0	0	8533,78	1,02934968	1,02977574	0,10004073637537635	11	0,00212998153	0,00010301952
2	1	0	1	0	8535,23	1,04385078	1,04423106	0,10039107485984766	11	0,00227601733	0,000104831481
2	1	0	0	0	8536,68	1,05835187	1,05887699	0,10087380806605006	11	0,00242267898	0,000106812957
2	1	0	0	0	8538,13	1,07285285	1,07338238	0,10134255897719402	11	0,00256998371	0,000108779313
2	1	0	1	0	8539,58	1,08735406	1,08780766	0,10158322394515062	11	0,00271798158	0,00011050301
2	1	0	1	0	8541,03	1,10185528	1,10242355	0,1022599874219544	11	0,00286667189	0,000112733818
2	1	0	0	0	8542,48	1,11635625	1,11675858	0,10284546405697846	11	0,00301613356	0,000114853552
2	1	0	0	0	8543,93	1,13085747	1,1311537	0,10342732871261718	11	0,00316626509	0,000116992203
2	1	0	1	0	8545,38	1,14535856	1,14562917	0,10398716537747542	11	0,00331717124	0,000119130731
2	1	0	1	0	8546,83	1,15985954	1,16047561	0,10447384498547741	11	0,00346881943	0,000121239347
2	1	0	0	0	8548,28	1,17436075	1,17497098	0,10510145383886992	11	0,00362117938	0,000123491162
2	1	0	0	0	8549,73	1,18886101	1,18927431	0,10523500625062621	11	0,0037743689	0,000125153296
2	1	0	1	0	8551,18	1,20336294	1,20377147	0,10608157697909792	11	0,00392838009	0,000127697975
2	1	0	0	0	8552,63	1,21786416	1,21837723	0,10673098304929824	11	0,00408336148	0,000130038607
2	1	0	0	0	8554,08	1,23236513	1,23295283	0,10739419900346547	11	0,00423924252	0,00013241198
2	1	0	1	0	8555,53	1,24686635	1,24753857	0,10794996784534261	11	0,00439609447	0,000134671747
2	1	0	1	0	8556,98	1,26136744	1,26222456	0,10862162414317322	11	0,00455378741	0,000137104886
2	1	0	0	0	8558,43	1,27586842	1,27603829	0,10900081391446293	11	0,00471223285	0,000139089214
2	1	0	0	0	8559,88	1,29036963	1,29054391	0,10955713735893374	11	0,00487146201	0,0001413883
2	1	0	1	0	8561,33	1,30487072	1,30524981	0,10964643474047354	11	0,00503123598	0,000143115991
2	1	0	0	0	8562,78	1,31937218	1,31994689	0,10998373897320502	11	0,00519143324	0,0001451727
2	1	0	0	0	8564,23	1,33387303	1,33443117	0,11012906876082162	11	0,00535177439	0,000146959661
2	1	0	1	0	8565,68	1,34837413	1,34887648	0,1101623882229128	11	0,00551225431	0,000148595456
2	1	0	1	0	8567,13	1,3628751	1,36315155	0,11036456698396523	11	0,00567273004	0,000150443637
2	1	0	0	0	8568,58	1,37737632	1,37766695	0,1103284993441771	11	0,00583321927	0,000151995933
2	1	0	0	0	8570,03	1,39187741	1,39239299	0,11035860822691256	11	0,00599367032	0,00015366255
2	1	0	1	0	8571,48	1,40637839	1,40690851	0,10990824379647757	11	0,0061540571	0,000154630849
2	1	0	1	0	8572,93	1,4208796	1,42143404	0,11003235393824662	11	0,00631433586	0,000156403737
2	1	0	0	0	8574,38	1,4353807	1,4359597	0,10994344744055163	11	0,00647449074	0,000157874354
2	1	0	1	0	8575,83	1,44988298	1,45027721	0,10995134199551203	11	0,00663459394	0,000159459931
2	1	0	1	0	8577,28	1,46438301	1,46468997	0,10995629682050411	11	0,00679462543	0,000161051881
2	1	0	0	0	8578,73	1,47888398	1,47919559	0,11004725440094853	11	0,00695475843	0,00016278142
2	1	0	0	0	8580,18	1,4933852	1,49400163	0,11024858007052274	11	0,00711510656	0,000164711557
2	1	0	1	0	8581,63	1,50788629	1,50848711	0,11063813010696299	11	0,00727590406	0,000166896192
2	1	0	1	0	8583,08	1,52238727	1,52285218	0,11091715656220912	11	0,00743734837	0,000168910439
2	1	0	0	0	8584,53	1,53688836	1,53747797	0,11182239717648662	11	0,0075997184	0,000171924476
2	1	0	0	0	8585,98	1,55138958	1,5519737	0,11271439104651382	11	0,00776331453	0,000174929766
2	1	0	1	0	8587,43	1,56589055	1,5663085	0,11379862821195253	11	0,00792833325	0,000178243761
2	1	0	0	0	8588,88	1,58039153	1,58088422	0,1151223540326165	11	0,00809509587	0,000181995114
2	1	0	0	0	8590,33	1,59489286	1,59561014	0,11683914759972432	11	0,0082639223	0,000186429723
2	1	0	1	0	8591,78	1,60939395	1,60992527	0,11857659718953029	11	0,00843504444	0,00019089946
2	1	0	1	0	8593,23	1,62389517	1,62434053	0,119967321283184	11	0,00860868115	0,000194867782
2	1	0	0	0	8594,68	1,63839626	1,63873601	0,12208021723199637	11	0,0087849386	0,000200057242
2	1	0	0	0	8596,13	1,65289724	1,65352201	0,12409493148637307	11	0,00896403939	0,000205193704
2	1	0	1	0	8597,58	1,66739833	1,66789699	0,12615876380975034	11	0,00914608687	0,000210419821
2	1	0	1	0	8599,03	1,68189943	1,68249285	0,12831970960056976	11	0,0093311565	0,000215896987
2	1	0	0	0	8600,48	1,69640064	1,69699836	0,13047047537596202	11	0,00951936096	0,000221408176
2	1	0	1	0	8601,93	1,71090162	1,71140349	0,13249403064118714	11	0,00971066207	0,000226750752
2	1	0	1	0	8603,38	1,72540283	1,72597933	0,13485396075217648	11	0,00990513992	0,000232755148
2	1	0	0	0	8604,83	1,73990381	1,7405349	0,13664799649268366	11	0,010102788	0,000237840606
2	1	0	0	0	8606,28	1,75440514	1,75487995	0,13911385686757627	11	0,0103036789	0,000244128125
2	1	0	1	0	8607,73	1,76890612	1,76931536	0,1412813087226823	11	0,0105078174	0,000249971199
2	1	0	1	0	8609,18	1,78340721	1,78387105	0,1435533111992604	11	0,0107152173	0,000256080588
2	1	0	0	0	8610,63	1,79790831	1,79843652	0,14585244799188026	11	0,0109257828	0,000262306363
2	1	0	0	0	8612,08	1,81240952	1,81291187	0,14809522350939642	11	0,0111395884	0,000268483593
2	1	0	1	0	8613,53	1,82691061	1,82723713	0,15036414722756774	11	0,0113565894	0,000274750957
2	1	0	1	0	8614,98	1,84141052	1,84200251	0,15217590334373021	11	0,0115766898	0,000280308392
2	1	0	0	0	8616,43	1,8559128	1,85656893	0,15459147557460982	11	0,0117999436	0,000287009723
2	1	0	1	0	8617,88	1,87041402	1,87091398	0,15672801939460125	11	0,0120262839	0,000293224643
2	1	0	1	0	8619,33	1,88491511	1,88527918	0,15898761343366163	11	0,0122557459	0,000299736043
2	1	0	0	0	8620,79	1,89941609	1,89989483	0,16106721758842435	11	0,0124882897	0,00030601077
2	1	0	0	0	8622,24	1,91391718	1,91453075	0,16315020287099014	11	0,0127239395	0,000312356075
2	1	0	1	0	8623,69	1,9284184	1,92899609	0,16515007506435088	11	0,0129626524	0,000318573846
2	1	0	1	0	8625,14	1,94291949	1,94348145	0,16727976617403283	11	0,0132042812	0,000325105124
2	1	0	0	0	8626,59	1,95742059	1,95807731	0,16895601331877174	11	0,0134488875	0,000330828945
2	1	0	0	0	8628,04	1,97192192	1,97253323	0,17107287096776995	11	0,0136963669	0,000337446923
2	1	0	1	0	8629,49	1,98642266	1,98703814	0,17309656964304554	11	0,0139467241	0,000343949476
2	1	0	0	0	8630,94	2,00092387	2,00144339	0,17496617239278998	11	0,0141999014	0,000350184884
2	1	0	0	0	8632,39	2,01542497	2,01592875	0,17678719277804067	11	0,0144558735	0,000356390374
2	1	0	1	0	8633,84	2,02992606	2,03063488	0,17892773856874512	11	0,0147146238	0,000363336905
2	1	0	1	0	8635,29	2,04442739	2,04484963	0,18070311817185322	11	0,0149760181	0,000369510701
2	1	0	0	0	8636,74	2,05892825	2,05964589	0,18243820910962883	11	0,0152401375	0,0003757581
2	1	0	0	0	8638,19	2,07342958	2,07408118	0,18441330959709878	11	0,0155068059	0,000382488186
2	1	0	1	0	8639,64	2,08793044	2,08869696	0,18622251091680141	11	0,0157761686	0,000388962391
2	1	0	1	0	8641,09	2,10243034	2,10289145	0,18791471087758538	11	0,0160477962	0,000395164243
2	1	0	0	0	8642,54	2,11693263	2,11761761	0,18959943573766669	11	0,0163221974	0,000401499099
2	1	0	1	0	8643,99	2,13143373	2,1319828	0,19146518851630346	11	0,0165990517	0,000408200489
2	1	0	1	0	8645,44	2,14593482	2,14670897	0,19302589267802704	11	0,0168783721	0,000414370414
2	1	0	0	0	8646,89	2,16043591	2,1609838	0,19488237650754547	11	0,0171602182	0,000421137665
2	1	0	0	0	8648,34	2,17493725	2,17543912	0,19607881169455686	11	0,0174444132	0,000426557526
2	1	0	1	0	8649,79	2,18943834	2,19008493	0,19779658123540346	11	0,0177310389	0,000433191308
2	1	0	1	0	8651,24	2,20393944	2,20424938	0,19945366711666189	11	0,0180198457	0,000439645635
2	1	0	0	0	8652,69	2,21844053	2,21886539	0,20099787903018294	11	0,0183110181	0,000445987243
2	1	0	1	0	8654,14	2,23294234	2,23365259	0,20248095774974522	11	0,0186043028	0,000452272128
2	1	0	1	0	8655,59	2,24744272	2,24827743	0,20396491116844118	11	0,0188997481	0,000458569702
2	1	0	0	0	8657,04	2,26194382	2,26230168	0,20541903725825162	11	0,0191973373	0,000464719837
2	1	0	0	0	8658,49	2,27644491	2,27705765	0,20673299999907635	11	0,0194969028	0,000470742962
2	1	0	1	0	8659,94	2,29094601	2,29139256	0,20831427280791126	11	0,0197986681	0,00047732977
2	1	0	1	0	8661,39	2,3054471	2,30589843	0,20991979648048707	11	0,0201025587	0,000484053715
2	1	0	0	0	8662,84	2,3199482	2,32033372	0,21167795817988554	11	0,0204087701	0,000491163519
2	1	0	0	0	8664,29	2,33444929	2,33493948	0,21320629236288368	11	0,0207172651	0,000497823814
2	1	0	1	0	8665,74	2,34895039	2,34952521	0,21485209123541882	11	0,0210281238	0,00050480041
2	1	0	1	0	8667,19	2,36345053	2,36403036	0,21650431911812995	11	0,0213413052	0,000511822756
2	1	0	0	0	8668,64	2,37795258	2,37844586	0,21815065310026237	11	0,0216568746	0,000518859539
2	1	0	1	0	8670,09	2,39245367	2,3933022	0,21933000829691808	11	0,0219748523	0,000524922973
2	1	0	1	0	8671,54	2,406955	2,40763736	0,22105149249546141	11	0,0222949982	0,000532211852
2	1	0	0	0	8672,99	2,4214561	2,42193222	0,22279401690078294	11	0,0226177461	0,000539592002
2	1	0	0	0	8674,44	2,43595719	2,43649817	0,22451703855767757	11	0,0229427908	0,000547035364
2	1	0	1	0	8675,89	2,45045829	2,45095325	0,2260459112779545	11	0,0232703984	0,000554027967
2	1	0	1	0	8677,34	2,46495938	2,46552896	0,22798952072237898	11	0,0236003809	0,000562114757
2	1	0	0	0	8678,79	2,47946024	2,47988439	0,22961042045305114	11	0,0239329021	0,000569407304
2	1	0	1	0	8680,24	2,49396205	2,49457145	0,2313812222890719	11	0,0242679529	0,000577197003
2	1	0	1	0	8681,69	2,50846267	2,50889516	0,23277899126211744	11	0,0246050544	0,000584018067
2	1	0	0	0	8683,14	2,52296376	2,523561	0,23470792151056253	11	0,0249449518	0,000592299737
2	1	0	0	0	8684,59	2,53746486	2,53798628	0,2367000974869975	11	0,0252873786	0,000600741594
2	1	0	1	0	8686,04	2,55196595	2,55274248	0,23833627665104906	11	0,0256324708	0,000608411152
2	1	0	1	0	8687,49	2,56646705	2,56732798	0,24033903408174685	11	0,025980033	0,000617029145
2	1	0	0	0	8688,94	2,58096814	2,58158302	0,24203640959846506	11	0,0263302308	0,000624837063
2	1	0	0	0	8690,39	2,59546924	2,59598827	0,24396451353095472	11	0,0266830139	0,000633329037
2	1	0	1	0	8691,84	2,60997033	2,61043382	0,2451586455572401	11	0,0270383302	0,000639970414
2	1	0	1	0	8693,29	2,62447119	2,62495852	0,24707982768427517	11	0,0273962356	0,000648574322
2	1	0	0	0	8694,74	2,63897276	2,63950467	0,24886519834399136	11	0,0277566426	0,000656880846
2	1	0	1	0	8696,19	2,65347385	2,65410042	0,25079584882284144	11	0,0281197783	0,000665637373
2	1	0	1	0	8697,64	2,66797495	2,66851568	0,25255390435146774	11	0,0284853652	0,000673944072
2	1	0	0	0	8699,09	2,68247604	2,68320179	0,25422101560980038	11	0,0288535301	0,000682126265
2	1	0	0	0	8700,54	2,69697714	2,69772744	0,2558380643992375	11	0,0292240568	0,00069018139
2	1	0	1	0	8701,99	2,71147823	2,71234298	0,2576799893286079	11	0,0295971092	0,000698916498
2	1	0	1	0	8703,44	2,72597909	2,72666812	0,25911792879924179	11	0,0299726464	0,000706528604
2	1	0	0	0	8704,89	2,74048042	2,74114347	0,26148545369505882	11	0,0303510856	0,000716769136
2	1	0	1	0	8706,34	2,75498223	2,75563073	0,26399583698378227	11	0,0307328068	0,000727475039
2	1	0	1	0	8707,79	2,76948261	2,76993394	0,2667340913321825	11	0,0311180465	0,000738835835
2	1	0	0	0	8709,24	2,78398371	2,78449965	0,26951185986399651	11	0,0315073244	0,000750455656
2	1	0	0	0	8710,69	2,7984848	2,79915547	0,27263604671073427	11	0,03190092	0,000763150689
2	1	0	1	0	8712,14	2,8129859	2,81375122	0,27601852811252026	11	0,0322991125	0,000776647474
2	1	0	1	0	8713,59	2,82748699	2,82803607	0,27898683251502554	11	0,0327022001	0,00078898482
2	1	0	0	0	8715,04	2,84198809	2,84251165	0,28286970717211446	11	0,033110451	0,00080406043
2	1	0	0	0	8716,49	2,85648942	2,85721755	0,2865224191918967	11	0,0335240737	0,000818656874
2	1	0	1	0	8717,94	2,87099051	2,87151241	0,29038497720224141	11	0,0339431055	0,000833844068
2	1	0	1	0	8719,39	2,88549066	2,88616824	0,29425680860634086	11	0,0343677476	0,000849274627
2	1	0	0	0	8720,84	2,8999927	2,90071392	0,29844493620718547	11	0,0347981937	0,00086570339
2	1	0	1	0	8722,29	2,9144938	2,91505909	0,30251506537509478	11	0,0352346264	0,000881849264
2	1	0	1	0	8723,74	2,92899489	2,92953467	0,30723077656390886	11	0,0356774256	0,000900043233
2	1	0	0	0	8725,19	2,94349599	2,9441402	0,31148800944599085	11	0,0361269489	0,000917064375
2	1	0	0	0	8726,64	2,95799708	2,95881629	0,31674935684229056	11	0,0365835764	0,000937203178
2	1	0	1	0	8728,09	2,97249818	2,97312117	0,32213828961054426	11	0,0370476805	0,000957756187
2	1	0	1	0	8729,54	2,98699927	2,98757648	0,32772879876817293	11	0,0375196226	0,000979114906
2	1	0	0	0	8730,99	3,00150037	3,00193167	0,33393691914776902	11	0,0379998609	0,00100245583
2	1	0	0	0	8732,44	3,01600122	3,01658869	0,33981690840899059	11	0,0384887382	0,0010250879
2	1	0	1	0	8733,89	3,03050256	3,03107309	0,34619787242263642	11	0,0389864631	0,00104935106
2	1	0	0	0	8735,34	3,04500365	3,04576898	0,35214577987790016	11	0,0394934081	0,00107255473
2	1	0	0	0	8736,79	3,05950475	3,06017423	0,35912220925092608	11	0,0400098935	0,00109897659
2	1	0	1	0	8738,24	3,07400584	3,07467985	0,36613521290322118	11	0,0405364521	0,00112574862
2	1	0	1	0	8739,69	3,08850718	3,08923531	0,37351944250985978	11	0,0410735123	0,00115388946
2	1	0	0	0	8741,14	3,10300827	3,1034801	0,38122293570389344	11	0,0416213796	0,00118311774
2	1	0	0	0	8742,59	3,11750937	3,11809587	0,38906634187636224	11	0,0421805754	0,00121314614
2	1	0	1	0	8744,04	3,13201022	3,13263154	0,3975853550558295	11	0,0427516773	0,00124548841
2	1	0	0	0	8745,49	3,14651155	3,14717555	0,40617074269831923	11	0,0433351472	0,00127829064
2	1	0	0	0	8746,94	3,16101217	3,16167235	0,4149750078407415	11	0,043931324	0,001312015
2	1	0	1	0	8748,39	3,17551327	3,17612767	0,42384765918056109	11	0,0445404872	0,0013461943
2	1	0	1	0	8749,84	3,19001436	3,19077373	0,43329297487313312	11	0,0451628789	0,00138253986
2	1	0	0	0	8751,30	3,20451593	3,20525908	0,44286250105748512	11	0,0457989834	0,00141948904
2	1	0	0	0	8752,75	3,21901679	3,21979475	0,4529110958489273	11	0,0464492254	0,00145828072
2	1	0	1	0	8754,20	3,23351789	3,2342	0,46332350590576723	11	0,0471139587	0,00149848091
2	1	0	1	0	8755,65	3,24801898	3,2484045	0,47408977833886822	11	0,0477938429	0,00154003536
2	1	0	0	0	8757,10	3,26252007	3,26299024	0,48449602893864154	11	0,0484895483	0,00158090587
2	1	0	0	0	8758,55	3,27701998	3,27758527	0,49636574099083578	11	0,0492014773	0,00162688107
2	1	0	1	0	8760,00	3,29152226	3,29202151	0,5082081123255193	11	0,0499305353	0,00167303206
2	1	0	0	0	8761,45	3,3060236	3,30665731	0,52078680057699424	11	0,0506772585	0,00172206352
2	1	0	0	0	8762,90	3,32052469	3,32114267	0,5339983291924	11	0,0514424779	0,00177348463
2	1	0	1	0	8764,35	3,33502579	3,33576822	0,54777358581001414	11	0,0522273481	0,00182724569
2	1	0	1	0	8765,80	3,34952688	3,35014367	0,56201947961623411	11	0,0530325286	0,001882846
2	1	0	0	0	8767,25	3,36402798	3,36477923	0,57706535033260902	11	0,0538591258	0,00194169756
2	1	0	0	0	8768,70	3,37852907	3,37922478	0,59215559437870976	11	0,0547076501	0,00200102688
2	1	0	1	0	8770,15	3,39303017	3,39370012	0,60845979039246605	11	0,0555793829	0,00206493004
2	1	0	0	0	8771,60	3,40753198	3,40832686	0,62517727052699085	11	0,0564749688	0,00213080854
2	1	0	0	0	8773,05	3,42203212	3,42274117	0,64272905156637261	11	0,0573952645	0,00219989521
2	1	0	1	0	8774,50	3,43653369	3,43716645	0,6603898402924329	11	0,0583409704	0,0022698699
2	1	0	1	0	8775,95	3,45103478	3,45187259	0,67823846296717875	11	0,0593124665	0,00234119268
2	1	0	0	0	8777,40	3,46553564	3,46624756	0,69665105361491354	11	0,0603100061	0,00241476507
2	1	0	0	0	8778,85	3,48003674	3,48056293	0,71468258028228992	11	0,0613339804	0,00248749764
2	1	0	1	0	8780,30	3,49453783	3,49507833	0,73385219338039501	11	0,0623851493	0,00256487099
2	1	0	1	0	8781,75	3,50903893	3,50979447	0,75335728951419277	11	0,0634641126	0,00264412933
2	1	0	0	0	8783,20	3,52354002	3,52440023	0,77321898999313408	11	0,0645719543	0,00272513321
2	1	0	0	0	8784,65	3,53803992	3,53874373	0,79376184182484442	11	0,0657087713	0,00280891964
2	1	0	1	0	8786,10	3,55254245	3,55337095	0,81514373328536755	11	0,0668761656	0,00289650797
2	1	0	0	0	8787,55	3,56704354	3,56764603	0,83625577079752845	11	0,0680740252	0,00298346463
2	1	0	0	0	8789,00	3,58154464	3,58216166	0,85791074112057779	11	0,0693028569	0,00307317497
2	1	0	1	0	8790,45	3,59604573	3,59660673	0,87856143899261901	11	0,0705628097	0,00315983989
2	1	0	1	0	8791,90	3,61054683	3,61131263	0,89979839449127398	11	0,0718531832	0,00324945338
2	1	0	0	0	8793,35	3,62504792	3,62566805	0,91990570413569728	11	0,0731736049	0,00333527266
2	1	0	0	0	8794,80	3,63954902	3,64020348	0,93963480213035994	11	0,0745228454	0,0034204619
2	1	0	1	0	8796,25	3,65404987	3,65483928	0,95853792782872742	11	0,0759002119	0,00350330211
2	1	0	1	0	8797,70	3,66855192	3,66918516	0,97647804631547302	11	0,0773040205	0,00358287874
2	1	0	0	0	8799,15	3,68305254	3,68374014	0,99457088112830758	11	0,0787339136	0,00366374059
2	1	0	1	0	8800,64	3,69795322	3,69889688	1,0126012722030299	11	0,0802306831	0,00374550768
2	1	0	1	0	8802,09	3,7124548	3,71322203	1,0295433243736589	11	0,0817121193	0,00382292294
2	1	0	0	0	8803,54	3,72695565	3,72774768	1,046071846038103	11	0,0832179412	0,00389949186
2	1	0	0	0	8804,99	3,74145675	3,74215317	1,0625168938810603	11	0,0847473815	0,00397610106
2	1	0	1	0	8806,44	3,75595784	3,75673866	1,0788638265803456	11	0,0863009617	0,00405300967
2	1	0	1	0	8807,89	3,77045894	3,77133441	1,0958973597735131	11	0,087878488	0,00413299538
2	1	0	0	0	8809,34	3,78496003	3,78568935	1,1121713882312179	11	0,0894803777	0,0042103352
2	1	0	0	0	8810,79	3,79945993	3,80029511	1,1291429048566037	11	0,0911060423	0,00429107621
2	1	0	1	0	8812,24	3,81396246	3,81464005	1,1447963301713245	11	0,0927555263	0,00436698599
2	1	0	0	0	8813,69	3,82846355	3,82907557	1,1614440949633736	11	0,0944287851	0,00444725715
2	1	0	0	0	8815,14	3,84296465	3,84366131	1,178606074924268	11	0,096125938	0,00453016255
2	1	0	1	0	8816,59	3,85746574	3,85817695	1,1953307616834845	11	0,0978477299	0,00461179763
2	1	0	1	0	8818,04	3,87196684	3,87287283	1,2123745490486418	11	0,0995937884	0,00469537266
2	1	0	0	0	8819,49	3,88646793	3,88721824	1,229496207088232	11	0,101364829	0,00477932021
2	1	0	0	0	8820,94	3,90096903	3,9016633	1,2471569714446851	11	0,103160799	0,00486598676
2	1	0	1	0	8822,39	3,91546988	3,91623878	1,2653887278089915	11	0,104982965	0,00495556463
2	1	0	1	0	8823,84	3,92997122	3,93047428	1,2834526257198978	11	0,106831595	0,00504457764
2	1	0	0	0	8825,29	3,94447255	3,94528985	1,3030973371739165	11	0,108707622	0,00514109666
2	1	0	1	0	8826,74	3,95897365	3,95987582	1,3231849903240765	11	0,110612772	0,00523964828
2	1	0	1	0	8828,19	3,9734745	3,97427106	1,3445509811863277	11	0,112547338	0,00534360996
2	1	0	0	0	8829,64	3,9879756	3,98885632	1,3666118436182515	11	0,114513829	0,00545121823
2	1	0	0	0	8831,09	4,00247669	4,00320148	1,3892039464165755	11	0,116512246	0,0055612633
2	1	0	1	0	8832,54	4,01697779	4,01775694	1,4135325892517941	11	0,118544638	0,00567923021
2	1	0	1	0	8833,99	4,0314784	4,03225136	1,4362784495312661	11	0,120611228	0,00579143595
2	1	0	0	0	8835,44	4,04597998	4,04683828	1,4608424010997005	11	0,122712724	0,00591179309
2	1	0	0	0	8836,89	4,06048012	4,06142282	1,4853790545707533	11	0,124849394	0,00603275234
2	1	0	1	0	8838,34	4,07498217	4,07583952	1,5098497048020362	11	0,127022251	0,0061539053
2	1	0	0	0	8839,79	4,08948326	4,09025431	1,5356980493913088	11	0,129231244	0,00628139544
2	1	0	0	0	8841,24	4,10398436	4,10480022	1,5613103785241654	11	0,131476685	0,00640886696
2	1	0	1	0	8842,69	4,11848545	4,11928606	1,5879089379062208	11	0,133760184	0,00654105097
2	1	0	1	0	8844,14	4,13298655	4,13366127	1,6142273688067981	11	0,136082396	0,0066726692
2	1	0	0	0	8845,59	4,14748812	4,14840698	1,6438936094442998	11	0,138445467	0,0068195397
2	1	0	0	0	8847,04	4,16198874	4,1628418	1,6753831210653802	11	0,140852198	0,00697435485
2	1	0	1	0	8848,49	4,17649031	4,17743778	1,7095483858138253	11	0,143306732	0,00714153191
2	1	0	0	0	8849,94	4,1909914	4,19197559	1,7472617068070378	11	0,14581427	0,00732447859
2	0	0	0	1	8851,32	4,19519138	4,19595337	1,6655823898812125	11	0,148221925	0,00698870607
2	0	0	1	1	8852,77	4,18069029	4,18153811	1,4345331067840278	11	0,150461152	0,00599855464
2	0	0	1	1	8854,22	4,16618919	4,16713238	1,245768561959263	11	0,152399629	0,00519128237
2	0	0	0	1	8855,67	4,1516881	4,15254688	1,0842075723533853	11	0,154085383	0,00450222287
2	0	0	1	1	8857,12	4,137187	4,13808298	0,94407364228739251	11	0,15555352	0,00390665513
2	0	0	1	1	8858,57	4,12268591	4,1235261	0,82279113711168256	11	0,156832129	0,00339280069
2	0	0	0	1	8860,02	4,10818481	4,10905027	0,71649683670451123	11	0,157945797	0,0029441216
2	0	0	0	1	8861,47	4,09368372	4,09453487	0,62423622064913254	11	0,158915207	0,00255595706
2	0	0	1	1	8862,92	4,07918262	4,08007956	0,54230343597009734	11	0,159758851	0,00221264106
2	0	0	1	1	8864,41	4,06428146	4,06511307	0,46890990932782464	11	0,160510138	0,00190617179
2	0	0	0	1	8865,86	4,04978037	4,05058765	0,40675862661252358	11	0,161143005	0,0016476115
2	0	0	1	1	8867,31	4,03527784	4,03634167	0,35216166576440864	11	0,161691308	0,00142144482
2	0	0	1	1	8868,76	4,02077818	4,02155638	0,30395781318657101	11	0,162165269	0,00122238346
2	0	0	0	1	8870,21	4,00627661	4,00692844	0,26170959881425926	11	0,162574053	0,00104865164
2	0	0	0	1	8871,66	3,99177575	3,99235559	0,2244430444358536	11	0,162925169	0,000896056416
2	0	0	1	1	8873,11	3,97727489	3,97783995	0,19144809579787104	11	0,163225591	0,000761549862
2	0	0	1	1	8874,56	3,9627738	3,96331382	0,1619327786223337	11	0,163480714	0,000641790393
2	0	0	0	1	8876,02	3,94827271	3,94887877	0,13570973734992187	11	0,163695648	0,000535901287
2	0	0	0	1	8877,47	3,93377161	3,93452382	0,11247332797696163	11	0,163874567	0,000442528981
2	0	0	1	1	8878,92	3,91927052	3,91984749	0,091292187959576448	11	0,164021522	0,000357851444
2	0	0	1	1	8880,37	3,90477014	3,90554357	0,072608447759310963	11	0,164139599	0,000283575442
2	0	0	0	1	8881,82	3,89026833	3,89100718	0,055529213258220358	11	0,164231777	0,000216064567
2	0	0	1	1	8883,31	3,87536716	3,87622118	0,040185687025465766	11	0,1643022	0,000155768605
2	0	0	1	1	8884,76	3,86086583	3,86150503	0,026171108096605222	11	0,164349243	0,000101059864
2	0	0	0	1	8886,21	3,84636474	3,84707952	0,013537881357478853	11	0,164377049	5,20813046E-005
2	0	0	0	1	8887,70	3,83146358	3,83211279	0,0012091969034978936	11	0,164387405	4,6337791E-006
2	0	0	1	1	8889,15	3,81696248	3,81770802	-0,0095841755949853389	11	0,16438131	3,6589583E-005
2	0	0	1	1	8890,64	3,80206132	3,80272102	-0,019147401539764131	11	0,164359614	7,2812225E-005
2	0	0	0	1	8892,09	3,78756022	3,78841639	-0,028329150140052771	11	0,164324671	0,000107322616
2	0	0	0	1	8893,54	3,77305913	3,77365041	-0,036433063124029299	11	0,164277017	0,000137485637
2	0	0	1	1	8894,99	3,75855803	3,75921464	-0,04450665876114135	11	0,164217457	0,000167310078
2	0	0	0	1	8896,44	3,74405718	3,74484944	-0,051936147094238547	11	0,164146706	0,000194493055
2	0	0	0	1	8897,89	3,72955608	3,73016357	-0,059020731520528589	11	0,164065421	0,000220156988
2	0	0	1	1	8899,34	3,71505451	3,71573806	-0,065839775003647962	11	0,163974524	0,000244643365
2	0	0	1	1	8900,79	3,70055342	3,70138311	-0,072222019351708467	11	0,163873941	0,00026732136
2	0	0	0	1	8902,24	3,68605256	3,68674755	-0,078537056067337741	11	0,163764268	0,000289546297
2	0	0	0	1	8903,69	3,67155147	3,67227197	-0,083956070748778816	11	0,163645908	0,000308309536
2	0	0	1	1	8905,14	3,65705037	3,65766621	-0,089869268199739226	11	0,163519174	0,000328711787
2	0	0	0	1	8906,59	3,64254808	3,64313817	-0,095273455057269146	11	0,163384393	0,000347094348
2	0	0	0	1	8908,08	3,62764812	3,62823415	-0,10059466826108621	11	0,163237751	0,00036498101
2	0	0	1	1	8909,53	3,61314702	3,61388922	-0,10572368104476526	11	0,163087532	0,00038207366
2	0	0	1	1	8910,98	3,59864593	3,5992434	-0,11079634147851459	11	0,162929818	0,000398783013
2	0	0	0	1	8912,43	3,58414483	3,58481812	-0,11579663116329674	11	0,162764847	0,000415109855
2	0	0	0	1	8913,88	3,5696435	3,57037258	-0,1205988559716693	11	0,162592798	0,000430582848
2	0	0	1	1	8915,33	3,5551424	3,55591679	-0,12487996163933258	11	0,162413955	0,000444062753
2	0	0	1	1	8916,78	3,54064131	3,54128122	-0,12948305706959218	11	0,162228629	0,000458535913
2	0	0	0	1	8918,23	3,52614021	3,52702641	-0,13385663472581699	11	0,16203697	0,000472115877
2	0	0	0	1	8919,68	3,51163936	3,51242113	-0,13799100052486413	11	0,161839396	0,000484682503
2	0	0	1	1	8921,13	3,49713802	3,49770474	-0,14187750608349869	11	0,161635995	0,00049624563
2	0	0	0	1	8922,58	3,48263717	3,48336983	-0,14568237521840909	11	0,161427051	0,000507465564
2	0	0	0	1	8924,03	3,46813607	3,46871376	-0,14917038823477923	11	0,161212936	0,000517429376
2	0	0	1	1	8925,48	3,45363498	3,45423841	-0,15206204901915043	11	0,160993889	0,000525258598
2	0	0	1	1	8926,93	3,43913341	3,43970275	-0,15536441250393795	11	0,160770223	0,000534407387
2	0	0	0	1	8928,38	3,42463255	3,42515731	-0,15836506026486586	11	0,160541952	0,000542425259
2	0	0	0	1	8929,83	3,41013145	3,41055155	-0,161389380693436	11	0,160309494	0,000550426776
2	0	0	1	1	8931,28	3,39563036	3,39620662	-0,16406983020715427	11	0,160072818	0,000557215069
2	0	0	0	1	8932,73	3,38112807	3,38176966	-0,1667582139237913	11	0,159832329	0,00056393788
2	0	0	0	1	8934,18	3,36662817	3,36740613	-0,16938507452141526	11	0,159587964	0,000570388336
2	0	0	1	1	8935,63	3,35212708	3,35255957	-0,17188830689216666	11	0,159339875	0,000576265797
2	0	0	1	1	8937,08	3,33762598	3,33829474	-0,17411759689760698	11	0,159088239	0,000581255881
2	0	0	0	1	8938,53	3,32312465	3,3238492	-0,17663462021543408	11	0,158832923	0,000587106857
2	0	0	0	1	8939,98	3,30862355	3,30920315	-0,17921453613477478	11	0,158574134	0,00059305731
2	0	0	1	1	8941,43	3,29412246	3,29473829	-0,18149514302300941	11	0,158311874	0,000597979
2	0	0	1	1	8942,88	3,27962136	3,28022265	-0,18405674588090416	11	0,158046335	0,000603747088
2	0	0	0	1	8944,33	3,26512027	3,265697	-0,1862088867540783	11	0,157777429	0,000608101778
2	0	0	1	1	8945,78	3,25061941	3,25120139	-0,1886133727247976	11	0,157505319	0,000613220036
2	0	0	1	1	8947,23	3,23611832	3,23681641	-0,1904169889166951	11	0,157229945	0,000616344856
2	0	0	0	1	8948,68	3,22161722	3,22238111	-0,1928402919632697	11	0,156951234	0,000621404906
2	0	0	0	1	8950,13	3,20711565	3,20782542	-0,19514539465308144	11	0,156669229	0,000625992368
2	0	0	1	1	8951,58	3,19261456	3,1932497	-0,19761599988366195	11	0,156383753	0,000631037226
2	0	0	1	1	8953,03	3,1781137	3,17880416	-0,20001725511004586	11	0,156094953	0,000635815668
2	0	0	0	1	8954,48	3,1636126	3,16441894	-0,20243132820663411	11	0,155802608	0,00064057752
2	0	0	0	1	8955,93	3,14911151	3,14959288	-0,2049106928364688	11	0,155506745	0,00064538524
2	0	0	1	1	8957,38	3,13461041	3,135288	-0,20731080059583018	11	0,155207366	0,000649979047
2	0	0	0	1	8958,83	3,12010884	3,12094283	-0,20954324712177197	11	0,15490438	0,0006539725
2	0	0	0	1	8960,28	3,10560846	3,10618687	-0,21217969572171613	11	0,154597729	0,000659069803
2	0	0	1	1	8961,73	3,09110737	3,09154105	-0,21484037589592208	11	0,1542871	0,000664187828
2	0	0	1	1	8963,18	3,07660604	3,07703543	-0,21777398837730301	11	0,153972641	0,000670098292
2	0	0	0	1	8964,63	3,06210494	3,06263041	-0,22060112383527098	11	0,153654099	0,000675619696
2	0	0	0	1	8966,08	3,04760385	3,04818487	-0,22368467956160477	11	0,153331563	0,000681832258
2	0	0	1	1	8967,53	3,03310275	3,03357911	-0,22646397515200099	11	0,153004915	0,000686996384
2	0	0	1	1	8968,98	3,01860166	3,01895332	-0,22905538471726138	11	0,152674049	0,000691507536
2	0	0	0	1	8970,43	3,00410056	3,0047586	-0,23189226825100739	11	0,152339086	0,000696780276
2	0	0	1	1	8971,88	2,9895997	2,99016285	-0,23483415683654618	11	0,151999906	0,000702192367
2	0	0	1	1	8973,33	2,97509837	2,97564745	-0,23787543457001446	11	0,151656657	0,000707833446
2	0	0	0	1	8974,78	2,96059728	2,96131206	-0,24038862724167619	11	0,151309177	0,000711865723
2	0	0	0	1	8976,23	2,94609618	2,94643593	-0,24314777987698656	11	0,150957957	0,000716419367
2	0	0	1	1	8977,68	2,93159509	2,9320004	-0,24574161026005958	11	0,150602803	0,000720514508
2	0	0	1	1	8979,13	2,91709399	2,91749501	-0,24833914086533059	11	0,150243983	0,000724528218
2	0	0	0	1	8980,58	2,9025929	2,90331054	-0,25019709230400621	11	0,14988187	0,000726399827
2	0	0	0	1	8982,03	2,8880918	2,88873482	-0,25274502586883728	11	0,14951627	0,000730113359
2	0	0	1	1	8983,48	2,87359071	2,87443972	-0,25483853664870093	11	0,149147347	0,000732518034
2	0	0	1	1	8984,93	2,85908985	2,85993338	-0,25695034817351126	11	0,148775339	0,000734860892
2	0	0	0	1	8986,38	2,84458852	2,84518814	-0,25889008973414797	11	0,148400664	0,000736590999
2	0	0	1	1	8987,83	2,83008718	2,83051205	-0,26058876793831632	11	0,148023427	0,000737599621
2	0	0	1	1	8989,28	2,81558609	2,81629729	-0,26203596421206998	11	0,147644073	0,000737971161
2	0	0	0	1	8990,73	2,801085	2,80184221	-0,26271897934687693	11	0,147262901	0,000736097107
2	0	0	0	1	8992,18	2,7865839	2,78722644	-0,26401310452880944	11	0,146880254	0,000735864276
2	0	0	1	1	8993,63	2,77208281	2,77270079	-0,26480525413838563	11	0,146496251	0,00073422573
2	0	0	1	1	8995,08	2,75758171	2,75801468	-0,2653117460819585	11	0,146111399	0,000731733686
2	0	0	0	1	8996,53	2,74308062	2,74372959	-0,2656247018991665	11	0,145725921	0,000728802348
2	0	0	1	1	8997,98	2,72857857	2,72928333	-0,26576860799998502	11	0,145340025	0,000725357851
2	0	0	1	1	8999,43	2,71407843	2,71452832	-0,26596438636382435	11	0,144954056	0,000721967837
2	0	0	0	1	9000,88	2,69957733	2,70002294	-0,26586248399689882	11	0,144568011	0,000717834802
2	0	0	0	1	9002,33	2,68507624	2,68589854	-0,26547994596573245	11	0,14418222	0,000713052228
2	0	0	1	1	9003,78	2,67057514	2,67105174	-0,26540580027115789	11	0,14379631	0,000708912616
2	0	0	1	1	9005,23	2,65607405	2,65676713	-0,2655122543995585	11	0,143410578	0,000705404207
2	0	0	0	1	9006,69	2,64157295	2,64210105	-0,26548528671264682	11	0,143024817	0,000701438927
2	0	0	0	1	9008,14	2,62707186	2,62763572	-0,26534241212842381	11	0,142639205	0,000697223179
2	0	0	1	1	9009,59	2,61257076	2,61299992	-0,26553614996373654	11	0,142253622	0,000693845912
2	0	0	1	1	9011,04	2,59807038	2,59849524	-0,26551124634545187	11	0,141868144	0,0006899297
2	0	0	0	1	9012,49	2,58356833	2,58401895	-0,26532548440930826	11	0,141482592	0,000685606094
2	0	0	1	1	9013,94	2,56906724	2,56959367	-0,26538684180316886	11	0,141097143	0,000681936333
2	0	0	1	1	9015,39	2,55456614	2,55522847	-0,26568166057889718	11	0,140711516	0,000678877346
2	0	0	0	1	9016,84	2,54006505	2,54070282	-0,26581829553470038	11	0,14032571	0,000675365271
2	0	0	0	1	9018,29	2,52556396	2,52603698	-0,26592621455589958	11	0,139939621	0,000671739457
2	0	0	1	1	9019,74	2,51106286	2,5117321	-0,26624960196204528	11	0,139553279	0,0006687477
2	0	0	1	1	9021,19	2,49656177	2,49742699	-0,26618886521707053	11	0,139166594	0,000664787251
2	0	0	0	1	9022,64	2,48206067	2,48259068	-0,26677272142842458	11	0,138779595	0,000662287464
2	0	0	0	1	9024,09	2,4675591	2,46819448	-0,26654868926873654	11	0,13839215	0,000657894008
2	0	0	1	1	9025,54	2,45305848	2,4536097	-0,26719571075712611	11	0,138004184	0,000655593991
2	0	0	0	1	9026,99	2,43855739	2,43912458	-0,2673748751015712	11	0,137615874	0,000652160612
2	0	0	0	1	9028,44	2,42405629	2,42443848	-0,26785955725548227	11	0,137227029	0,000649409019
2	0	0	1	1	9029,89	2,4095552	2,41009331	-0,26824712256590467	11	0,136837646	0,000646500615
2	0	0	1	1	9031,34	2,3950541	2,39573812	-0,26850894357388211	11	0,136447832	0,000643277133
2	0	0	0	1	9032,79	2,38055301	2,38125277	-0,26892354455776422	11	0,136057541	0,000640374958
2	0	0	0	1	9034,24	2,36605191	2,36654663	-0,26902538700960566	11	0,135666907	0,000636661134
2	0	0	1	1	9035,69	2,35155082	2,35229206	-0,2693429196563857	11	0,1352759	0,000633573218
2	0	0	1	1	9037,14	2,33704996	2,3377068	-0,26956713650996544	11	0,134884626	0,000630168943
2	0	0	0	1	9038,59	2,32254839	2,32315063	-0,26982534443959594	11	0,134493053	0,000626844936
2	0	0	1	1	9040,04	2,30804729	2,30855465	-0,2699972747359425	11	0,134101152	0,000623303466
2	0	0	1	1	9041,49	2,2935462	2,29412961	-0,27004886573801555	11	0,133709222	0,000619527127
2	0	0	0	1	9042,94	2,2790451	2,27957392	-0,27015776311357875	11	0,133317053	0,000615844619
2	0	0	0	1	9044,39	2,26454377	2,26490831	-0,27022422143879066	11	0,132924765	0,000612033065
2	0	0	1	1	9045,84	2,25004292	2,2506032	-0,26974663619572947	11	0,132532507	0,000607092632
2	0	0	1	1	9047,29	2,23554182	2,23612785	-0,26981919437336454	11	0,132140338	0,000603350229
2	0	0	0	1	9048,74	2,22104073	2,22181249	-0,26978859150161338	11	0,131748244	0,00059941964
2	0	0	0	1	9050,19	2,20653963	2,20722675	-0,26964971414038406	11	0,131356493	0,000595178048
2	0	0	1	1	9051,64	2,19203854	2,19268107	-0,26915469835512272	11	0,130965024	0,000590170384
2	0	0	0	1	9053,09	2,17753744	2,17813587	-0,26901313608201894	11	0,130573988	0,000585947186
2	0	0	0	1	9054,54	2,16303635	2,1635499	-0,2685909925494343	11	0,130183563	0,000581110013
2	0	0	1	1	9055,99	2,14853525	2,14911461	-0,26814496369722029	11	0,129793644	0,000576274237
2	0	0	1	1	9057,44	2,13403416	2,13455892	-0,26754808472469466	11	0,12940459	0,000571097131
2	0	0	0	1	9058,89	2,11953306	2,12000346	-0,26712930800082768	11	0,129016206	0,000566315081
2	0	0	0	1	9060,34	2,10503197	2,10543776	-0,26673320083258122	11	0,128628716	0,000561590132
2	0	0	1	1	9061,79	2,09053063	2,09108281	-0,26553183669845248	11	0,128242031	0,000555249047
2	0	0	0	1	9063,24	2,07602906	2,07631612	-0,26526311587709152	11	0,127856642	0,000550770084
2	0	0	0	1	9064,69	2,06152868	2,06220222	-0,26456989689419696	11	0,127472088	0,000545596646
2	0	0	1	1	9066,14	2,04702735	2,04745603	-0,26394641934893981	11	0,127088457	0,000540418667
2	0	0	1	1	9067,59	2,03252625	2,03315091	-0,26291078911162912	11	0,126705855	0,000534537307
2	0	0	0	1	9069,04	2,01802516	2,01869583	-0,26240839483216493	11	0,126324117	0,000529722718
2	0	0	0	1	9070,49	2,00352407	2,00412989	-0,26180517401856694	11	0,125943303	0,000524691597
2	0	0	1	1	9071,94	1,98902297	1,98937392	-0,26125010289251805	11	0,125563294	0,000519724155
2	0	0	1	1	9073,39	1,97452188	1,97487843	-0,26067933952435808	11	0,125184238	0,000514810032
2	0	0	0	1	9074,84	1,96002078	1,96067369	-0,26015751591573187	11	0,124805853	0,000510083977
2	0	0	0	1	9076,29	1,94552016	1,94604766	-0,25968108047326278	11	0,124428287	0,000505351753
2	0	0	1	1	9077,74	1,93101847	1,93130183	-0,25915371789597021	11	0,124051303	0,000500504044
2	0	0	0	1	9079,19	1,9165175	1,91708708	-0,25858228467404931	11	0,123675033	0,000495724729
2	0	0	0	1	9080,64	1,9020164	1,90299237	-0,25840264512225965	11	0,123299405	0,000491738261
2	0	0	1	1	9082,09	1,88751519	1,88782525	-0,25811322654287229	11	0,122924335	0,000487272657
2	0	0	1	1	9083,54	1,87301409	1,87335992	-0,2578225815668711	11	0,122549914	0,000482994481
2	0	0	0	1	9084,99	1,858513	1,85890448	-0,25742726392733674	11	0,122175857	0,000478532689
2	0	0	0	1	9086,44	1,8440119	1,84449935	-0,25707756595996579	11	0,121802397	0,000474179396
2	0	0	1	1	9087,89	1,82951093	1,83000386	-0,25680236076004803	11	0,121429406	0,0004699493
2	0	0	1	1	9089,34	1,81500983	1,81570888	-0,25596210065608195	11	0,121057019	0,000464752666
2	0	0	0	1	9090,79	1,8005085	1,80098283	-0,25575449201278387	11	0,120685145	0,000460609444
2	0	0	1	1	9092,24	1,78600752	1,78632689	-0,25543609859111392	11	0,120313764	0,000456292357
2	0	0	1	1	9093,69	1,77150619	1,77211213	-0,25511228192287306	11	0,119943038	0,000452087581
2	0	0	0	1	9095,14	1,75700521	1,75743639	-0,25459194129022477	11	0,119572744	0,000447429135
2	0	0	0	1	9096,59	1,74250412	1,74299097	-0,25436664248506301	11	0,119203083	0,00044335876
2	0	0	1	1	9098,04	1,72800303	1,72847545	-0,25392173572132835	11	0,118833937	0,000438897492
2	0	0	1	1	9099,49	1,71350193	1,71426058	-0,25371556845493658	11	0,118465334	0,000434934598
2	0	0	0	1	9100,94	1,69900095	1,69991565	-0,25307950866408691	11	0,118097149	0,000430213811
2	0	0	0	1	9102,39	1,68449962	1,68488872	-0,25305047018143069	11	0,117729336	0,00042636189
2	0	0	1	1	9103,84	1,66999865	1,67046356	-0,25308830469536314	11	0,11736168	0,000422774785
2	0	0	0	1	9105,29	1,65549755	1,65607834	-0,25313792579496842	11	0,116994053	0,000419216231
2	0	0	0	1	9106,74	1,64099634	1,64128196	-0,25334212509915277	11	0,116626494	0,000415805873
2	0	0	1	1	9108,19	1,62649524	1,62666619	-0,25337032182142182	11	0,116258658	0,000412148947
2	0	0	1	1	9109,64	1,61199415	1,61256194	-0,2538844633381816	11	0,115890451	0,000409404427
2	0	0	0	1	9111,09	1,59749305	1,59809637	-0,25381884576442416	11	0,115521677	0,000405626983
2	0	0	0	1	9112,54	1,58299208	1,58369112	-0,25462178296099226	11	0,115152262	0,000403242244
2	0	0	1	1	9113,99	1,56849098	1,56903517	-0,25517343450337738	11	0,114781938	0,000400376099
2	0	0	1	1	9115,44	1,55398977	1,55442953	-0,25612738619868957	11	0,114410587	0,000398131961
2	0	0	0	1	9116,89	1,53948867	1,54008448	-0,25699553568847565	11	0,114037976	0,000395794836
2	0	0	1	1	9118,34	1,52498758	1,52558899	-0,25790810305625245	11	0,113663979	0,000393461756
2	0	0	1	1	9119,79	1,51048636	1,5110234	-0,25893586687743709	11	0,113288626	0,00039125816
2	0	0	0	1	9121,24	1,49598539	1,49651778	-0,26013196500328829	11	0,112911582	0,000389292109
2	0	0	0	1	9122,69	1,48148417	1,48198235	-0,2610581451250864	11	0,112532943	0,000386883563
2	0	0	1	1	9124,14	1,46698308	1,46745682	-0,26244824744450579	11	0,112152457	0,000385131483
2	0	0	1	1	9125,59	1,4524821	1,45293128	-0,26398448979792554	11	0,111770086	0,00038355132
2	0	0	0	1	9127,04	1,43798101	1,43838561	-0,2654779810303216	11	0,111385651	0,000381859718
2	0	0	0	1	9128,49	1,4234798	1,42400038	-0,26706055970862509	11	0,11099913	0,000380294339
2	0	0	1	1	9129,94	1,40897882	1,40971541	-0,2684310789530473	11	0,110610448	0,000378411438
2	0	0	0	1	9131,39	1,39447749	1,3950094	-0,26994099832760778	11	0,110219687	0,000376570242
2	0	0	0	1	9132,84	1,37997651	1,38046384	-0,27112812090975491	11	0,109826729	0,000374282565
2	0	0	1	1	9134,29	1,36547542	1,36580801	-0,27274800223919283	11	0,109431602	0,000372521405
2	0	0	1	1	9135,74	1,3509742	1,35151303	-0,27427047071978538	11	0,109034359	0,000370680122
2	0	0	0	1	9137,20	1,33647323	1,33687723	-0,27570868562906979	11	0,108635001	0,000368588662
2	0	0	0	1	9138,65	1,32197213	1,32241178	-0,27695789498587421	11	0,108233631	0,000366252381
2	0	0	1	1	9140,10	1,30747092	1,30793643	-0,27839279493006486	11	0,107830279	0,000364120089
2	0	0	1	1	9141,55	1,29296982	1,29338086	-0,27961341477930634	11	0,107425109	0,000361646642
2	0	0	0	1	9143,00	1,27846873	1,27867472	-0,2806976438344767	11	0,107018203	0,000358920981
2	0	0	1	1	9144,45	1,26396751	1,2645402	-0,28137322980910541	11	0,106609896	0,000355807773
2	0	0	1	1	9145,90	1,24946654	1,25025535	-0,28260233191152474	11	0,106200084	0,000353325071
2	0	0	0	1	9147,35	1,23496532	1,23548901	-0,28352524883424211	11	0,105788812	0,000350292335
2	0	0	0	1	9148,80	1,22046423	1,2208333	-0,28457455934646259	11	0,105376139	0,000347418099
2	0	0	1	1	9150,25	1,20596325	1,20636785	-0,28575242698813507	11	0,104962103	0,000344722532
2	0	0	1	1	9151,70	1,19146204	1,1919626	-0,28647930089694685	11	0,104546823	0,000341472623
2	0	0	0	1	9153,15	1,17696095	1,17743707	-0,28753241508578275	11	0,104130127	0,000338551326
2	0	0	0	1	9154,60	1,16245997	1,16302168	-0,28814608642521034	11	0,103712171	0,000335120159
2	0	0	1	1	9156,05	1,14795876	1,14832568	-0,28938685000563782	11	0,103292689	0,000332310359
2	0	0	0	1	9157,50	1,13345766	1,1338203	-0,29052093687156896	11	0,102871522	0,000329398521
2	0	0	0	1	9158,95	1,11895657	1,1193248	-0,29204830868790509	11	0,102448493	0,000326896901
2	0	0	1	1	9160,40	1,10445535	1,10502994	-0,29350811468126944	11	0,102023408	0,00032433524
2	0	0	1	1	9161,85	1,08995438	1,09060454	-0,29512194311246278	11	0,101596095	0,000321861327
2	0	0	0	1	9163,30	1,07545316	1,07614911	-0,29697210465868371	11	0,101166099	0,000319586252
2	0	0	0	1	9164,75	1,06095207	1,06145322	-0,29910484414237274	11	0,100733213	0,000317485799
2	0	0	1	1	9166,20	1,04645097	1,04671717	-0,30121129533896915	11	0,100297004	0,000315283047
2	0	0	1	1	9167,65	1,03194988	1,03232193	-0,30404705554246989	11	0,0998572111	0,000313874451
2	0	0	0	1	9169,10	1,01744866	1,0177362	-0,30720653928195494	11	0,0994130597	0,000312655204
2	0	0	0	1	9170,55	1,0029484	1,00354087	-0,31076907069368256	11	0,0989642441	0,000311869459
2	0	0	1	1	9172,00	0,988446593	0,988875568	-0,31462160327161248	11	0,0985101014	0,000311121607
2	0	0	0	1	9173,45	0,973945558	0,974199712	-0,3188973017968233	11	0,0980500877	0,000310669653
2	0	0	0	1	9174,90	0,959444404	0,959684193	-0,32366300498445888	11	0,0975837857	0,000310614269
2	0	0	1	1	9176,35	0,944943249	0,945389271	-0,3283840063959369	11	0,0971104056	0,000310450705
2	0	0	1	1	9177,80	0,930442154	0,930983901	-0,33413521146091398	11	0,0966293663	0,000311074517
2	0	0	0	1	9179,25	0,915941119	0,916478455	-0,34017242910340429	11	0,0961399153	0,000311760698
2	0	0	0	1	9180,70	0,901439965	0,901872754	-0,34628765874852704	11	0,0956417248	0,000312307413
2	0	0	1	1	9182,15	0,88693881	0,887367189	-0,35288229274252947	11	0,0951340944	0,000313136174
2	0	0	0	1	9183,60	0,872437716	0,872741401	-0,35966204952758976	11	0,0946168005	0,000313891971
2	0	0	0	1	9185,05	0,85793668	0,858266056	-0,36639252561144576	11	0,0940898284	0,000314462261
2	0	0	1	1	9186,50	0,843435526	0,844021142	-0,37310081448716416	11	0,0935529247	0,000314904988
2	0	0	1	1	9187,95	0,828934312	0,829265118	-0,37901637136625786	11	0,0930068195	0,000314305042
2	0	0	0	1	9189,40	0,814433277	0,814719379	-0,38534536181638579	11	0,0924515873	0,000313948345
2	0	0	0	1	9190,85	0,799932182	0,800244033	-0,39098954588795731	11	0,0918879211	0,000312887045
2	0	0	1	1	9192,30	0,785431147	0,785708427	-0,39636971754953267	11	0,0913160592	0,000311431038
2	0	0	1	1	9193,75	0,770929992	0,771403491	-0,40147499243418317	11	0,0907368287	0,000309699215
2	0	0	0	1	9195,20	0,756428897	0,757128596	-0,4061279750118656	11	0,0901504382	0,000307491107
2	0	0	1	1	9196,65	0,741927803	0,742482662	-0,41051810259620326	11	0,0895576775	0,000304802583
2	0	0	1	1	9198,10	0,727426708	0,72778672	-0,41405367696037011	11	0,0889590532	0,000301342778
2	0	0	0	1	9199,55	0,712925613	0,713361442	-0,41794865997508211	11	0,0883549824	0,000298148458
2	0	0	0	1	9201,00	0,698424459	0,698916137	-0,4213357750947271	11	0,0877458379	0,000294478377
2	0	0	1	1	9202,45	0,683923364	0,684260249	-0,42483455548062918	11	0,0871317387	0,000290697411
2	0	0	1	1	9203,90	0,669422269	0,66971463	-0,42811985422546784	11	0,0865128487	0,000286718132
2	0	0	0	1	9205,35	0,654921114	0,655239165	-0,43130455802505184	11	0,0858891532	0,000282607652
2	0	0	0	1	9206,80	0,64042002	0,640703678	-0,43500280939042611	11	0,0852605551	0,000278707914
2	0	0	1	1	9208,25	0,625918925	0,626268327	-0,43886092863977133	11	0,0846264586	0,0002748447
2	0	0	1	1	9209,70	0,611418009	0,611833572	-0,44271881297502522	11	0,0839865655	0,000270870223
2	0	0	0	1	9211,15	0,596916735	0,597347498	-0,44751961917306106	11	0,0833403245	0,000267324736
2	0	0	1	1	9212,60	0,582415581	0,582942307	-0,4526040623895815	11	0,0826868787	0,000263842056
2	0	0	1	1	9214,05	0,567914486	0,568536997	-0,45820785406977114	11	0,0820257589	0,000260508124
2	0	0	0	1	9215,50	0,553413332	0,553851068	-0,46423842602719923	11	0,0813559294	0,000257118954
2	0	0	0	1	9216,95	0,538912296	0,539135098	-0,4709696609837328	11	0,0806770995	0,000253916282
2	0	0	1	1	9218,40	0,524411201	0,524759889	-0,47829635612045786	11	0,0799882486	0,000250990735
2	0	0	1	1	9219,85	0,509910047	0,510354698	-0,48565517226234259	11	0,0792887285	0,000247856398
2	0	0	0	1	9221,30	0,495408982	0,495819122	-0,49380935744072032	11	0,0785777494	0,000244840136
2	0	0	1	1	9222,75	0,480907351	0,481164008	-0,50240184213308493	11	0,0778546706	0,000241737682
2	0	0	1	1	9224,20	0,466406763	0,466497362	-0,51136438207080205	11	0,0771191567	0,000238550128
2	0	0	0	1	9225,65	0,451905578	0,452212423	-0,51998163247481165	11	0,0763704106	0,000235142157
2	0	0	0	1	9227,10	0,437404513	0,43765679	-0,53012067452073318	11	0,0756084174	0,00023201092
2	0	0	1	1	9228,55	0,422903359	0,423341781	-0,54035806174700115	11	0,0748317018	0,000228756151
2	0	0	1	1	9230,00	0,408402294	0,408746004	-0,55146218106771539	11	0,0740396604	0,000225407959
2	0	0	0	1	9231,45	0,393901199	0,394280672	-0,56265468740215053	11	0,0732311904	0,000221843875
2	0	0	0	1	9232,90	0,379400104	0,379975647	-0,57540981036921581	11	0,0724053234	0,000218641711
2	0	0	1	1	9234,35	0,36489898	0,365309745	-0,5891552072328841	11	0,0715603381	0,000215224136
2	0	0	0	1	9235,80	0,350397378	0,350823492	-0,60378534546151296	11	0,0706946999	0,000211822087
2	0	0	0	1	9237,25	0,33589676	0,336308777	-0,62024279187123098	11	0,0698067099	0,00020859309
2	0	0	1	1	9238,70	0,321395665	0,321813345	-0,6381115941330793	11	0,0688936636	0,00020535283
2	0	0	1	1	9240,15	0,306894541	0,307157457	-0,65784946953257165	11	0,0679535195	0,000202063369
2	0	0	0	1	9241,60	0,292393446	0,292651981	-0,67969066121925952	11	0,0669829845	0,000198912821
2	0	0	0	1	9243,05	0,277892321	0,278336942	-0,70388753836353498	11	0,0659791827	0,000195917906
2	0	0	1	1	9243,45	0,273892075	0,274006397	-0,71151107549667354	11	0,0656961054	0,000194958586