File: Experimentelles/Rohdaten/Batteriemessungen/AlteZelle/150511_LLTO_LTO_Tests/ECLab-Export/LLTO_LP30_LTO_02_CV_C01_loop7.mpt
EC-Lab ASCII FILE
Nb header lines : 3
mode	ox/red	error	control changes	counter inc.	time/s	control/V	Ewe/V	<I>/mA	cycle number	(Q-Qo)/C	P/W
2	1	0	1	0	6101,55	0,272391975	0,272482663	-0,6890866756439209	8	0	0,000187764177
2	1	0	0	0	6102,98	0,286693007	0,286947995	-0,38339976562807898	8	-0,000708722509	0,000110015797
2	1	0	1	0	6104,43	0,301194102	0,30159384	-0,24783442122861744	8	-0,0011577137	7,47453378E-005
2	1	0	1	0	6105,88	0,315695226	0,3161394	-0,15980430467364704	8	-0,00144811138	5,05204371E-005
2	1	0	0	0	6107,33	0,330196321	0,330574781	-0,10046890106362616	8	-0,00163332594	3,32124837E-005
2	1	0	0	0	6108,78	0,344697416	0,34509027	-0,060388713085558259	8	-0,00174717733	2,08395577E-005
2	1	0	1	0	6110,27	0,359598577	0,35963589	-0,031906708677221702	8	-0,00181374222	1,14747972E-005
2	1	0	1	0	6111,72	0,374099702	0,374311775	-0,012807872762399114	8	-0,00184476783	4,79413757E-006
2	1	0	0	0	6113,20	0,388900816	0,389368623	0,0010070638942731123	8	-0,00185279618	3,92119091E-007
2	1	0	1	0	6114,69	0,403802395	0,404313564	0,010289624604540443	8	-0,00184365909	4,16023477E-006
2	1	0	1	0	6116,14	0,418303043	0,418810666	0,017516078102441184	8	-0,00182261807	7,33592015E-006
2	1	0	0	0	6117,59	0,432804108	0,433215916	0,023108917031398336	8	-0,00179240888	1,00111511E-005
2	1	0	0	0	6119,04	0,447305292	0,447711378	0,027529084094567226	8	-0,00175479706	1,23250838E-005
2	1	0	1	0	6120,49	0,461806357	0,462136686	0,03158433114488912	8	-0,00171107636	1,45962786E-005
2	1	0	1	0	6121,94	0,476307511	0,476702332	0,035317488684086182	8	-0,00166179624	1,68359293E-005
2	1	0	0	0	6123,39	0,490808576	0,490917146	0,038607623913170131	8	-0,00160766486	1,89531438E-005
2	1	0	0	0	6124,84	0,505309701	0,505783498	0,041633582770979558	8	-0,00154905696	2,10575799E-005
2	1	0	1	0	6126,29	0,519810796	0,520198822	0,044467941256395085	8	-0,00148628652	2,31321701E-005
2	1	0	0	0	6127,74	0,53431195	0,534523785	0,047164205267714989	8	-0,00141950208	2,52103891E-005
2	1	0	0	0	6129,19	0,548812985	0,549299955	0,04942167243765033	8	-0,00134883169	2,71473218E-005
2	1	0	1	0	6130,64	0,56331408	0,563635051	0,052228572060509235	8	-0,00127442752	2,94378533E-005
2	1	0	1	0	6132,09	0,577815235	0,57855159	0,054888817365281062	8	-0,00119615719	3,17560116E-005
2	1	0	0	0	6133,54	0,592316389	0,592666149	0,057605327126414861	8	-0,00111404492	3,41407285E-005
2	1	0	0	0	6134,99	0,606817424	0,607321918	0,060214882600121203	8	-0,00102800177	3,65698179E-005
2	1	0	1	0	6136,44	0,621318579	0,621687114	0,063147452543489638	8	-0,00093796174	3,92579568E-005
2	1	0	1	0	6137,89	0,635819674	0,635871887	0,065964886414197504	8	-0,000843794493	4,19452153E-005
2	1	0	0	0	6139,34	0,650320828	0,650557756	0,068961766587259942	8	-0,000745367666	4,48636129E-005
2	1	0	1	0	6140,79	0,664821863	0,665163517	0,071596138974806989	8	-0,000642726431	4,76231398E-005
2	1	0	1	0	6142,24	0,679323018	0,679879487	0,074682540085632243	8	-0,000535787083	5,07751283E-005
2	1	0	0	0	6143,69	0,693824112	0,694014132	0,077512442949228096	8	-0,00042469005	5,37947308E-005
2	1	0	0	0	6145,14	0,708325207	0,708690047	0,080243877484463104	8	-0,000309590163	5,68680371E-005
2	1	0	1	0	6146,59	0,722826362	0,723335803	0,082852734116992461	8	-0,000190814797	5,99303494E-005
2	1	0	1	0	6148,04	0,737327456	0,737791181	0,085020876043321203	8	-6,86922285E-005	6,27276531E-005
2	1	0	0	0	6149,49	0,751828551	0,752196491	0,087054862815420902	8	5,64190159E-005	6,54823598E-005
2	1	0	0	0	6150,94	0,766329646	0,766772151	0,088180097130437619	8	0,000184048156	6,76140407E-005
2	1	0	1	0	6152,39	0,780830801	0,781247556	0,089772787760011853	8	0,000313872413	7,01347744E-005
2	1	0	0	0	6153,84	0,795331836	0,795562565	0,090946671766384051	8	0,000445531914	7,23537669E-005
2	1	0	0	0	6155,29	0,809832931	0,809997916	0,091940945965082842	8	0,000578685023	7,44719728E-005
2	1	0	1	0	6156,74	0,824333966	0,824884295	0,092580125259701056	8	0,000712982379	7,63678909E-005
2	1	0	1	0	6158,19	0,838835239	0,839409947	0,093094671727158131	8	0,000848157622	7,81445924E-005
2	1	0	0	0	6159,64	0,853336275	0,853634715	0,093423536629415936	8	0,000983979204	7,97495741E-005
2	1	0	0	0	6161,09	0,867837369	0,868330598	0,093721436453051866	8	0,00112022436	8,1381193E-005
2	1	0	1	0	6162,54	0,882338405	0,8830266	0,093474033172242342	8	0,0012566786	8,25400566E-005
2	1	0	1	0	6163,99	0,896839678	0,897321522	0,093539669547075098	8	0,00139311212	8,3935156E-005
2	1	0	1	0	6165,40	0,910840631	0,911305845	0,093384666931039194	8	0,00152471883	8,5101994E-005
2	1	0	1	0	6166,85	0,92534095	0,92569977	0,092984872346907558	8	0,00166044163	8,60760774E-005
2	1	0	0	0	6168,30	0,939842939	0,940296769	0,092349514151768166	8	0,00179544406	8,68359493E-005
2	1	0	1	0	6169,75	0,954343975	0,954792261	0,09197906571595616	8	0,00192968978	8,7820903E-005
2	1	0	1	0	6171,20	0,968845069	0,969167471	0,091698212141636762	8	0,00206344132	8,88709255E-005
2	1	0	0	0	6172,65	0,983346224	0,983733118	0,091784241648080525	8	0,00219707494	9,02911997E-005
2	1	0	0	0	6174,10	0,997847319	0,998368859	0,091773575947930342	8	0,00233082823	9,16238787E-005
2	1	0	1	0	6175,55	1,01234841	1,01271391	0,092439253969738957	8	0,00246515311	9,36145152E-005
2	1	0	1	0	6177,00	1,02684951	1,02709913	0,093070341487570099	8	0,00260015368	9,55924697E-005
2	1	0	0	0	6178,45	1,0413506	1,04180515	0,093671223148703347	8	0,00273602223	9,7587159E-005
2	1	0	1	0	6179,90	1,05585158	1,05628073	0,094409415347035725	8	0,00287275948	9,9722849E-005
2	1	0	1	0	6181,35	1,07035279	1,07089627	0,094897938969855206	8	0,00301033282	0,000101625847
2	1	0	0	0	6182,80	1,08485389	1,08558226	0,095505920549233677	8	0,00314874551	0,000103679529
2	1	0	0	0	6184,25	1,09935498	1,09973681	0,095618126894502438	8	0,00328789791	0,000105154773
2	1	0	1	0	6185,70	1,1138562	1,11414218	0,096339857419176614	8	0,00342779281	0,000107336302
2	1	0	1	0	6187,15	1,12835729	1,12877786	0,096738574211485466	8	0,00356836966	0,000109196364
2	1	0	0	0	6188,60	1,14285839	1,14323318	0,09725229242273303	8	0,00370964804	0,000111182046
2	1	0	0	0	6190,05	1,15735948	1,15788913	0,097727442276664077	8	0,00385157624	0,000113157541
2	1	0	1	0	6191,50	1,17186046	1,17236459	0,098162074767363712	8	0,00399418967	0,000115081741
2	1	0	0	0	6192,99	1,18676162	1,18719089	0,098714869391793856	8	0,00414152024	0,000117193391
2	1	0	0	0	6194,44	1,20126283	1,20194709	0,099042724817991706	8	0,00428570667	0,000119044118
2	1	0	1	0	6195,89	1,21576393	1,21611166	0,099870952079072154	8	0,00443071872	0,000121454228
2	1	0	1	0	6197,34	1,2302649	1,23076749	0,10033321132262541	8	0,00457646698	0,000123486854
2	1	0	0	0	6198,79	1,24476612	1,2454735	0,10082210557690502	8	0,00472288439	0,000125571256
2	1	0	0	0	6200,24	1,25926733	1,25984871	0,10104236930298294	8	0,00486974884	0,000127298103
2	1	0	1	0	6201,69	1,27376842	1,27420378	0,10115259253264707	8	0,00501695136	0,00012888902
2	1	0	1	0	6203,14	1,28826952	1,28881967	0,10130128427408613	8	0,005164403	0,000130559085
2	1	0	0	0	6204,59	1,30277061	1,30297422	0,10143036472921563	8	0,0053120302	0,000132161149
2	1	0	1	0	6206,04	1,31727159	1,31761003	0,10104382693922754	8	0,00545968628	0,00013313636
2	1	0	1	0	6207,49	1,3317728	1,33213568	0,10114868540161614	8	0,00560719892	0,000134743779
2	1	0	0	0	6208,94	1,3462739	1,34674132	0,1010144828663515	8	0,00575464172	0,000136040384
2	1	0	0	0	6210,39	1,36077499	1,36132705	0,10086585274742266	8	0,00590179302	0,000137311421
2	1	0	1	0	6211,84	1,37527621	1,37578249	0,10034722404088803	8	0,00604854152	0,000138055955
2	1	0	1	0	6213,29	1,3897773	1,39027786	0,099988537724129638	8	0,00619461713	0,000139011856
2	1	0	0	0	6214,74	1,4042784	1,40484357	0,099356557087351578	8	0,0063399151	0,000139580414
2	1	0	0	0	6216,19	1,41877949	1,41939914	0,098721700487657933	8	0,006484407	0,000140125499
2	1	0	1	0	6217,64	1,43328047	1,43378437	0,098127472757672192	8	0,00662787491	0,000140693635
2	1	0	0	0	6219,09	1,44778168	1,44832993	0,097502098723780467	8	0,00677047856	0,000141215205
2	1	0	0	0	6220,54	1,46228278	1,46259487	0,097190039639826419	8	0,00691213505	0,000142149656
2	1	0	1	0	6221,99	1,47678387	1,47744119	0,096604831361522163	8	0,00705320621	0,000142727964
2	1	0	1	0	6223,44	1,49128509	1,49205697	0,096698001589781427	8	0,00719388528	0,000144278922
2	1	0	0	0	6224,89	1,50578618	1,50624168	0,096691811205043328	8	0,00733459089	0,000145641243
2	1	0	0	0	6226,34	1,52028728	1,52066696	0,097098557239708723	8	0,00747566344	0,000147654573
2	1	0	1	0	6227,79	1,53478837	1,53548312	0,097351348415638195	8	0,00761742471	0,000149481348
2	1	0	1	0	6229,24	1,54928946	1,54978836	0,098420247551985139	8	0,00776027609	0,000152530556
2	1	0	0	0	6230,69	1,56379044	1,5643537	0,099388484299803622	8	0,00790452957	0,000155478745
2	1	0	0	0	6232,14	1,5782913	1,57883823	0,10066671434681718	8	0,00805048551	0,000158936455
2	1	0	1	0	6233,59	1,59279275	1,59321439	0,10210576878550138	8	0,00819824915	0,000162676384
2	1	0	0	0	6235,04	1,60729373	1,60768998	0,10352315346244746	8	0,00834810641	0,000166433136
2	1	0	0	0	6236,49	1,62179506	1,62223554	0,10510896650763835	8	0,00850017462	0,000170511499
2	1	0	1	0	6237,94	1,63629603	1,63674092	0,1067532082088289	8	0,00865457114	0,000174727349
2	1	0	1	0	6239,39	1,65079713	1,65122628	0,10833739877368021	8	0,00881136395	0,000178889561
2	1	0	0	0	6240,84	1,66529822	1,66572201	0,11029021166420216	8	0,00897070207	0,000183712837
2	1	0	0	0	6242,29	1,67979932	1,67998672	0,11226100963540374	8	0,00913265068	0,000188596998
2	1	0	1	0	6243,74	1,69430029	1,69480312	0,11417731856151158	8	0,0092972964	0,00019350808
2	1	0	1	0	6245,19	1,70880222	1,70917928	0,11596904724162928	8	0,00946461502	0,000198211899
2	1	0	0	0	6246,64	1,7233026	1,72385418	0,11780616656566627	8	0,00963464845	0,00020308065
2	1	0	1	0	6248,09	1,73780394	1,73851001	0,11974394088610986	8	0,00980742741	0,000208176047
2	1	0	1	0	6249,54	1,75230503	1,75267458	0,12132283245834181	8	0,00998296682	0,000212639439
2	1	0	0	0	6250,99	1,76680601	1,76724041	0,12338216389374157	8	0,0101612983	0,000218045941
2	1	0	0	0	6252,44	1,7813071	1,78172565	0,12532526130477573	8	0,0103424573	0,000223295239
2	1	0	1	0	6253,89	1,7958082	1,79609096	0,12735756863063808	8	0,0105263768	0,000228745776
2	1	0	1	0	6255,34	1,81030929	1,81084692	0,12920211414651283	8	0,0107131051	0,000233965256
2	1	0	0	0	6256,79	1,8248105	1,82543266	0,13121487514581531	8	0,0109026618	0,000239523913
2	1	0	0	0	6258,24	1,8393116	1,83983791	0,1330000419402495	8	0,0110949241	0,000244698516
2	1	0	1	0	6259,69	1,85381258	1,85425317	0,1349374845934408	8	0,0112900045	0,00025020825
2	1	0	0	0	6261,14	1,86831391	1,86907959	0,1365581714780999	8	0,0114877364	0,00025523809
2	1	0	0	0	6262,59	1,88281488	1,88330424	0,13870518836968904	8	0,0116882911	0,000261224079
2	1	0	1	0	6264,04	1,89731598	1,8978399	0,14068890766551067	8	0,0118915597	0,000267005031
2	1	0	1	0	6265,49	1,91181707	1,91237545	0,14256046398077093	8	0,0120975655	0,000272629142
2	1	0	0	0	6266,94	1,92631817	1,92710161	0,14470797932396294	8	0,0123062832	0,000278866966
2	1	0	0	0	6268,39	1,94081914	1,94124615	0,14624307673269277	8	0,0125176059	0,000283893809
2	1	0	1	0	6269,84	1,95532048	1,95593214	0,14819170856693133	8	0,0127315922	0,000289852935
2	1	0	1	0	6271,29	1,96982145	1,97053766	0,14941967022605152	8	0,0129480734	0,000294437079
2	1	0	0	0	6272,74	1,98432279	1,98491287	0,15142485037601229	8	0,0131671643	0,000300565123
2	1	0	1	0	6274,19	1,99882388	1,99938834	0,15311543204976851	8	0,0133887334	0,000306137197
2	1	0	1	0	6275,64	2,01332474	2,01382375	0,15494379963881011	8	0,0136128487	0,0003120295
2	1	0	0	0	6277,09	2,02782607	2,02846956	0,15659294529662794	8	0,0138394423	0,000317644037
2	1	0	0	0	6278,54	2,04232717	2,04289484	0,15823212297012378	8	0,0140684638	0,000323251588
2	1	0	1	0	6279,99	2,05682826	2,05753064	0,15991143901677146	8	0,0142998947	0,000329022674
2	1	0	1	0	6281,44	2,07132936	2,07198596	0,16149910329841034	8	0,014533638	0,000334623881
2	1	0	0	0	6282,89	2,08583045	2,08660173	0,16275560549305146	8	0,0147696715	0,000339606137
2	1	0	0	0	6284,34	2,10033035	2,10071421	0,16446639316966326	8	0,0150077939	0,000345496897
2	1	0	1	0	6285,79	2,11483264	2,11533213	0,16610602859873312	8	0,0152482772	0,00035136941
2	1	0	0	0	6287,24	2,12933373	2,12976742	0,16767991920157011	8	0,0154909631	0,000357119221
2	1	0	0	0	6288,69	2,14383483	2,14445329	0,16923198080621683	8	0,0157357883	0,000362910068
2	1	0	1	0	6290,14	2,15833592	2,15888858	0,17075337306596262	8	0,0159827974	0,000368637498
2	1	0	1	0	6291,59	2,17283702	2,17321372	0,17213918714939293	8	0,0162318032	0,000374095252
2	1	0	0	0	6293,04	2,18733811	2,1881001	0,17307433676129792	8	0,0164828803	0,00037870396
2	1	0	0	0	6294,49	2,20183921	2,20240521	0,17462560569401814	8	0,0167358331	0,000384596351
2	1	0	1	0	6295,95	2,2163403	2,2169106	0,17592965330307696	8	0,0169907436	0,000390020316
2	1	0	1	0	6297,40	2,23084211	2,2315371	0,17722857001791482	8	0,017247498	0,000395492127
2	1	0	0	0	6298,85	2,24534249	2,24617219	0,17840686797474813	8	0,0175061245	0,000400732533
2	1	0	1	0	6300,30	2,25984359	2,26034689	0,17981055798009037	8	0,0177665912	0,000406434236
2	1	0	1	0	6301,75	2,27434468	2,27479219	0,18103258424283309	8	0,0180289038	0,000411811518
2	1	0	0	0	6303,20	2,28884578	2,28935814	0,18240641290321946	8	0,0182931293	0,000417593605
2	1	0	0	0	6304,65	2,30334687	2,30394363	0,18335334374569357	8	0,0185591672	0,000422435784
2	1	0	1	0	6306,10	2,31784821	2,31826878	0,1848702755911895	8	0,01882728	0,000428578991
2	1	0	1	0	6307,55	2,3323493	2,33295465	0,18631613759013498	8	0,0190973617	0,000434667105
2	1	0	0	0	6309,00	2,3468504	2,34737992	0,18799076019786253	8	0,0193696804	0,000441285723
2	1	0	1	0	6310,45	2,36135149	2,36184549	0,18964851011211702	8	0,0196441188	0,000447920465
2	1	0	1	0	6311,90	2,37585258	2,37649107	0,19124634455268563	8	0,0199207105	0,000454495224
2	1	0	0	0	6313,35	2,39035368	2,39136767	0,19282775147197117	8	0,0201996136	0,00046112205
2	1	0	0	0	6314,80	2,40485477	2,40542197	0,19395132223144128	8	0,0204806775	0,000466534781
2	1	0	1	0	6316,25	2,41935587	2,42013812	0,19570101161176899	8	0,0207640994	0,000473623484
2	1	0	1	0	6317,70	2,43385696	2,43425274	0,1973050980983927	8	0,0210497864	0,000480290473
2	1	0	0	0	6319,15	2,44835806	2,44890833	0,19903949733513171	8	0,021337891	0,000487429497
2	1	0	0	0	6320,60	2,46285915	2,46329355	0,20058285313037638	8	0,021628283	0,000494094449
2	1	0	1	0	6322,05	2,47736025	2,47797966	0,20229548797942698	8	0,0219211131	0,000501284085
2	1	0	0	0	6323,50	2,49186134	2,49244475	0,20396951298850262	8	0,0222163573	0,000508382742
2	1	0	0	0	6324,95	2,50636244	2,50700045	0,20545560276756637	8	0,0225137677	0,000515077263
2	1	0	1	0	6326,40	2,52086353	2,521456	0,20670018151092061	8	0,0228136033	0,0005211854
2	1	0	1	0	6327,85	2,53536463	2,53571057	0,20861513609997885	8	0,0231158026	0,000528987614
2	1	0	0	0	6329,30	2,54986596	2,55056715	0,21024512996276211	8	0,0234204866	0,000536244304
2	1	0	0	0	6330,75	2,56436706	2,56517291	0,21204531464415366	8	0,0237275157	0,000543932896
2	1	0	1	0	6332,20	2,57886815	2,57961822	0,21364292370465875	8	0,0240370072	0,000551117177
2	1	0	1	0	6333,65	2,59336925	2,59399343	0,21557015933406819	8	0,0243488587	0,000559187552
2	1	0	0	0	6335,10	2,60787034	2,60837841	0,21733410206312877	8	0,0246631689	0,00056688959
2	1	0	1	0	6336,55	2,62237144	2,62284398	0,21862012248796691	8	0,0249800086	0,000573406462
2	1	0	1	0	6338,00	2,63687253	2,63742971	0,22053202125243754	8	0,0252992306	0,000581637723
2	1	0	0	0	6339,45	2,65137362	2,65216589	0,22238832099052707	8	0,0256211534	0,000589810719
2	1	0	0	0	6340,90	2,66587472	2,66640067	0,2243492849326385	8	0,0259456355	0,000598205079
2	1	0	1	0	6342,35	2,68037581	2,68085599	0,22588667164867059	8	0,0262728203	0,000605569629
2	1	0	1	0	6343,80	2,69487691	2,69543171	0,22799498215317725	8	0,0266025998	0,000614544901
2	1	0	0	0	6345,25	2,709378	2,70990705	0,22960719893065562	8	0,0269350205	0,000622214167
2	1	0	0	0	6346,70	2,72387862	2,7246232	0,23144967050068922	8	0,0272700153	0,000630613125
2	1	0	1	0	6348,15	2,73838019	2,73882794	0,23281599883921466	8	0,027607521	0,000637642981
2	1	0	0	0	6349,60	2,75288129	2,75327301	0,23473227637199034	8	0,0279476438	0,000646282046
2	1	0	0	0	6351,05	2,76738238	2,76784873	0,23652635941592326	8	0,028290268	0,000654669187
2	1	0	1	0	6352,50	2,78188348	2,78252459	0,23842644831165706	8	0,0286356471	0,000663427461
2	1	0	1	0	6353,95	2,79638481	2,79696012	0,24045913534549347	8	0,0289837103	0,000672554597
2	1	0	0	0	6355,40	2,81088591	2,81144547	0,2426778576336801	8	0,029334886	0,000682275568
2	1	0	0	0	6356,85	2,825387	2,82595086	0,24514930811710611	8	0,0296891704	0,000692779897
2	1	0	1	0	6358,30	2,8398881	2,8403964	0,24717286663750838	8	0,0300469641	0,000702068908
2	1	0	1	0	6359,75	2,85438919	2,85506225	0,25008284510113254	8	0,0304083265	0,000714002061
2	1	0	0	0	6361,20	2,86889029	2,86938715	0,25289646000601306	8	0,0307736769	0,000725657854
2	1	0	1	0	6362,65	2,88339138	2,88420343	0,25584927058778685	8	0,0311432369	0,000737921335
2	1	0	1	0	6364,10	2,89789248	2,89855862	0,25905165549678077	8	0,0315171666	0,000750876381
2	1	0	0	0	6365,55	2,91239357	2,91307402	0,2621387637530761	8	0,0318958685	0,000763629621
2	1	0	0	0	6367,00	2,92689466	2,92736912	0,26603715633973392	8	0,0322794281	0,000778788934
2	1	0	1	0	6368,45	2,94139576	2,94180441	0,26976448918382269	8	0,0326686092	0,000793594343
2	1	0	1	0	6369,90	2,95589685	2,95646024	0,27372104759948979	8	0,0330636166	0,000809245394
2	1	0	0	0	6371,35	2,97039795	2,97114635	0,27821830691148896	8	0,0334648155	0,000826627307
2	1	0	0	0	6372,80	2,98489904	2,98554158	0,28298064538588141	8	0,0338725857	0,000844850496
2	1	0	1	0	6374,25	2,99940014	2,99981642	0,28780332634535811	8	0,0342873596	0,000863357156
2	1	0	1	0	6375,70	3,01390052	3,01440072	0,29278113534216922	8	0,034709353	0,000882559689
2	1	0	0	0	6377,15	3,02840233	3,02900791	0,29834148179118822	8	0,0351388752	0,000903678709
2	1	0	1	0	6378,60	3,04290366	3,04355359	0,30390950129367411	8	0,0355763435	0,000924964843
2	1	0	1	0	6380,05	3,05740476	3,05816936	0,30934974535678733	8	0,0360218734	0,000946043932
2	1	0	0	0	6381,50	3,07190585	3,07260466	0,31554773317960384	8	0,0364759266	0,000969553425
2	1	0	0	0	6382,95	3,08640695	3,0868094	0,32187862189796947	8	0,036938861	0,000993577996
2	1	0	1	0	6384,40	3,10090804	3,10159564	0,32858994820465594	8	0,0374110788	0,00101915316
2	1	0	1	0	6385,85	3,11540914	3,1158607	0,33525904415485773	8	0,0378930271	0,00104462053
2	1	0	0	0	6387,30	3,12991023	3,13064623	0,34252961453360787	8	0,0383851156	0,00107233902
2	1	0	1	0	6388,75	3,14441204	3,14503312	0,34983787893936301	8	0,0388878025	0,00110025168
2	1	0	1	0	6390,20	3,15891242	3,1595068	0,35772547824308275	8	0,0394014232	0,00113023608
2	1	0	0	0	6391,65	3,17341328	3,1740427	0,36516478316237568	8	0,0399264693	0,00115904864
2	1	0	0	0	6393,10	3,18791437	3,18852806	0,37385782529599853	8	0,0404633433	0,00119205622
2	1	0	1	0	6394,55	3,20241547	3,20311356	0,38240962188380403	8	0,0410125852	0,00122490141
2	1	0	1	0	6396,00	3,21691656	3,21761918	0,39158664147059066	8	0,0415746495	0,00125997665
2	1	0	0	0	6397,45	3,23141766	3,23207474	0,40085762102777702	8	0,0421499461	0,00129560183
2	1	0	0	0	6398,90	3,24591875	3,24644995	0,41088752401992499	8	0,0427393131	0,00133392576
2	1	0	1	0	6400,35	3,26042008	3,26105571	0,4213909615452103	8	0,0433435291	0,00137417938
2	1	0	1	0	6401,80	3,27491999	3,27546883	0,43233520476714202	8	0,0439632982	0,00141610054
2	1	0	0	0	6403,25	3,28942227	3,28994608	0,44388384573782426	8	0,0445995331	0,00146035396
2	1	0	1	0	6404,70	3,30392337	3,30456233	0,45641637609029754	8	0,0452531017	0,00150825642
2	1	0	1	0	6406,15	3,31842446	3,31904769	0,46968736794466758	8	0,0459251516	0,00155891478
2	1	0	0	0	6407,60	3,33292556	3,33343244	0,48369419947266554	8	0,0466169789	0,00161236199
2	1	0	0	0	6409,05	3,34742665	3,34836936	0,4982141335494816	8	0,0473294072	0,0016682049
2	1	0	1	0	6410,50	3,36192751	3,36270428	0,51364453431839686	8	0,0480636805	0,00172723469
2	1	0	1	0	6411,95	3,37642908	3,37699938	0,5298025226220471	8	0,0488205962	0,00178914284
2	1	0	0	0	6413,40	3,39093018	3,39160514	0,5459092096425593	8	0,0496013314	0,00185150851
2	1	0	1	0	6414,85	3,40543127	3,40603065	0,56352419716616352	8	0,0504067615	0,00191938074
2	1	0	1	0	6416,30	3,41993213	3,42054582	0,58152063780774554	8	0,051237952	0,00198911806
2	1	0	0	0	6417,75	3,43443322	3,43491077	0,59994224738329651	8	0,0520955324	0,00206074817
2	1	0	0	0	6419,20	3,44893432	3,44957709	0,61862789327278822	8	0,0529799759	0,00213400461
2	1	0	1	0	6420,65	3,46343541	3,46412277	0,63755076192319398	8	0,0538918599	0,00220855419
2	1	0	1	0	6422,10	3,47793651	3,47869825	0,65717548644169984	8	0,0548314601	0,0022861152
2	1	0	0	0	6423,55	3,4924376	3,49308324	0,67716580287863578	8	0,0557997413	0,00236539659
2	1	0	0	0	6425,00	3,50693893	3,50781965	0,6973292017355543	8	0,0567971021	0,00244610501
2	1	0	1	0	6426,46	3,52144003	3,52242494	0,71842430826897446	8	0,0578246862	0,00253059575
2	1	0	0	0	6427,91	3,53594112	3,53677034	0,73999439286688947	8	0,0588830225	0,00261719013
2	1	0	0	0	6429,36	3,55044222	3,55109572	0,76218116361026893	8	0,0599729083	0,00270657823
2	1	0	1	0	6430,81	3,56494331	3,56577134	0,78405026687929971	8	0,0610945448	0,00279574399
2	1	0	1	0	6432,26	3,57944441	3,58018637	0,80587053671479142	8	0,062247958	0,00288516679
2	1	0	0	0	6433,71	3,5939455	3,59460187	0,82794091571122406	8	0,0634331778	0,00297611789
2	1	0	0	0	6435,16	3,60844684	3,60907722	0,84842313360422938	8	0,0646493286	0,00306202471
2	1	0	1	0	6436,61	3,62294793	3,62388325	0,86891054020573491	8	0,065895617	0,00314883026
2	1	0	1	0	6438,06	3,63744903	3,63830876	0,88787013075003891	8	0,0671701953	0,00323034567
2	1	0	0	0	6439,51	3,65195012	3,65259385	0,90637470626582579	8	0,0684724376	0,00331061869
2	1	0	0	0	6440,96	3,6664505	3,66720748	0,92369320828203174	8	0,0698003173	0,00338737457
2	1	0	1	0	6442,41	3,68095207	3,68172526	0,94081763861080243	8	0,0711534023	0,00346383196
2	1	0	0	0	6443,86	3,69545317	3,69622064	0,95730195070306406	8	0,0725305602	0,00353839924
2	1	0	0	0	6445,31	3,70995426	3,71072626	0,97312340326606874	8	0,073930949	0,00361099467
2	1	0	1	0	6446,76	3,72445536	3,72507119	0,98852985197057203	8	0,075354293	0,00368234399
2	1	0	1	0	6448,25	3,73935652	3,74015784	1,0052521349862262	8	0,0768403038	0,00375980162
2	1	0	0	0	6449,70	3,75385761	3,75477362	1,0204134108498683	8	0,0783096626	0,00383142126
2	1	0	0	0	6451,15	3,76835895	3,76917887	1,0349805684139283	8	0,0798006654	0,00390102691
2	1	0	1	0	6452,60	3,78286004	3,78379464	1,0502327432235053	8	0,0813134313	0,00397386495
2	1	0	0	0	6454,05	3,79736042	3,79823875	1,0646859452342205	8	0,0828475803	0,00404393161
2	1	0	0	0	6455,50	3,81186223	3,81266546	1,0793257191156301	8	0,0844028592	0,00411510793
2	1	0	1	0	6456,95	3,82636333	3,82733154	1,0933946020280346	8	0,0859792158	0,00418478344
2	1	0	1	0	6458,40	3,84086442	3,841887	1,1079498706385475	8	0,0875762701	0,00425661821
2	1	0	0	0	6459,85	3,85536551	3,85597157	1,1221889300892762	8	0,0891945064	0,00432712864
2	1	0	0	0	6461,30	3,86986685	3,87064719	1,1361643516769035	8	0,0908331871	0,00439769123
2	1	0	1	0	6462,75	3,88436794	3,88533306	1,1516195628792048	8	0,0924930647	0,00447442569
2	1	0	1	0	6464,20	3,89886904	3,89963818	1,166537446590759	8	0,0941741094	0,00454907399
2	1	0	0	0	6465,65	3,91337013	3,91420364	1,1814610970517014	8	0,0958773345	0,00462447945
2	1	0	0	0	6467,10	3,92787027	3,92857933	1,1969369874797574	8	0,0976024568	0,00470226211
2	1	0	1	0	6468,55	3,94237208	3,94317508	1,2131317391370757	8	0,0993503705	0,00478359079
2	1	0	0	0	6470,00	3,95687318	3,95763016	1,229909796888629	8	0,101122454	0,0048675281
2	1	0	0	0	6471,45	3,97137427	3,97213578	1,246930364208919	8	0,102918737	0,00495297695
2	1	0	1	0	6472,90	3,98587537	3,98674154	1,2644762089476006	8	0,104740441	0,00504113967
2	1	0	1	0	6474,35	4,0003767	4,00102615	1,2822482474148282	8	0,106587321	0,00513030868
2	1	0	0	0	6475,80	4,0148778	4,01558161	1,3011767740050928	8	0,108461827	0,00522498135
2	1	0	0	0	6477,25	4,02937794	4,03027773	1,3216012741187968	8	0,110363573	0,00532642007
2	1	0	1	0	6478,70	4,04387999	4,04466343	1,3409409454713232	8	0,112294547	0,0054236548
2	1	0	0	0	6480,15	4,05838108	4,059268	1,3618821822370091	8	0,114255175	0,00552824466
2	1	0	0	0	6481,60	4,07288218	4,07345343	1,3835993815834282	8	0,11624641	0,00563602755
2	1	0	1	0	6483,05	4,08738327	4,08805943	1,4070277071247493	8	0,1182703	0,00575201306
2	1	0	1	0	6484,50	4,10188437	4,10281563	1,4307600601265768	8	0,120328307	0,00587014481
2	1	0	0	0	6485,95	4,11638546	4,117311	1,4571320942292605	8	0,122422874	0,00599946594
2	1	0	0	0	6487,40	4,13088655	4,13174629	1,4860310433432406	8	0,124556914	0,00613990333
2	1	0	1	0	6488,85	4,14538765	4,14622164	1,5170498245085254	8	0,126734957	0,00629002461
2	1	0	1	0	6490,30	4,15988779	4,16091776	1,5516259228243747	8	0,128960669	0,00645618793
2	1	0	0	0	6491,75	4,17438984	4,17519236	1,5914958243568656	8	0,131240487	0,00664480124
2	1	0	1	0	6493,20	4,18888998	4,18998814	1,6360480272321034	8	0,133581042	0,0068550217
2	0	0	1	1	6494,59	4,19719172	4,19796848	1,604730285704136	8	0,135876462	0,00673660729
2	0	0	0	1	6496,04	4,18269062	4,18356276	1,3690560677399155	8	0,138021648	0,00572753185
2	0	0	0	1	6497,49	4,16818953	4,16910744	1,1811493212977986	8	0,139865398	0,00492433831
2	0	0	1	1	6498,94	4,15368843	4,15452194	1,0209249701971821	8	0,141457751	0,00424145535
2	0	0	1	1	6500,39	4,13918686	4,13984632	0,88167385477572326	8	0,142833427	0,00364999427
2	0	0	0	1	6501,84	4,12468576	4,12556124	0,76054472414155776	8	0,144021198	0,00313767372
2	0	0	0	1	6503,29	4,11018467	4,1109643	0,65539021663902195	8	0,145045042	0,00269428571
2	0	0	1	1	6504,74	4,09568357	4,09631968	0,56327350561817549	8	0,14592655	0,00230734842
2	0	0	0	1	6506,23	4,08078241	4,08159256	0,4810155392039257	8	0,146702439	0,00196330948
2	0	0	0	1	6507,68	4,06628132	4,06698799	0,41139319880555014	8	0,147347197	0,00167313125
2	0	0	1	1	6509,13	4,0517807	4,05266285	0,35095470491796685	8	0,147898048	0,00142230105
2	0	0	1	1	6510,58	4,03727961	4,03802681	0,29824793222360211	8	0,148367003	0,00120433315
2	0	0	0	1	6512,03	4,02277851	4,02362156	0,25240426370874048	8	0,148764849	0,00101557921
2	0	0	0	1	6513,48	4,00827742	4,00893545	0,21244648797437459	8	0,149100393	0,00085168425
2	0	0	1	1	6514,93	3,99377632	3,99449039	0,17732035811059178	8	0,149381727	0,000708304462
2	0	0	0	1	6516,38	3,97927451	3,97993469	0,14687307569576237	8	0,149615526	0,000584545254
2	0	0	0	1	6517,83	3,96477389	3,96547937	0,11982075357809664	8	0,149807572	0,00047514672
2	0	0	1	1	6519,28	3,9502728	3,95107412	0,095791536072889818	8	0,149962589	0,000378479454
2	0	0	1	1	6520,73	3,9357717	3,93638825	0,074353894044179251	8	0,150084808	0,000292685785
2	0	0	0	1	6522,18	3,92127061	3,92194295	0,055233789957128243	8	0,15017803	0,000216623768
2	0	0	0	1	6523,67	3,90636945	3,9070766	0,037809218774782413	8	0,150246575	0,00014772352
2	0	0	1	1	6525,12	3,89186835	3,89277148	0,022525559703353821	8	0,15028967	8,7686858E-005
2	0	0	1	1	6526,57	3,87736702	3,87813592	0,008733606751775369	8	0,150311723	3,38701138E-005
2	0	0	0	1	6528,06	3,86246586	3,86310887	-0,0039370605566849402	8	0,150314704	1,52092935E-005
2	0	0	1	1	6529,55	3,8475647	3,84841299	-0,015603729931172013	8	0,150299489	6,00495987E-005
2	0	0	1	1	6531,00	3,8330636	3,83367682	-0,026191015048728672	8	0,150268584	0,000100407888
2	0	0	0	1	6532,45	3,81856251	3,81941199	-0,035725463288447942	8	0,150223285	0,000136450268
2	0	0	0	1	6533,90	3,80406141	3,80462575	-0,044702857451435821	8	0,15016444	0,000170077648
2	0	0	1	1	6535,35	3,78956032	3,7903409	-0,052989089551071514	8	0,150093153	0,000200846713
2	0	0	1	1	6536,80	3,77505922	3,77559471	-0,060669268559043533	8	0,150010273	0,000229062571
2	0	0	0	1	6538,25	3,76055837	3,76126933	-0,067701561124219328	8	0,149916485	0,000254643819
2	0	0	0	1	6539,70	3,74605727	3,74660373	-0,074625043450699648	8	0,14981243	0,000279590458
2	0	0	1	1	6541,15	3,73155618	3,73215842	-0,081250155965487232	8	0,14969863	0,000303238456
2	0	0	0	1	6542,60	3,71705508	3,71784329	-0,087390839141638362	8	0,149575859	0,000324905443
2	0	0	0	1	6544,05	3,70255399	3,70324802	-0,093253722181543706	8	0,149444163	0,000345341658
2	0	0	1	1	6545,54	3,68765283	3,68838143	-0,099038930959068237	8	0,149300128	0,000365293352
2	0	0	1	1	6546,99	3,67315173	3,67393589	-0,10461903860171651	8	0,14915204	0,000384363637
2	0	0	0	1	6548,44	3,65865064	3,65913987	-0,10942791410100963	8	0,148996264	0,000400412042
2	0	0	0	1	6549,89	3,6441493	3,64490485	-0,11452025012113155	8	0,148833156	0,000417415402
2	0	0	1	1	6551,35	3,62964821	3,63043952	-0,11946732127883797	8	0,148662776	0,000433718873
2	0	0	1	1	6552,80	3,61514759	3,61587358	-0,12417443330801259	8	0,148485526	0,000448999053
2	0	0	0	1	6554,25	3,60064602	3,6011982	-0,12860649346839682	8	0,148301527	0,000463137461
2	0	0	1	1	6555,70	3,58614469	3,58681297	-0,13321153990303491	8	0,14811103	0,00047780489
2	0	0	1	1	6557,15	3,57164359	3,57221699	-0,1375404343707487	8	0,147914097	0,000491324288
2	0	0	0	1	6558,60	3,5571425	3,55798221	-0,14182666308867442	8	0,14771086	0,000504616764
2	0	0	0	1	6560,05	3,5426414	3,54357696	-0,14529239793773718	8	0,147501811	0,000514854793
2	0	0	1	1	6561,50	3,52814031	3,52874088	-0,14933232016240528	8	0,147287056	0,00052695506
2	0	0	1	1	6562,95	3,51363921	3,51436543	-0,15299959535089651	8	0,147066936	0,000537696469
2	0	0	0	1	6564,40	3,49913836	3,50004053	-0,15658432058989981	8	0,146841526	0,000548051496
2	0	0	0	1	6565,85	3,48463726	3,48531437	-0,16006376144165802	8	0,146611288	0,000557872525
2	0	0	1	1	6567,30	3,47013617	3,47087932	-0,16315463418141008	8	0,146376327	0,000566290051
2	0	0	0	1	6568,75	3,45563507	3,45617294	-0,16628315839140374	8	0,146136954	0,000574703328
2	0	0	0	1	6570,20	3,44113398	3,4417479	-0,16867206563862691	8	0,145893544	0,000580526714
2	0	0	1	1	6571,65	3,42663288	3,42726207	-0,17137888120487309	8	0,14564611	0,000587360351
2	0	0	1	1	6573,10	3,41213179	3,41279674	-0,17402522040841472	8	0,145394996	0,00059391273
2	0	0	0	1	6574,55	3,39763045	3,39818144	-0,17660910962149501	8	0,145140126	0,000600149797
2	0	0	0	1	6576,00	3,38312936	3,383816	-0,1789801981067287	8	0,144881845	0,000605636043
2	0	0	1	1	6577,45	3,36862826	3,36938071	-0,18120355756642925	8	0,144620031	0,000610543764
2	0	0	1	1	6578,90	3,35412717	3,35472512	-0,18344516966802342	8	0,144355088	0,00061540812
2	0	0	0	1	6580,35	3,33962584	3,34015918	-0,18569193229389747	8	0,144086838	0,000620240637
2	0	0	1	1	6581,80	3,32512474	3,32558322	-0,18742778967910794	8	0,143815458	0,000623306725
2	0	0	1	1	6583,25	3,31062365	3,31119847	-0,18975536156601014	8	0,143540964	0,000628317648
2	0	0	0	1	6584,70	3,29612255	3,29689336	-0,19174612534698144	8	0,143263415	0,000632166513
2	0	0	0	1	6586,15	3,28162146	3,28205705	-0,19392583034156518	8	0,142983034	0,000636475626
2	0	0	1	1	6587,60	3,26712036	3,26764154	-0,19570756742420282	8	0,142699763	0,000639502192
2	0	0	1	1	6589,05	3,2526195	3,25329661	-0,19798906776122704	8	0,142413631	0,000644117186
2	0	0	0	1	6590,50	3,23811841	3,23896146	-0,19999579604094285	8	0,142124593	0,000647778681
2	0	0	0	1	6591,95	3,22361732	3,22430563	-0,20168611003706883	8	0,141832709	0,000650297676
2	0	0	1	1	6593,40	3,20911622	3,20983028	-0,20368041625867318	8	0,141538024	0,000653779542
2	0	0	0	1	6594,85	3,19461441	3,19518256	-0,20576373112969738	8	0,141240418	0,000657452678
2	0	0	0	1	6596,30	3,18011403	3,18066883	-0,20787209893266435	8	0,140940055	0,000661172322
2	0	0	1	1	6597,75	3,16561294	3,16627359	-0,20991976582445235	8	0,140636563	0,000664663385
2	0	0	1	1	6599,20	3,1511116	3,15160775	-0,21202922829737325	8	0,140330166	0,000668232969
2	0	0	0	1	6600,65	3,13661051	3,13737297	-0,21406168544975568	8	0,140020683	0,000671591319
2	0	0	0	1	6602,10	3,12210941	3,12267709	-0,21627424152878438	8	0,139708176	0,000675354619
2	0	0	1	1	6603,55	3,10760832	3,10830188	-0,21796327410265846	8	0,139392614	0,000677495671
2	0	0	1	1	6605,00	3,09310722	3,09382653	-0,22040761735600768	8	0,139073908	0,000681902922
2	0	0	0	1	6606,45	3,07860613	3,07922101	-0,22251510829664723	8	0,138751954	0,000685173203
2	0	0	1	1	6607,90	3,06410456	3,06461477	-0,22486383064737757	8	0,138426721	0,000689121021
2	0	0	1	1	6609,35	3,04960418	3,0502398	-0,22730521524014602	8	0,138098195	0,000693335431
2	0	0	0	1	6610,80	3,03510308	3,03577423	-0,22959418493943907	8	0,137766212	0,00069699611
2	0	0	0	1	6612,25	3,02060175	3,02116871	-0,23200379118012915	8	0,137430936	0,000700922566
2	0	0	1	1	6613,70	3,00610065	3,00666332	-0,23410856560803939	8	0,137092292	0,000703885627
2	0	0	1	1	6615,15	2,99159956	2,99225783	-0,2365980322938417	8	0,136750311	0,000707962317
2	0	0	0	1	6616,60	2,9770987	2,97748184	-0,23879229370504707	8	0,136404961	0,00071099971
2	0	0	0	1	6618,05	2,96259761	2,96320701	-0,24115495531198861	8	0,136056319	0,000714592054
2	0	0	1	1	6619,50	2,94809651	2,94857121	-0,24343281378969462	8	0,135704502	0,000717778981
2	0	0	0	1	6620,95	2,93359613	2,93394661	-0,2454482653431871	8	0,135349438	0,000720132084
2	0	0	0	1	6622,40	2,91909409	2,91950011	-0,24759939662180931	8	0,134991467	0,000722866447
2	0	0	1	1	6623,85	2,90459299	2,90544558	-0,24931466967488314	8	0,134630829	0,000724370184
2	0	0	1	1	6625,30	2,8900919	2,8908298	-0,25098077137954534	8	0,1342673	0,000725542719
2	0	0	0	1	6626,75	2,87559056	2,87614393	-0,25278651163292397	8	0,133901164	0,000727050414
2	0	0	0	1	6628,20	2,86108947	2,86180878	-0,25430237796778509	8	0,133532703	0,000727764796
2	0	0	1	1	6629,65	2,84658837	2,84712291	-0,2559093206655223	8	0,133161977	0,000728605315
2	0	0	1	1	6631,10	2,83208728	2,8328681	-0,25701516075059859	8	0,132789135	0,000728090061
2	0	0	0	1	6632,55	2,81758642	2,81797147	-0,2582824611260257	8	0,132414699	0,000727832608
2	0	0	1	1	6634,00	2,80308533	2,80367637	-0,25899166559490138	8	0,132038891	0,000726128812
2	0	0	1	1	6635,45	2,78858399	2,78932118	-0,25975095216805766	8	0,131662026	0,000724528858
2	0	0	0	1	6636,90	2,7740829	2,77457523	-0,26009399459386982	8	0,131284371	0,000721650373
2	0	0	0	1	6638,35	2,7595818	2,76002955	-0,26045208230304339	8	0,130906254	0,000718855474
2	0	0	1	1	6639,80	2,74508071	2,74579477	-0,26050269270005334	8	0,130527988	0,000715286937
2	0	0	1	1	6641,25	2,73057985	2,73111892	-0,26038212561979891	8	0,130149737	0,000711134577
2	0	0	0	1	6642,70	2,71607876	2,71670365	-0,26028267581326326	8	0,12977168	0,000707110914
2	0	0	0	1	6644,15	2,70157766	2,70226836	-0,25977557750108317	8	0,129394129	0,000701983343
2	0	0	1	1	6645,60	2,68707657	2,68775296	-0,25964112936829498	8	0,129017085	0,000697851239
2	0	0	0	1	6647,05	2,67257476	2,67323732	-0,25878278028631386	8	0,128640562	0,000691787805
2	0	0	0	1	6648,50	2,65807414	2,6587019	-0,25858297214532922	8	0,128264636	0,000687495049
2	0	0	1	1	6649,95	2,64357305	2,64415622	-0,25824863277375699	8	0,127889216	0,000682849728
2	0	0	1	1	6651,40	2,62907195	2,62963057	-0,25784557956891818	8	0,127514362	0,000678038632
2	0	0	0	1	6652,85	2,61457062	2,61501479	-0,2573731942102313	8	0,127140135	0,000673034694
2	0	0	0	1	6654,30	2,60006952	2,60058951	-0,2568596532413112	8	0,126766533	0,000667986518
2	0	0	1	1	6655,75	2,58556843	2,58618402	-0,2565697364043449	8	0,126393497	0,000663536543
2	0	0	1	1	6657,20	2,57106757	2,57182908	-0,25628718516479011	8	0,126021028	0,000659126847
2	0	0	0	1	6658,65	2,55656624	2,5574038	-0,25578548697134006	8	0,125648901	0,000654146774
2	0	0	0	1	6660,10	2,54206538	2,54248691	-0,25570580782347642	8	0,125277251	0,000650128641
2	0	0	1	1	6661,55	2,52756405	2,52824235	-0,25579270487651184	8	0,124905832	0,000646705972
2	0	0	0	1	6663,00	2,51306295	2,51347637	-0,25566979559759283	8	0,124534607	0,000642619969
2	0	0	0	1	6664,45	2,49856186	2,49910116	-0,25506233043658266	8	0,124163777	0,000637426565
2	0	0	1	1	6665,90	2,484061	2,48464584	-0,25534093372213386	8	0,123793162	0,000634431781
2	0	0	1	1	6667,35	2,46955991	2,47030067	-0,25521456690815648	8	0,123422556	0,000630456721
2	0	0	0	1	6668,80	2,45505881	2,45550442	-0,25486045059127261	8	0,123052053	0,000625810935
2	0	0	0	1	6670,25	2,44055748	2,44117951	-0,25482477728898355	8	0,122681677	0,000622073014
2	0	0	1	1	6671,70	2,42605615	2,42650342	-0,25488900781298752	8	0,122311383	0,000618489052
2	0	0	0	1	6673,15	2,41155434	2,41218829	-0,25480390681778342	8	0,12194109	0,000614635006
2	0	0	0	1	6674,60	2,3970542	2,39773321	-0,25449830611857392	8	0,121571012	0,000610219024
2	0	0	1	1	6676,05	2,3825531	2,38331795	-0,25463610980659744	8	0,121201113	0,000606878835
2	0	0	1	1	6677,50	2,36805177	2,36858177	-0,25437597356115926	8	0,120831393	0,000602510292
2	0	0	0	1	6678,95	2,35355067	2,35420656	-0,25421599073645984	8	0,120461829	0,000598476967
2	0	0	0	1	6680,40	2,33904958	2,33961082	-0,25367695706275571	8	0,12009269	0,000593505334
2	0	0	1	1	6681,86	2,32454872	2,32506561	-0,25375586476487456	8	0,119723827	0,000589999021
2	0	0	1	1	6683,31	2,31004739	2,31061983	-0,25347992498427629	8	0,119355395	0,000585695729
2	0	0	0	1	6684,76	2,29554629	2,2963047	-0,25306973761568496	8	0,118987381	0,000581125205
2	0	0	0	1	6686,21	2,28104591	2,28145766	-0,2530503933747177	8	0,118619993	0,000577323779
2	0	0	1	1	6687,66	2,2665441	2,26689291	-0,25252354106244979	8	0,118252985	0,000572443823
2	0	0	0	1	6689,11	2,25204301	2,25267816	-0,25213601463474333	8	0,11788661	0,000567981275
2	0	0	0	1	6690,56	2,23754215	2,23818254	-0,25117620631741965	8	0,11752104	0,000562178204
2	0	0	1	1	6692,01	2,22304106	2,22354698	-0,25083631905727133	8	0,1171562	0,000557746331
2	0	0	1	1	6693,46	2,20853972	2,20909166	-0,25015693615811597	8	0,116792291	0,000552619575
2	0	0	0	1	6694,91	2,19403839	2,19474649	-0,24949347546013677	8	0,116429284	0,000547574949
2	0	0	0	1	6696,36	2,1795373	2,18030119	-0,24877352042434086	8	0,116067491	0,00054240122
2	0	0	1	1	6697,81	2,16503644	2,16551495	-0,24788162562375328	8	0,115706734	0,00053679134
2	0	0	1	1	6699,26	2,15053487	2,15109944	-0,24707195524085267	8	0,115347229	0,00053147634
2	0	0	0	1	6700,71	2,13603425	2,13671446	-0,24614519719034432	8	0,114988916	0,000525942014
2	0	0	1	1	6702,16	2,12153292	2,1220386	-0,24491152632981629	8	0,114631988	0,000519711699
2	0	0	1	1	6703,61	2,10703182	2,10768318	-0,24421730839336963	8	0,114276424	0,000514732732
2	0	0	0	1	6705,06	2,09253073	2,0929873	-0,24333847158898925	8	0,113922052	0,000509304344
2	0	0	0	1	6706,51	2,07802987	2,07871246	-0,24267271246450685	8	0,113569193	0,000504446798
2	0	0	1	1	6707,96	2,06352854	2,06416678	-0,24190928717143834	8	0,113217384	0,000499341113
2	0	0	1	1	6709,41	2,04902744	2,04937053	-0,24112894867236445	8	0,112866759	0,000494162552
2	0	0	0	1	6710,86	2,03452635	2,03507566	-0,24036673363298221	8	0,11251723	0,000489164493
2	0	0	0	1	6712,31	2,02002597	2,02056146	-0,23930646381934829	8	0,112168767	0,000483533426
2	0	0	1	1	6713,76	2,00552416	2,0060246	-0,23878455503533136	8	0,111821257	0,000479007693
2	0	0	0	1	6715,21	1,9910233	1,99149895	-0,23828288222042282	8	0,111474551	0,000474540109
2	0	0	0	1	6716,66	1,97652221	1,9770838	-0,23790678335353776	8	0,111128755	0,000470361643
2	0	0	1	1	6718,11	1,96202099	1,96246803	-0,23733060962210218	8	0,110783584	0,000465753721
2	0	0	1	1	6719,56	1,9475199	1,94805276	-0,23690935682194979	8	0,110439144	0,000461511925
2	0	0	0	1	6721,01	1,93301857	1,93359733	-0,23642745218239725	8	0,1100953	0,000457155489
2	0	0	0	1	6722,46	1,91851759	1,91902161	-0,23606882492701286	8	0,109752111	0,000453021174
2	0	0	1	1	6723,91	1,90401649	1,9046967	-0,23522176228774061	8	0,109409608	0,000448026112
2	0	0	0	1	6725,36	1,88951468	1,89010918	-0,23486867957953894	8	0,109067671	0,000443927449
2	0	0	0	1	6726,81	1,87501431	1,87561548	-0,23456736071966576	8	0,108726479	0,000439958181
2	0	0	1	1	6728,26	1,86051333	1,86099982	-0,23417815845459677	8	0,108385853	0,000435805501
2	0	0	1	1	6729,71	1,846012	1,84660459	-0,23379400838166518	8	0,108046062	0,000431725086
2	0	0	0	1	6731,16	1,83151102	1,83197868	-0,23322012779923805	8	0,107706994	0,000427254301
2	0	0	0	1	6732,61	1,81700969	1,81742311	-0,23276881501078694	8	0,107368827	0,000423039426
2	0	0	1	1	6734,06	1,80250871	1,80290747	-0,23157640251641533	8	0,107031532	0,000417510833
2	0	0	1	1	6735,51	1,78800762	1,78819168	-0,23118984505223805	8	0,106695212	0,000413411763
2	0	0	0	1	6736,96	1,77350652	1,77388656	-0,23046862691019987	8	0,106359899	0,000408825203
2	0	0	1	1	6738,41	1,75900519	1,75955164	-0,22991054803213062	8	0,106025457	0,000404539489
2	0	0	1	1	6739,86	1,74450445	1,74495578	-0,22924613378321101	8	0,105692029	0,000400024379
2	0	0	0	1	6741,31	1,73000312	1,73060071	-0,22853885629835229	8	0,10535945	0,000395509502
2	0	0	0	1	6742,76	1,71550214	1,71597481	-0,2280711120304968	8	0,105027743	0,000391364272
2	0	0	1	1	6744,21	1,70100105	1,70163977	-0,22770590373935786	8	0,104696669	0,00038747341
2	0	0	1	1	6745,66	1,68649971	1,68698382	-0,22688725194893776	8	0,10436628	0,000382755126
2	0	0	0	1	6747,11	1,67199874	1,67256868	-0,22676988481544003	8	0,104036279	0,00037928822
2	0	0	0	1	6748,56	1,65749764	1,65811324	-0,22663345141336323	8	0,103706643	0,000375783915
2	0	0	1	1	6750,01	1,64299655	1,64357769	-0,22659147592882301	8	0,103377171	0,000372420705
2	0	0	1	1	6751,46	1,62849641	1,62888288	-0,22671513857068426	8	0,103047751	0,000369292422
2	0	0	0	1	6752,91	1,61399424	1,61428595	-0,2269942230389761	8	0,102718174	0,000366433582
2	0	0	1	1	6754,36	1,59949315	1,59997094	-0,22732787625864147	8	0,102388293	0,000363717991
2	0	0	1	1	6755,81	1,58499217	1,58565593	-0,2273386005933089	8	0,102058046	0,000360480801
2	0	0	0	1	6757,26	1,57049108	1,5710001	-0,22784568198646173	8	0,101727292	0,000357945595
2	0	0	0	1	6758,71	1,55598986	1,55653477	-0,22847129707224666	8	0,101395719	0,000355623517
2	0	0	1	1	6760,16	1,54148889	1,54193902	-0,2292198135983199	8	0,101063281	0,000353442971
2	0	0	1	1	6761,61	1,52698779	1,52745366	-0,22988109732977958	8	0,100729831	0,000351132738
2	0	0	0	1	6763,06	1,5124867	1,51301825	-0,2308022775687273	8	0,100395218	0,000349208072
2	0	0	0	1	6764,51	1,49798596	1,49845159	-0,23159486092714781	8	0,100059383	0,000347033696
2	0	0	1	1	6765,96	1,48348439	1,4839772	-0,23269079672172627	8	0,0997221172	0,000345307839
2	0	0	0	1	6767,41	1,46898329	1,46932125	-0,2332864737448599	8	0,0993834957	0,000342772779
2	0	0	0	1	6768,86	1,4544822	1,45494616	-0,23453059249247187	8	0,0990433991	0,000341229374
2	0	0	1	1	6770,31	1,43998098	1,44018996	-0,23560531010540941	8	0,0987016857	0,000339316408
2	0	0	1	1	6771,76	1,42547989	1,42601538	-0,23668345863310019	8	0,0983584076	0,000337514241
2	0	0	0	1	6773,21	1,41097891	1,41149974	-0,2379112000732375	8	0,09801355	0,000335811608
2	0	0	0	1	6774,66	1,39647782	1,39697433	-0,23891827999614269	8	0,0976671502	0,000333762699
2	0	0	1	1	6776,11	1,3819766	1,38238859	-0,24013907221766928	8	0,0973191932	0,000331965508
2	0	0	1	1	6777,56	1,36747551	1,36790311	-0,24076871581686	8	0,0969698057	0,000329348288
2	0	0	0	1	6779,01	1,3529743	1,35344768	-0,24196538942245117	8	0,0966190547	0,000327487505
2	0	0	1	1	6780,46	1,33847332	1,33878183	-0,24288316513411789	8	0,0962669104	0,000325167581
2	0	0	1	1	6781,91	1,32397223	1,3243866	-0,24385029504386102	8	0,0959134549	0,000322952052
2	0	0	0	1	6783,36	1,30947101	1,30997121	-0,24457527169336934	8	0,09555877	0,000320386578
2	0	0	0	1	6784,81	1,29497004	1,29546595	-0,24540861858986317	8	0,0952030048	0,000317918515
2	0	0	1	1	6786,26	1,28046894	1,28086007	-0,2461220176580057	8	0,0948460475	0,00031524786
2	0	0	1	1	6787,71	1,26596773	1,26633453	-0,2467061063895617	8	0,094488211	0,000312412449
2	0	0	0	1	6789,16	1,25146675	1,25206959	-0,24718306640473475	8	0,0941293091	0,000309490395
2	0	0	0	1	6790,61	1,23696542	1,23759413	-0,2480710273763791	8	0,0937693641	0,000307011243
2	0	0	1	1	6792,06	1,22246444	1,22298849	-0,24886137091865178	8	0,0934081748	0,000304354588
2	0	0	0	1	6793,51	1,20796335	1,20837271	-0,24977680373315981	8	0,093045786	0,000301823486
2	0	0	0	1	6794,96	1,19346225	1,19385719	-0,25075984187424227	8	0,0926820636	0,00029937143
2	0	0	1	1	6796,41	1,17896104	1,17951214	-0,25184271849381366	8	0,0923168808	0,000297051534
2	0	0	1	1	6797,86	1,16446006	1,16500664	-0,25292741639229142	8	0,0919502378	0,00029466211
2	0	0	0	1	6799,31	1,14995897	1,15039086	-0,25390898141389152	8	0,091581881	0,00029209457
2	0	0	0	1	6800,76	1,13545775	1,13593543	-0,25536960029664192	8	0,0912118182	0,000290083379
2	0	0	1	1	6802,21	1,12095666	1,12139988	-0,25685781799256845	8	0,0908396617	0,000288040319
2	0	0	1	1	6803,66	1,10645545	1,10679412	-0,25857614741350243	8	0,0904654339	0,000286190567
2	0	0	0	1	6805,11	1,09195447	1,09234881	-0,26019872065323213	8	0,0900886804	0,000284227775
2	0	0	1	1	6806,56	1,07745337	1,07793355	-0,26238734228536486	8	0,0897091925	0,000282836118
2	0	0	1	1	6808,01	1,06295216	1,06337786	-0,26457348838448614	8	0,0893267021	0,000281341578
2	0	0	0	1	6809,46	1,04845119	1,04893267	-0,26725253361898128	8	0,0889404714	0,000280329929
2	0	0	0	1	6810,91	1,03395009	1,03453732	-0,26998659758828579	8	0,0885501653	0,000279311207
2	0	0	1	1	6812,37	1,01944888	1,01987147	-0,27384115243330688	8	0,0881548822	0,000279282773
2	0	0	1	1	6813,82	1,00494778	1,00540602	-0,27783200618190042	8	0,0877541974	0,000279333966
2	0	0	0	1	6815,27	0,990446746	0,9911111	-0,28237980107466454	8	0,0873472691	0,000279869768
2	0	0	0	1	6816,72	0,975945652	0,976314843	-0,28714912361465395	8	0,0869337171	0,000280347944
2	0	0	1	1	6818,17	0,961444616	0,961769342	-0,29230803841104211	8	0,0865127444	0,000281132903
2	0	0	0	1	6819,62	0,946943462	0,947093368	-0,29820525048611078	8	0,0860838145	0,000282428227
2	0	0	0	1	6821,07	0,932442248	0,932888687	-0,30410855496302202	8	0,0856463611	0,000283699424
2	0	0	1	1	6822,52	0,917941213	0,918533444	-0,31038689450360787	8	0,085200049	0,000285100745
2	0	0	1	1	6823,97	0,903440118	0,90374732	-0,31660014313335226	8	0,0847447515	0,000286126538
2	0	0	0	1	6825,42	0,888939083	0,889432311	-0,32315109274350195	8	0,084280245	0,000287421019
2	0	0	0	1	6826,87	0,874437809	0,874786437	-0,32934631779789926	8	0,083806701	0,000288107694
2	0	0	1	1	6828,32	0,859936774	0,860230863	-0,33551228232681715	8	0,0833240822	0,00028861803
2	0	0	1	1	6829,77	0,845435679	0,845755339	-0,34138923968809402	8	0,0828328282	0,000288731768
2	0	0	0	1	6831,22	0,830934644	0,831430376	-0,34686671717402803	8	0,0823333338	0,000288395531
2	0	0	1	1	6832,67	0,816433489	0,816634059	-0,35174021326626304	8	0,0818260163	0,000287243049
2	0	0	1	1	6834,12	0,801932335	0,802359164	-0,35683330652924883	8	0,0813113526	0,000286308466
2	0	0	0	1	6835,57	0,78743124	0,787713349	-0,36153242628400627	8	0,0807896107	0,000284783921
2	0	0	0	1	6837,02	0,772930205	0,773268044	-0,36617652024142445	8	0,0802613422	0,000283152593
2	0	0	1	1	6838,47	0,75842905	0,758912921	-0,37017366414268691	8	0,0797265917	0,000280929584
2	0	0	1	1	6839,92	0,743927896	0,744557798	-0,37425790145061997	8	0,0791859925	0,000278656633
2	0	0	0	1	6841,37	0,729426801	0,729771614	-0,37804558322144198	8	0,0786395669	0,000275886938
2	0	0	0	1	6842,82	0,714925766	0,715306163	-0,38177724710355232	8	0,0780877993	0,000273087615
2	0	0	1	1	6844,27	0,700424612	0,700800717	-0,38497221493162259	8	0,0775309578	0,000269788812
2	0	0	0	1	6845,72	0,685923457	0,686385393	-0,38872924253034016	8	0,0769690275	0,000266818068
2	0	0	0	1	6847,17	0,671422362	0,671609282	-0,39226959614703994	8	0,0764022842	0,00026345189
2	0	0	1	1	6848,62	0,656921268	0,65728426	-0,39572349733983578	8	0,0758303106	0,000260102825
2	0	0	1	1	6850,07	0,642420232	0,642588258	-0,3996876003220695	8	0,0752532035	0,000256834552
2	0	0	0	1	6851,52	0,627919078	0,628243148	-0,40338988757381779	8	0,0746704936	0,00025342693
2	0	0	0	1	6852,97	0,613417923	0,613867939	-0,4078095474590855	8	0,0740819797	0,000250341196
2	0	0	1	1	6854,42	0,598916829	0,599312365	-0,41172901261597914	8	0,0734870508	0,000246754294
2	0	0	1	1	6855,87	0,584415793	0,5848369	-0,41669241866717677	8	0,072885491	0,000243697097
2	0	0	0	1	6857,32	0,569914699	0,5702914	-0,42176783535008646	8	0,072276786	0,000240530571
2	0	0	1	1	6858,77	0,555413485	0,555645525	-0,42740437931691578	8	0,0716601759	0,000237485336
2	0	0	1	1	6860,22	0,54091239	0,541320443	-0,43330204952508346	8	0,0710355341	0,000234555264
2	0	0	0	1	6861,67	0,526411355	0,526584387	-0,4394903932698089	8	0,0704019368	0,000231428785
2	0	0	0	1	6863,12	0,5119102	0,512109041	-0,44612722719709107	8	0,0697592348	0,000228465782
2	0	0	1	1	6864,57	0,497409135	0,497834057	-0,45327258839582374	8	0,0691064522	0,000225654527
2	0	0	1	1	6866,02	0,482907981	0,483278453	-0,46020908374339341	8	0,0684434474	0,000222409129
2	0	0	0	1	6867,47	0,468406916	0,468823075	-0,46797962347045722	8	0,0677695125	0,000219399648
2	0	0	0	1	6868,92	0,453905016	0,4540371	-0,47621486665807744	8	0,0670841262	0,00021621921
2	0	0	1	1	6870,37	0,439404696	0,439982474	-0,48464373794073978	8	0,0663871467	0,000213234744
2	0	0	0	1	6871,82	0,424903512	0,425306559	-0,49383815440038605	8	0,065677233	0,000210032609
2	0	0	0	1	6873,27	0,410402447	0,410901308	-0,50348306804274579	8	0,0649537072	0,000206881858
2	0	0	1	1	6874,72	0,395901352	0,396185309	-0,51399560055384973	8	0,0642153844	0,000203637508
2	0	0	1	1	6876,17	0,381400228	0,381539494	-0,52539801395808736	8	0,0634611249	0,000200460097
2	0	0	0	1	6877,62	0,366899133	0,367114156	-0,53784767771140096	8	0,0626894012	0,000197451503
2	0	0	0	1	6879,07	0,352398008	0,352718979	-0,55159723976006016	8	0,061898876	0,000194558816
2	0	0	1	1	6880,52	0,337896913	0,338223487	-0,56649130272368755	8	0,0610876009	0,000191600659
2	0	0	1	1	6881,97	0,323395818	0,323467374	-0,58337773460273997	8	0,0602534749	0,000188703663
2	0	0	0	1	6883,42	0,308894694	0,309072167	-0,60157488379627469	8	0,0593939014	0,000185930054
2	0	0	1	1	6884,87	0,294393599	0,294827282	-0,62198994960636083	8	0,0585064553	0,000183379612
2	0	0	1	1	6886,32	0,279892474	0,280391932	-0,64446504786610598	8	0,0575878434	0,000180702802
2	0	0	0	1	6887,12	0,271791905	0,272643059	-0,65759420394897459	8	0,0570664629	0,000179288501