File: Experimentelles/Rohdaten/Batteriemessungen/AlteZelle/150511_LLTO_LTO_Tests/ECLab-Export/LLTO_LP30_LTO_05_GCPL_C01_loop10.mpt
EC-Lab ASCII FILE
Nb header lines : 3
mode	ox/red	error	control changes	Ns changes	counter inc.	Ns	time/s	control/V/mA	Ewe/V	dq/mA.h	<I>/mA	P/W	(Q-Qo)/mA.h	x	Capacity/mA.h
1	0	0	1	1	0	1	401163,94	-0,0100000007	2,68238759	0	0	0	0	0	0
1	0	0	1	0	0	1	401303,94	-0,0100000007	2,28582454	-2,7754228251675766E-005	-0,0099913297880024947	2,2838427E-005	-0,00038842059119840595	1,4492494494651642E-005	0,00038842059119840595
1	0	0	1	0	0	1	401443,95	-0,0100000007	2,11624265	-2,7754242566258957E-005	-0,0099913349416184704	2,11440893E-005	-0,00077698087393066227	2,8990201068248506E-005	0,00077698087393066227
1	0	0	1	0	0	1	401583,95	-0,0100000007	1,99327135	-2,7753799828804202E-005	-0,0099911755592036518	1,99151236E-005	-0,001165543379401665	4,3487990575216506E-005	0,001165543379401665
1	0	0	1	0	0	1	401723,95	-0,0100000007	1,89208746	-2,7753164585938474E-005	-0,0099909468761752602	1,89037455E-005	-0,0015540900081494214	5,7985187700293709E-005	0,0015540900081494214
1	0	0	1	0	0	1	401863,96	-0,0100000007	1,80281878	-2,7753155928208595E-005	-0,0099909437594525171	1,80118604E-005	-0,0019426372321272176	7,2482407034203981E-005	0,0019426372321272176
1	0	0	1	0	0	1	402003,96	-0,0100000007	1,72130263	-2,775375201832503E-005	-0,0099911583477625549	1,71978063E-005	-0,002331186261810136	8,6979693741400154E-005	0,002331186261810136
1	0	0	1	0	0	1	402143,96	-0,0100000007	1,64580131	-2,775357339386311E-005	-0,009991094044194423	1,6443355E-005	-0,0027197369271405363	0,00010147704147680304	0,0027197369271405363
1	0	0	1	0	0	1	402283,96	-0,0100000007	1,57579947	-2,7754164659314685E-005	-0,0099913068951933069	1,57442955E-005	-0,0031082925108109107	0,00011597457272208312	0,0031082925108109107
1	0	0	1	0	0	1	402423,97	-0,0100000007	1,51102948	-2,7754086350659946E-005	-0,0099912787048530317	1,50971164E-005	-0,0034968458974922611	0,00013047202199474886	0,0034968458974922611
1	0	0	1	0	0	1	402563,97	-0,0100000007	1,4508996	-2,7754002518589712E-005	-0,009991248525888841	1,44962987E-005	-0,0038853996829597811	0,00014496948614666275	0,0038853996829597811
1	0	0	1	0	0	1	402703,97	-0,0100000007	1,39533353	-2,7753845523421962E-005	-0,0099911920087166861	1,39410449E-005	-0,0042739554345447693	0,00015946702365706285	0,0042739554345447693
1	0	0	1	0	0	1	402843,97	-0,0100000007	1,34421635	-2,7752699027614048E-005	-0,0099907792779403213	1,34297688E-005	-0,0046625038113231162	0,00017396428600351165	0,0046625038113231162
1	0	0	1	0	0	1	402983,98	-0,0100000007	1,29630733	-2,7753849837152909E-005	-0,0099911935618625472	1,29516575E-005	-0,0050510464811533914	0,00018846133541605478	0,0050510464811533914
1	0	0	1	0	0	1	403123,98	-0,0100000007	1,25162518	-2,7752945921073357E-005	-0,0099908681583395226	1,25048218E-005	-0,0054395921151967418	0,00020295849542737318	0,0054395921151967418
1	0	0	1	0	0	1	403263,98	-0,0100000007	1,20942545	-2,7753195511694582E-005	-0,0099909580092330931	1,20833192E-005	-0,0058281399400256269	0,00021745573717984544	0,0058281399400256269
1	0	0	1	0	0	1	403403,98	-0,0100000007	1,16991806	-2,7753594955739875E-005	-0,009991101806320599	1,16887704E-005	-0,0062166855648343987	0,00023195289684660931	0,0062166855648343987
1	0	0	1	0	0	1	403543,99	-0,0100000007	1,13287401	-2,7753161224484858E-005	-0,0099909456660752589	1,13184824E-005	-0,0066052349931798771	0,00024645019842844163	0,0066052349931798771
1	0	0	1	0	0	1	403683,99	-0,0100000007	1,09812129	-2,7753415757221066E-005	-0,0099910372960959667	1,0971371E-005	-0,0069937831556016064	0,0002609474527769568	0,0069937831556016064
1	0	0	1	0	0	1	403823,99	-0,0100000007	1,06529713	-2,7754450868763443E-005	-0,0099914099286109555	1,06438201E-005	-0,0073823317837575757	0,00027544472450264262	0,0073823317837575757
1	0	0	1	0	0	1	403964,00	-0,0100000007	1,03428698	-2,7753371097302685E-005	-0,0099910212183696806	1,03335833E-005	-0,0077708839194012787	0,00028994212709741171	0,0077708839194012787
1	0	0	1	0	0	1	404104,00	-0,0100000007	1,00451803	-2,7753557844501405E-005	-0,009991088446183063	1,00362286E-005	-0,0081594339984212774	0,00030443945295678522	0,0081594339984212774
1	0	0	1	0	0	1	404244,00	-0,0100000007	0,976314783	-2,7755479254294186E-005	-0,0099917801404480909	9,75512285E-006	-0,0085480057758385523	0,00031893758841253491	0,0085480057758385523
1	0	0	1	0	0	1	404384,00	-0,0100000007	0,949772894	-2,7755847770979421E-005	-0,0099919128039585075	9,49004789E-006	-0,0089365871904899405	0,00033343608344644672	0,0089365871904899405
1	0	0	1	0	0	1	404524,01	-0,0100000007	0,9249686	-2,7755367009797034E-005	-0,0099917397330326771	9,24204596E-006	-0,0093251634153858573	0,00034793438484360416	0,0093251634153858573
1	0	0	1	0	0	1	404664,01	-0,0100000007	0,902226567	-2,7755461940541862E-005	-0,0099917739079080602	9,01484418E-006	-0,0097137442227073037	0,00036243285721721939	0,0097137442227073037
1	1	0	0	0	0	2	404788,35	0,0100000007	1,09654903	2,779815164177368E-005	0,010007141904442155	1,09733219E-005	-0,0094477626849168026	0,00035250872842627475	0,0003057823123257193
1	1	0	0	0	0	2	404928,35	0,0100000007	1,22899139	2,7798797305725101E-005	0,010007374338989162	1,22989768E-005	-0,0090585788684537856	0,00033798775697083322	0,00069496612878873331
1	1	0	0	0	0	2	405068,36	0,0100000007	1,3366102	2,7799137615391779E-005	0,010007496848110264	1,33761223E-005	-0,0086693968098320205	0,00032346685110281222	0,0010841481874105003
1	1	0	0	0	0	2	405208,36	0,0100000007	1,42880046	2,7798379775033226E-005	0,010007224030834258	1,42983263E-005	-0,0082802155902490048	0,00030894597654045504	0,0014733294069935155
1	1	0	0	0	0	2	405348,36	0,0100000007	1,50991559	2,7799273651714128E-005	0,010007545820243355	1,51105496E-005	-0,0078910281790655142	0,00029442487096115942	0,0018625168181770067
1	1	0	0	0	0	2	405488,37	0,0100000007	1,58316362	2,7799648908846493E-005	0,010007680910209862	1,58437961E-005	-0,0075018369801255398	0,00027990362405557677	0,0022517080171169821
1	1	0	0	0	0	2	405628,37	0,0100000007	1,65026319	2,7798522868659347E-005	0,010007275543081795	1,65146394E-005	-0,0071126489301670886	0,00026538249464272858	0,0026408960670754323
1	1	0	0	0	0	2	405768,37	0,0100000007	1,71235979	2,7799236746401421E-005	0,010007532534120592	1,71364954E-005	-0,0067234629749504474	0,00025086144338751373	0,0030300820222920749
1	1	0	0	0	0	2	405908,37	0,0100000007	1,76995003	2,7799245767243619E-005	0,010007535781677755	1,77128386E-005	-0,0063342744568548928	0,00023634029650784077	0,0034192705403876294
1	1	0	0	0	0	2	406048,38	0,0100000007	1,82328212	2,7799012504052371E-005	0,010007451808545803	1,82464082E-005	-0,0059450886095360576	0,00022181924927843808	0,0038084563877064634
1	1	0	0	0	0	2	406188,38	0,0100000007	1,87250876	2,7798434660614781E-005	0,010007243789030173	1,87386522E-005	-0,0055559074435099898	0,00020729837671436266	0,0041976375537325318
1	1	0	0	0	0	2	406328,38	0,0100000007	1,91751552	2,7798636888050368E-005	0,010007316589272221	1,9189185E-005	-0,0051667195734707494	0,00019277725401454211	0,0045868254237717722
1	1	0	0	0	0	2	406468,38	0,0100000007	1,95914233	2,7798365282412205E-005	0,010007218813591146	1,96055662E-005	-0,004777539187536407	0,00017825641055673779	0,0049760058097061139
1	1	0	0	0	0	2	406608,39	0,0100000007	1,9974277	2,7798737535201427E-005	0,010007352822014947	1,99889637E-005	-0,0043883591440592051	0,00016373557987646982	0,0053651858531833165
1	1	0	0	0	0	2	406748,39	0,0100000007	2,03229499	2,7798033136874435E-005	0,010007099243499861	2,03373784E-005	-0,0039991847159500237	0,00014921495871313261	0,0057543602812924979
1	1	0	0	0	0	2	406888,39	0,0100000007	2,06412625	2,7799036956961373E-005	0,010007460611773045	2,06566619E-005	-0,0036100038477741094	0,00013469409726224688	0,0061435411494684109
1	1	0	0	0	0	2	407028,40	0,0100000007	2,09326506	2,7798744291791485E-005	0,010007355254340534	2,09480477E-005	-0,0032208211675066829	0,00012017316819979043	0,0065327238297358374
1	1	0	0	0	0	2	407168,40	0,0100000007	2,12003613	2,7798508658849946E-005	0,010007270428114899	2,12157756E-005	-0,0028316389042404915	0,00010565225469621074	0,0069219060930020288
1	1	0	0	0	0	2	407308,40	0,0100000007	2,14461136	2,779880875048952E-005	0,010007378458559024	2,14619376E-005	-0,0024424579921021139	9,1131391605026368E-005	0,0073110870051404032
1	1	0	0	0	0	2	407448,40	0,0100000007	2,16750598	2,7798944289278653E-005	0,010007427251816605	2,16911576E-005	-0,002053274810513679	7,6610443837609062E-005	0,0077002701867288384
1	1	0	0	0	0	2	407588,41	0,0100000007	2,18873954	2,7798336651383178E-005	0,010007208506269664	2,19031735E-005	-0,0016640917147107638	6,2089499270964826E-005	0,0080894532825317517
1	1	0	0	0	0	2	407728,41	0,0100000007	2,20801282	2,7798840493532934E-005	0,010007389886067621	2,20964448E-005	-0,0012749077672677845	4,7568522928484781E-005	0,0084786372299747328
1	1	0	0	0	0	2	407868,41	0,0100000007	2,22636294	2,7799152985215187E-005	0,01000750238067415	2,22803319E-005	-0,00088572356435608986	3,3047537054123469E-005	0,0088678214328864243
1	1	0	0	0	0	2	408008,41	0,0100000007	2,24370122	2,7798990701635677E-005	0,010007443959710421	2,24537143E-005	-0,00049654118473387078	1,8526619209143923E-005	0,0092570038125086451
1	1	0	0	0	0	2	408148,42	0,0100000007	2,25974083	2,779932620572961E-005	0,010007564739324643	2,26145021E-005	-0,0001073552302063036	4,005567979639335E-006	0,0096461897670362099
1	1	0	0	0	0	2	408288,42	0,0100000007	2,27478766	2,7798890364408077E-005	0,010007407839469984	2,27647288E-005	0,00028182726081135712	-1,0515354021653906E-005	0,010035372258053874
1	1	0	0	0	0	2	408428,42	0,0100000007	2,28876519	2,7798596667022342E-005	0,010007302110446922	2,29043653E-005	0,0006710085149065481	-2,5036229871706742E-005	0,010424553512149064
1	1	0	0	0	0	2	408568,42	0,0100000007	2,30171156	2,7798189557002237E-005	0,010007155553661622	2,30335863E-005	0,0010601934185269285	-3,9557241890451226E-005	0,010813738415769446
1	1	0	0	0	0	2	408708,43	0,0100000007	2,31393218	2,7798753332915818E-005	0,010007358509082622	2,31563481E-005	0,0014493774147101056	-5,4078220051493606E-005	0,011202922411952626
1	1	0	0	0	0	2	408848,43	0,0100000007	2,3250072	2,779907354210607E-005	0,010007473781705539	2,32674483E-005	0,001838562096251599	-6,859922378417623E-005	0,011592107093494118
1	1	0	0	0	0	2	408988,43	0,0100000007	2,33539486	2,7798778895185222E-005	0,010007367710856426	2,33711544E-005	0,002227744748830961	-8,3120151813553766E-005	0,011981289746073482
1	1	0	0	0	0	2	409128,44	0,0100000007	2,34511423	2,7798580447781005E-005	0,01000729627139947	2,3468252E-005	0,002616923312596055	-9,7640927283773491E-005	0,012370468309838579
1	1	0	0	0	0	2	409268,44	0,0100000007	2,35427976	2,7798476287681194E-005	0,01000725877436904	2,35598873E-005	0,0030061060189643654	-0,00011216185732008902	0,012759651016206894
1	1	0	0	0	0	2	409408,44	0,0100000007	2,36264324	2,779885813428296E-005	0,01000739623661535	2,36439064E-005	0,0033952898770135706	-0,00012668283032716718	0,013148834874256098
1	1	0	0	0	0	2	409548,44	0,0100000007	2,37070131	2,779903695758225E-005	0,010007460611530557	2,37247004E-005	0,0037844680563730477	-0,00014120359145469651	0,013538013053615574
1	1	0	0	0	0	2	409688,45	0,0100000007	2,37835836	2,7798513678368179E-005	0,01000727223510667	2,38008797E-005	0,0041736513380270739	-0,00015572454295569555	0,013927196335269602
1	1	0	0	0	0	2	409828,45	0,0100000007	2,38565278	2,7798587089456202E-005	0,010007298662589501	2,38739394E-005	0,0045628304227317446	-0,00017024533786287133	0,014316375419974269
1	1	0	0	0	0	2	409968,45	0,0100000007	2,39260316	2,7798447978113674E-005	0,010007248583470459	2,39433739E-005	0,0049520136762148685	-0,00018476628831277613	0,014705558673457392
1	1	0	0	0	0	2	410108,45	0,0100000007	2,39932466	2,7798348179656186E-005	0,01000721265671753	2,40105528E-005	0,0053411949818245114	-0,0001992871660849024	0,01509473997906704
1	1	0	0	0	0	2	410248,46	0,0100000007	2,40585518	2,7798519735172803E-005	0,010007274415514352	2,40760528E-005	0,0057303774982121229	-0,00021380808903278262	0,01548392249545465
1	1	0	0	0	0	2	410388,46	0,0100000007	2,41227102	2,7798970974050461E-005	0,010007436858382486	2,41406506E-005	0,0061195593602743795	-0,0002283289875669041	0,015873104357516912
1	1	0	0	0	0	2	410528,46	0,0100000007	2,41834307	2,779844652892401E-005	0,010007248061306234	2,42009592E-005	0,0065087379501204378	-0,00024284976401023968	0,016262282947362973
1	1	0	0	0	0	2	410668,47	0,0100000007	2,42418623	2,7798400551753325E-005	0,010007231510076482	2,42593924E-005	0,0068979185595481933	-0,00025737061580688371	0,01665146355679073
1	1	0	0	0	0	2	410808,47	0,0100000007	2,43004823	2,7798888870980592E-005	0,010007407301496944	2,43184822E-005	0,0072871018624054336	-0,0002718915680990032	0,017040646859647971
1	1	0	0	0	0	2	410948,47	0,0100000007	2,43577671	2,7799344442474346E-005	0,010007571304076835	2,43762097E-005	0,0076762859317022451	-0,00028641254898801363	0,017429830928944778
1	1	0	0	0	0	2	411088,47	0,0100000007	2,44106603	2,7799006743822246E-005	0,010007449734786386	2,44288458E-005	0,0080654764719059661	-0,00030093377131526099	0,017819021469148499
1	1	0	0	0	0	2	411228,48	0,0100000007	2,44637442	2,7798955072131421E-005	0,010007431133335859	2,44819239E-005	0,0084546658348586061	-0,00031545494971768768	0,018208210832101136
1	1	0	0	0	0	2	411368,48	0,0100000007	2,45141554	2,77980822683312E-005	0,010007116930483734	2,45316023E-005	0,008843843028567273	-0,0003299756740692601	0,018597388025809802
1	1	0	0	0	0	2	411508,48	0,0100000007	2,45651388	2,7798326086304666E-005	0,010007204703264126	2,45828378E-005	0,0092330220788480896	-0,00034449646769203558	0,018986567076090611
1	1	0	0	0	0	2	411648,48	0,0100000007	2,46124935	2,7798762710351082E-005	0,010007361884894317	2,46306136E-005	0,0096222049240124403	-0,00035901740290701798	0,01937574992125496
1	1	0	0	0	0	2	411788,49	0,0100000007	2,46604228	2,7798167576599456E-005	0,010007147640868981	2,46780492E-005	0,010011382183830317	-0,00037353812972521382	0,019764927181072835
1	1	0	0	0	0	2	411928,49	0,0100000007	2,47060585	2,7798275259685597E-005	0,010007186406033571	2,47238131E-005	0,010400558892808347	-0,00038805883599083443	0,02015410389005087
1	1	0	0	0	0	2	412068,49	0,0100000007	2,47505498	2,7798778646832541E-005	0,010007367621917174	2,47687858E-005	0,010789743413794021	-0,00040257983373296352	0,020543288411036544
1	1	0	0	0	0	2	412208,49	0,0100000007	2,47942781	2,7798542202967734E-005	0,010007282503298798	2,48123342E-005	0,011178923883984187	-0,00041710068033446592	0,020932468881226704
1	1	0	0	0	0	2	412348,50	0,0100000007	2,48360944	2,7798672792087827E-005	0,010007329514709827	2,48542983E-005	0,011568107265426995	-0,00043162163555871866	0,021321652262669517
1	1	0	0	0	0	2	412488,50	0,0100000007	2,48792505	2,7798682657536118E-005	0,010007333066144579	2,48974939E-005	0,011957285940868224	-0,00044614241519572512	0,021710830938110746
1	1	0	0	0	0	2	412628,50	0,0100000007	2,49191594	2,7798599320981238E-005	0,010007303065620731	2,49373588E-005	0,01234646869759744	-0,00046066334711107379	0,022100013694839965
1	1	0	0	0	0	2	412768,51	0,0100000007	2,49586844	2,7798500040442579E-005	0,010007267325081997	2,49768236E-005	0,012735648142549379	-0,00047518415545955936	0,022489193139791898
1	1	0	0	0	0	2	412908,51	0,0100000007	2,49972558	2,7798446811321706E-005	0,010007248163433438	2,50153735E-005	0,013124828807929805	-0,00048970500934387277	0,022878373805172323
1	1	0	0	0	0	2	413048,51	0,0100000007	2,50358272	2,7797670730493139E-005	0,010006968779714661	2,50532739E-005	0,013514002571472499	-0,00050422560571134086	0,023267547568715011
1	1	0	0	0	0	2	413188,51	0,0100000007	2,50713444	2,7798261016089885E-005	0,010007181278437846	2,50893481E-005	0,01390318001218209	-0,00051874633927884973	0,023656725009424605
1	1	0	0	0	0	2	413328,52	0,0100000007	2,51070523	2,7797731105238202E-005	0,010006990514204387	2,51246038E-005	0,014292354966398346	-0,00053326698007194931	0,024045899963640854
1	1	0	0	0	0	2	413468,52	0,0100000007	2,51439047	2,77973493981796E-005	0,010006853102309146	2,51611364E-005	0,014681523934496374	-0,00054778739751492928	0,02443506893173889
1	1	0	0	0	0	2	413608,52	0,0100000007	2,51765585	2,7797827406113763E-005	0,010007025181852067	2,51942456E-005	0,015070694930086496	-0,00056230789060636531	0,024824239927329008
1	1	0	0	0	0	2	413748,52	0,0100000007	2,52101636	2,7797957894030128E-005	0,010007072156131483	2,52279933E-005	0,015459866269371696	-0,00057682839652152678	0,025213411266614205
1	1	0	0	0	0	2	413888,53	0,0100000007	2,52435803	2,7797710489171245E-005	0,010006983092097208	2,52612081E-005	0,015849040134265053	-0,00059134899667052416	0,025602585131507562
1	1	0	0	0	0	2	414028,53	0,0100000007	2,52752781	2,7798049285800918E-005	0,010007105056651968	2,52932368E-005	0,016238213500005206	-0,00060586957819544448	0,025991758497247715
1	1	0	0	0	0	2	414168,53	0,0100000007	2,53065944	2,7798263843895658E-005	0,010007182296078835	2,53247708E-005	0,016627382983878061	-0,00062039001488267686	0,026380927981120573
1	1	0	0	0	0	2	414308,54	0,0100000007	2,53369546	2,7798283147211706E-005	0,010007189245022309	2,53551698E-005	0,017016556844859914	-0,00063491061488573094	0,026770101842102422
1	1	0	0	0	0	2	414448,54	0,0100000007	2,53663611	2,7798457520858698E-005	0,01000725201832653	2,53847575E-005	0,01740574005494511	-0,00064943156371640077	0,027159285052187619
1	1	0	0	0	0	2	414588,54	0,0100000007	2,53961492	2,779858482623887E-005	0,010007297847846947	2,54146835E-005	0,017794920251474877	-0,00066395240010726566	0,027548465248717389
1	1	0	0	0	0	2	414728,54	0,0100000007	2,54257464	2,7799377649401626E-005	0,010007583258689981	2,54450279E-005	0,018184107695708944	-0,00067847350691972262	0,027937652692951453
1	1	0	0	0	0	2	414868,55	0,0100000007	2,54538155	2,7799361678409494E-005	0,010007577509243517	2,5473104E-005	0,018573293197478541	-0,00069299454125621862	0,028326838194721053
1	1	0	0	0	0	2	415008,55	0,0100000007	2,54801679	2,7798815185100669E-005	0,010007380775440432	2,54989736E-005	0,018962482778262931	-0,0007075157277862409	0,028716027775505443
1	1	0	0	0	0	2	415148,55	0,0100000007	2,55065179	2,7798660710040067E-005	0,010007325165489379	2,55252016E-005	0,019351664389088922	-0,00072203661694639949	0,02910520938633143
1	1	0	0	0	0	2	415288,55	0,0100000007	2,55332494	2,7798403950045923E-005	0,010007232733671254	2,5551717E-005	0,019740841818177114	-0,00073655735008029837	0,029494386815419622
1	1	0	0	0	0	2	415428,56	0,0100000007	2,55569291	2,7798033635338973E-005	0,010007099422477654	2,55750729E-005	0,020130015777724198	-0,00075107795376095373	0,029883560774966707
1	1	0	0	0	0	2	415568,56	0,0100000007	2,55830884	2,7798498488445248E-005	0,01000726676660671	2,56016792E-005	0,020519194996613773	-0,00076559875367474867	0,030272739993856282
1	1	0	0	0	0	2	415708,56	0,0100000007	2,56090569	2,7798914150955776E-005	0,010007416402112778	2,56280491E-005	0,020908375445833398	-0,00078011959949381197	0,03066192044307591
1	1	0	0	0	0	2	415848,56	0,0100000007	2,56308246	2,7799145634389584E-005	0,01000749973466089	2,56500462E-005	0,021297560722237475	-0,00079464062542161741	0,031051105719479987
1	1	0	0	0	0	2	415988,57	0,0100000007	2,56548858	2,7799261990934608E-005	0,010007541621977552	2,56742333E-005	0,021686747758020774	-0,00080916171699422707	0,031440292755263277
1	1	0	0	0	0	2	416128,57	0,0100000007	2,56783724	2,7799270075280218E-005	0,010007544532285934	2,56977455E-005	0,022075938837334845	-0,00082368295943640653	0,03182948383457735
1	1	0	0	0	0	2	416268,57	0,0100000007	2,56993771	2,7799492192609859E-005	0,010007624493450973	2,57189713E-005	0,022465129937175994	-0,00083820420264447872	0,03221867493441849
1	1	0	0	0	0	2	416408,58	0,0100000007	2,57224822	2,7799235261200618E-005	0,0100075319999246	2,5741856E-005	0,022854320401293299	-0,00085272542213283968	0,032607865398535789
1	1	0	0	0	0	2	416548,58	0,0100000007	2,57429123	2,7799696913195981E-005	0,01000769819144293	2,57627289E-005	0,023243513053040714	-0,00086724672324462131	0,032997058050283181
1	1	0	0	0	0	2	416688,58	0,0100000007	2,57650638	2,7799196315929296E-005	0,010007517979896878	2,57844331E-005	0,023632704050623315	-0,0008817679626372896	0,033386249047865792
1	1	0	0	0	0	2	416828,58	0,0100000007	2,57854939	2,7799200738624982E-005	0,010007519572036669	2,5804884E-005	0,024021897304593712	-0,00089628928621882048	0,033775442301836173
1	1	0	0	0	0	2	416968,59	0,0100000007	2,58040166	2,7799359809452045E-005	0,010007576835965787	2,58235686E-005	0,02441108846891032	-0,00091081053183255885	0,034164633466152781
1	1	0	0	0	0	2	417108,59	0,0100000007	2,58240652	2,7799370766306918E-005	0,01000758078035759	2,58436412E-005	0,024800278147784854	-0,00092533172202245619	0,034553823145027328
1	1	0	0	0	0	2	417248,59	0,0100000007	2,58431602	2,7799202967486861E-005	0,010007520374061995	2,58625951E-005	0,025189467485964474	-0,00093985289950056819	0,03494301248320695
1	1	0	0	0	0	2	417388,59	0,0100000007	2,58611107	2,7799448334818915E-005	0,010007608704600733	2,58807868E-005	0,025578657537881718	-0,00095437410360919066	0,035332202535124205
1	1	0	0	0	0	2	417528,60	0,0100000007	2,58807778	2,7799259120029293E-005	0,010007540588704542	2,59002936E-005	0,025967845342130214	-0,00096889522385426995	0,035721390339372704
1	1	0	0	0	0	2	417668,60	0,0100000007	2,58993006	2,7799065973454464E-005	0,010007471057043427	2,59186509E-005	0,026357035074960973	-0,00098341641605734682	0,036110580072203475
1	1	0	0	0	0	2	417808,60	0,0100000007	2,59168673	2,779950729576457E-005	0,010007629930481979	2,59366425E-005	0,026746224953777997	-0,00099793761370736717	0,036499769951020506
1	1	0	0	0	0	2	417948,61	0,0100000007	2,59350085	2,7799779361424349E-005	0,010007727872233638	2,59550507E-005	0,027135420307644656	-0,0010124590156388507	0,036888965304887162
1	1	0	0	0	0	2	418088,61	0,0100000007	2,59514284	2,7799328215834166E-005	0,01000756546294835	2,59710614E-005	0,027524611558746304	-0,0010269802644906557	0,037278156555988794
1	1	0	0	0	0	2	418228,61	0,0100000007	2,59670877	2,7799777481704947E-005	0,010007727195547686	2,59871522E-005	0,027913800849764726	-0,00104150144020912	0,037667345847007213
1	1	0	0	0	0	2	418368,61	0,0100000007	2,59838915	2,779937519122743E-005	0,010007582373764309	2,6003594E-005	0,028302987345031424	-0,0010560225116143286	0,038056532342273894
1	1	0	0	0	0	2	418508,62	0,0100000007	2,60010767	2,7798977443120544E-005	0,010007439187202875	2,60204197E-005	0,028692173637155405	-0,0010705435754400094	0,038445718634397869
1	1	0	0	0	0	2	418648,62	0,0100000007	2,601578	2,7799088211988822E-005	0,010007479062761645	2,60352372E-005	0,02908136001887831	-0,0010850646426087464	0,038834905016120762
1	1	0	0	0	0	2	418788,62	0,0100000007	2,60321999	2,7799503261896058E-005	0,010007628478084272	2,60520592E-005	0,029470545831113606	-0,001099585688529135	0,039224090828356045
1	1	0	0	0	0	2	418928,62	0,0100000007	2,60469031	2,7799453969682669E-005	0,010007610733112629	2,60667275E-005	0,02985973751608393	-0,0011141069535691634	0,039613282513326368
1	1	0	0	0	0	2	419068,63	0,0100000007	2,60619879	2,779859982405065E-005	0,010007303246605734	2,60810211E-005	0,030248920940372032	-0,0011286279103920317	0,040002465937614464
1	1	0	0	0	0	2	419208,63	0,0100000007	2,60761189	2,779820493489711E-005	0,010007161089131197	2,60947927E-005	0,030638098146567251	-0,0011431486352094941	0,040391643143809683
1	1	0	0	0	0	2	419348,63	0,0100000007	2,60906315	2,7799601800222362E-005	0,010007663950965706	2,6110627E-005	0,031027281817854918	-0,001157669601248248	0,040780826815097357
1	1	0	0	0	0	2	419488,63	0,0100000007	2,61055255	2,7798998016501878E-005	0,010007446593477547	2,61249661E-005	0,031416469864637606	-0,0011721907305426043	0,041170014861880058
1	1	0	0	0	0	2	419628,64	0,0100000007	2,6119082	2,7798548814944096E-005	0,010007284884030446	2,61381101E-005	0,031805653571456083	-0,0011867116979070605	0,041559198568698534
1	1	0	0	0	0	2	419768,64	0,0100000007	2,61326408	2,779888609010312E-005	0,010007406300749827	2,61519963E-005	0,032194837057252915	-0,0012012326570249024	0,041948382054495366
1	1	0	0	0	0	2	419908,64	0,0100000007	2,61463881	2,7797765835498771E-005	0,010007003016857456	2,61646983E-005	0,032584014669744704	-0,001215753397001836	0,042337559666987155
1	1	0	0	0	0	2	420048,65	0,0100000007	2,61589909	2,7798622966692262E-005	0,010007311578145795	2,6178117E-005	0,032973193974337683	-0,0012302742001133405	0,042726738971580134
1	1	0	0	0	0	2	420188,65	0,0100000007	2,61740756	2,7798896536644963E-005	0,010007410060966482	2,61934711E-005	0,033362374408173824	-0,0012447950453584248	0,043115919405416275
1	1	0	0	0	0	2	420328,65	0,0100000007	2,61851501	2,7799022711658227E-005	0,010007455483096656	2,62046724E-005	0,033751560690417299	-0,0012593161088154506	0,04350510568765975
1	1	0	0	0	0	2	420468,65	0,0100000007	2,6199472	2,7797771352964141E-005	0,010007005002873757	2,62178255E-005	0,034140740328214061	-0,0012738369243592363	0,043894285325456512
1	1	0	0	0	0	2	420608,66	0,0100000007	2,62107372	2,7798824483580474E-005	0,01000738412247921	2,6230091E-005	0,034529921896881248	-0,0012883578119463931	0,044283466894123699
1	1	0	0	0	0	2	420748,66	0,0100000007	2,62239122	2,7798585317511523E-005	0,010007298024468702	2,62430513E-005	0,034919102504692275	-0,0013028786636827149	0,044672647501934726
1	1	0	0	0	0	2	420888,66	0,0100000007	2,62355614	2,7798930511292483E-005	0,010007422291604088	2,62550348E-005	0,035308284259061786	-0,0013173995581986752	0,045061829256304237
1	1	0	0	0	0	2	421028,66	0,0100000007	2,62479734	2,779960992746055E-005	0,010007666877181126	2,62680969E-005	0,035697477030541638	-0,001331920863777835	0,04545102202778409
1	1	0	0	0	0	2	421168,67	0,0100000007	2,62596202	2,7798858295401766E-005	0,010007396294850002	2,62790418E-005	0,036086662418436032	-0,0013464418938654941	0,045840207415678483
1	1	0	0	0	0	2	421308,67	0,0100000007	2,62708879	2,7799005013735344E-005	0,010007449112433091	2,62904578E-005	0,03647584547232535	-0,0013609628368682858	0,046229390469567802
1	1	0	0	0	0	2	421448,67	0,0100000007	2,62811971	2,7798754507675766E-005	0,010007358931988062	2,63005368E-005	0,036865028682506003	-0,001375483785702517	0,046618573679748454
1	1	0	0	0	0	2	421588,68	0,0100000007	2,62947559	2,7798208256459069E-005	0,010007162285336464	2,63135898E-005	0,037254207712566822	-0,0013900045785708573	0,047007752709809274
1	1	0	0	0	0	2	421728,68	0,0100000007	2,63046837	2,7798140832843878E-005	0,010007138013302352	2,63234597E-005	0,037643382389034368	-0,001404525209000779	0,047396927386276819
1	1	0	0	0	0	2	421868,68	0,0100000007	2,63153768	2,7798450705491834E-005	0,010007249564841701	2,63344537E-005	0,038032555817562726	-0,0014190457928684117	0,047786100814805178
1	1	0	0	0	0	2	422008,68	0,0100000007	2,63251162	2,7799067992510067E-005	0,010007471783889446	2,63447855E-005	0,038421735892428294	-0,0014335666247198218	0,048175280889670746
1	1	0	0	0	0	2	422148,69	0,0100000007	2,63367653	2,7798524490712832E-005	0,010007276127126302	2,63559286E-005	0,038810919194799802	-0,0014480875769938179	0,048564464192042253
1	1	0	0	0	0	2	422288,69	0,0100000007	2,63455486	2,7798702372600221E-005	0,010007340163372752	2,63648872E-005	0,039200100079492461	-0,0014626084390609658	0,048953645076734912
1	1	0	0	0	0	2	422428,69	0,0100000007	2,6356051	2,7798255361823568E-005	0,010007179242475181	2,63749735E-005	0,039589284364635027	-0,001477129428003471	0,049342829361877478
1	1	0	0	0	0	2	422568,69	0,0100000007	2,63661695	2,7798673504963517E-005	0,010007329771107139	2,63854945E-005	0,039978468697143667	-0,0014916504187132688	0,049732013694386118
1	1	0	0	0	0	2	422708,70	0,0100000007	2,63762903	2,7799212813170419E-005	0,01000752391878933	2,63961356E-005	0,040367652948130029	-0,0015061714063813606	0,05012119794537248
1	1	0	0	0	0	2	422848,70	0,0100000007	2,63862205	2,7798985396253152E-005	0,010007442050275485	2,64058581E-005	0,040756839048584666	-0,0015206924630556003	0,050510384045827117
1	1	0	0	0	0	2	422988,70	0,0100000007	2,63957667	2,7798415575124739E-005	0,010007236918619046	2,64148694E-005	0,041146019246260006	-0,001535213299489208	0,050899564243502458
1	1	0	0	0	0	2	423128,71	0,0100000007	2,64055061	2,7798801610918922E-005	0,010007375888829094	2,64249829E-005	0,041535199786916122	-0,0015497341487198899	0,051288744784158573
1	1	0	0	0	0	2	423268,71	0,0100000007	2,64158177	2,7799650390373754E-005	0,010007681443549405	2,64361097E-005	0,041924389321477094	-0,0015642553335252541	0,051677934318719546
1	1	0	0	0	0	2	423408,71	0,0100000007	2,64230728	2,7799078378929862E-005	0,010007475523394578	2,64428254E-005	0,042313576231354426	-0,001578776420400143	0,052067121228596877
1	1	0	0	0	0	2	423548,71	0,0100000007	2,64322376	2,7799015402535184E-005	0,010007452851863024	2,64519367E-005	0,042702762830845216	-0,0015932974956940925	0,052456307828087667
1	1	0	0	0	0	2	423688,72	0,0100000007	2,64408326	2,7797965065524397E-005	0,010007074738052701	2,64595383E-005	0,043091945810131251	-0,0016078184359133354	0,052845490807373702
1	1	0	0	0	0	2	423828,72	0,0100000007	2,64492321	2,7798369983366381E-005	0,010007220505552573	2,64683295E-005	0,043481122395621075	-0,0016223391375714451	0,053234667392863526
1	1	0	0	0	0	2	423968,72	0,0100000007	2,64580178	2,7799055941661616E-005	0,010007467445900536	2,64777755E-005	0,043870306124837901	-0,0016368601057716141	0,053623851122080352
1	1	0	0	0	0	2	424108,72	0,0100000007	2,64654636	2,7798637000895626E-005	0,010007316629895731	2,64848277E-005	0,044259487023355898	-0,0016513809683546035	0,054013032020598349
1	1	0	0	0	0	2	424248,73	0,0100000007	2,64765382	2,779831516183913E-005	0,010007200770066269	2,64956034E-005	0,044648666815469235	-0,0016659017896561478	0,054402211812711686
1	1	0	0	0	0	2	424388,73	0,0100000007	2,64837956	2,7798826858763478E-005	0,010007384977878128	2,65033541E-005	0,045037848590291763	-0,0016804226849352378	0,054791393587534214
1	1	0	0	0	0	2	424528,73	0,0100000007	2,64921975	2,7798280215511722E-005	0,010007188190096624	2,65112412E-005	0,045427030482136941	-0,0016949435845805997	0,055180575479379392
1	1	0	0	0	0	2	424668,73	0,0100000007	2,65005994	2,779864438224791E-005	0,010007319287597382	2,6519996E-005	0,045816207595102432	-0,001709464305919536	0,055569752592344883
1	1	0	0	0	0	2	424808,74	0,0100000007	2,65086174	2,7798082610799206E-005	0,010007117053769842	2,6527483E-005	0,046205385118952794	-0,0017239850425891386	0,055958930116195245
1	1	0	0	0	0	2	424948,74	0,0100000007	2,65145373	2,7798407301927606E-005	0,010007233940325426	2,65337185E-005	0,046594559494663136	-0,0017385056617974048	0,056348104491905587
1	1	0	0	0	0	2	425088,74	0,0100000007	2,6524086	2,7798020484081162E-005	0,010007094688116003	2,65429044E-005	0,046983735658752941	-0,001753026347732513	0,056737280655995392
1	1	0	0	0	0	2	425228,75	0,0100000007	2,65301967	2,7798380156875485E-005	0,010007224167828835	2,65493618E-005	0,04737291166973145	-0,001767547027954833	0,057126456666973901
1	1	0	0	0	0	2	425368,75	0,0100000007	2,65384054	2,7798526056317821E-005	0,01000727669073325	2,65577164E-005	0,047762093533980346	-0,0017820679265705408	0,057515638531222797
1	1	0	0	0	0	2	425508,75	0,0100000007	2,65466166	2,7799203737380189E-005	0,010007520651218256	2,65665822E-005	0,048151278387905408	-0,0017965889367350861	0,057904823385147853
1	1	0	0	0	0	2	425648,75	0,0100000007	2,65536833	2,779912997275177E-005	0,010007494096579835	2,65735835E-005	0,048540464370835264	-0,0018111099890243184	0,058294009368077709
1	1	0	0	0	0	2	425788,76	0,0100000007	2,65607476	2,7799528429129472E-005	0,010007637537880848	2,6581034E-005	0,048929653214014016	-0,0018256311480332829	0,058683198211256474
1	1	0	0	0	0	2	425928,76	0,0100000007	2,65674305	2,7799129091979315E-005	0,010007493779740858	2,65873387E-005	0,049318839576857299	-0,0018401522144975955	0,05907238457409975
1	1	0	0	0	0	2	426068,76	0,0100000007	2,65756416	2,7799108668540918E-005	0,010007486427444602	2,65955368E-005	0,049708027476675686	-0,0018546733383085162	0,059461572473918144
1	1	0	0	0	0	2	426208,76	0,0100000007	2,65830874	2,7798923402093354E-005	0,010007419732807677	2,6602811E-005	0,050097212880805165	-0,001869194369001928	0,059850757878047616
1	1	0	0	0	0	2	426348,77	0,0100000007	2,65897727	2,7798954403079632E-005	0,01000743089294785	2,66095321E-005	0,050486392298957664	-0,0018837151763504902	0,060239937296200115
1	1	0	0	0	0	2	426488,77	0,0100000007	2,6596837	2,7799184819269514E-005	0,010007513841179048	2,66168208E-005	0,050875575143657805	-0,0018982361115481526	0,060629120140900262
1	1	0	0	0	0	2	426628,77	0,0100000007	2,66023755	2,7798355803048854E-005	0,010007215401086048	2,66215702E-005	0,051264757027461997	-0,001912757010893495	0,061018302024704448
1	1	0	0	0	0	2	426768,78	0,0100000007	2,66103935	2,7797959230581504E-005	0,010007072637280714	2,66292136E-005	0,051653932637074477	-0,0019272776761403088	0,061407477634316928
1	1	0	0	0	0	2	426908,78	0,0100000007	2,66166949	2,7798340500694595E-005	0,01000720989211159	2,66358857E-005	0,052043112689588403	-0,0019417985071577491	0,061796657686830848
1	1	0	0	0	0	2	427048,78	0,0100000007	2,66216612	2,7798360435757786E-005	0,010007217068479658	2,66408733E-005	0,05243228854988679	-0,0019563191817579914	0,062185833547129242
1	1	0	0	0	0	2	427188,78	0,0100000007	2,66277695	2,7798359974080493E-005	0,01000721690239553	2,6646987E-005	0,052821467548429728	-0,0019708399734503565	0,062575012545672179
1	1	0	0	0	0	2	427328,79	0,0100000007	2,66348362	2,7798580196841309E-005	0,010007296180829923	2,66542702E-005	0,053210646312623142	-0,0019853607563988266	0,062964191309865613
1	1	0	0	0	0	2	427468,79	0,0100000007	2,66417098	2,7798546766500096E-005	0,010007284146138813	2,66611169E-005	0,053599828613535821	-0,0019998816713070474	0,063353373610778278
1	1	0	0	0	0	2	427608,79	0,0100000007	2,66461015	2,7798123599081821E-005	0,010007131809267467	2,66651041E-005	0,053989003675403341	-0,00201440231611676	0,063742548672645824
1	1	0	0	0	0	2	427748,79	0,0100000007	2,66529751	2,7798260347917677E-005	0,010007181037900483	2,66721145E-005	0,054378183273528653	-0,0020289231301803507	0,064131728270771136
1	1	0	0	0	0	2	427888,80	0,0100000007	2,66604233	2,7798515382791971E-005	0,010007272848687421	2,66798124E-005	0,054767357524854957	-0,0020434437447476803	0,064520902522097472
1	1	0	0	0	0	2	428028,80	0,0100000007	2,66655779	2,7798215644330618E-005	0,010007164944919011	2,66846837E-005	0,055156533874582752	-0,0020579644376091923	0,064910078871825242
1	1	0	0	0	0	2	428168,80	0,0100000007	2,66714978	2,779777556554311E-005	0,010007006519605974	2,66901861E-005	0,055545706522899066	-0,0020724849923660643	0,06529925152014153
1	1	0	0	0	0	2	428308,80	0,0100000007	2,66777992	2,7797657969873398E-005	0,010006964185514032	2,6696378E-005	0,055934874082219488	-0,0020870053572456579	0,065688419079461939
1	1	0	0	0	0	2	428448,81	0,0100000007	2,66837192	2,7797583823402723E-005	0,010006937493298544	2,67022315E-005	0,056324038919832461	-0,0021015256205746867	0,066077583917074906
1	1	0	0	0	0	2	428588,81	0,0100000007	2,66905928	2,779776971947609E-005	0,010007004414829379	2,67092873E-005	0,056713207310225632	-0,0021160460164627216	0,06646675230746807
1	1	0	0	0	0	2	428728,81	0,0100000007	2,66961312	2,7798564715207453E-005	0,010007290607665546	2,67155938E-005	0,057102380981049562	-0,0021305666093707283	0,066855925978291994
1	1	0	0	0	0	2	428868,82	0,0100000007	2,67024326	2,7797935240539827E-005	0,01000706400126499	2,67212945E-005	0,057491559444319827	-0,0021450873810913507	0,067245104441562253
1	1	0	0	0	0	2	429008,82	0,0100000007	2,67073965	2,7798188113348765E-005	0,010007155033490394	2,67265059E-005	0,057880734800715776	-0,0021596080368903155	0,067634279797958234
1	1	0	0	0	0	2	429148,82	0,0100000007	2,67136979	2,7797912761413802E-005	0,01000705590916843	2,67325468E-005	0,058269904502811008	-0,0021741284817197181	0,068023449500053466
1	1	0	0	0	0	2	429288,82	0,0100000007	2,67198086	2,7798364682588726E-005	0,010007218597658851	2,67390969E-005	0,058659077649192781	-0,0021886490550600819	0,068412622646435226
1	1	0	0	0	0	2	429428,83	0,0100000007	2,67251539	2,7798181573135984E-005	0,01000715267952511	2,67442701E-005	0,059048250416147827	-0,0022031696142435251	0,068801795413390298
1	1	0	0	0	0	2	429568,83	0,0100000007	2,67301202	2,7798174463781632E-005	0,010007150120206826	2,67492323E-005	0,059437425813062093	-0,0022176902715542826	0,069190970810304589
1	1	0	0	0	0	2	429708,83	0,0100000007	2,67373753	2,7797907843513206E-005	0,010007054138758306	2,67562355E-005	0,059826600449649024	-0,0022322109004962051	0,069580145446891533
1	1	0	0	0	0	2	429848,83	0,0100000007	2,67406225	2,7796987289873264E-005	0,010006722745828867	2,67586001E-005	0,060215765798869978	-0,0022467311829140157	0,069969310796112499
1	1	0	0	0	0	2	429988,84	0,0100000007	2,67474961	2,7797383611038739E-005	0,010006865418235312	2,67658597E-005	0,060604929706755917	-0,0022612514115536787	0,0703584747039984
1	1	0	0	0	0	2	430128,84	0,0100000007	2,67515063	2,7796884190860304E-005	0,010006685630665866	2,67693922E-005	0,060994091157369946	-0,002275771548509224	0,07074763615461239
1	1	0	0	0	0	2	430268,84	0,0100000007	2,6757617	2,779693802461649E-005	0,010006705010328443	2,67755586E-005	0,061383253291069082	-0,002290291710951592	0,071136798288311539
1	1	0	0	0	0	2	430408,85	0,0100000007	2,67627716	2,7797627785087872E-005	0,010006953319316963	2,67813812E-005	0,06177241693561673	-0,0023048119297657494	0,071525961932859162
1	1	0	0	0	0	2	430548,85	0,0100000007	2,6767354	2,7797433696221562E-005	0,010006883448553955	2,67857795E-005	0,062161581280618995	-0,0023193321747148106	0,07191512627786144
1	1	0	0	0	0	2	430688,85	0,0100000007	2,67721272	2,779717174384536E-005	0,010006789147514283	2,67903033E-005	0,062550744150168678	-0,0023338523646127523	0,072304289147411123
1	1	0	0	0	0	2	430828,85	0,0100000007	2,67791939	2,7797869292812214E-005	0,010007040260773168	2,67980467E-005	0,062939909307216128	-0,0023483726398603114	0,072693454304458573
1	1	0	0	0	0	2	430968,86	0,0100000007	2,6783967	2,7797003468239888E-005	0,010006728569928707	2,68019885E-005	0,06332906925556009	-0,0023628927207641398	0,073082614252802534
1	1	0	0	0	0	2	431108,86	0,0100000007	2,67885494	2,7796804874204099E-005	0,010006657077452406	2,68063832E-005	0,063718230496517811	-0,0023774128498971261	0,073471775493760256
1	1	0	0	0	0	2	431248,86	0,0100000007	2,67946601	2,7797573081579888E-005	0,010006933626782757	2,68132389E-005	0,064107390850140787	-0,0023919329459224595	0,073860935847383232
1	1	0	0	0	0	2	431388,86	0,0100000007	2,680058	2,779745220594729E-005	0,010006890112392886	2,68190452E-005	0,064496554805435264	-0,002406453176330999	0,074250099802677696
1	1	0	0	0	0	2	431528,87	0,0100000007	2,68051624	2,7797563609822342E-005	0,010006930217015696	2,68237382E-005	0,064885717569631987	-0,0024209733622980803	0,074639262566874419
1	1	0	0	0	0	2	431668,87	0,0100000007	2,6810317	2,7797452146187421E-005	0,010006890090413776	2,68287895E-005	0,065274882545606502	-0,0024354936307895642	0,075028427542848922
1	1	0	0	0	0	2	431808,87	0,0100000007	2,6814518	2,7797415770590304E-005	0,010006876995683942	2,68329586E-005	0,065664044238939264	-0,0024500137768012714	0,075417589236181696
1	1	0	0	0	0	2	431948,87	0,0100000007	2,68212008	2,7797367525856115E-005	0,010006859627797557	2,68395997E-005	0,066053206832781069	-0,0024645339564121814	0,075806751830023501
1	1	0	0	0	0	2	432088,88	0,0100000007	2,68255949	2,7797232916940829E-005	0,01000681116963761	2,68438671E-005	0,066442369957498816	-0,0024790541558307866	0,076195914954741248
1	1	0	0	0	0	2	432228,88	0,0100000007	2,68322778	2,779635454988521E-005	0,010006494963353133	2,6849706E-005	0,066831529204581926	-0,0024935742105696294	0,076585074201824346
1	1	0	0	0	0	2	432368,88	0,0100000007	2,68378139	2,7797324096990957E-005	0,010006843994056613	2,68561816E-005	0,067220688067654464	-0,0025080942509805226	0,076974233064896896
1	1	0	0	0	0	2	432508,89	0,0100000007	2,68406796	2,7797634220889046E-005	0,010006955636510259	2,68593485E-005	0,067609845112472115	-0,0025226142235498806	0,077363390109714547
1	1	0	0	0	0	2	432648,89	0,0100000007	2,68475533	2,7797653346270736E-005	0,010006962521515098	2,68662461E-005	0,067999009732850586	-0,0025371344787735984	0,077752554730093018
1	1	0	0	0	0	2	432788,89	0,0100000007	2,68507981	2,7796702815168022E-005	0,010006620336906851	2,68685744E-005	0,068388169111199155	-0,0025516545384101325	0,078141714108441587
1	1	0	0	0	0	2	432928,89	0,0100000007	2,68546176	2,7797503637770813E-005	0,01000690862749285	2,6873171E-005	0,068777333557812954	-0,002566174787150457	0,078530878555055386
1	1	0	0	0	0	2	433068,90	0,0100000007	2,68605375	2,7796818909131821E-005	0,010006662129929099	2,68784315E-005	0,069166493942878682	-0,0025806948843489619	0,078920038940121114
1	1	0	0	0	0	2	433208,90	0,0100000007	2,68655014	2,7797487312720883E-005	0,010006902750122059	2,68840467E-005	0,069555652214579494	-0,0025952149026949798	0,079309197211821914
1	1	0	0	0	0	2	433348,90	0,0100000007	2,68704677	2,7796841604014237E-005	0,010006670299463494	2,68883905E-005	0,069944810262938726	-0,0026097349127078237	0,079698355260181158
1	1	0	0	0	0	2	433488,90	0,0100000007	2,68746686	2,7796739717945456E-005	0,010006633621301462	2,6892496E-005	0,070333965615531379	-0,0026242548221379917	0,080087510612773798
1	1	0	0	0	0	2	433628,91	0,0100000007	2,68798232	2,7796896170255626E-005	0,010006689943106898	2,68978056E-005	0,070723126703227187	-0,0026387749455525693	0,080476671700469606
1	1	0	0	0	0	2	433768,91	0,0100000007	2,68838334	2,7795559105566803E-005	0,010006208609145221	2,6900525E-005	0,07111227977017984	-0,0026532947697024365	0,080865824767422272
1	1	0	0	0	0	2	433908,91	0,0100000007	2,68882251	2,7797181030373194E-005	0,010006792490599933	2,69064894E-005	0,071501438115671014	-0,0026678147908016726	0,081254983112913446
1	1	0	0	0	0	2	434048,92	0,0100000007	2,68926167	2,7797399370672387E-005	0,010006871092060158	2,69110951E-005	0,071890598865243123	-0,0026823349016004003	0,081644143862485555
1	1	0	0	0	0	2	434188,92	0,0100000007	2,68983459	2,7797291794843555E-005	0,010006832365507454	2,69167231E-005	0,072279759785387328	-0,0026968550187634026	0,08203330478262976
1	1	0	0	0	0	2	434328,92	0,0100000007	2,69015908	2,7797174637930262E-005	0,010006790189830757	2,69198572E-005	0,072668921688560794	-0,0027113751726045482	0,082422466685803226
1	1	0	0	0	0	2	434468,92	0,0100000007	2,69057918	2,779838157321016E-005	0,010007224678165488	2,69252305E-005	0,073058088723540288	-0,0027258955179202768	0,08281163372078272
1	1	0	0	0	0	2	434608,93	0,0100000007	2,69103742	2,7797155412845312E-005	0,010006783268933437	2,69286284E-005	0,073447255710734464	-0,0027404158614530707	0,083200800707976896
1	1	0	0	0	0	2	434748,93	0,0100000007	2,69143844	2,7797323923247558E-005	0,010006843931510192	2,69328048E-005	0,073836418808855552	-0,002754936059879319	0,083589963806097984
1	1	0	0	0	0	2	434888,93	0,0100000007	2,69185853	2,779724043752584E-005	0,010006813876763098	2,69369266E-005	0,074225581065324378	-0,0027694562269023898	0,08397912606256681
1	1	0	0	0	0	2	435028,93	0,0100000007	2,69206858	2,7796572202557907E-005	0,010006573317039592	2,69383818E-005	0,074614739441088678	-0,0027839762491311562	0,08436828443833111
1	1	0	0	0	0	2	435168,94	0,0100000007	2,69250774	2,779710257218944E-005	0,010006764246314118	2,69432894E-005	0,075003896396345165	-0,0027984962183588672	0,084757441393587597
1	1	0	0	0	0	2	435308,94	0,0100000007	2,6929853	2,7796665384485901E-005	0,010006606861771275	2,69476459E-005	0,075393056388220813	-0,0028130163008869216	0,085146601385463245
1	1	0	0	0	0	2	435448,94	0,0100000007	2,69351983	2,7796453204057696E-005	0,010006530478171394	2,69527882E-005	0,075782213100947238	-0,0028275362610655094	0,08553575809818967
1	1	0	0	0	0	2	435588,94	0,0100000007	2,69399714	2,7797408634434557E-005	0,010006874426484354	2,69584907E-005	0,07617137518190327	-0,0028420564215399616	0,085924920179145702
1	1	0	0	0	0	2	435728,95	0,0100000007	2,69436002	2,7796534933253296E-005	0,010006559900581248	2,69612756E-005	0,076560532357416128	-0,0028565763989857334	0,08631407735465856
1	1	0	0	0	0	2	435868,95	0,0100000007	2,69478011	2,7796687726914467E-005	0,010006614905240162	2,69656266E-005	0,076949684104164928	-0,0028710961738770195	0,08670322910140736
1	1	0	0	0	0	2	436008,95	0,0100000007	2,69514298	2,77969094280464E-005	0,010006694716110902	2,69694738E-005	0,077338837474961421	-0,0028856160093637088	0,087092382472203853
1	1	0	0	0	0	2	436148,96	0,0100000007	2,69558215	2,7796729641552598E-005	0,01000662999421935	2,69736938E-005	0,07772799516542528	-0,0029001360060229946	0,087481540162667712
1	1	0	0	0	0	2	436288,96	0,0100000007	2,69600224	2,7797286950620928E-005	0,010006830621620886	2,69784377E-005	0,078117156022995802	-0,002914656120851289	0,087870701020238234
1	1	0	0	0	0	2	436428,96	0,0100000007	2,69642234	2,7796947168962413E-005	0,010006708302113098	2,69823122E-005	0,078506315082431667	-0,002929176168588761	0,088259860079674099
1	1	0	0	0	0	2	436568,96	0,0100000007	2,69699502	2,7796789224156077E-005	0,010006651443077635	2,69878892E-005	0,078895473673746445	-0,0029436961988600064	0,088649018670988877
1	1	0	0	0	0	2	436708,97	0,0100000007	2,6974535	2,7797288505981363E-005	0,010006831181306878	2,69929624E-005	0,07928463035218793	-0,0029582161577593766	0,089038175349430362
1	1	0	0	0	0	2	436848,97	0,0100000007	2,69785452	2,7796843504170989E-005	0,010006670983681491	2,69965421E-005	0,079673785832644275	-0,002972736071960311	0,089427330829886694
1	1	0	0	0	0	2	436988,97	0,0100000007	2,6982553	2,7796372827349437E-005	0,010006501543346541	2,70000965E-005	0,080062937986081101	-0,0029872558620256749	0,089816482983323533
1	1	0	0	0	0	2	437128,97	0,0100000007	2,69867539	2,7797037363466288E-005	0,010006740771509298	2,70049459E-005	0,080452093896182093	-0,0030017757922572282	0,090205638893424525
1	1	0	0	0	0	2	437268,98	0,0100000007	2,69911456	2,7796948542870166E-005	0,010006708797176331	2,70092532E-005	0,080841247477439782	-0,0030162956355965075	0,090594792474682214
1	1	0	0	0	0	2	437408,98	0,0100000007	2,69945836	2,7796878466848285E-005	0,010006683570294197	2,70126257E-005	0,081230404304409971	-0,0030308156000376838	0,090983949301652403
1	1	0	0	0	0	2	437548,98	0,0100000007	2,69997382	2,7796531085028419E-005	0,010006558515246966	2,7017446E-005	0,081619556545428557	-0,0030453353933708397	0,091373101542670989
1	1	0	0	0	0	2	437688,99	0,0100000007	2,70035577	2,7796410501313706E-005	0,010006515105945512	2,70211513E-005	0,082008714518499034	-0,0030598554005745587	0,091762259515741466
1	1	0	0	0	0	2	437828,99	0,0100000007	2,70085239	2,7797160606365651E-005	0,010006785138564758	2,70268501E-005	0,082397868557280051	-0,003074375260984649	0,092151413554522483
1	1	0	0	0	0	2	437968,99	0,0100000007	2,70117688	2,7796354629927213E-005	0,010006494992633654	2,70293131E-005	0,082787022773268672	-0,003088895128006592	0,092540567770511104
1	1	0	0	0	0	2	438108,99	0,0100000007	2,70150161	2,7796634194337661E-005	0,010006595633417619	2,70328346E-005	0,083176175307408883	-0,0031034149322765107	0,092929720304651315
1	1	0	0	0	0	2	438249,00	0,0100000007	2,70201707	2,7796734940571091E-005	0,010006631901596296	2,70380897E-005	0,083565327610961267	-0,0031179347279428864	0,093318872608203699
1	1	0	0	0	0	2	438389,00	0,0100000007	2,70237994	2,7796658378197914E-005	0,010006604339556165	2,70416476E-005	0,083954484513213645	-0,0031324546951929427	0,093708029510456077
1	1	0	0	0	0	2	438529,00	0,0100000007	2,70274282	2,7796744422366221E-005	0,01000663531486033	2,7045362E-005	0,084343639207007923	-0,0031469745800424582	0,094097184204250355
1	1	0	0	0	0	2	438669,00	0,0100000007	2,7032392	2,7796059162200739E-005	0,010006388625834246	2,70496621E-005	0,08473278682462135	-0,003161494200870151	0,094486331821863782
1	1	0	0	0	0	2	438809,01	0,0100000007	2,70350647	2,7796520698919062E-005	0,010006554775853634	2,70527853E-005	0,085121936545388531	-0,0031760139001693395	0,094875481542630963
1	1	0	0	0	0	2	438949,01	0,0100000007	2,70402217	2,7796600703098298E-005	0,010006583577269554	2,7058024E-005	0,085511086714848947	-0,0031905336162098746	0,095264631712091379
1	1	0	0	0	0	2	439089,01	0,0100000007	2,70453763	2,7796695358999485E-005	0,010006617652737866	2,70632736E-005	0,08590023712245687	-0,0032050533411360141	0,095653782119699302
1	1	0	0	0	0	2	439229,02	0,0100000007	2,70484304	2,7796567279431555E-005	0,01000657154498121	2,70662058E-005	0,086289388486757453	-0,0032195731017576422	0,096042933483999885
1	1	0	0	0	0	2	439369,02	0,0100000007	2,70530152	2,7796517976663178E-005	0,010006553796326342	2,7070746E-005	0,086678536871438989	-0,0032340927512056787	0,096432081868681421
1	1	0	0	0	0	2	439509,02	0,0100000007	2,70562601	2,7796708578399069E-005	0,010006622411630083	2,70741784E-005	0,087067688882024858	-0,003248612535941081	0,09682123387926729
1	1	0	0	0	0	2	439649,02	0,0100000007	2,7060461	2,7796843271392086E-005	0,010006670900173925	2,70785131E-005	0,087456844174150938	-0,003263132443115159	0,09721038917139337
1	1	0	0	0	0	2	439789,03	0,0100000007	2,70648527	2,7796204667331446E-005	0,01000644100667271	2,70822857E-005	0,087845997649415616	-0,0032776522824996973	0,097599542646658048
1	1	0	0	0	0	2	439929,03	0,0100000007	2,70692444	2,7796520446789347E-005	0,010006554685321662	2,70869878E-005	0,088235145324413094	-0,0032921719054684666	0,097988690321655526
1	1	0	0	0	0	2	440069,03	0,0100000007	2,70730639	2,779685895843431E-005	0,010006676547050917	2,70911387E-005	0,088624302078227622	-0,0033066918671801069	0,098377847075470054
1	1	0	0	0	0	2	440209,03	0,0100000007	2,7076118	2,7796945334412157E-005	0,010006707641920704	2,70942801E-005	0,089013458553517786	-0,0033212118184996288	0,098767003550760218
1	1	0	0	0	0	2	440349,04	0,0100000007	2,70799375	2,7797367134234973E-005	0,010006859486700168	2,70985129E-005	0,089402614859286259	-0,0033357317634940685	0,099156159856528691
1	1	0	0	0	0	2	440489,04	0,0100000007	2,70824194	2,7796881928626032E-005	0,010006684816510187	2,71005229E-005	0,089791776865127322	-0,0033502519211658797	0,099545321862369754
1	1	0	0	0	0	2	440629,04	0,0100000007	2,70868111	2,7796624708610275E-005	0,01000659221908747	2,71046665E-005	0,090180929090924877	-0,0033647717139311187	0,099934474088167296
1	1	0	0	0	0	2	440678,32	0,0100000007	2,70875764	2,5795209048212403E-005	0,010006553926826826	2,71053286E-005	0,09031790903631639	-0,0033698826198651718	0,10007145403355882