File: Experimentelles/Rohdaten/Batteriemessungen/AlteZelle/150511_LLTO_LTO_Tests/ECLab-Export/LLTO_LP30_LTO_02_CV_C01_loop6.mpt
EC-Lab ASCII FILE
Nb header lines : 3
mode	ox/red	error	control changes	counter inc.	time/s	control/V	Ewe/V	<I>/mA	cycle number	(Q-Qo)/C	P/W
2	1	0	1	0	5315,81	0,272391975	0,272803456	-0,65984547138214106	7	0	0,000180008123
2	1	0	0	0	5317,24	0,286693007	0,287078321	-0,36015150137245478	7	-0,000672928058	0,000103391685
2	1	0	1	0	5318,69	0,301194102	0,301653981	-0,22838998834292125	7	-0,0010910267	6,88947475E-005
2	1	0	1	0	5320,14	0,315695226	0,315989077	-0,14409300525827906	7	-0,00135601149	4,5531815E-005
2	1	0	0	0	5321,59	0,330196321	0,330474526	-0,088064669592616717	7	-0,00152084301	2,91031301E-005
2	1	0	0	0	5323,04	0,344697416	0,344959974	-0,050557744049001568	7	-0,00161862175	1,74403976E-005
2	1	0	1	0	5324,53	0,359598577	0,359876484	-0,024141172359425894	7	-0,00167221122	8,68783991E-006
2	1	0	1	0	5325,98	0,374099702	0,374321848	-0,0065438110856727578	7	-0,00169314176	2,44949138E-006
2	1	0	0	0	5327,47	0,389000803	0,389378667	0,006204302010398039	7	-0,0016927754	2,41582279E-006
2	1	0	1	0	5328,96	0,403901696	0,404233962	0,014671485440638317	7	-0,00167657062	5,93071263E-006
2	1	0	1	0	5330,41	0,418403089	0,418910921	0,02123235930533457	7	-0,00164972991	8,8944671E-006
2	1	0	0	0	5331,86	0,432904154	0,433406413	0,026289845952608858	7	-0,00161449413	1,13941878E-005
2	1	0	0	0	5333,31	0,447405308	0,447871804	0,030334751102297222	7	-0,00157256937	1,35860801E-005
2	1	0	1	0	5334,76	0,461906374	0,462297052	0,03409648610977456	7	-0,0015251349	1,57627055E-005
2	1	0	1	0	5336,21	0,476407468	0,476461768	0,037461900142564621	7	-0,00147260842	1,78491628E-005
2	1	0	0	0	5337,66	0,490908593	0,491378248	0,040465344927118394	7	-0,00141561602	1,98837897E-005
2	1	0	0	0	5339,11	0,505409658	0,505813539	0,043192143930355034	7	-0,00135452137	2,18471705E-005
2	1	0	1	0	5340,56	0,519910872	0,520579696	0,045842369038534061	7	-0,00128955673	2,38646062E-005
2	1	0	0	0	5342,01	0,534411967	0,534744382	0,048361928250718278	7	-0,00122088415	2,5861269E-005
2	1	0	0	0	5343,46	0,548913002	0,549330056	0,050403128572118874	7	-0,00114860758	2,76879528E-005
2	1	0	1	0	5344,91	0,563414156	0,564005971	0,053037735769369875	7	-0,00107285439	2,99135991E-005
2	1	0	1	0	5346,36	0,577915251	0,578200698	0,055528177200661498	7	-0,00099347264	3,21064326E-005
2	1	0	0	0	5347,81	0,592416406	0,592976928	0,058063845712846758	7	-0,000910529925	3,44305226E-005
2	1	0	0	0	5349,26	0,606917441	0,607331991	0,060564062131258317	7	-0,000823895272	3,67824941E-005
2	1	0	1	0	5350,71	0,621418595	0,621747255	0,063236459255373632	7	-0,000733519788	3,93170958E-005
2	1	0	1	0	5352,16	0,63591969	0,636182547	0,065935147285927309	7	-0,00063925545	4,19467906E-005
2	1	0	0	0	5353,61	0,650420845	0,650818408	0,068753441310642982	7	-0,000540998299	4,47460043E-005
2	1	0	1	0	5355,06	0,664921939	0,665273786	0,071165596561816986	7	-0,000438809395	4,73446053E-005
2	1	0	1	0	5356,51	0,679423034	0,679608822	0,074125269369688218	7	-0,00033256234	5,03761876E-005
2	1	0	0	0	5357,96	0,693924129	0,694415152	0,076889043926106074	7	-0,000222403076	5,3392916E-005
2	1	0	0	0	5359,41	0,708425224	0,708780229	0,079461817746050432	7	-0,000108486594	5,63209651E-005
2	1	0	1	0	5360,86	0,722926378	0,723426044	0,081915165064856627	7	8,88380782E-006	5,92595643E-005
2	1	0	1	0	5362,31	0,737427413	0,737881482	0,083880396152380851	7	0,00012940212	6,1893792E-005
2	1	0	0	0	5363,76	0,751928568	0,752346814	0,085729375772643725	7	0,000252746802	6,4498221E-005
2	1	0	0	0	5365,21	0,766429663	0,766862392	0,086822515877429402	7	0,000378441851	6,65809202E-005
2	1	0	1	0	5366,66	0,780930817	0,781257629	0,088335929671302886	7	0,000506225566	6,90131201E-005
2	1	0	0	0	5368,11	0,795431852	0,796053827	0,089307150454259968	7	0,000635722594	7,10933018E-005
2	1	0	0	0	5369,56	0,809932947	0,810328662	0,090344830978817152	7	0,000766628771	7,32090048E-005
2	1	0	1	0	5371,01	0,824433982	0,8247841	0,091027833230327654	7	0,000898653059	7,50783074E-005
2	1	0	1	0	5372,46	0,838935256	0,839399815	0,091476561598634816	7	0,00103157468	7,67854071E-005
2	1	0	0	0	5373,91	0,853436291	0,853955448	0,091901579367307366	7	0,00116512738	7,8479854E-005
2	1	0	0	0	5375,36	0,867937386	0,868340671	0,0921166084590368	7	0,00129912316	7,99885966E-005
2	1	0	1	0	5376,81	0,882438421	0,88285625	0,091961763566359923	7	0,00143339881	8,11890204E-005
2	1	0	1	0	5378,26	0,896939635	0,897341669	0,092157526232767744	7	0,00156779017	8,2696788E-005
2	1	0	1	0	5379,65	0,910840631	0,911355913	0,09221382223768137	7	0,00169669953	8,40396096E-005
2	1	0	1	0	5381,10	0,92534095	0,92594105	0,092195692127338586	7	0,00183100894	8,53677775E-005
2	1	0	0	0	5382,55	0,939842939	0,940427065	0,092072466873408755	7	0,00196525105	8,6587439E-005
2	1	0	1	0	5384,00	0,954343975	0,954691947	0,092149265789582106	7	0,00209947233	8,79741638E-005
2	1	0	1	0	5385,45	0,968845069	0,969337821	0,092099440419891149	7	0,00223367242	8,92754688E-005
2	1	0	0	0	5386,90	0,983346224	0,983793139	0,092244279784305498	7	0,00236802455	9,07492868E-005
2	1	0	0	0	5388,35	0,997847319	0,998218536	0,092105614118433318	7	0,00250242371	9,19415324E-005
2	1	0	1	0	5389,80	1,01234841	1,01279414	0,092464879232769139	7	0,00263708318	9,364789E-005
2	1	0	1	0	5391,25	1,02684951	1,0273999	0,092800148529931789	7	0,00277194055	9,53428607E-005
2	1	0	0	0	5392,70	1,0413506	1,0420959	0,093003074599740109	7	0,00290715089	9,69181201E-005
2	1	0	1	0	5394,15	1,05585158	1,05628049	0,093421219312585626	7	0,00304268789	9,8679011E-005
2	1	0	1	0	5395,60	1,07035279	1,07069588	0,093553782731760077	7	0,00317855738	0,00010016765
2	1	0	0	0	5397,05	1,08485389	1,08543181	0,09390502446331095	7	0,00331486412	0,000101927501
2	1	0	0	0	5398,50	1,09935498	1,09992743	0,093790111733445197	7	0,00345154409	0,000103162318
2	1	0	1	0	5399,95	1,1138562	1,11427248	0,094316781789529958	7	0,003588703	0,000105094594
2	1	0	1	0	5401,40	1,12835729	1,12868774	0,094624349420579738	7	0,00372629287	0,000106801344
2	1	0	0	0	5402,86	1,14285839	1,14337361	0,095026136589391629	7	0,0038644122	0,000108650376
2	1	0	0	0	5404,31	1,15735948	1,15800953	0,095364635810255782	7	0,00400298601	0,00011043316
2	1	0	1	0	5405,76	1,17186046	1,17245483	0,095727136106385395	7	0,00414213864	0,000112235743
2	1	0	1	0	5407,21	1,18636084	1,18695951	0,096178730467108902	7	0,00428193668	0,000114160255
2	1	0	0	0	5408,66	1,20086277	1,20121527	0,096688540516576499	7	0,00442241551	0,000116143754
2	1	0	1	0	5410,11	1,21536386	1,21584105	0,096951729870245862	7	0,00456359843	0,000117877891
2	1	0	1	0	5411,56	1,22986519	1,23036671	0,097520627741081062	7	0,00470543141	0,000119986136
2	1	0	0	0	5413,01	1,24436617	1,24502254	0,097950523331141069	7	0,00484786974	0,000121950608
2	1	0	0	0	5414,46	1,25886726	1,25936747	0,098249720448317696	7	0,00499064988	0,000123732505
2	1	0	1	0	5415,91	1,27336836	1,27372265	0,098255356463292646	7	0,00513364514	0,00012515008
2	1	0	1	0	5417,36	1,28786945	1,28815806	0,098398361316261338	7	0,00527667813	0,000126752639
2	1	0	0	0	5418,81	1,30237043	1,30279374	0,098384002456441075	7	0,00541970367	0,00012817407
2	1	0	0	0	5420,26	1,31687188	1,31732965	0,097824917746581197	7	0,00556259975	0,000128867658
2	1	0	1	0	5421,71	1,33137274	1,33208549	0,097886378061957658	7	0,00570519362	0,000130393018
2	1	0	0	0	5423,16	1,34587395	1,34612989	0,097617120113379136	7	0,00584754487	0,000131405322
2	1	0	0	0	5424,61	1,36037505	1,3607856	0,097266013365394202	7	0,00598943699	0,000132358196
2	1	0	1	0	5426,06	1,37487614	1,37533128	0,096480386971961267	7	0,00613058871	0,000132692498
2	1	0	1	0	5427,51	1,38937724	1,39001727	0,095864058802059277	7	0,00627068942	0,000133252703
2	1	0	0	0	5428,96	1,40387833	1,40437222	0,09489044283206272	7	0,00640957756	0,000133261507
2	1	0	0	0	5430,41	1,41837931	1,41891789	0,094037128651204173	7	0,00654714881	0,000133430964
2	1	0	1	0	5431,86	1,43288052	1,43332326	0,09274480586949152	7	0,0066833212	0,000132933288
2	1	0	1	0	5433,31	1,44738245	1,4477793	0,092064939922542003	7	0,00681817718	0,000133289708
2	1	0	0	0	5434,76	1,46188271	1,4624846	0,09148374067929888	7	0,0069519626	0,000133793568
2	1	0	1	0	5436,21	1,47638404	1,47698009	0,091102956949422771	7	0,00708505558	0,000134557253
2	1	0	1	0	5437,66	1,49088502	1,49158585	0,091179190766221389	7	0,00721772714	0,000136001589
2	1	0	0	0	5439,11	1,50538611	1,50584066	0,091417909696853376	7	0,00735051185	0,000137660812
2	1	0	0	0	5440,56	1,51988721	1,52026594	0,09198506659595296	7	0,00748373661	0,000139841766
2	1	0	1	0	5442,01	1,5343883	1,53485167	0,092106702776315392	7	0,00761775021	0,000141370125
2	1	0	1	0	5443,46	1,54888928	1,54933715	0,093257382686715494	7	0,00775288139	0,00014448713
2	1	0	0	0	5444,91	1,56339049	1,56409311	0,094305371496981478	7	0,00788940117	0,000147502389
2	1	0	1	0	5446,36	1,57789242	1,57859838	0,09556352174229399	7	0,00802757125	0,000150856416
2	1	0	1	0	5447,81	1,59239256	1,59304392	0,096793698923041574	7	0,00816749595	0,000154196619
2	1	0	0	0	5449,26	1,6068939	1,60741913	0,098190182819962496	7	0,00830941927	0,000157832779
2	1	0	0	0	5450,75	1,62179506	1,62231565	0,099477852267834342	7	0,00845744461	0,00016138448
2	1	0	1	0	5452,20	1,63629603	1,63667083	0,1011747920031969	7	0,00860377774	0,000165589838
2	1	0	1	0	5453,65	1,65079713	1,65116632	0,10271244538792747	7	0,00875237398	0,000169595325
2	1	0	0	0	5455,10	1,66529822	1,66562152	0,10446138555804885	7	0,0089033721	0,000173993132
2	1	0	0	0	5456,55	1,67979932	1,68022728	0,10639041980418051	7	0,00905685313	0,000178760092
2	1	0	1	0	5458,00	1,69430029	1,69488311	0,10813876641138131	7	0,00921285246	0,000183282566
2	1	0	1	0	5459,45	1,70880222	1,70928967	0,10987780076477814	7	0,00937136915	0,000187812984
2	1	0	0	0	5460,90	1,7233026	1,72375381	0,11158149716599509	7	0,0095324507	0,000192339037
2	1	0	1	0	5462,35	1,73780394	1,73814905	0,11342553534389821	7	0,00969613902	0,000197150483
2	1	0	1	0	5463,80	1,75230503	1,75288522	0,11491893728574109	7	0,00986244995	0,000201439703
2	1	0	0	0	5465,25	1,76680601	1,76724017	0,11686757265124432	7	0,0100314179	0,000206533063
2	1	0	0	0	5466,70	1,7813071	1,78184593	0,11876490537542838	7	0,0102030523	0,000211620762
2	1	0	1	0	5468,15	1,7958082	1,79614103	0,12064497925651563	7	0,0103773735	0,000216695393
2	1	0	1	0	5469,60	1,81030929	1,81060648	0,12246397405397149	7	0,0105543956	0,000221734066
2	1	0	0	0	5471,05	1,8248105	1,82536256	0,12435490890250821	7	0,0107341036	0,000226992794
2	1	0	0	0	5472,50	1,8393116	1,83998847	0,12605535526139011	7	0,0109164082	0,000231940401
2	1	0	1	0	5473,95	1,85381258	1,85435355	0,12797324852241765	7	0,0111014033	0,000237307642
2	1	0	0	0	5475,40	1,86831391	1,86887896	0,12952320091426373	7	0,0112889837	0,000242063179
2	1	0	0	0	5476,85	1,88281488	1,88342452	0,13155497579524902	7	0,0114792455	0,00024777386
2	1	0	1	0	5478,30	1,89731598	1,89811063	0,13344501203391746	7	0,0116721038	0,000253293401
2	1	0	1	0	5479,75	1,91181707	1,91248572	0,13534315434905374	7	0,0118676201	0,000258841843
2	1	0	0	0	5481,20	1,92631817	1,92696106	0,13727621163707182	7	0,012065717	0,000264525908
2	1	0	0	0	5482,65	1,94081914	1,94135618	0,1389017954934384	7	0,0122663891	0,000269657845
2	1	0	1	0	5484,10	1,95532048	1,95602226	0,14071553468238474	7	0,0124696214	0,000275242724
2	1	0	1	0	5485,55	1,96982145	1,97009683	0,14192947442643344	7	0,012675277	0,000279614818
2	1	0	0	0	5487,00	1,98432279	1,98512328	0,14385685216014565	7	0,012883448	0,000285573595
2	1	0	1	0	5488,45	1,99882388	1,99949861	0,14548913067361946	7	0,0130939977	0,0002909053
2	1	0	1	0	5489,90	2,01332474	2,01388383	0,14721095876302547	7	0,0133069623	0,000296465761
2	1	0	0	0	5491,35	2,02782607	2,02872992	0,14883601816836755	7	0,0135222655	0,000301948079
2	1	0	0	0	5492,80	2,04232717	2,04283476	0,15031215703735757	7	0,0137399044	0,000307062903
2	1	0	1	0	5494,25	2,05682826	2,05739045	0,15191678419553978	7	0,0139598399	0,000312552147
2	1	0	1	0	5495,70	2,07132936	2,07183576	0,15340495365671837	7	0,0141819809	0,000317829865
2	1	0	0	0	5497,15	2,08583045	2,0863812	0,1546197866167247	7	0,0144063467	0,000322595821
2	1	0	0	0	5498,60	2,10033035	2,10085511	0,15619385493352333	7	0,0146326274	0,000328140653
2	1	0	1	0	5500,05	2,11483264	2,11526179	0,1578143403166904	7	0,0148611777	0,000333818636
2	1	0	0	0	5501,50	2,12933373	2,12970734	0,15937398696163018	7	0,0150918486	0,000339419959
2	1	0	0	0	5502,95	2,14383483	2,14443326	0,16074582969304157	7	0,0153245172	0,000344708707
2	1	0	1	0	5504,40	2,15833592	2,15913892	0,162174475262872	7	0,0155591769	0,000350157236
2	1	0	1	0	5505,85	2,17283702	2,17338395	0,16356627476246445	7	0,0157958176	0,000355492317
2	1	0	0	0	5507,30	2,18733811	2,18792963	0,16436626094703866	7	0,0160343312	0,000359621801
2	1	0	0	0	5508,75	2,20183921	2,2024653	0,16575647964297478	7	0,0162745714	0,00036507289
2	1	0	1	0	5510,20	2,2163403	2,217031	0,16707417458140656	7	0,0165167097	0,000370408612
2	1	0	1	0	5511,65	2,23084211	2,23164701	0,16842171917815917	7	0,0167605933	0,000375857839
2	1	0	0	0	5513,10	2,24534249	2,24593163	0,16940842898717645	7	0,0170062762	0,00038047976
2	1	0	1	0	5514,55	2,25984359	2,26034689	0,17082027924091846	7	0,0172537472	0,000386113097
2	1	0	1	0	5516,00	2,27434468	2,27503276	0,17192544427234634	7	0,01750293	0,000391136011
2	1	0	0	0	5517,45	2,28884578	2,28922772	0,17327132537805779	7	0,017754009	0,000396657531
2	1	0	0	0	5518,90	2,30334687	2,30371284	0,1742252898402503	7	0,0180068929	0,000401365047
2	1	0	1	0	5520,35	2,31784821	2,31826878	0,1758285497780887	7	0,0182618033	0,00040761783
2	1	0	1	0	5521,80	2,3323493	2,33302474	0,17727121307204195	7	0,0185186844	0,00041357812
2	1	0	0	0	5523,25	2,3468504	2,34747005	0,17884462846753469	7	0,0187777691	0,000419832417
2	1	0	1	0	5524,70	2,36135149	2,36189532	0,18053664181691949	7	0,0190389939	0,00042640866
2	1	0	1	0	5526,15	2,37585258	2,3763206	0,18203991942573293	7	0,0193023831	0,000432585221
2	1	0	0	0	5527,60	2,39035368	2,39076614	0,18377447225308608	7	0,019568054	0,000439361786
2	1	0	0	0	5529,05	2,40485477	2,4055624	0,18471132040334214	7	0,0198358297	0,000444334612
2	1	0	1	0	5530,50	2,41935587	2,41997766	0,18650477876265859	7	0,020105904	0,000451337401
2	1	0	1	0	5531,95	2,43385696	2,43443298	0,18813763465732336	7	0,0203782823	0,000458008464
2	1	0	0	0	5533,41	2,44835806	2,44886827	0,18982128655382714	7	0,0206530616	0,00046484734
2	1	0	0	0	5534,86	2,46285915	2,4635644	0,19143868943986762	7	0,0209300537	0,000471621548
2	1	0	1	0	5536,31	2,47736025	2,47812009	0,19307497302846342	7	0,0212095156	0,000478462956
2	1	0	0	0	5537,76	2,49186134	2,49244475	0,19462052243761741	7	0,0214913804	0,000485080905
2	1	0	0	0	5539,21	2,50636244	2,50713086	0,19609681610017971	7	0,0217752997	0,000491640356
2	1	0	1	0	5540,66	2,52086353	2,52151608	0,19744495504225325	7	0,0220617037	0,000497860601
2	1	0	1	0	5542,11	2,53536463	2,53590131	0,19931807136163072	7	0,0223504361	0,000505450938
2	1	0	0	0	5543,56	2,54986596	2,55050707	0,20079695697252918	7	0,0226415265	0,000512134051
2	1	0	0	0	5545,01	2,56436706	2,56508255	0,20253129031819571	7	0,0229348969	0,000519509485
2	1	0	1	0	5546,46	2,57886815	2,57949781	0,20427801312568272	7	0,0232306663	0,000526934688
2	1	0	1	0	5547,91	2,59336925	2,59375286	0,20602838369086339	7	0,0235288069	0,000534386723
2	1	0	0	0	5549,36	2,60787034	2,60866952	0,20773622238387635	7	0,0238292925	0,000541915128
2	1	0	1	0	5550,81	2,62237144	2,62290406	0,20904323280168134	7	0,0241322648	0,000548300333
2	1	0	1	0	5552,26	2,63687253	2,63726926	0,21090351518554096	7	0,0244375896	0,000556209357
2	1	0	0	0	5553,71	2,65137362	2,65185499	0,21268888229193818	7	0,0247455072	0,000564020069
2	1	0	0	0	5555,16	2,66587472	2,66634035	0,21456167280363526	7	0,0250558835	0,000572094461
2	1	0	1	0	5556,61	2,68037581	2,680866	0,21616364317014813	7	0,0253689736	0,000579505751
2	1	0	1	0	5558,06	2,69487691	2,69543171	0,21820302881921315	7	0,0256846119	0,000588151335
2	1	0	0	0	5559,51	2,709378	2,71015763	0,21982637878196963	7	0,0260029081	0,000595764141
2	1	0	0	0	5560,96	2,72387862	2,72452211	0,22168818181117427	7	0,0263237245	0,000603994355
2	1	0	1	0	5562,41	2,73838019	2,73905849	0,22298570349812464	7	0,0266470425	0,00061077089
2	1	0	0	0	5563,86	2,75288129	2,75344372	0,22492541768588125	7	0,0269729327	0,0006193195
2	1	0	0	0	5565,31	2,76738238	2,76789904	0,22669273987412451	7	0,0273012761	0,000627462636
2	1	0	1	0	5566,76	2,78188348	2,78256512	0,22868755436502365	7	0,0276324898	0,000636338023
2	1	0	1	0	5568,21	2,79638481	2,7970202	0,23066182768282851	7	0,0279663056	0,000645165797
2	1	0	0	0	5569,66	2,81088591	2,81167603	0,23267763837551091	7	0,0283029955	0,00065421412
2	1	0	0	0	5571,11	2,825387	2,82599092	0,23488056341496621	7	0,0286425408	0,000663770363
2	1	0	1	0	5572,56	2,8398881	2,8404665	0,23652559596424294	7	0,0289850961	0,000671843009
2	1	0	1	0	5574,01	2,85438919	2,85502219	0,23904786095954477	7	0,0293307174	0,00068248692
2	1	0	0	0	5575,46	2,86889029	2,86940742	0,24136964635302592	7	0,029679643	0,00069258787
2	1	0	1	0	5576,91	2,88339138	2,88386273	0,24388597170201366	7	0,0300320908	0,000703333644
2	1	0	1	0	5578,36	2,89789248	2,89857864	0,24661729911652675	7	0,0303881038	0,000714839611
2	1	0	0	0	5579,81	2,91239357	2,9131043	0,24911133331867498	7	0,0307481978	0,000725687307
2	1	0	0	0	5581,26	2,92689466	2,92743945	0,25243386890118336	7	0,0311125014	0,000738984847
2	1	0	1	0	5582,71	2,94139576	2,94177437	0,25587752973660781	7	0,0314816721	0,000752733962
2	1	0	1	0	5584,16	2,95589685	2,95612955	0,2591733941808344	7	0,0318560526	0,000766150129
2	1	0	0	0	5585,61	2,97039795	2,97102594	0,26316567921700608	7	0,0322358757	0,000781872077
2	1	0	0	0	5587,06	2,98489904	2,98545146	0,26743946325344224	7	0,0326215178	0,000798427558
2	1	0	1	0	5588,51	2,99940014	2,9999969	0,2719382458211239	7	0,0330135338	0,000815813895
2	1	0	1	0	5589,96	3,01390052	3,01439261	0,27651723402889683	7	0,033412192	0,000833531492
2	1	0	0	0	5591,41	3,02840233	3,02911806	0,28155272097016314	7	0,0338177495	0,000852856436
2	1	0	1	0	5592,86	3,04290366	3,0435636	0,28677382335687661	7	0,0342305712	0,000872814388
2	1	0	1	0	5594,31	3,05740476	3,0577383	0,2919035853507623	7	0,0346509889	0,000892564771
2	1	0	0	0	5595,76	3,07190585	3,07254434	0,29780514157998093	7	0,0350793451	0,000915019482
2	1	0	0	0	5597,21	3,08640695	3,08714008	0,30359106798035418	7	0,0355160236	0,000937228149
2	1	0	1	0	5598,66	3,10090804	3,10148525	0,30984422611072582	7	0,0359613597	0,000960977282
2	1	0	1	0	5600,11	3,11540914	3,11595082	0,31617282835456262	7	0,0364158973	0,00098517898
2	1	0	0	0	5601,56	3,12991023	3,13056612	0,32311037151763808	7	0,0368800201	0,00101151841
2	1	0	1	0	5603,01	3,14441204	3,14504242	0,33013071956637632	7	0,0373542644	0,00103827508
2	1	0	1	0	5604,46	3,15891242	3,15950727	0,3375302605175721	7	0,037838839	0,00106642931
2	1	0	0	0	5605,91	3,17341328	3,17411304	0,34474521751205101	7	0,0383343846	0,00109426025
2	1	0	0	0	5607,36	3,18791437	3,18866849	0,35290142451412934	7	0,0388413593	0,00112528563
2	1	0	1	0	5608,81	3,20241547	3,20318413	0,36133223911747482	7	0,0393602513	0,0011574137
2	1	0	1	0	5610,26	3,21691656	3,21768951	0,37024056577744544	7	0,0398916267	0,0011913192
2	1	0	0	0	5611,71	3,23141766	3,23206472	0,37955807995361645	7	0,0404360592	0,00122675626
2	1	0	0	0	5613,16	3,24591875	3,24644995	0,38940876171303264	7	0,0409943201	0,00126419601
2	1	0	1	0	5614,61	3,26042008	3,2608552	0,39974980258072179	7	0,0415673442	0,00130352622
2	1	0	1	0	5616,06	3,27491999	3,27541971	0,41077959703362451	7	0,0421558581	0,00134547555
2	1	0	0	0	5617,51	3,28942227	3,29003668	0,42262677631030598	7	0,0427609533	0,00139045762
2	1	0	1	0	5618,96	3,30392337	3,30457187	0,4350898171154167	7	0,0433836058	0,00143778557
2	1	0	1	0	5620,41	3,31842446	3,31928802	0,44853929957995667	7	0,0440249145	0,00148883113
2	1	0	0	0	5621,86	3,33292556	3,33366299	0,46285210518787245	7	0,0446862765	0,00154299289
2	1	0	0	0	5623,31	3,34742665	3,34801841	0,47763828793540595	7	0,0453685634	0,00159914175
2	1	0	1	0	5624,76	3,36192751	3,36275434	0,49335461901500845	7	0,0460731089	0,00165903044
2	1	0	1	0	5626,21	3,37642908	3,37714958	0,50965755479410246	7	0,0468008369	0,00172118982
2	1	0	0	0	5627,66	3,39093018	3,39160514	0,52620042534544973	7	0,0475527756	0,00178466411
2	1	0	1	0	5629,11	3,40543127	3,40592027	0,54390853953858118	7	0,0483298413	0,0018525091
2	1	0	1	0	5630,56	3,41993213	3,42056584	0,5624371045269063	7	0,0491328984	0,00192385318
2	1	0	0	0	5632,01	3,43443322	3,43501139	0,58110446793337638	7	0,0499627814	0,00199610041
2	1	0	0	0	5633,46	3,44893432	3,44981766	0,59975053385520922	7	0,0508197844	0,00206902996
2	1	0	1	0	5634,91	3,46343541	3,46394205	0,6192532701728233	7	0,0517045669	0,00214505754
2	1	0	1	0	5636,36	3,47793651	3,47845769	0,63875514610359936	7	0,0526173785	0,00222188281
2	1	0	0	0	5637,81	3,4924376	3,49300337	0,65878682878489331	7	0,0535590872	0,00230114465
2	1	0	0	0	5639,26	3,50693893	3,50757909	0,67952257115393792	7	0,0545300953	0,00238347915
2	1	0	1	0	5640,71	3,52144003	3,52201414	0,7007434739110359	7	0,0555316955	0,00246802834
2	1	0	0	0	5642,16	3,53594112	3,53650951	0,72229344063127859	7	0,0565642007	0,00255439756
2	1	0	0	0	5643,61	3,55044222	3,55123568	0,74431997382392397	7	0,0576281734	0,00264325575
2	1	0	1	0	5645,06	3,56494331	3,56560087	0,76642019379263091	7	0,0587242693	0,0027327484
2	1	0	1	0	5646,51	3,57944441	3,58002615	0,78844591478506483	7	0,0598519854	0,00282265688
2	1	0	0	0	5647,96	3,5939455	3,5945518	0,8100648711745961	7	0,0610117093	0,00291182008
2	1	0	0	0	5649,41	3,60844684	3,60911727	0,83086167089640742	7	0,0622021854	0,00299867732
2	1	0	1	0	5650,86	3,62294793	3,62355256	0,85102008531490995	7	0,0634227246	0,00308371591
2	1	0	1	0	5652,31	3,63744903	3,63818884	0,86973777196059392	7	0,0646713898	0,00316427019
2	1	0	0	0	5653,76	3,65195012	3,65260386	0,88874124487240986	7	0,0659476072	0,0032462196
2	1	0	0	0	5655,21	3,6664505	3,66701913	0,90570674448526131	7	0,067249462	0,00332124392
2	1	0	1	0	5656,66	3,68095207	3,68184543	0,92236753925681114	7	0,0685757548	0,00339601468
2	1	0	0	0	5658,11	3,69545317	3,69622064	0,93803245387971405	7	0,0699256137	0,00346717495
2	1	0	0	0	5659,56	3,70995426	3,71058583	0,95335081840554458	7	0,0712979883	0,00353749003
2	1	0	1	0	5661,01	3,72445536	3,72519135	0,96779869217425946	7	0,0726922303	0,00360523537
2	1	0	1	0	5662,46	3,73895645	3,73974681	0,98302053598066317	7	0,0741074011	0,00367624802
2	1	0	0	0	5663,92	3,75345778	3,75407219	0,99766097000489395	7	0,0755444765	0,00374529138
2	1	0	0	0	5665,41	3,76835895	3,7689786	1,0133886231730376	7	0,0770438164	0,00381944003
2	1	0	1	0	5666,86	3,78286004	3,78363466	1,0274995478490982	7	0,0785240531	0,00388768292
2	1	0	0	0	5668,31	3,79736042	3,79799986	1,0413869840157659	7	0,0800244734	0,00395518774
2	1	0	0	0	5669,76	3,81186223	3,81274557	1,0550434797381349	7	0,0815450102	0,00402261224
2	1	0	1	0	5671,21	3,82636333	3,82718086	1,0680943612630154	7	0,0830853209	0,00408779038
2	1	0	1	0	5672,66	3,84086442	3,84163618	1,0815044467647912	7	0,0846445635	0,00415474642
2	1	0	0	0	5674,11	3,85536551	3,85617185	1,094948320960004	7	0,0862238258	0,00422230875
2	1	0	0	0	5675,56	3,86986685	3,87061739	1,108850497752428	7	0,0878224224	0,00429193582
2	1	0	1	0	5677,01	3,88436794	3,8851831	1,1221568426117248	7	0,0894410685	0,004359785
2	1	0	1	0	5678,46	3,89886904	3,89964819	1,1364072753737365	7	0,0910793543	0,00443158858
2	1	0	0	0	5679,91	3,91337013	3,91411352	1,1506994000325594	7	0,0927384943	0,00450396817
2	1	0	0	0	5681,36	3,92787027	3,92842793	1,1649065417868307	7	0,094418183	0,00457625138
2	1	0	1	0	5682,81	3,94237208	3,94328523	1,1799279808377214	7	0,0961190239	0,00465279259
2	1	0	0	0	5684,26	3,95687318	3,95760012	1,1953682117164099	7	0,0978421271	0,00473078946
2	1	0	0	0	5685,71	3,97137427	3,97209597	1,211137663573032	7	0,0995872244	0,00481075514
2	1	0	1	0	5687,16	3,98587537	3,98669124	1,2267303677896635	7	0,101355687	0,0048905951
2	1	0	1	0	5688,61	4,0003767	4,00136709	1,2443036781623942	7	0,103147827	0,00497891568
2	1	0	0	0	5690,06	4,0148778	4,01570225	1,2618504377702848	7	0,104965426	0,00506721577
2	1	0	0	0	5691,51	4,02937794	4,03005695	1,2798779914144802	7	0,106808648	0,00515798107
2	1	0	1	0	5692,96	4,04387999	4,04476309	1,2979996604844893	7	0,108678214	0,00525010098
2	1	0	0	0	5694,41	4,05838108	4,05907917	1,3180544599108934	7	0,110576123	0,0053500873
2	1	0	0	0	5695,86	4,07288218	4,07387495	1,3390882334982379	7	0,112503298	0,00545527786
2	1	0	1	0	5697,31	4,08738327	4,08813953	1,3611083940292374	7	0,1144621	0,00556440093
2	1	0	1	0	5698,76	4,10188437	4,10252428	1,3856912773723379	7	0,116454102	0,00568483211
2	1	0	0	0	5700,21	4,11638546	4,11724091	1,4127585667495914	7	0,118483551	0,00581666734
2	1	0	0	0	5701,66	4,13088655	4,1318264	1,4415265160302298	7	0,120553307	0,00595613709
2	1	0	1	0	5703,11	4,14538765	4,1461916	1,4736124038075414	7	0,122667752	0,00610987935
2	1	0	1	0	5704,56	4,15988779	4,16066504	1,5108311016263674	7	0,124832079	0,0062860623
2	1	0	0	0	5706,01	4,17438984	4,17518234	1,5517622167244531	7	0,127052605	0,00647889031
2	1	0	1	0	5707,46	4,18888998	4,18983603	1,5985794480433952	7	0,129336774	0,00669778557
2	0	0	1	1	5708,85	4,19719172	4,1981082	1,5695065520703792	7	0,131581724	0,0065889582
2	0	0	0	1	5710,30	4,18269062	4,18351316	1,3372466148187706	7	0,133678585	0,00559438905
2	0	0	0	1	5711,75	4,16818953	4,16883707	1,1518012027566656	7	0,135478109	0,00480167149
2	0	0	1	1	5713,20	4,15368843	4,15444183	0,99413115158677107	7	0,13703005	0,00413005985
2	0	0	1	1	5714,65	4,13918686	4,139956	0,85657807594785856	7	0,138368115	0,00354619557
2	0	0	0	1	5716,10	4,12468576	4,12559128	0,73699308326467789	7	0,139520615	0,00304053235
2	0	0	0	1	5717,55	4,11018467	4,11069584	0,63313784400042829	7	0,140511587	0,00260263705
2	0	0	1	1	5719,00	4,09568357	4,09649992	0,542125207372008	7	0,141361594	0,00222081598
2	0	0	0	1	5720,49	4,08078241	4,08175325	0,4608500735804313	7	0,142106771	0,00188107626
2	0	0	0	1	5721,94	4,06628132	4,06694746	0,39209129645799565	7	0,142723054	0,0015946147
2	0	0	1	1	5723,39	4,0517807	4,05258274	0,33278420047524058	7	0,14324674	0,00134863553
2	0	0	1	1	5724,84	4,03727961	4,03811741	0,28096776137438883	7	0,143689811	0,00113458082
2	0	0	0	1	5726,29	4,02277851	4,02348137	0,23593915517752339	7	0,144063234	0,000949296809
2	0	0	0	1	5727,74	4,00827742	4,00898552	0,19672910372416253	7	0,144375518	0,000788684119
2	0	0	1	1	5729,19	3,99377632	3,99434996	0,16252567118499405	7	0,144634709	0,000649184396
2	0	0	0	1	5730,64	3,97927451	3,97997451	0,1326599679584004	7	0,144847631	0,000527983299
2	0	0	0	1	5732,09	3,96477389	3,9655695	0,10673768197496702	7	0,145019844	0,000423275691
2	0	0	1	1	5733,54	3,9502728	3,95103383	0,083330296562053094	7	0,145156294	0,000329240807
2	0	0	1	1	5734,99	3,9357717	3,9365685	0,062601715733762714	7	0,14526096	0,000246435928
2	0	0	0	1	5736,48	3,92087054	3,92150164	0,043604925100225939	7	0,14533931	0,000170996791
2	0	0	0	1	5737,93	3,90636945	3,90690589	0,027400391933042499	7	0,145389989	0,00010705075
2	0	0	1	1	5739,38	3,89186835	3,89270139	0,012523943422517419	7	0,145418212	4,87519719E-005
2	0	0	1	1	5740,87	3,87696719	3,87751412	-0,0013192629812692757	7	0,145426109	5,11546068E-006
2	0	0	0	1	5742,36	3,86206603	3,86286807	-0,013295124639019717	7	0,145414755	5,13573141E-005
2	0	0	1	1	5743,81	3,8475647	3,84810209	-0,02433825687330679	7	0,1453868	9,36560973E-005
2	0	0	1	1	5745,26	3,8330636	3,83384728	-0,034537872978641306	7	0,145343527	0,000132412926
2	0	0	0	1	5746,71	3,81856251	3,81935191	-0,043843545980053133	7	0,145286292	0,000167453938
2	0	0	0	1	5748,16	3,80406141	3,80482626	-0,05243503523524873	7	0,145215943	0,000199506205
2	0	0	1	1	5749,61	3,78956032	3,79040122	-0,060419897801087526	7	0,1451336	0,000229015655
2	0	0	1	1	5751,06	3,77505922	3,77556443	-0,067996895328785062	7	0,145039961	0,000256726664
2	0	0	0	1	5752,51	3,76055837	3,76113939	-0,074738947383593766	7	0,144935727	0,000281103596
2	0	0	0	1	5753,96	3,74605727	3,74686456	-0,081513741092445914	7	0,144821584	0,000305420952
2	0	0	1	1	5755,41	3,73155618	3,73215842	-0,087875175251004518	7	0,144697994	0,00032796408
2	0	0	0	1	5756,86	3,71705508	3,71786356	-0,09369426932729175	7	0,144565806	0,000348342495
2	0	0	0	1	5758,35	3,70215392	3,70314741	-0,099368163462107302	7	0,144421101	0,00036797495
2	0	0	1	1	5759,80	3,68765283	3,68839121	-0,10509653893920312	7	0,144272223	0,000387637148
2	0	0	1	1	5761,25	3,67315173	3,67372537	-0,11040705066019062	7	0,144115597	0,000405605184
2	0	0	0	1	5762,70	3,65865064	3,65933013	-0,11499765418314678	7	0,143951491	0,00042081438
2	0	0	0	1	5764,15	3,6441493	3,6448648	-0,11998486099764749	7	0,143780366	0,000437328592
2	0	0	1	1	5765,60	3,62964821	3,63028884	-0,1246707240740459	7	0,143602252	0,000452590728
2	0	0	1	1	5767,05	3,61514759	3,61562395	-0,12916565284861848	7	0,143417612	0,000467014441
2	0	0	0	1	5768,50	3,60064602	3,60130811	-0,1335053036843119	7	0,143226415	0,000480793737
2	0	0	1	1	5769,95	3,58614469	3,58666253	-0,13806873788901907	7	0,143028855	0,000495205983
2	0	0	1	1	5771,40	3,57164359	3,57231736	-0,14210356884480802	7	0,142825097	0,000507639023
2	0	0	0	1	5772,85	3,5571425	3,5579927	-0,14633608291236077	7	0,142615288	0,000520662696
2	0	0	0	1	5774,30	3,5426414	3,54341674	-0,14968584586555798	7	0,142399922	0,000530399324
2	0	0	1	1	5775,75	3,52814031	3,52886081	-0,15350289103419846	7	0,142179012	0,00054169033
2	0	0	1	1	5777,20	3,51363921	3,5141952	-0,1569992423756048	7	0,141952917	0,000551725971
2	0	0	0	1	5778,65	3,49913836	3,4999001	-0,16045596834737808	7	0,141721755	0,000561579887
2	0	0	0	1	5780,10	3,48463726	3,48547459	-0,16381515554773318	7	0,141485929	0,000570973556
2	0	0	1	1	5781,55	3,47013617	3,47072887	-0,16677103599067798	7	0,141245529	0,000578817038
2	0	0	0	1	5783,00	3,45563507	3,45625353	-0,1698066769167783	7	0,141001016	0,000586894923
2	0	0	0	1	5784,45	3,44113398	3,44166756	-0,17204662932393488	7	0,140752539	0,000592127326
2	0	0	1	1	5785,90	3,42663288	3,42733264	-0,17469754656000637	7	0,140500292	0,000598746585
2	0	0	1	1	5787,35	3,41213179	3,41264677	-0,17712466426504147	7	0,140244544	0,000604463916
2	0	0	0	1	5788,81	3,39763045	3,39818144	-0,17965434305369866	7	0,139985129	0,000610498071
2	0	0	0	1	5790,26	3,38312936	3,38394642	-0,18195902055595046	7	0,139722377	0,000615739555
2	0	0	1	1	5791,71	3,36862826	3,36935067	-0,18411626305896877	7	0,139456376	0,000620352279
2	0	0	1	1	5793,16	3,35412717	3,35476494	-0,18631792262506973	7	0,139187306	0,000625052839
2	0	0	0	1	5794,61	3,33962584	3,34013915	-0,18841415372056259	7	0,138915047	0,000629329472
2	0	0	1	1	5796,06	3,32512474	3,32574391	-0,19008923156807798	7	0,138639793	0,000632188108
2	0	0	1	1	5797,51	3,31062365	3,3112483	-0,19224112015217565	7	0,138361603	0,000636558107
2	0	0	0	1	5798,96	3,29612255	3,29691339	-0,19420710171107187	7	0,138080463	0,000640283979
2	0	0	0	1	5800,41	3,28162146	3,28212714	-0,1962316064164047	7	0,137796551	0,000644057058
2	0	0	1	1	5801,86	3,26712036	3,26768184	-0,19807988063742733	7	0,137509838	0,00064726203
2	0	0	1	1	5803,31	3,2526195	3,25315619	-0,20025537279434547	7	0,137220427	0,000651462004
2	0	0	0	1	5804,76	3,23811841	3,23869085	-0,20207310708550176	7	0,136928245	0,000654452306
2	0	0	0	1	5806,21	3,22361732	3,22414541	-0,20369849796406902	7	0,136633381	0,000656753604
2	0	0	1	1	5807,66	3,20911622	3,20972013	-0,20557305760060806	7	0,136335924	0,000659831974
2	0	0	0	1	5809,11	3,19461441	3,19530392	-0,20754576340910358	7	0,136035651	0,000663171813
2	0	0	0	1	5810,56	3,18011403	3,18046832	-0,20957225064436624	7	0,135732681	0,000666537904
2	0	0	1	1	5812,01	3,16561294	3,16625381	-0,21139282577981523	7	0,13542679	0,000669323315
2	0	0	1	1	5813,46	3,1511116	3,15161777	-0,21356482376965414	7	0,135118142	0,000673074683
2	0	0	0	1	5814,91	3,13661051	3,13729262	-0,21542416000738784	7	0,134806618	0,000675848627
2	0	0	0	1	5816,36	3,12210941	3,12260699	-0,21751692107257715	7	0,134492174	0,00067921984
2	0	0	1	1	5817,81	3,10760832	3,10815144	-0,2190792146138849	7	0,134174854	0,000680931378
2	0	0	1	1	5819,26	3,09310722	3,09372616	-0,22124838332335184	7	0,133854598	0,000684481929
2	0	0	0	1	5820,71	3,07860613	3,07895017	-0,22329352951298154	7	0,133531377	0,000687509659
2	0	0	1	1	5822,16	3,06410456	3,06468391	-0,2255853901135616	7	0,133205011	0,00069134793
2	0	0	1	1	5823,61	3,04960418	3,05020976	-0,22773609574263354	7	0,132875666	0,000694642891
2	0	0	0	1	5825,06	3,03510308	3,03563428	-0,22977569179299008	7	0,132543117	0,000697514974
2	0	0	0	1	5826,51	3,02060175	3,02124882	-0,23213959500814595	7	0,132207587	0,000701351499
2	0	0	1	1	5827,96	3,00610065	3,00671339	-0,23400632028157542	7	0,131868914	0,000703589933
2	0	0	1	1	5829,41	2,99159956	2,99227786	-0,23617706952306205	7	0,131527245	0,000706707418
2	0	0	0	1	5830,86	2,9770987	2,97768235	-0,23834233211042989	7	0,131182417	0,000709707732
2	0	0	0	1	5832,31	2,96259761	2,9632771	-0,24053738576670458	7	0,130834609	0,000712778943
2	0	0	1	1	5833,76	2,94809651	2,94865131	-0,24263256260504294	7	0,130483821	0,0007154388
2	0	0	0	1	5835,21	2,93359613	2,93406463	-0,24439163727558477	7	0,130130187	0,000717060873
2	0	0	0	1	5836,66	2,91909409	2,91950989	-0,24633883933226298	7	0,129773811	0,000719188654
2	0	0	1	1	5838,11	2,90459299	2,90531516	-0,24790431473714637	7	0,129415005	0,000720240176
2	0	0	1	1	5839,56	2,8900919	2,89094019	-0,24936671027292867	7	0,129053771	0,000720904267
2	0	0	0	1	5841,01	2,87559056	2,8763144	-0,25100356177426864	7	0,128690094	0,00072196516
2	0	0	0	1	5842,46	2,86108947	2,86176872	-0,2525014627414457	7	0,128324196	0,000722600787
2	0	0	1	1	5843,91	2,84658837	2,84730339	-0,25380420172587082	7	0,127956316	0,00072265754
2	0	0	1	1	5845,36	2,83208728	2,83260727	-0,25479408268195859	7	0,127586678	0,000721731572
2	0	0	0	1	5846,81	2,81758642	2,81802154	-0,25592249352484986	7	0,12721552	0,000721195072
2	0	0	1	1	5848,26	2,80308533	2,80369663	-0,25650348312531968	7	0,12684311	0,000719157979
2	0	0	1	1	5849,71	2,78858399	2,78913116	-0,25717461070356272	7	0,12646988	0,000717293704
2	0	0	0	1	5851,16	2,7740829	2,77458501	-0,2574570991564551	7	0,12609601	0,00071433658
2	0	0	0	1	5852,61	2,7595818	2,76014018	-0,25775656957800307	7	0,125721827	0,000711444241
2	0	0	1	1	5854,06	2,74508071	2,74568439	-0,25769121145519104	7	0,125347584	0,00070753874
2	0	0	1	1	5855,51	2,73057985	2,73119926	-0,25734124185207062	7	0,124973536	0,00070285023
2	0	0	0	1	5856,96	2,71607876	2,71661353	-0,2572192815908545	7	0,124599934	0,000698765391
2	0	0	0	1	5858,41	2,70157766	2,70222831	-0,2566420477814968	7	0,124226853	0,000693505397
2	0	0	1	1	5859,86	2,68707657	2,68741202	-0,25629087684986506	7	0,123854473	0,000688759203
2	0	0	0	1	5861,31	2,67257476	2,6730659	-0,25533280542801773	7	0,123482771	0,000682521437
2	0	0	0	1	5862,76	2,65807414	2,65852141	-0,25514214485883757	7	0,12311177	0,000678300858
2	0	0	1	1	5864,21	2,64357305	2,64402604	-0,2543427913915368	7	0,12274152	0,000672488939
2	0	0	1	1	5865,66	2,62907195	2,62959051	-0,2540219970978801	7	0,122372098	0,000667973829
2	0	0	0	1	5867,11	2,61457062	2,61501479	-0,25343205872923091	7	0,122003444	0,000662728562
2	0	0	0	1	5868,56	2,60006952	2,60061955	-0,25283632404171021	7	0,121635638	0,000657531084
2	0	0	1	1	5870,01	2,58556843	2,58605385	-0,25239519448950886	7	0,121268593	0,000652707589
2	0	0	1	1	5871,46	2,57106757	2,57175899	-0,25192541892950794	7	0,120902255	0,000647891487
2	0	0	0	1	5872,91	2,55656624	2,55716324	-0,25142327665041008	7	0,120536514	0,000642930332
2	0	0	0	1	5874,36	2,54206538	2,54263783	-0,25112704481494141	7	0,120171338	0,000638525118
2	0	0	1	1	5875,81	2,52756405	2,52806187	-0,25101617529677878	7	0,11980667	0,000634584401
2	0	0	0	1	5877,26	2,51306295	2,513767	-0,25073288870044051	7	0,119442418	0,000630284077
2	0	0	0	1	5878,71	2,49856186	2,49929166	-0,25010086937497088	7	0,119078666	0,000625075016
2	0	0	1	1	5880,16	2,484061	2,48462582	-0,25002648689163242	7	0,118715413	0,000621222251
2	0	0	1	1	5881,61	2,46955991	2,47026086	-0,24996192722270915	7	0,118352488	0,000617471174
2	0	0	0	1	5883,06	2,45505881	2,45558453	-0,2493147061516847	7	0,117989808	0,000612213335
2	0	0	0	1	5884,51	2,44055748	2,44113946	-0,24927269838129494	7	0,117627516	0,000608509406
2	0	0	1	1	5885,96	2,42605615	2,42672396	-0,24907596013508781	7	0,117265396	0,000604438595
2	0	0	0	1	5887,41	2,41155434	2,41225719	-0,24888747506021859	7	0,116903648	0,00060038059
2	0	0	0	1	5888,86	2,3970542	2,39804387	-0,24843616822424032	7	0,116542302	0,000595760823
2	0	0	1	1	5890,31	2,3825531	2,38317728	-0,24834958681215901	7	0,116181299	0,000591861084
2	0	0	1	1	5891,76	2,36805177	2,36889267	-0,24799864972010342	7	0,115820706	0,00058748218
2	0	0	0	1	5893,21	2,35355067	2,35418653	-0,24773178140943309	7	0,115460567	0,000583206827
2	0	0	0	1	5894,66	2,33904958	2,33980131	-0,24700718450670544	7	0,115101039	0,000577947707
2	0	0	1	1	5896,11	2,32454872	2,32522559	-0,24681918579153715	7	0,114742003	0,000573910307
2	0	0	1	1	5897,56	2,31004739	2,31069016	-0,24642768502235344	7	0,114383653	0,000569418014
2	0	0	0	1	5899,01	2,29554629	2,2960341	-0,24605647459005286	7	0,114025906	0,000564954069
2	0	0	0	1	5900,46	2,28104591	2,28153086	-0,24569345019676848	7	0,113668948	0,000560557179
2	0	0	1	1	5901,91	2,2665441	2,26695299	-0,24498054734431162	7	0,113312699	0,000555359409
2	0	0	0	1	5903,36	2,25204301	2,2529285	-0,24452888507706483	7	0,112957299	0,000550906116
2	0	0	0	1	5904,81	2,23754215	2,23833299	-0,2435015543984873	7	0,112602852	0,000545037561
2	0	0	1	1	5906,26	2,22304106	2,22374725	-0,24300174174519885	7	0,112249322	0,000540374429
2	0	0	1	1	5907,71	2,20853972	2,20903134	-0,24213859617399712	7	0,111896887	0,000534891733
2	0	0	0	1	5909,16	2,19403839	2,194556	-0,24149816630718624	7	0,111545473	0,000529981276
2	0	0	0	1	5910,61	2,1795373	2,18018079	-0,24066116311587437	7	0,11119543	0,000524684845
2	0	0	1	1	5912,06	2,16503644	2,16573548	-0,2396304462260256	7	0,110846542	0,000518976187
2	0	0	1	1	5913,51	2,15053487	2,15110898	-0,23880497750040154	7	0,110499017	0,00051369553
2	0	0	0	1	5914,96	2,13603425	2,13660407	-0,23781457085472902	7	0,110152893	0,000508115569
2	0	0	1	1	5916,41	2,12153292	2,12200832	-0,23650834887909466	7	0,109808125	0,000501872681
2	0	0	1	1	5917,86	2,10703182	2,10757303	-0,23579265681716333	7	0,109464742	0,000496950233
2	0	0	0	1	5919,32	2,09253073	2,09294724	-0,23487520023869955	7	0,109122664	0,000491581392
2	0	0	0	1	5920,77	2,07802987	2,07864237	-0,23418133798986672	7	0,108782172	0,00048677926
2	0	0	1	1	5922,22	2,06352854	2,06403637	-0,23337815034513642	7	0,108442694	0,00048170099
2	0	0	1	1	5923,67	2,04902744	2,04973149	-0,23266423493623821	7	0,108104371	0,000476899208
2	0	0	0	1	5925,12	2,03452635	2,03516579	-0,23195548743630435	7	0,107767165	0,000472067884
2	0	0	0	1	5926,57	2,02002597	2,02061105	-0,23086489298131152	7	0,107430927	0,000466488156
2	0	0	1	1	5928,02	2,00552416	2,00599456	-0,23034636816009958	7	0,107095689	0,000462073571
2	0	0	0	1	5929,47	1,9910233	1,99144888	-0,22982056920106243	7	0,106761195	0,000457675924
2	0	0	0	1	5930,92	1,97652221	1,97703362	-0,22942049754783488	7	0,106427602	0,000453572022
2	0	0	1	1	5932,37	1,96202099	1,96249819	-0,22885403727802256	7	0,106094614	0,000449125626
2	0	0	1	1	5933,82	1,9475199	1,94811296	-0,22858296125195898	7	0,105762288	0,000445305428
2	0	0	0	1	5935,27	1,93301857	1,93353713	-0,22801841290978109	7	0,105430588	0,000440882053
2	0	0	0	1	5936,72	1,91851759	1,91911197	-0,22766379336826502	7	0,105099529	0,00043691232
2	0	0	1	1	5938,17	1,90401649	1,90468669	-0,22692352168572416	7	0,104769118	0,000432218221
2	0	0	0	1	5939,62	1,88951468	1,8901614	-0,22661336268019693	7	0,104439341	0,000428335828
2	0	0	0	1	5941,07	1,87501431	1,87541497	-0,22611033637076618	7	0,104110323	0,000424050697
2	0	0	1	1	5942,52	1,86051333	1,86111999	-0,22557263891212688	7	0,103781909	0,000419817748
2	0	0	1	1	5943,97	1,846012	1,84666467	-0,22532806126400874	7	0,103454441	0,00041610538
2	0	0	0	1	5945,42	1,83151102	1,83207893	-0,22466478147543968	7	0,103127711	0,0004116036
2	0	0	0	1	5946,87	1,81700969	1,81754339	-0,22415286411220835	7	0,102801919	0,000407407555
2	0	0	1	1	5948,32	1,80250871	1,80296779	-0,22295528254471718	7	0,102477096	0,000401981204
2	0	0	1	1	5949,77	1,78800762	1,78864253	-0,22248196213816662	7	0,102153383	0,00039794069
2	0	0	0	1	5951,22	1,77350652	1,77372611	-0,22167722003844938	7	0,101830758	0,00039319467
2	0	0	1	1	5952,67	1,75900519	1,75967216	-0,22096241503361379	7	0,101509184	0,000388821412
2	0	0	1	1	5954,12	1,74450445	1,74486554	-0,22022788831964224	7	0,101188727	0,00038426806
2	0	0	0	1	5955,57	1,73000312	1,73048031	-0,21952954881514096	7	0,100869223	0,000379891571
2	0	0	0	1	5957,02	1,71550214	1,71628547	-0,21890929985481034	7	0,100550734	0,000375710864
2	0	0	1	1	5958,47	1,70100105	1,70126891	-0,21826283105959555	7	0,10023313	0,000371323782
2	0	0	1	1	5959,92	1,68649971	1,68702388	-0,21752482295657206	7	0,0999163091	0,000366969558
2	0	0	0	1	5961,37	1,67199874	1,67239809	-0,21730449260212614	7	0,0996000618	0,000363419618
2	0	0	0	1	5962,82	1,65749764	1,65799308	-0,21696870502394995	7	0,0992843658	0,000359732599
2	0	0	1	1	5964,27	1,64299655	1,64340734	-0,21686209955563098	7	0,0989690349	0,00035639276
2	0	0	1	1	5965,72	1,62849641	1,62889934	-0,21674578976769165	7	0,0986539572	0,000353057083
2	0	0	0	1	5967,17	1,61399424	1,61455679	-0,21692972195645165	7	0,0983389243	0,000350245362
2	0	0	1	1	5968,62	1,59949315	1,60007119	-0,21713531374310467	7	0,0980237946	0,000347431953
2	0	0	1	1	5970,07	1,58499217	1,58534515	-0,21694352803751914	7	0,0977084339	0,000343930384
2	0	0	0	1	5971,52	1,57049108	1,57084966	-0,2173991099310424	7	0,0973927751	0,00034150132
2	0	0	0	1	5972,97	1,55598986	1,55650461	-0,21784499039252659	7	0,097076565	0,000339076738
2	0	0	1	1	5974,42	1,54148889	1,54194915	-0,21842979422459984	7	0,0967596546	0,000336807629
2	0	0	1	1	5975,87	1,52698779	1,52755392	-0,21892379860704115	7	0,0964419395	0,000334417913
2	0	0	0	1	5977,32	1,5124867	1,51283777	-0,21977229470697578	7	0,0961232781	0,000332479831
2	0	0	0	1	5978,77	1,49798596	1,49831092	-0,2203653965880279	7	0,0958035737	0,000330175884
2	0	0	1	1	5980,22	1,48348439	1,48399723	-0,22133247794893894	7	0,0954826921	0,000328456779
2	0	0	0	1	5981,67	1,46898329	1,46943152	-0,2218061325450753	7	0,0951606482	0,000325928908
2	0	0	0	1	5983,12	1,4544822	1,45494604	-0,22292994055897043	7	0,0948373154	0,000324351044
2	0	0	1	1	5984,57	1,43998098	1,44058096	-0,22377113175268003	7	0,0945125967	0,000322360429
2	0	0	1	1	5986,02	1,42547989	1,4261055	-0,22486134688369974	7	0,094186537	0,000320676016
2	0	0	0	1	5987,47	1,41097891	1,41162014	-0,22580684535205341	7	0,093859084	0,000318753504
2	0	0	0	1	5988,92	1,39647782	1,39704442	-0,22672751988284378	7	0,0935303122	0,000316748425
2	0	0	1	1	5990,37	1,3819766	1,3825289	-0,22774121336018029	7	0,0932002291	0,0003148588
2	0	0	1	1	5991,82	1,36747551	1,36803341	-0,22825050028040915	7	0,0928689241	0,000312254298
2	0	0	0	1	5993,27	1,3529743	1,35354793	-0,22943669037583046	7	0,0925363749	0,000310553558
2	0	0	1	1	5994,72	1,33847332	1,33888209	-0,2301044348472112	7	0,0922025964	0,000308082701
2	0	0	1	1	5996,17	1,32397223	1,324507	-0,23102320164131606	7	0,0918676481	0,000305991853
2	0	0	0	1	5997,62	1,30947101	1,30986106	-0,23182290769182134	7	0,0915315226	0,000303655805
2	0	0	0	1	5999,07	1,29497004	1,29543579	-0,2325824072274072	7	0,0911943018	0,000301295571
2	0	0	1	1	6000,52	1,28046894	1,28084004	-0,23334207936810979	7	0,0908558592	0,000298873871
2	0	0	1	1	6001,97	1,26596773	1,26649511	-0,23413651351196042	7	0,0905164257	0,000296532759
2	0	0	0	1	6003,42	1,25146675	1,25202954	-0,23458722777043926	7	0,090175733	0,000293710153
2	0	0	0	1	6004,87	1,23696542	1,23744392	-0,23575185720498394	7	0,0898338184	0,000291729695
2	0	0	1	1	6006,32	1,22246444	1,22307873	-0,23666643894588013	7	0,0894905031	0,000289461692
2	0	0	0	1	6007,77	1,20796335	1,20822239	-0,23763057139391731	7	0,0891457945	0,000287110568
2	0	0	0	1	6009,22	1,19346225	1,19397748	-0,23859418105955043	7	0,0887996554	0,000284876092
2	0	0	1	1	6010,67	1,17896104	1,17937183	-0,23985445320916675	7	0,0884518996	0,000282877591
2	0	0	1	1	6012,12	1,16446006	1,16508687	-0,2411066207569097	7	0,0881025568	0,000280910142
2	0	0	0	1	6013,57	1,14995897	1,15045106	-0,24212965423551718	7	0,0877514035	0,00027855832
2	0	0	0	1	6015,02	1,13545775	1,13593543	-0,24368625180795878	7	0,0873984545	0,000276811857
2	0	0	1	1	6016,47	1,12095666	1,1212796	-0,24511863299024586	7	0,0870434269	0,000274846534
2	0	0	1	1	6017,92	1,10645545	1,10708499	-0,24680468913478214	7	0,0866862461	0,000273233774
2	0	0	0	1	6019,37	1,09195447	1,09216833	-0,24864405851500758	7	0,0863264501	0,000271561177
2	0	0	1	1	6020,82	1,07745337	1,07795358	-0,2509477410155041	7	0,0859636664	0,000270510005
2	0	0	1	1	6022,27	1,06295216	1,06342804	-0,25346522747228483	7	0,0855974555	0,000269542041
2	0	0	0	1	6023,72	1,04845119	1,04873204	-0,25663412470991533	7	0,0852270275	0,000269140437
2	0	0	0	1	6025,17	1,03395009	1,03451729	-0,25965554119708624	7	0,0848520026	0,00026861814
2	0	0	1	1	6026,62	1,01944888	1,02000189	-0,26375842389340208	7	0,0844716057	0,000269034092
2	0	0	1	1	6028,07	1,00494778	1,00547624	-0,26806720121142736	7	0,0840853229	0,000269535201
2	0	0	0	1	6029,52	0,990446746	0,990810394	-0,27290491169939469	7	0,0836922675	0,000270397024
2	0	0	0	1	6030,97	0,975945652	0,976274788	-0,2781558286709105	7	0,083292	0,000271556521
2	0	0	1	1	6032,42	0,961444616	0,961899638	-0,28360484043757149	7	0,0828838274	0,0002727994
2	0	0	0	1	6033,87	0,946943462	0,947364032	-0,28970521447869645	7	0,0824672878	0,00027445631
2	0	0	0	1	6035,32	0,932442248	0,932868659	-0,29585275488595245	7	0,082042031	0,00027599177
2	0	0	1	1	6036,77	0,917941213	0,91829288	-0,30214348280181504	7	0,0816076323	0,000277456216
2	0	0	1	1	6038,22	0,903440118	0,90394783	-0,30868559594576704	7	0,0811639801	0,000279035681
2	0	0	0	1	6039,67	0,888939083	0,889281929	-0,31531092571094611	7	0,0807108581	0,000280400302
2	0	0	0	1	6041,12	0,874437809	0,874956846	-0,32164594569864333	7	0,0802485794	0,000281426328
2	0	0	1	1	6042,57	0,859936774	0,860471427	-0,32790278270840646	7	0,0797770843	0,000282150984
2	0	0	1	1	6044,02	0,845435679	0,84584564	-0,33379510277882285	7	0,0792967454	0,000282339141
2	0	0	0	1	6045,47	0,830934644	0,831310034	-0,33962296314227117	7	0,0788078606	0,000282331981
2	0	0	1	1	6046,92	0,816433489	0,816834688	-0,34458756051026285	7	0,0783109143	0,000281471061
2	0	0	1	1	6048,37	0,801932335	0,802208841	-0,34986250521615149	7	0,077806443	0,000280662789
2	0	0	0	1	6049,83	0,78743124	0,787743449	-0,35474930059475354	7	0,0772946998	0,000279451429
2	0	0	0	1	6051,28	0,772930205	0,773248017	-0,35927582819325376	7	0,0767762214	0,000277809333
2	0	0	1	1	6052,73	0,75842905	0,758872807	-0,36334983011086797	7	0,0762514248	0,000275736296
2	0	0	1	1	6054,18	0,743927896	0,744407415	-0,36733933375217107	7	0,0757208839	0,000273450132
2	0	0	0	1	6055,63	0,729426801	0,729911923	-0,37105273222550752	7	0,0751846656	0,000270835822
2	0	0	0	1	6057,08	0,714925766	0,715256095	-0,37470546745074349	7	0,0746431798	0,000268010364
2	0	0	1	1	6058,53	0,700424612	0,70101124	-0,3779272170116503	7	0,0740966201	0,000264931237
2	0	0	0	1	6059,98	0,685923457	0,686315298	-0,3814730931383872	7	0,0735451505	0,000261810812
2	0	0	0	1	6061,43	0,671422362	0,671789706	-0,38500625360757248	7	0,0729888603	0,000258643238
2	0	0	1	1	6062,88	0,656921268	0,657244086	-0,38825242919847456	7	0,072427474	0,000255176623
2	0	0	1	1	6064,33	0,642420232	0,642548203	-0,3921500526679065	7	0,0718612	0,000251975318
2	0	0	0	1	6065,78	0,627919078	0,628142893	-0,39563945603246253	7	0,0712894648	0,000248518103
2	0	0	0	1	6067,23	0,613417923	0,613827825	-0,39974491158500314	7	0,0707122609	0,00024537454
2	0	0	1	1	6068,68	0,598916829	0,599372506	-0,40353006652245907	7	0,0701291487	0,000241864822
2	0	0	1	1	6070,13	0,584415793	0,584856927	-0,40815204738949792	7	0,0695398673	0,000238710549
2	0	0	0	1	6071,58	0,569914699	0,570391595	-0,41270863311365293	7	0,0689439252	0,000235405532
2	0	0	1	1	6073,03	0,555413485	0,555625439	-0,41779823678856064	7	0,0683408678	0,000232139326
2	0	0	1	1	6074,48	0,54091239	0,541099906	-0,42327302834019142	7	0,0677305162	0,000229033001
2	0	0	0	1	6075,93	0,526411355	0,526714683	-0,42880286602303386	7	0,0671118423	0,000225856769
2	0	0	0	1	6077,38	0,5119102	0,51235956	-0,43507464571545459	7	0,0664847717	0,000222914648
2	0	0	1	1	6078,83	0,497409135	0,497663617	-0,44136963970959098	7	0,065848507	0,000219653608
2	0	0	1	1	6080,28	0,482907981	0,48326838	-0,44795000739395731	7	0,0652028918	0,000216480068
2	0	0	0	1	6081,73	0,468406916	0,468642622	-0,45502565133695859	7	0,0645473301	0,000213244421
2	0	0	0	1	6083,18	0,453905016	0,453975081	-0,46253300244238906	7	0,0638812706	0,000209978461
2	0	0	1	1	6084,63	0,439404696	0,439822108	-0,47036332963034598	7	0,0632044673	0,000206876197
2	0	0	0	1	6086,08	0,424903512	0,425346702	-0,47869045007973818	7	0,062515825	0,000203609408
2	0	0	0	1	6087,53	0,410402447	0,410760969	-0,48779898726691917	7	0,0618147142	0,000200368784
2	0	0	1	1	6088,98	0,395901352	0,396095097	-0,49776632633681216	7	0,0610996448	0,000197162808
2	0	0	1	1	6090,43	0,381400228	0,381770074	-0,50805717085798726	7	0,0603699163	0,000193961023
2	0	0	0	1	6091,88	0,366899133	0,367244512	-0,51987514675905542	7	0,0596238226	0,000190921288
2	0	0	0	1	6093,33	0,352398008	0,352588654	-0,53282231527070502	7	0,0588598549	0,000187867103
2	0	0	1	1	6094,78	0,337896913	0,338253587	-0,54723836279784518	7	0,0580761172	0,000185105338
2	0	0	1	1	6096,23	0,323395818	0,323697954	-0,56300561285267213	7	0,0572703891	0,000182243763
2	0	0	0	1	6097,68	0,308894694	0,309182435	-0,58136941818520422	7	0,0564399771	0,000179749215
2	0	0	1	1	6099,13	0,294393599	0,294747084	-0,60132123048727859	7	0,0555819012	0,000177237685
2	0	0	1	1	6100,58	0,279892474	0,280091226	-0,62401592203726477	7	0,0546932518	0,00017478138
2	0	0	0	1	6101,38	0,271791905	0,271841109	-0,63698923587799078	7	0,0541883074	0,00017315986