File: Experimentelles/Rohdaten/Batteriemessungen/AlteZelle/150511_LLTO_LTO_Tests/ECLab-Export/LLTO_LP30_LTO_02_CV_C01_loop5.mpt
EC-Lab ASCII FILE
Nb header lines : 3
mode	ox/red	error	control changes	counter inc.	time/s	control/V	Ewe/V	<I>/mA	cycle number	(Q-Qo)/C	P/W
2	1	0	0	0	4530,00	0,272091925	0,272482663	-0,63517677783966067	6	0	0,000173074659
2	1	0	0	0	4531,43	0,286392957	0,286747515	-0,340281096830344	6	-0,00064241176	9,75747607E-005
2	1	0	1	0	4532,88	0,300894082	0,301263034	-0,21273007018802038	6	-0,00103476085	6,40877042E-005
2	1	0	1	0	4534,33	0,315395206	0,315648258	-0,13244659752429832	6	-0,00128007599	4,18065392E-005
2	1	0	0	0	4535,78	0,329896301	0,330374271	-0,079791061192130086	6	-0,00143064966	2,63609145E-005
2	1	0	0	0	4537,27	0,344797432	0,345441133	-0,04440471235041815	6	-0,00152037945	1,53392139E-005
2	1	0	1	0	4538,72	0,359298527	0,359776199	-0,020926773455964115	6	-0,00156569073	7,52895494E-006
2	1	0	1	0	4540,21	0,374199688	0,374742866	-0,0039043627681773357	6	-0,00158297562	1,46313209E-006
2	1	0	0	0	4541,66	0,388700813	0,389037848	0,007363858807366313	6	-0,00158018235	2,86481986E-006
2	1	0	1	0	4543,15	0,403601885	0,404114693	0,015145322579580013	6	-0,00156293821	6,12044732E-006
2	1	0	1	0	4544,60	0,418103009	0,418590128	0,021354498424140349	6	-0,00153569295	8,93878223E-006
2	1	0	0	0	4546,06	0,432604104	0,433205903	0,026288398570613824	6	-0,00150045648	1,13882897E-005
2	1	0	0	0	4547,51	0,447105229	0,447671294	0,030065650401714579	6	-0,00145872717	1,34595284E-005
2	1	0	1	0	4548,96	0,461606354	0,461825937	0,033684686253157683	6	-0,00141165685	1,55564612E-005
2	1	0	1	0	4550,41	0,476107448	0,476431638	0,036940532319325261	6	-0,00135954947	1,75996374E-005
2	1	0	0	0	4551,86	0,490608573	0,491007358	0,039970443807154202	6	-0,00130308536	1,96257824E-005
2	1	0	0	0	4553,31	0,505109668	0,505492806	0,042663164786063078	6	-0,00124254811	2,1565922E-005
2	1	0	1	0	4554,76	0,519610822	0,519938111	0,045348333932148768	6	-0,00117818825	2,35783264E-005
2	1	0	0	0	4556,21	0,534111857	0,534503758	0,047875777177978195	6	-0,00111019041	2,5589783E-005
2	1	0	0	0	4557,66	0,548613071	0,549019277	0,049890691104034656	6	-0,0010386816	2,73909518E-005
2	1	0	1	0	4559,11	0,563114107	0,563564897	0,05251039993405959	6	-0,000963767059	2,95930186E-005
2	1	0	1	0	4560,56	0,577615261	0,578170657	0,054804185541191264	6	-0,000885353249	3,16861733E-005
2	1	0	0	0	4562,01	0,592116356	0,592595935	0,057361710641998739	6	-0,000803496747	3,39923172E-005
2	1	0	0	0	4563,46	0,606617451	0,607031286	0,059698654067081523	6	-0,000718084513	3,6238951E-005
2	1	0	1	0	4564,91	0,621118546	0,621396363	0,062357726953147622	6	-0,000629093614	3,87488653E-005
2	1	0	1	0	4566,36	0,63561964	0,635932028	0,06479237486685929	6	-0,000536407111	4,12035479E-005
2	1	0	0	0	4567,81	0,650120795	0,650668025	0,067481057019904038	6	-0,000439924828	4,39077667E-005
2	1	0	1	0	4569,26	0,66462189	0,665153563	0,069754572100161114	6	-0,000339700753	4,63975011E-005
2	1	0	1	0	4570,71	0,679122984	0,67948854	0,072542435974658624	6	-0,000235628206	4,92917534E-005
2	1	0	0	0	4572,16	0,693624079	0,694114387	0,075010052513486246	6	-0,000127838022	5,20655558E-005
2	1	0	0	0	4573,61	0,708125234	0,708449483	0,077513166819698995	6	-1,64443718E-005	5,49141623E-005
2	1	0	1	0	4575,06	0,722626328	0,723155439	0,079699240430879283	6	9,8230179E-005	5,76349375E-005
2	1	0	1	0	4576,51	0,737127423	0,737500548	0,081770753856592934	6	0,000215934881	6,03059743E-005
2	1	0	0	0	4577,96	0,751628518	0,751915753	0,083703891859234995	6	0,000336399447	6,29382776E-005
2	1	0	0	0	4579,41	0,766129673	0,766641796	0,084827685573448781	6	0,000459191651	6,50324509E-005
2	1	0	1	0	4580,86	0,780630767	0,781057119	0,086433782766107494	6	0,000584067369	6,75097181E-005
2	1	0	0	0	4582,31	0,795131803	0,795311928	0,087469788539844326	6	0,000710659253	6,95657654E-005
2	1	0	0	0	4583,76	0,809632838	0,809997916	0,088433806900866112	6	0,000838740787	7,16311988E-005
2	1	0	1	0	4585,21	0,824134052	0,824463248	0,089162464195396749	6	0,000967976404	7,35111753E-005
2	1	0	1	0	4586,66	0,838635206	0,839079022	0,089725108138130176	6	0,0010981767	7,5286458E-005
2	1	0	0	0	4588,11	0,853136241	0,853424132	0,090148411458358118	6	0,00122909737	7,69348262E-005
2	1	0	0	0	4589,56	0,867637336	0,867929637	0,090511092237041574	6	0,00136063225	7,85572629E-005
2	1	0	1	0	4591,01	0,882138491	0,882645667	0,090435661957599168	6	0,00149253826	7,98226465E-005
2	1	0	1	0	4592,46	0,896639645	0,896990716	0,090743773772070771	6	0,00162470702	8,13963197E-005
2	1	0	1	0	4593,83	0,910340667	0,910614133	0,091006285937813184	6	0,00174985116	8,28716074E-005
2	1	0	0	0	4595,28	0,924842	0,92543149	0,091134631375672794	6	0,00188239035	8,43388552E-005
2	1	0	0	0	4596,73	0,939342797	0,939815581	0,09105163855322976	6	0,00201502419	8,55717517E-005
2	1	0	1	0	4598,18	0,953843951	0,954120576	0,091234409560759782	6	0,00214772229	8,70486256E-005
2	1	0	1	0	4599,63	0,968345106	0,968766451	0,091151028153641728	6	0,00228042738	8,83040557E-005
2	1	0	0	0	4601,08	0,9828462	0,983241796	0,091208777584445952	6	0,00241318112	8,96802812E-005
2	1	0	0	0	4602,53	0,997347236	0,997777343	0,090922703578447002	6	0,00254589343	9,07206122E-005
2	1	0	1	0	4603,98	1,01184833	1,01229286	0,091078020748682214	6	0,00267869048	9,21976316E-005
2	1	0	1	0	4605,43	1,02634931	1,02659798	0,091161141404882074	6	0,00281150546	9,35858407E-005
2	1	0	0	0	4606,88	1,04085052	1,04118371	0,091222949403648589	6	0,00294443429	9,49798487E-005
2	1	0	1	0	4608,33	1,05535173	1,05596983	0,091286086690767206	6	0,00307745184	9,63953571E-005
2	1	0	1	0	4609,78	1,06985271	1,07023466	0,091447460465133184	6	0,00321058696	9,78702446E-005
2	1	0	0	0	4611,23	1,08435392	1,08486056	0,091619378557273318	6	0,00334393349	9,93942522E-005
2	1	0	0	0	4612,68	1,09885502	1,09940612	0,091606640800212518	6	0,00347747211	0,000100712903
2	1	0	1	0	4614,13	1,11335599	1,11361086	0,092053599810848486	6	0,00361128198	0,000102511891
2	1	0	1	0	4615,58	1,12785721	1,12813652	0,092341748396089549	6	0,00374538009	0,000104174098
2	1	0	0	0	4617,03	1,1423583	1,1426419	0,092638194755030067	6	0,00387988682	0,000105852283
2	1	0	0	0	4618,48	1,15685928	1,15744817	0,092837527704735629	6	0,00401474582	0,000107454624
2	1	0	1	0	4619,93	1,17136061	1,17180324	0,093221714235065754	6	0,00415007072	0,00010923751
2	1	0	0	0	4621,38	1,18586087	1,18642962	0,09361890874660361	6	0,00428597908	0,000111072244
2	1	0	0	0	4622,83	1,2003628	1,20094454	0,094068283118152077	6	0,00442254543	0,000112970789
2	1	0	1	0	4624,28	1,2148639	1,21532977	0,094291856493024627	6	0,00455984008	0,000114595699
2	1	0	1	0	4625,73	1,22936487	1,22988534	0,094886218818525325	6	0,00469777361	0,000116699171
2	1	0	0	0	4627,18	1,24386609	1,24426055	0,095176399666039795	6	0,00483632879	0,000118424243
2	1	0	0	0	4628,63	1,25836718	1,25897658	0,095313286195353626	6	0,00497512473	0,000119997196
2	1	0	1	0	4630,08	1,27286816	1,2733016	0,094851575753030554	6	0,00511388481	0,000120774661
2	1	0	1	0	4631,53	1,28736937	1,28786731	0,094804297220737907	6	0,00525226258	0,000122095356
2	1	0	0	0	4632,98	1,30187058	1,30219233	0,094420894184925773	6	0,00539016211	0,000122954167
2	1	0	1	0	4634,43	1,31637096	1,31703806	0,093971739511344858	6	0,00552754337	0,000123764359
2	1	0	1	0	4635,88	1,33087277	1,33144391	0,093730987495897587	6	0,00566428574	0,000124797545
2	1	0	0	0	4637,33	1,34537387	1,3458792	0,093445002508815437	6	0,00580052286	0,000125765684
2	1	0	0	0	4638,78	1,35987484	1,36027455	0,092899276506310797	6	0,00593604241	0,000126368526
2	1	0	1	0	4640,23	1,37437606	1,37504053	0,091735884392012992	6	0,00607047975	0,000126140556
2	1	0	1	0	4641,68	1,38887715	1,3894459	0,090806578421809946	6	0,00620332733	0,000126170824
2	1	0	0	0	4643,13	1,40337825	1,40402138	0,089459061583814554	6	0,0063344501	0,000125602441
2	1	0	0	0	4644,58	1,41787946	1,41841674	0,088285864990515162	6	0,00646379637	0,000125226143
2	1	0	1	0	4646,03	1,43238044	1,43290222	0,086832685454282688	6	0,00659143645	0,000124422746
2	1	0	1	0	4647,48	1,44688082	1,44715667	0,086125664132157222	6	0,00671769679	0,000124637329
2	1	0	0	0	4648,93	1,46138275	1,46173275	0,0856169409235008	6	0,00684285536	0,00012514909
2	1	0	1	0	4650,38	1,47588372	1,47624826	0,085379558110919578	6	0,00696748728	0,000126041428
2	1	0	1	0	4651,83	1,49038494	1,49073374	0,085395886077700762	6	0,00709190359	0,000127302526
2	1	0	0	0	4653,28	1,50488603	1,50552988	0,085740083595737587	6	0,00721659558	0,000129084263
2	1	0	0	0	4654,73	1,51938701	1,51995516	0,086159982796137344	6	0,00734187569	0,000130959306
2	1	0	1	0	4656,18	1,53388822	1,53443062	0,086871767513609037	6	0,00746805919	0,000133298701
2	1	0	1	0	4657,63	1,54838943	1,54876578	0,087735400438153702	6	0,00759537518	0,000135881579
2	1	0	0	0	4659,08	1,56289041	1,56348157	0,088898145884741094	6	0,0077240942	0,00013899061
2	1	0	0	0	4660,53	1,57739186	1,57794833	0,090221815962949542	6	0,00785440858	0,000142365359
2	1	0	1	0	4661,98	1,59189272	1,59246266	0,091468953779743181	6	0,0079863891	0,000145660888
2	1	0	0	0	4663,43	1,60639369	1,6067977	0,092737101348272064	6	0,00812028814	0,000149009764
2	1	0	0	0	4664,88	1,62089479	1,62126303	0,09414939747269568	6	0,00825614389	0,000152640932
2	1	0	1	0	4666,33	1,63539588	1,63588893	0,095587051822803917	6	0,00839411188	0,000156369802
2	1	0	1	0	4667,78	1,64989698	1,65044451	0,096801594753439078	6	0,00853426103	0,000159765666
2	1	0	0	0	4669,24	1,66439819	1,66481972	0,098547872970811584	6	0,0086766677	0,000164064448
2	1	0	0	0	4670,73	1,67929912	1,67961586	0,10008789820130915	6	0,00882550515	0,000168109225
2	1	0	1	0	4672,18	1,69380045	1,6943419	0,10187825164757648	6	0,00897285622	0,000172616594
2	1	0	0	0	4673,63	1,70830131	1,70874798	0,10351223254577779	6	0,00912265759	0,000176876318
2	1	0	0	0	4675,08	1,72280276	1,72317243	0,10545351433878136	6	0,00927494001	0,000181714582
2	1	0	1	0	4676,53	1,73730373	1,73794866	0,10719343740493037	6	0,00942970999	0,000186296689
2	1	0	1	0	4677,98	1,75180483	1,75219345	0,10862341787045171	6	0,0095870113	0,000190329243
2	1	0	0	0	4679,43	1,76630592	1,76676917	0,11058589439683896	6	0,00974680204	0,000195379747
2	1	0	0	0	4680,88	1,78080702	1,78138494	0,11248597770463653	6	0,00990922283	0,000200380833
2	1	0	1	0	4682,33	1,79530799	1,79583013	0,11431438165406349	6	0,0100742048	0,000205289209
2	1	0	1	0	4683,78	1,80980933	1,81034577	0,11593371059279843	6	0,0102418317	0,000209880105
2	1	0	0	0	4685,23	1,82431042	1,82498145	0,11786363650268549	6	0,0104120355	0,000215098946
2	1	0	0	0	4686,68	1,83881044	1,83933556	0,11959858939532378	6	0,010584834	0,000219981943
2	1	0	1	0	4688,13	1,85331273	1,85389233	0,12142819701693909	6	0,0107602431	0,000225114796
2	1	0	0	0	4689,58	1,86781371	1,86826754	0,12277055244582379	6	0,0109381666	0,000229368234
2	1	0	0	0	4691,03	1,8823148	1,88267279	0,12477636527425238	6	0,0111186644	0,000234913066
2	1	0	1	0	4692,48	1,8968159	1,89730859	0,12651923097049211	6	0,0113017177	0,000240046022
2	1	0	1	0	4693,93	1,91131699	1,91179419	0,12831215731178691	6	0,0114873517	0,000245306437
2	1	0	0	0	4695,38	1,9258182	1,92648983	0,1300467592664063	6	0,0116754882	0,000250533747
2	1	0	0	0	4696,83	1,9403193	1,9408952	0,13172907095092024	6	0,0118661346	0,000255672319
2	1	0	1	0	4698,28	1,95482028	1,95541084	0,1335520026041197	6	0,0120592117	0,00026114902
2	1	0	1	0	4699,73	1,96932161	1,96959543	0,1349549170117823	6	0,0122546917	0,000265806593
2	1	0	0	0	4701,18	1,98382258	1,98445189	0,13672768809677427	6	0,0124525055	0,000271329511
2	1	0	1	0	4702,63	1,99832368	1,99874675	0,13839045329950794	6	0,0126525937	0,000276607461
2	1	0	1	0	4704,08	2,01282501	2,01334262	0,14000661341318232	6	0,0128550446	0,000281881279
2	1	0	0	0	4705,53	2,02732587	2,02804852	0,14160079167534834	6	0,0130597185	0,000287173287
2	1	0	0	0	4706,98	2,0418272	2,04242373	0,14301048223084456	6	0,0132665914	0,000292087992
2	1	0	1	0	4708,43	2,0563283	2,05685902	0,14437292741301146	6	0,0134756332	0,000296954764
2	1	0	1	0	4709,88	2,07082939	2,07139468	0,14586362200013024	6	0,0136866933	0,000302141125
2	1	0	0	0	4711,33	2,08533025	2,08589005	0,14683028035021018	6	0,0138997631	0,000306271832
2	1	0	0	0	4712,78	2,09983039	2,1002934	0,1482373063829121	6	0,0141145987	0,000311341835
2	1	0	1	0	4714,23	2,11433244	2,11491084	0,14960458781570214	6	0,014331568	0,000316400372
2	1	0	0	0	4715,68	2,12883353	2,1295166	0,151050623234672	6	0,0145504195	0,000321664818
2	1	0	0	0	4717,13	2,14333463	2,14386177	0,15220885529803763	6	0,0147711104	0,000326314737
2	1	0	1	0	4718,58	2,15783572	2,15861797	0,15354698353136518	6	0,0149936555	0,000331449264
2	1	0	1	0	4720,03	2,17233706	2,17274237	0,15467925230041146	6	0,0152179226	0,00033607817
2	1	0	0	0	4721,48	2,18683815	2,18748856	0,15585357164187939	6	0,0154439844	0,000340927916
2	1	0	0	0	4722,93	2,20133901	2,20199394	0,1570150310484073	6	0,0156715307	0,000345746143
2	1	0	1	0	4724,38	2,21584034	2,2163291	0,15826501029853997	6	0,0159008987	0,000350767339
2	1	0	0	0	4725,83	2,23034215	2,23099494	0,15955846296715738	6	0,0161319468	0,000355974131
2	1	0	0	0	4727,28	2,24484253	2,24539042	0,16060700954403712	6	0,0163646955	0,000360625447
2	1	0	1	0	4728,73	2,25934362	2,26001596	0,16188043775036886	6	0,0165991243	0,000365852378
2	1	0	1	0	4730,18	2,27384472	2,27421069	0,16302214764679434	6	0,0168352406	0,000370746711
2	1	0	0	0	4731,63	2,28834581	2,28903699	0,16423616088771498	6	0,0170731675	0,000375942647
2	1	0	0	0	4733,08	2,30284691	2,30349231	0,16522124898619949	6	0,0173128136	0,000380585872
2	1	0	1	0	4734,53	2,317348	2,31786776	0,16667596623301462	6	0,0175544675	0,00038633286
2	1	0	1	0	4735,98	2,3318491	2,33245325	0,16805651869314387	6	0,017798014	0,00039198398
2	1	0	0	0	4737,43	2,34635019	2,34686852	0,16960638974948461	6	0,0180436801	0,000398043892
2	1	0	0	0	4738,88	2,36085081	2,36145425	0,17096054229536128	6	0,018291397	0,000403715501
2	1	0	1	0	4740,33	2,37535238	2,37621069	0,17244474485050842	6	0,018541256	0,000409765053
2	1	0	0	0	4741,78	2,38985348	2,39079595	0,17395950644276992	6	0,0187932793	0,000415901683
2	1	0	0	0	4743,23	2,40435481	2,40490055	0,1753856342984359	6	0,0190473795	0,000421785022
2	1	0	1	0	4744,68	2,41885591	2,41950655	0,17683349460518576	6	0,0193036906	0,000427849795
2	1	0	1	0	4746,13	2,433357	2,43391156	0,1785626912799967	6	0,019562155	0,000434605812
2	1	0	0	0	4747,58	2,44785786	2,44838691	0,18031388754025034	6	0,0198229887	0,000441478158
2	1	0	0	0	4749,03	2,46235919	2,46308303	0,18178622905785824	6	0,0200859774	0,000447754574
2	1	0	1	0	4750,48	2,47686028	2,47744823	0,18339548081470048	6	0,0203512758	0,000454352819
2	1	0	0	0	4751,93	2,49136233	2,49192357	0,1848449308245561	6	0,0206187796	0,000460619427
2	1	0	0	0	4753,38	2,50586247	2,50646925	0,18619404938848061	6	0,0208882242	0,000466689671
2	1	0	1	0	4754,83	2,52036357	2,52088451	0,18732956579575875	6	0,0211599413	0,000472236192
2	1	0	1	0	4756,28	2,53486466	2,53553033	0,18904979554160163	6	0,0214338619	0,000479341485
2	1	0	0	0	4757,73	2,54936576	2,54997563	0,19058084387021734	6	0,0217100922	0,000485976518
2	1	0	0	0	4759,18	2,56386685	2,5643208	0,19216776076549069	6	0,0219883937	0,000492779771
2	1	0	1	0	4760,63	2,57836795	2,57906675	0,19361836133369571	6	0,0222689807	0,000499354675
2	1	0	1	0	4762,08	2,59286904	2,59340191	0,19536496892881859	6	0,022551734	0,000506659911
2	1	0	0	0	4763,53	2,60737014	2,60773706	0,19664135924540394	6	0,0228367541	0,000512788945
2	1	0	0	0	4764,98	2,62187028	2,6225028	0,19840979160052541	6	0,0231240224	0,000520330213
2	1	0	1	0	4766,43	2,63637233	2,6369586	0,19962402557333235	6	0,0234135911	0,000526400283
2	1	0	0	0	4767,88	2,65087366	2,65141392	0,20149978653838208	6	0,0237056464	0,000534259365
2	1	0	0	0	4769,33	2,66537476	2,66589928	0,20354540661598301	6	0,0240001716	0,000542631547
2	1	0	1	0	4770,78	2,67987585	2,68056536	0,20523490003930998	6	0,0242971834	0,000550145574
2	1	0	1	0	4772,23	2,69437671	2,69496059	0,20711566833779216	6	0,0245966334	0,000558168569
2	1	0	0	0	4773,68	2,7088778	2,70959616	0,20863380810866739	6	0,0248985793	0,000565313385
2	1	0	0	0	4775,13	2,72337914	2,72423196	0,21038178044060762	6	0,025202889	0,000573128753
2	1	0	1	0	4776,58	2,73788023	2,7383666	0,21142754703760102	6	0,0255095437	0,000578966108
2	1	0	1	0	4778,03	2,75238156	2,75298262	0,21344169358670496	6	0,0258186664	0,000587601273
2	1	0	0	0	4779,48	2,76688242	2,7673676	0,21515695432511418	6	0,0261301808	0,000595418387
2	1	0	1	0	4780,93	2,78138351	2,78186321	0,2170148656393096	6	0,0264443494	0,000603705645
2	1	0	1	0	4782,38	2,79588461	2,79659915	0,2188697445672001	6	0,0267611053	0,000612090924
2	1	0	0	0	4783,83	2,8103857	2,81089401	0,22072795468072125	6	0,0270806812	0,000620442908
2	1	0	0	0	4785,28	2,8248868	2,82546973	0,22277187812142029	6	0,0274030454	0,000629435177
2	1	0	1	0	4786,73	2,83938789	2,83996534	0,2249271466086311	6	0,0277284831	0,000638785306
2	1	0	1	0	4788,18	2,85388899	2,85446072	0,22673973526495171	6	0,0280570146	0,000647219655
2	1	0	0	0	4789,63	2,86839008	2,8690567	0,229359935193012	6	0,0283887368	0,000658046687
2	1	0	0	0	4791,08	2,8828907	2,88362098	0,23171857641537395	6	0,0287238751	0,000668188557
2	1	0	1	0	4792,53	2,89739251	2,8980875	0,23440144591343869	6	0,029062571	0,000679315883
2	1	0	0	0	4793,98	2,91189361	2,91250253	0,23674569209106221	6	0,0294049047	0,000689522421
2	1	0	0	0	4795,43	2,9263947	2,92709875	0,23980218963697507	6	0,0297510456	0,00070192467
2	1	0	1	0	4796,88	2,94089556	2,94146347	0,24285913592514864	6	0,0301014595	0,00071436126
2	1	0	1	0	4798,33	2,95539665	2,95599914	0,24547794562143622	6	0,0304562431	0,000725632592
2	1	0	0	0	4799,79	2,96989799	2,97045445	0,24905433637710851	6	0,0308157634	0,000739804585
2	1	0	0	0	4801,24	2,98439908	2,98502016	0,25271589223605862	6	0,031180378	0,00075436203
2	1	0	1	0	4802,69	2,99890018	2,99929523	0,25655225524678781	6	0,0315502807	0,000769475941
2	1	0	1	0	4804,14	3,01340127	3,01395226	0,26033285827660758	6	0,0319258906	0,000784630829
2	1	0	0	0	4805,59	3,02790236	3,02841663	0,2649034865510967	6	0,0323074572	0,000802238123
2	1	0	1	0	4807,04	3,04240346	3,04312253	0,26918550984313062	6	0,0326954164	0,000819164503
2	1	0	1	0	4808,49	3,05690455	3,05743718	0,27403881152470877	6	0,0330900066	0,000837856438
2	1	0	0	0	4809,94	3,07140565	3,07220387	0,27863116228642416	6	0,0334916413	0,000856011757
2	1	0	0	0	4811,39	3,08590674	3,0866189	0,28411521615150016	6	0,0339007415	0,000876955397
2	1	0	1	0	4812,84	3,10040784	3,10075355	0,28996041401599802	6	0,0343178771	0,000899095787
2	1	0	1	0	4814,29	3,11490917	3,11567998	0,29594034903372358	6	0,0347434618	0,000922055449
2	1	0	0	0	4815,74	3,12940979	3,13015532	0,30244597257115034	6	0,035177961	0,000946702843
2	1	0	1	0	4817,19	3,14391136	3,14461184	0,3091345663344551	6	0,0356220081	0,000972108217
2	1	0	1	0	4818,64	3,15841198	3,159096	0,31635599645475622	6	0,0360759161	0,000999398995
2	1	0	0	0	4820,09	3,17291307	3,17350125	0,32302639788637498	6	0,0365402438	0,00102512469
2	1	0	0	0	4821,54	3,18741417	3,18819714	0,33114645994889178	6	0,0370154381	0,00105576019
2	1	0	1	0	4822,99	3,2019155	3,20281291	0,33940482170631392	6	0,0375023559	0,00108705019
2	1	0	1	0	4824,44	3,2164166	3,21714783	0,34807208770265062	6	0,0380013697	0,00111979933
2	1	0	0	0	4825,89	3,23091769	3,23175406	0,35711755199978778	6	0,0385131836	0,00115411612
2	1	0	0	0	4827,34	3,24541879	3,24596858	0,36679568723775392	6	0,0390387401	0,00119060732
2	1	0	1	0	4828,79	3,25991988	3,26043391	0,37739155216452947	6	0,0395790115	0,00123046024
2	1	0	1	0	4830,24	3,27441978	3,27487826	0,38833919592849498	6	0,0401348658	0,00127176358
2	1	0	0	0	4831,69	3,28892231	3,28952503	0,39995176251977683	6	0,0407073759	0,00131565135
2	1	0	1	0	4833,14	3,3034234	3,30407095	0,41279079594338874	6	0,041297771	0,00136389013
2	1	0	1	0	4834,59	3,3179245	3,31857634	0,42632689109692909	6	0,0419070832	0,00141479832
2	1	0	0	0	4836,04	3,33242559	3,33320236	0,4408240237583705	6	0,0425368883	0,00146935566
2	1	0	0	0	4837,49	3,34692669	3,34772754	0,45619763992726714	6	0,0431879908	0,00152722537
2	1	0	1	0	4838,94	3,36142778	3,36209273	0,47227611299604	6	0,043861717	0,00158783607
2	1	0	1	0	4840,39	3,37592864	3,37654829	0,4889434447201584	6	0,044558879	0,00165094121
2	1	0	0	0	4841,84	3,39042974	3,39105368	0,50569715304300013	6	0,0452807248	0,00171484624
2	1	0	0	0	4843,29	3,40493107	3,40567875	0,52386219337000026	6	0,0460279435	0,00178410637
2	1	0	1	0	4844,74	3,41943192	3,42003465	0,54247043483579917	6	0,046801798	0,00185526768
2	1	0	0	0	4846,19	3,43393302	3,43448997	0,5611447279031072	6	0,0476027131	0,00192724599
2	1	0	0	0	4847,64	3,44843435	3,44893503	0,58026504470035341	6	0,0484311767	0,0020012965
2	1	0	1	0	4849,09	3,46293545	3,46357107	0,5997836495128768	6	0,0492876135	0,00207739323
2	1	0	1	0	4850,54	3,47743654	3,47810674	0,61950431717559514	6	0,0501722731	0,00215470209
2	1	0	0	0	4851,99	3,49193764	3,4926424	0,63985495269298547	6	0,0510861315	0,00223478465
2	1	0	0	0	4853,44	3,50643873	3,50698733	0,6598829613067223	6	0,0520293824	0,00231420109
2	1	0	1	0	4854,89	3,52094007	3,52151299	0,68133665264273715	6	0,0530031882	0,00239933585
2	1	0	1	0	4856,34	3,53544044	3,53629947	0,70298321739324979	6	0,0540077426	0,00248595909
2	1	0	0	0	4857,79	3,54994226	3,55046391	0,7245960240252311	6	0,0550438762	0,00257265195
2	1	0	1	0	4859,24	3,56444335	3,56518984	0,746735915075984	6	0,0561116561	0,0026622552
2	1	0	1	0	4860,69	3,57894444	3,57943463	0,76849864143878221	6	0,0572109893	0,00275079068
2	1	0	0	0	4862,14	3,59344554	3,59411073	0,79036308762927552	6	0,0583418421	0,00284065236
2	1	0	0	0	4863,59	3,60794663	3,60865617	0,8106717175493632	6	0,0595033281	0,00292543555
2	1	0	1	0	4865,04	3,62244749	3,62311149	0,83074829323837914	6	0,060694363	0,0030098937
2	1	0	1	0	4866,49	3,63694859	3,63767743	0,84945236332714381	6	0,0619133599	0,00309003377
2	1	0	0	0	4867,94	3,65144968	3,65203238	0,86748816072940826	6	0,0631593615	0,0031680949
2	1	0	0	0	4869,39	3,66595078	3,66669798	0,88454313607265613	6	0,0644304752	0,00324335252
2	1	0	1	0	4870,84	3,68045211	3,68111348	0,90085619719078118	6	0,0657259896	0,00331615401
2	1	0	0	0	4872,29	3,6949532	3,6958797	0,91647617612034086	6	0,0670445561	0,00338718574
2	1	0	0	0	4873,74	3,7094543	3,71030474	0,93181408165643558	6	0,0683852881	0,0034573141
2	1	0	1	0	4875,19	3,72395539	3,72468042	0,9458618325491735	6	0,0697476864	0,00352303311
2	1	0	1	0	4876,64	3,73845649	3,73890495	0,96042277943342746	6	0,0711307973	0,00359092955
2	1	0	0	0	4878,09	3,75295758	3,75368142	0,97446306205044314	6	0,0725351274	0,00365782389
2	1	0	0	0	4879,54	3,76745892	3,76812649	0,98879072939356224	6	0,0739594623	0,00372588844
2	1	0	1	0	4881,03	3,78236008	3,78303289	1,0030080828194805	6	0,0754440278	0,00379441259
2	1	0	1	0	4882,48	3,79686046	3,79757786	1,0165703288120182	6	0,0769089535	0,00386050506
2	1	0	0	0	4883,93	3,81136227	3,81212401	1,0293829444174936	6	0,0783930644	0,00392413558
2	1	0	1	0	4885,38	3,82586336	3,82650924	1,0418078809355648	6	0,0798958689	0,00398648763
2	1	0	1	0	4886,83	3,84036446	3,84106469	1,0550012753034626	6	0,0814170539	0,00405232795
2	1	0	0	0	4888,28	3,85486555	3,85566092	1,0679300005237238	6	0,0829574913	0,00411757594
2	1	0	0	0	4889,73	3,86936665	3,87039685	1,0809145358701534	6	0,0845162943	0,00418356806
2	1	0	1	0	4891,18	3,8838675	3,88464165	1,0946682908882704	6	0,0860950276	0,0042523942
2	1	0	1	0	4892,63	3,8983686	3,89900684	1,1087040789425365	6	0,087693125	0,00432284502
2	1	0	0	0	4894,08	3,91286969	3,91360259	1,1224281825125222	6	0,0893116072	0,00439273799
2	1	0	0	0	4895,53	3,9273715	3,92827797	1,1364444951671046	6	0,0909503251	0,00446427008
2	1	0	1	0	4896,98	3,94187188	3,94289398	1,1501500383019448	6	0,092609413	0,00453491975
2	1	0	0	0	4898,43	3,95637321	3,95726919	1,1649454958116019	6	0,0942894593	0,00461000297
2	1	0	0	0	4899,88	3,97087431	3,9714942	1,1805124661574702	6	0,0959913954	0,00468839845
2	1	0	1	0	4901,33	3,9853754	3,98598981	1,196226458686093	6	0,0977155119	0,00476814667
2	1	0	1	0	4902,78	3,9998765	4,00056553	1,2115173504377398	6	0,0994618982	0,00484675448
2	1	0	0	0	4904,23	4,01437759	4,01522064	1,2283792343611549	6	0,101231925	0,00493221357
2	1	0	0	0	4905,68	4,02887821	4,02979612	1,245085626311491	6	0,10302566	0,00501744123
2	1	0	1	0	4907,13	4,04337978	4,04406166	1,2623680066317285	6	0,104844518	0,00510509405
2	1	0	1	0	4908,58	4,05787992	4,0585475	1,2812046193515875	6	0,106689624	0,00519982958
2	1	0	0	0	4910,03	4,07238197	4,07313251	1,3021125436450021	6	0,108563483	0,00530367717
2	1	0	0	0	4911,48	4,08688211	4,08767796	1,3243267957841595	6	0,110468149	0,00541342143
2	1	0	1	0	4912,93	4,10138416	4,10208368	1,3484162871415357	6	0,112406358	0,00553131662
2	1	0	0	0	4914,38	4,11588573	4,11670923	1,3750996704523758	6	0,114381239	0,00566088548
2	1	0	0	0	4915,83	4,13038683	4,13132524	1,4050505117823722	6	0,116396867	0,0058047208
2	1	0	1	0	4917,28	4,14488792	4,14572048	1,438754068687559	6	0,118458442	0,00596467219
2	1	0	1	0	4918,73	4,15938807	4,16012383	1,4760202479130342	6	0,120571859	0,0061404272
2	1	0	0	0	4920,18	4,17389011	4,17495155	1,518985991055768	6	0,122744232	0,00634169299
2	1	0	1	0	4921,63	4,18839121	4,189188	1,5675945716392122	6	0,124982752	0,00656694826
2	0	0	1	1	4923,02	4,19769192	4,19853973	1,5542060006409866	6	0,127191156	0,00652539544
2	0	0	0	1	4924,48	4,18319035	4,18402386	1,320562266123785	6	0,129263476	0,00552526396
2	0	0	0	1	4925,93	4,16868925	4,16935825	1,1359154929717334	6	0,131038889	0,00473603886
2	0	0	1	1	4927,38	4,15418816	4,15503311	0,97855859529226714	6	0,132567778	0,00406594342
2	0	0	1	1	4928,83	4,13968706	4,14044762	0,8414257317781449	6	0,133883581	0,00348387915
2	0	0	0	1	4930,28	4,12518597	4,12592173	0,72240532981231629	6	0,135014683	0,00298058777
2	0	0	0	1	4931,73	4,11068535	4,11156559	0,61900434621839117	6	0,135984495	0,00254507689
2	0	0	1	1	4933,18	4,09618425	4,0968504	0,52837707707658054	6	0,136813894	0,00216468191
2	0	0	0	1	4934,67	4,08128214	4,08198404	0,44707583682987283	6	0,137538016	0,00182495639
2	0	0	0	1	4936,12	4,066782	4,06746864	0,3786009335114304	6	0,138134539	0,00153994747
2	0	0	1	1	4937,57	4,05228043	4,05312395	0,31961720522182579	6	0,138639033	0,00129544816
2	0	0	1	1	4939,02	4,03777933	4,03858852	0,26823663245886518	6	0,139063671	0,00108329742
2	0	0	0	1	4940,47	4,02327824	4,0241127	0,22381865046918394	6	0,139419079	0,000900671468
2	0	0	0	1	4941,92	4,00877714	4,00919628	0,18523668028259043	6	0,139714301	0,000742650183
2	0	0	1	1	4943,37	3,99427629	3,99508166	0,15142558072693645	6	0,139957145	0,000604957575
2	0	0	1	1	4944,82	3,97977614	3,98058748	0,12210233806293269	6	0,140154362	0,000486039033
2	0	0	0	1	4946,27	3,9652741	3,96589065	0,096630627677465331	6	0,140311703	0,000383226492
2	0	0	1	1	4947,72	3,950773	3,9514854	0,073804626396546611	6	0,140433997	0,000291637902
2	0	0	1	1	4949,17	3,93627167	3,9367795	0,053675601937963168	6	0,140525177	0,000211309016
2	0	0	0	1	4950,66	3,92137051	3,92216349	0,034863434324506784	6	0,14059025	0,000136740084
2	0	0	0	1	4952,11	3,90686941	3,90750766	0,01883132436584367	6	0,140628576	7,3583542E-005
2	0	0	1	1	4953,60	3,89196825	3,89265108	0,003844588524467929	6	0,140645057	1,49656416E-005
2	0	0	0	1	4955,05	3,87746644	3,87809467	-0,0092086110998004301	6	0,140641123	3,57118661E-005
2	0	0	0	1	4956,54	3,86256599	3,86317921	-0,020550394508366819	6	0,140618414	7,9389858E-005
2	0	0	1	1	4957,99	3,8480649	3,84859324	-0,031366333346037946	6	0,140579656	0,000120716257
2	0	0	1	1	4959,44	3,8335638	3,83408809	-0,041493754872741818	6	0,140525848	0,000159090705
2	0	0	0	1	4960,89	3,81906247	3,81958246	-0,05070759350201129	6	0,140458286	0,00019368183
2	0	0	0	1	4962,34	3,80456138	3,80526733	-0,059269914500570509	6	0,140377864	0,000225537864
2	0	0	1	1	4963,79	3,79006028	3,79077196	-0,067402571614366208	6	0,140285552	0,000255507766
2	0	0	1	1	4965,24	3,77555919	3,77595568	-0,07486604386940599	6	0,140182137	0,00028269086
2	0	0	0	1	4966,69	3,76105809	3,76162028	-0,081270878824095002	6	0,140068367	0,000305710186
2	0	0	0	1	4968,14	3,74655724	3,74713492	-0,087861216898697357	6	0,139945	0,000329227827
2	0	0	1	1	4969,59	3,73205614	3,73265982	-0,093959993779814618	6	0,139812469	0,000350720686
2	0	0	0	1	4971,08	3,71715498	3,71784329	-0,099541891715489766	6	0,13966763	0,000370081165
2	0	0	0	1	4972,53	3,70265388	3,70327783	-0,10508265315244624	6	0,139518365	0,000389150257
2	0	0	1	1	4973,98	3,68815279	3,68890262	-0,11047227277110051	6	0,139361322	0,000407521467
2	0	0	1	1	4975,43	3,6736517	3,67429686	-0,1153435535185663	6	0,139196873	0,000423806458
2	0	0	0	1	4976,88	3,6591506	3,65989161	-0,12030820439880098	6	0,139025167	0,000440314994
2	0	0	0	1	4978,33	3,64464951	3,64529586	-0,12469576722166221	6	0,13884677	0,000454552966
2	0	0	1	1	4979,78	3,63014817	3,63099074	-0,1293013113706063	6	0,138661742	0,000469491875
2	0	0	1	1	4981,23	3,61564755	3,61641645	-0,13380733390898869	6	0,138470441	0,000483903044
2	0	0	0	1	4982,68	3,60114598	3,60167909	-0,13794495200272653	6	0,138272747	0,000496833469
2	0	0	1	1	4984,13	3,58664489	3,58714366	-0,14234989660326458	6	0,138069034	0,000510629558
2	0	0	1	1	4985,58	3,57214379	3,57274842	-0,14626817607010435	6	0,137859374	0,000522579416
2	0	0	0	1	4987,03	3,5576427	3,55833316	-0,15021632305191222	6	0,137643903	0,000534519728
2	0	0	0	1	4988,48	3,54314137	3,54400778	-0,15338534458229946	6	0,137422979	0,000543598842
2	0	0	1	1	4989,93	3,52864027	3,52946258	-0,15706330921966582	6	0,137196884	0,000554349099
2	0	0	1	1	4991,38	3,51413918	3,51501727	-0,1604677476376919	6	0,136965841	0,000564046903
2	0	0	0	1	4992,83	3,49963808	3,50023079	-0,16383045488813242	6	0,136729881	0,000573444413
2	0	0	0	1	4994,28	3,48513651	3,48588562	-0,1667815637558232	6	0,136489481	0,000581381435
2	0	0	1	1	4995,73	3,47063613	3,47146034	-0,1696968805820992	6	0,136244789	0,000589095987
2	0	0	0	1	4997,18	3,45613503	3,45693517	-0,17231095380770656	6	0,135995999	0,000595667807
2	0	0	0	1	4998,63	3,44163394	3,44231939	-0,17499540847105299	6	0,135743573	0,000602390093
2	0	0	1	1	5000,08	3,42713284	3,42782378	-0,17709197604563133	6	0,135487512	0,00060704007
2	0	0	1	1	5001,53	3,41263175	3,41319776	-0,17952867003623373	6	0,135228038	0,000612766831
2	0	0	0	1	5002,98	3,39813066	3,39889264	-0,18196868667534272	6	0,134965137	0,00061849202
2	0	0	0	1	5004,43	3,38362932	3,38440752	-0,18442149173157962	6	0,134699062	0,000624157488
2	0	0	1	1	5005,88	3,36912823	3,36986184	-0,18647959537338554	6	0,134429783	0,000628410489
2	0	0	1	1	5007,33	3,35462713	3,3553164	-0,18848812021315142	6	0,134157538	0,000632437295
2	0	0	0	1	5008,78	3,34012604	3,34081078	-0,19051833190800038	6	0,133882299	0,000636485696
2	0	0	0	1	5010,23	3,32562542	3,32616591	-0,19203684092507856	6	0,133604184	0,000638746424
2	0	0	1	1	5011,68	3,31112361	3,31190038	-0,19418286043219267	6	0,133323193	0,000643114268
2	0	0	0	1	5013,13	3,29662251	3,29730415	-0,19602946556794131	6	0,13303943	0,000646368775
2	0	0	0	1	5014,58	3,28212142	3,28255844	-0,19794911518693059	6	0,132753074	0,000649779511
2	0	0	1	1	5016,03	3,26762033	3,26834345	-0,19971371938784954	6	0,132463947	0,000652733026
2	0	0	1	1	5017,48	3,25311923	3,25357747	-0,2015994581549121	6	0,132172331	0,00065591943
2	0	0	0	1	5018,93	3,23861837	3,23934245	-0,2033231524595367	6	0,131878018	0,000658633304
2	0	0	0	1	5020,38	3,22411752	3,22480607	-0,2052504363877401	6	0,131581128	0,000661892875
2	0	0	1	1	5021,83	3,20961618	3,21021152	-0,20652544599336864	6	0,131281734	0,00066299038
2	0	0	0	1	5023,28	3,19511509	3,19570589	-0,20847054664045526	6	0,130979642	0,000666210544
2	0	0	0	1	5024,73	3,18061399	3,18123007	-0,21055298003678534	6	0,130674988	0,000669817498
2	0	0	1	1	5026,18	3,1661129	3,166785	-0,21241738755876803	6	0,130367547	0,000672680209
2	0	0	1	1	5027,63	3,1516118	3,15212893	-0,21451234476019933	6	0,130057514	0,000676170574
2	0	0	0	1	5029,08	3,13711047	3,1375432	-0,21623850900990282	6	0,129744783	0,000678457669
2	0	0	0	1	5030,53	3,12260962	3,12315822	-0,2183768024357655	6	0,129429311	0,000682025333
2	0	0	1	1	5031,98	3,10810852	3,10861278	-0,21961301239207386	6	0,129111171	0,000682691811
2	0	0	1	1	5033,43	3,0936079	3,09409881	-0,22185281664720202	6	0,128790289	0,000686434563
2	0	0	0	1	5034,88	3,07910609	3,07963181	-0,2235870305448775	6	0,128466651	0,00068856572
2	0	0	1	1	5036,33	3,064605	3,06535697	-0,22571751739208957	6	0,128140137	0,000691904745
2	0	0	1	1	5037,78	3,05010414	3,05084133	-0,22771573695354208	6	0,127810881	0,000694724557
2	0	0	0	1	5039,23	3,03560305	3,03621531	-0,22956898397145142	6	0,127478704	0,000697020849
2	0	0	0	1	5040,68	3,02110195	3,02184033	-0,23163622726375866	6	0,127143711	0,00069996767
2	0	0	1	1	5042,13	3,00660086	3,00695395	-0,23346059404624019	6	0,126805812	0,000702005229
2	0	0	1	1	5043,58	2,99209976	2,99279928	-0,23505220244017754	6	0,126465201	0,000703464088
2	0	0	0	1	5045,03	2,97759867	2,97833395	-0,23709960739749203	6	0,126121834	0,000706161838
2	0	0	0	1	5046,48	2,96309757	2,96356773	-0,23909701546654115	6	0,12577571	0,000708580192
2	0	0	1	1	5047,93	2,94859648	2,94907236	-0,24095886604239603	6	0,125426859	0,00071060512
2	0	0	0	1	5049,38	2,93409538	2,93477726	-0,24283738535208054	6	0,1250754	0,000712673645
2	0	0	0	1	5050,83	2,91959429	2,91997099	-0,24459242199858	6	0,124721535	0,000714202761
2	0	0	1	1	5052,28	2,90509319	2,90579653	-0,24606613620805274	6	0,124365382	0,000715018134
2	0	0	1	1	5053,73	2,89059186	2,89123082	-0,24730494284691962	6	0,124007031	0,000715015689
2	0	0	0	1	5055,19	2,87609076	2,87660503	-0,24887233382711837	6	0,123646557	0,00071590743
2	0	0	0	1	5056,64	2,86158967	2,86231017	-0,25009771622717469	6	0,123284072	0,000715857255
2	0	0	1	1	5058,09	2,84708858	2,84761405	-0,25129214961392243	6	0,12291985	0,000715583039
2	0	0	1	1	5059,54	2,83258724	2,83319855	-0,25224569765850947	6	0,122554027	0,000714662136
2	0	0	0	1	5060,99	2,81808615	2,81853294	-0,25317459794071741	6	0,122187026	0,000713580928
2	0	0	1	1	5062,44	2,80358529	2,80408764	-0,25357424118556083	6	0,12181893	0,000711044413
2	0	0	1	1	5063,89	2,7890842	2,78965235	-0,25425490612785117	6	0,121450111	0,000709282816
2	0	0	0	1	5065,34	2,7745831	2,77521682	-0,25393924202459546	6	0,121080741	0,000704736449
2	0	0	0	1	5066,79	2,76008201	2,76054096	-0,2541402885690337	6	0,120711245	0,000701564655
2	0	0	1	1	5068,24	2,74558091	2,74610567	-0,25397000725691664	6	0,120341949	0,000697428477
2	0	0	1	1	5069,69	2,73107958	2,7317605	-0,25378120985503117	6	0,119972937	0,000693269481
2	0	0	0	1	5071,14	2,71657872	2,7170341	-0,25355597492307424	6	0,119604461	0,000688920205
2	0	0	0	1	5072,59	2,70207763	2,70274949	-0,25301267998293043	6	0,1192367	0,000683829887
2	0	0	1	1	5074,04	2,68757653	2,68806362	-0,25258901715278592	6	0,118869744	0,000678975368
2	0	0	1	1	5075,49	2,67307544	2,67352939	-0,25145757305150685	6	0,118503615	0,000672279217
2	0	0	0	1	5076,94	2,65857434	2,65906262	-0,25104272016324058	6	0,118138492	0,000667538319
2	0	0	1	1	5078,39	2,64407301	2,64464736	-0,25034439191222214	6	0,1177743	0,00066207262
2	0	0	1	1	5079,84	2,62957191	2,6302321	-0,24974547489546205	6	0,11741104	0,000656888587
2	0	0	0	1	5081,29	2,61507082	2,61543608	-0,24901441880501872	6	0,11704883	0,000651281269
2	0	0	0	1	5082,74	2,60056949	2,60110068	-0,24829274384925744	6	0,116687648	0,000645834429
2	0	0	1	1	5084,19	2,58606839	2,58642507	-0,24788490558664077	6	0,116327345	0,000641135732
2	0	0	1	1	5085,64	2,5715673	2,57218003	-0,24716296217714717	6	0,115967982	0,000635747623
2	0	0	0	1	5087,09	2,55706644	2,55764461	-0,24619068624451802	6	0,115609467	0,000629668299
2	0	0	1	1	5088,54	2,54256463	2,54318905	-0,24582123223510256	6	0,115251794	0,000625169894
2	0	0	1	1	5089,99	2,52806425	2,52864361	-0,24525480375935603	6	0,114894792	0,000620161998
2	0	0	0	1	5091,44	2,51356316	2,51400757	-0,24491016458099056	6	0,114538491	0,000615706027
2	0	0	0	1	5092,89	2,49906206	2,49982285	-0,24399487751846544	6	0,114183001	0,000609943992
2	0	0	1	1	5094,34	2,48456073	2,48501658	-0,24408155695224803	6	0,113828339	0,000606546702
2	0	0	1	1	5095,79	2,47005987	2,47067142	-0,24373605862880762	6	0,113474138	0,000602191722
2	0	0	0	1	5097,24	2,45555878	2,45610595	-0,243088974695032	6	0,113120444	0,000597052276
2	0	0	0	1	5098,69	2,44105768	2,44153023	-0,24295156441318522	6	0,112767398	0,000593173609
2	0	0	1	1	5100,14	2,42655659	2,42709494	-0,24241804556610714	6	0,112414852	0,000588371593
2	0	0	0	1	5101,59	2,41205621	2,41239929	-0,24207504202542128	6	0,112062946	0,000583981688
2	0	0	0	1	5103,04	2,39755416	2,39815402	-0,24141664880638352	6	0,111711644	0,000578954292
2	0	0	1	1	5104,49	2,38305306	2,3836987	-0,24125657354792019	6	0,111361064	0,000575082959
2	0	0	1	1	5105,94	2,36855197	2,36899281	-0,24067447870038493	6	0,111011177	0,000570156088
2	0	0	0	1	5107,39	2,35405064	2,35462761	-0,24032400789049757	6	0,110661991	0,000565873517
2	0	0	0	1	5108,84	2,33954954	2,34017229	-0,23914788911739971	6	0,110313691	0,000559647277
2	0	0	1	1	5110,29	2,32504845	2,32568693	-0,23869516956620006	6	0,109966144	0,000555130246
2	0	0	1	1	5111,74	2,31054759	2,31106091	-0,2381656950650113	6	0,109619558	0,000550415425
2	0	0	0	1	5113,19	2,2960465	2,29635477	-0,23752910899929702	6	0,109273776	0,000545451127
2	0	0	1	1	5114,64	2,2815454	2,28208017	-0,23691140968973469	6	0,108929023	0,000540650857
2	0	0	1	1	5116,09	2,26704431	2,26750445	-0,2361790612339969	6	0,108585268	0,000535537081
2	0	0	0	1	5117,54	2,25254321	2,25308895	-0,23561907419934781	6	0,108242534	0,000530870748
2	0	0	0	1	5118,99	2,23804188	2,23858356	-0,23455317729773651	6	0,107901014	0,000525066862
2	0	0	1	1	5120,44	2,22354102	2,22420859	-0,2338276497709255	6	0,10756062	0,000520081492
2	0	0	1	1	5121,89	2,20903993	2,2098031	-0,23299764329567619	6	0,107221514	0,000514878891
2	0	0	0	1	5123,34	2,19453883	2,19495702	-0,2322563772710664	6	0,1068836	0,000509792764
2	0	0	0	1	5124,79	2,18003774	2,18074179	-0,23121609321484992	6	0,10654714	0,000504222582
2	0	0	1	1	5126,24	2,16553664	2,16611648	-0,23018473130650842	6	0,106212027	0,00049860694
2	0	0	0	1	5127,69	2,15103483	2,1517601	-0,22931820712496086	6	0,105878301	0,00049343775
2	0	0	0	1	5129,14	2,13653421	2,13697505	-0,22825980597796659	6	0,105546102	0,000487785524
2	0	0	1	1	5130,59	2,12203312	2,12262988	-0,22695932219115411	6	0,105215266	0,000481750641
2	0	0	1	1	5132,04	2,10753179	2,10797429	-0,22620752438281987	6	0,104885854	0,000476839632
2	0	0	0	1	5133,49	2,09303069	2,09353876	-0,22517794409456352	6	0,1045577	0,000471418753
2	0	0	0	1	5134,94	2,0785296	2,07917356	-0,22444358095526717	6	0,104231082	0,000466657162
2	0	0	1	1	5136,39	2,06402874	2,06458783	-0,22352386584195072	6	0,103905469	0,000461484655
2	0	0	1	1	5137,84	2,04952765	2,05017233	-0,22298553011690547	6	0,103580981	0,000457158778
2	0	0	0	1	5139,29	2,03502655	2,03559709	-0,22227997775189555	6	0,10325747	0,000452472479
2	0	0	0	1	5140,74	2,02052546	2,02116203	-0,22159306881774864	6	0,102934845	0,0004478755
2	0	0	1	1	5142,19	2,00602412	2,00635529	-0,22102228288228342	6	0,102613181	0,000443449215
2	0	0	0	1	5143,64	1,99152315	1,99208045	-0,22067635250277818	6	0,102292128	0,000439605035
2	0	0	0	1	5145,09	1,97702217	1,97742462	-0,22035747758733744	6	0,101971932	0,000435740309
2	0	0	1	1	5146,54	1,96252108	1,9627887	-0,21977834954547414	6	0,101652265	0,000431378459
2	0	0	1	1	5147,99	1,94801986	1,94846368	-0,21950302016921341	6	0,101333261	0,000427693652
2	0	0	0	1	5149,44	1,93351877	1,93394828	-0,21894648127878736	6	0,1010148	0,000423431164
2	0	0	0	1	5150,89	1,91901767	1,91957295	-0,21860423265024976	6	0,100697041	0,000419626769
2	0	0	1	1	5152,34	1,90451658	1,90515769	-0,21780690993182362	6	0,100379869	0,000414956507
2	0	0	0	1	5153,79	1,89001536	1,89067233	-0,21747845776068675	6	0,100063361	0,000411180488
2	0	0	0	1	5155,24	1,87551427	1,87592614	-0,21680332363272736	6	0,0997477025	0,000406707026
2	0	0	1	1	5156,69	1,86101317	1,86140084	-0,21645516180433347	6	0,0994327515	0,00040290982
2	0	0	1	1	5158,14	1,8465122	1,84698546	-0,21582510454269776	6	0,0991187319	0,000398625823
2	0	0	0	1	5159,59	1,83201087	1,8323797	-0,21508918772451501	6	0,0988055766	0,000394125062
2	0	0	0	1	5161,04	1,81750989	1,81792426	-0,21433207408214627	6	0,098493509	0,000389639492
2	0	0	1	1	5162,49	1,80300879	1,80357933	-0,2135799550451345	6	0,0981824622	0,000385208405
2	0	0	1	1	5163,94	1,7885077	1,78884315	-0,2126491713182377	6	0,0978726074	0,000380396028
2	0	0	0	1	5165,39	1,77400649	1,77448797	-0,21194002451375216	6	0,0975639746	0,000376085023
2	0	0	1	1	5166,84	1,75950539	1,7600826	-0,21127478129230502	6	0,0972564593	0,000371861068
2	0	0	1	1	5168,29	1,7450043	1,74552715	-0,21057847693252096	6	0,0969501287	0,000367570436
2	0	0	0	1	5169,74	1,73050332	1,73088133	-0,20980048862596278	6	0,0966448411	0,000363139756
2	0	0	0	1	5171,19	1,71600223	1,71644592	-0,20913796608025859	6	0,0963406339	0,000358974008
2	0	0	1	1	5172,64	1,70150101	1,70202065	-0,20851904650529286	6	0,0960373208	0,000354903721
2	0	0	1	1	5174,09	1,68699992	1,68746519	-0,20756554751036093	6	0,0957349315	0,000350259623
2	0	0	0	1	5175,54	1,67249882	1,67298961	-0,20732730984066982	6	0,0954332501	0,000346856425
2	0	0	0	1	5176,99	1,65799761	1,65829372	-0,20692167687229856	6	0,09513212	0,000343136926
2	0	0	1	1	5178,44	1,64349651	1,64403868	-0,2067715918334825	6	0,0948314667	0,000339940481
2	0	0	1	1	5179,89	1,62899613	1,62932408	-0,20649065929864995	6	0,0945310816	0,000336440193
2	0	0	0	1	5181,34	1,61449432	1,6149075	-0,20645901056316963	6	0,0942309201	0,000333412201
2	0	0	1	1	5182,79	1,59999335	1,60037196	-0,20642889143588582	6	0,0939307883	0,000330363022
2	0	0	1	1	5184,24	1,58549201	1,58580625	-0,20661206031218259	6	0,0936305374	0,000327646703
2	0	0	0	1	5185,70	1,57099104	1,57162154	-0,20658063562586902	6	0,0933301374	0,000324666587
2	0	0	0	1	5187,15	1,55649006	1,55698586	-0,20712637249380349	6	0,0930292904	0,000322492822
2	0	0	1	1	5188,60	1,54198885	1,54248035	-0,20763800681258272	6	0,0927279145	0,000320277555
2	0	0	1	1	5190,05	1,52748775	1,52824557	-0,20815621626873805	6	0,0924258307	0,000318113802
2	0	0	0	1	5191,50	1,51298666	1,51339924	-0,208946589846164	6	0,0921230018	0,000316219608
2	0	0	0	1	5192,95	1,49848521	1,49894369	-0,20947362874741149	6	0,0918192491	0,000313989178
2	0	0	1	1	5194,40	1,48398447	1,4844383	-0,21022694224181392	6	0,0915145129	0,000312068936
2	0	0	0	1	5195,85	1,46948349	1,46972239	-0,21047728912284125	6	0,0912087932	0,000309343188
2	0	0	0	1	5197,30	1,45498216	1,45546746	-0,21149187892054576	6	0,0909019783	0,000307819544
2	0	0	1	1	5198,75	1,44048119	1,44104207	-0,2122230204598361	6	0,0905940011	0,000305822294
2	0	0	1	1	5200,20	1,42597997	1,42657661	-0,21312594902701722	6	0,0902848095	0,000304040499
2	0	0	0	1	5201,65	1,41147876	1,41204119	-0,21393277845345437	6	0,0899744779	0,000302081899
2	0	0	0	1	5203,10	1,39697778	1,39728498	-0,21481351267236026	6	0,0896629393	0,000300155691
2	0	0	1	1	5204,55	1,38247669	1,38306022	-0,21557078541566944	6	0,0893501267	0,000298147381
2	0	0	1	1	5206,00	1,36797559	1,3684144	-0,21651531158325587	6	0,0890361592	0,000296282669
2	0	0	0	1	5207,45	1,3534745	1,35399902	-0,21708261516566064	6	0,0887209103	0,000293929654
2	0	0	1	1	5208,90	1,3389734	1,33940339	-0,2181292177798841	6	0,0884043649	0,000292163022
2	0	0	1	1	5210,35	1,32447219	1,32484782	-0,21906379718954394	6	0,0880865157	0,000290226191
2	0	0	0	1	5211,80	1,30997109	1,31043243	-0,22021243356478682	6	0,0877672955	0,000288573501
2	0	0	0	1	5213,25	1,29546988	1,29572642	-0,22114924046521443	6	0,0874467045	0,000286548922
2	0	0	1	1	5214,70	1,2809689	1,28126109	-0,22228673077188413	6	0,0871246979	0,000284807349
2	0	0	1	1	5216,15	1,26646781	1,26702631	-0,22320167797928054	6	0,0868013799	0,000282802386
2	0	0	0	1	5217,60	1,25196671	1,25259101	-0,22383567613239069	6	0,0864765793	0,000280374545
2	0	0	0	1	5219,05	1,23746562	1,23796511	-0,22505453593718627	6	0,0861503705	0,000278609659
2	0	0	1	1	5220,50	1,22296464	1,22343957	-0,22599418220731126	6	0,0858225971	0,000276490231
2	0	0	0	1	5221,95	1,20846343	1,20891416	-0,2271285713650295	6	0,085493274	0,000274578953
2	0	0	0	1	5223,40	1,19396222	1,1945188	-0,22825335431844086	6	0,0851624086	0,00027265292
2	0	0	1	1	5224,85	1,17946112	1,18003345	-0,22950038849376141	6	0,0848298594	0,000270818127
2	0	0	1	1	5226,30	1,16495991	1,16540766	-0,23053956908794771	6	0,0844956711	0,000268672593
2	0	0	0	1	5227,75	1,15045893	1,15115273	-0,23196331791890224	6	0,0841596201	0,0002670252
2	0	0	0	1	5229,20	1,13595784	1,13639653	-0,23302943406937037	6	0,0838217214	0,000264813832
2	0	0	1	1	5230,65	1,12145674	1,12189102	-0,23469308903440832	6	0,0834815875	0,000263300055
2	0	0	1	1	5232,10	1,10695565	1,10737562	-0,23648753932987664	6	0,0831392184	0,000261880545
2	0	0	0	1	5233,55	1,09245455	1,09306061	-0,23856532014906496	6	0,0827939585	0,000260766363
2	0	0	1	1	5235,00	1,07795334	1,07852495	-0,24122686024444829	6	0,0824454725	0,000260169181
2	0	0	1	1	5236,45	1,06345224	1,06389916	-0,24420912012768349	6	0,0820930377	0,000259813882
2	0	0	0	1	5237,90	1,04895103	1,04926348	-0,24781807318019488	6	0,081735909	0,000260026456
2	0	0	0	1	5239,35	1,03445005	1,03500855	-0,25120878770637046	6	0,0813734978	0,000260003231
2	0	0	1	1	5240,80	1,01994896	1,02045286	-0,25583482712196835	6	0,0810049921	0,000261067384
2	0	0	1	1	5242,25	1,00544786	1,0059675	-0,26068074651993901	6	0,080629833	0,000262236368
2	0	0	0	1	5243,70	0,990946829	0,99137181	-0,2659452147781849	6	0,0802473128	0,000263650581
2	0	0	0	1	5245,15	0,976445794	0,97673589	-0,27176239473434816	6	0,0798569843	0,000265440089
2	0	0	1	1	5246,60	0,96194464	0,96216023	-0,27762156367922765	6	0,0794580653	0,00026711644
2	0	0	0	1	5248,05	0,947443485	0,947754979	-0,28387504008909037	6	0,0790502727	0,000269043987
2	0	0	0	1	5249,50	0,93294239	0,933409929	-0,29035061310666266	6	0,0786332786	0,00027101615
2	0	0	1	1	5250,95	0,918441355	0,918974578	-0,29669477953575686	6	0,0782067105	0,000272654957
2	0	0	1	1	5252,40	0,903940201	0,904398918	-0,30338966132452102	6	0,0777706504	0,000274385267
2	0	0	0	1	5253,85	0,889438987	0,889883459	-0,3100030030279113	6	0,0773248896	0,000275866536
2	0	0	0	1	5255,30	0,874937952	0,875648558	-0,31669753269913325	6	0,076869674	0,000277315732
2	0	0	1	1	5256,75	0,860436857	0,860852361	-0,32305633462965536	6	0,0764050335	0,000278103806
2	0	0	1	1	5258,20	0,845935702	0,846316814	-0,3291886777151376	6	0,0759314522	0,000278597901
2	0	0	0	1	5259,65	0,831434548	0,832091868	-0,33502579441604576	6	0,07544934	0,000278772233
2	0	0	1	1	5261,10	0,816933513	0,817285717	-0,33983883704058829	6	0,0749591142	0,000277745421
2	0	0	1	1	5262,55	0,802432418	0,802970648	-0,34519056230783552	6	0,0744615272	0,000277177896
2	0	0	0	1	5264,00	0,787931263	0,788284719	-0,34988034547617011	6	0,0739567429	0,000275805331
2	0	0	0	1	5265,45	0,773430228	0,773939729	-0,35424031767373344	6	0,0734456107	0,000274160644
2	0	0	1	1	5266,90	0,758929074	0,759394109	-0,3579707137929897	6	0,0729283541	0,000271840865
2	0	0	1	1	5268,35	0,744427979	0,744808435	-0,36168577467712205	6	0,0724056661	0,000269386626
2	0	0	0	1	5269,80	0,729926884	0,730453312	-0,36524471508649568	6	0,0718777552	0,000266794203
2	0	0	0	1	5271,25	0,715425789	0,715867519	-0,36863513640128256	6	0,0713450387	0,000263893919
2	0	0	1	1	5272,70	0,700924635	0,701131523	-0,37158462125808064	6	0,0708075166	0,00026052969
2	0	0	0	1	5274,15	0,68642354	0,686836541	-0,37476518393183686	6	0,0702652931	0,000257402426
2	0	0	0	1	5275,60	0,671922445	0,672381163	-0,37804014049470515	6	0,0697184801	0,000254187064
2	0	0	1	1	5277,05	0,65742135	0,65785563	-0,38141876847172851	6	0,0691668913	0,000250918471
2	0	0	1	1	5278,50	0,642920196	0,643249869	-0,38489121858340922	6	0,0686105713	0,000247581222
2	0	0	0	1	5279,95	0,628419101	0,628814578	-0,38860472392601331	6	0,0680490881	0,00024436033
2	0	0	0	1	5281,40	0,613918006	0,614238799	-0,39241000311449171	6	0,0674823746	0,000241033442
2	0	0	1	1	5282,85	0,599416852	0,599994004	-0,39572566095739603	6	0,0669101849	0,000237433022
2	0	0	1	1	5284,30	0,584915757	0,585358202	-0,40017621467510797	6	0,0663323849	0,000234246429
2	0	0	0	1	5285,75	0,570414662	0,570752501	-0,40426529555891834	6	0,0657485276	0,00023073543
2	0	0	1	1	5287,20	0,555913568	0,556297123	-0,40901498263701888	6	0,0651581213	0,000227533863
2	0	0	1	1	5288,65	0,541412473	0,541731417	-0,41386838676407936	6	0,064561069	0,000224205505
2	0	0	0	1	5290,10	0,526911318	0,527155817	-0,41907117841765286	6	0,0639565364	0,000220915812
2	0	0	0	1	5291,55	0,512410223	0,512780607	-0,4246632158756256	6	0,0633442253	0,000217759065
2	0	0	1	1	5293,00	0,497909099	0,498365313	-0,4304774779205536	6	0,0627235696	0,000214535045
2	0	0	1	1	5294,45	0,483408034	0,483649343	-0,43630954731876762	6	0,0620943792	0,00021102083
2	0	0	0	1	5295,90	0,468906939	0,469113767	-0,44284607811520614	6	0,0614560284	0,000207745194
2	0	0	1	1	5297,35	0,454405069	0,454596817	-0,44966935538114285	6	0,0608080998	0,000204418262
2	0	0	1	1	5298,80	0,43990472	0,440223068	-0,45651890461643507	6	0,0601503998	0,000200970157
2	0	0	0	1	5300,25	0,425403595	0,425807804	-0,46412299604465626	6	0,0594819188	0,000197627189
2	0	0	0	1	5301,70	0,4109025	0,411292255	-0,47256778351341568	6	0,0588019826	0,000194363471
2	0	0	1	1	5303,15	0,396401376	0,396786809	-0,48150584598382285	6	0,0581095144	0,000191055165
2	0	0	1	1	5304,60	0,381900281	0,382371545	-0,4912107170869913	6	0,0574035607	0,000187825004
2	0	0	0	1	5306,05	0,367399186	0,367645472	-0,50222258719926317	6	0,0566826537	0,000184639866
2	0	0	0	1	5307,50	0,352898061	0,353079826	-0,51424357962484282	6	0,0559452437	0,000181569034
2	0	0	1	1	5308,95	0,338396937	0,339105636	-0,52764617713788998	6	0,0551894717	0,000178927789
2	0	0	1	1	5310,40	0,323896319	0,32419914	-0,54294299847891891	6	0,0544128641	0,000176021655
2	0	0	0	1	5311,85	0,309394717	0,309643567	-0,5602571507915863	6	0,0536128581	0,000173480017
2	0	0	1	1	5313,30	0,294893622	0,295128018	-0,5792761923124416	6	0,0527861714	0,000170960629
2	0	0	1	1	5314,75	0,280392498	0,280863106	-0,601493002070736	6	0,0519298762	0,0001689372
2	0	0	1	1	5315,64	0,271491885	0,271841109	-0,61741042633851379	6	0,051392559	0,000167837541