File: Experimentelles/Rohdaten/Batteriemessungen/AlteZelle/150511_LLTO_LTO_Tests/ECLab-Export/LLTO_LP30_LTO_05_GCPL_C01_loop7.mpt
EC-Lab ASCII FILE
Nb header lines : 3
mode	ox/red	error	control changes	Ns changes	counter inc.	Ns	time/s	control/V/mA	Ewe/V	dq/mA.h	<I>/mA	P/W	(Q-Qo)/mA.h	x	Capacity/mA.h
1	0	0	1	1	0	1	282313,29	-0,0100000007	2,5851562	0	0	0	0	0	0
1	0	0	1	0	0	1	282453,29	-0,0100000007	2,2661376	-2,7757151902187616E-005	-0,0099923822823863373	2,26441134E-005	-0,00038846115543516512	1,4494008000864323E-005	0,00038846115543516512
1	0	0	1	0	0	1	282593,29	-0,0100000007	2,11013222	-2,7756317816829926E-005	-0,0099920820174391437	2,10846138E-005	-0,00077705861363921254	2,8993101641296672E-005	0,00077705861363921254
1	0	0	1	0	0	1	282733,30	-0,0100000007	1,99204934	-2,7756393062364723E-005	-0,0099921091053100954	1,99047736E-005	-0,0011656528665871885	4,3492075689315475E-005	0,0011656528665871885
1	0	0	1	0	0	1	282873,30	-0,0100000007	1,89266026	-2,7756224099650154E-005	-0,0099920482799040371	1,89115526E-005	-0,0015542365929697443	5,7990656977025344E-005	0,0015542365929697443
1	0	0	1	0	0	1	283013,30	-0,0100000007	1,8047092	-2,7755239671044467E-005	-0,0099916938924296883	1,80321022E-005	-0,0019428171732246573	7,2489120878482829E-005	0,0019428171732246573
1	0	0	1	0	0	1	283153,30	-0,0100000007	1,72475874	-2,7755823836972317E-005	-0,0099919041881144909	1,7233624E-005	-0,0023313980098041712	8,6987594343755814E-005	0,0023313980098041712
1	0	0	1	0	0	1	283293,31	-0,0100000007	1,6514535	-2,7756356708291504E-005	-0,0099920960176304448	1,65014826E-005	-0,0027199910839096445	0,00010148652440757589	0,0027199910839096445
1	0	0	1	0	0	1	283433,31	-0,0100000007	1,584373	-2,7756682846488224E-005	-0,0099922134253532339	1,58313924E-005	-0,0031085828241259802	0,00011598540470219878	0,0031085828241259802
1	0	0	1	0	0	1	283573,31	-0,0100000007	1,52309752	-2,7756636580762762E-005	-0,0099921967698964416	1,52190896E-005	-0,0034971763713934054	0,00013048435242032746	0,0034971763713934054
1	0	0	1	0	0	1	283713,31	-0,0100000007	1,46692026	-2,775674971136161E-005	-0,0099922374964768141	1,46578159E-005	-0,0038857673541630208	0,00014498320445359482	0,0038857673541630208
1	0	0	1	0	0	1	283853,32	-0,0100000007	1,415555	-2,775683233752433E-005	-0,0099922672408573658	1,41446035E-005	-0,0042743645068586509	0,00015948228669509734	0,0042743645068586509
1	0	0	1	0	0	1	283993,32	-0,0100000007	1,3681041	-2,7755605777052954E-005	-0,0099918256875897587	1,36698573E-005	-0,0046629557900778432	0,0001739811499385424	0,0046629557900778432
1	0	0	1	0	0	1	284133,32	-0,0100000007	1,32395673	-2,7755797229034621E-005	-0,0099918946094413568	1,3228836E-005	-0,0050515393193935757	0,00018847972387342413	0,0050515393193935757
1	0	0	1	0	0	1	284273,33	-0,0100000007	1,28267348	-2,775617016805336E-005	-0,0099920288649030259	1,28165102E-005	-0,0054401303941465082	0,00020297857933871274	0,0054401303941465082
1	0	0	1	0	0	1	284413,33	-0,0100000007	1,24331892	-2,7755996205171363E-005	-0,0099919662394713536	1,2423201E-005	-0,0058287157933936448	0,00021747722304324928	0,0058287157933936448
1	0	0	1	0	0	1	284553,33	-0,0100000007	1,20616019	-2,7755228861079862E-005	-0,0099916900009173606	1,20515788E-005	-0,0062172976748514816	0,00023197573549433738	0,0062172976748514816
1	0	0	1	0	0	1	284693,33	-0,0100000007	1,17049098	-2,7756251312171421E-005	-0,0099920580762230656	1,16956135E-005	-0,0066058744731510682	0,00024647405828595674	0,0066058744731510682
1	0	0	1	0	0	1	284833,34	-0,0100000007	1,13600552	-2,7755965606309475E-005	-0,0099919552236278963	1,13509159E-005	-0,0069944663235778918	0,00026097294269268112	0,0069944663235778918
1	0	0	1	0	0	1	284973,34	-0,0100000007	1,10302866	-2,7755892796441914E-005	-0,0099919290125802662	1,10213841E-005	-0,00738304209248048	0,00027547122707611443	0,00738304209248048
1	0	0	1	0	0	1	285113,34	-0,0100000007	1,0714457	-2,7756122780498115E-005	-0,0099920118054789722	1,07058977E-005	-0,0077716226151483046	0,00028996968882892026	0,0077716226151483046
1	0	0	1	0	0	1	285253,34	-0,0100000007	1,04062653	-2,7755283846726845E-005	-0,0099917097950783437	1,03976381E-005	-0,0081601996218703782	0,00030446801939706278	0,0081601996218703782
1	0	0	1	0	0	1	285393,35	-0,0100000007	1,01101029	-2,7755850062239914E-005	-0,0099919136287964032	1,01019277E-005	-0,0085487753463184026	0,00031896630212183661	0,0085487753463184026
1	0	0	1	0	0	1	285533,35	-0,0100000007	0,982215106	-2,7757623832362394E-005	-0,009992552173512704	9,81483572E-006	-0,0089373725731902528	0,00033346538713095366	0,0089373725731902528
1	0	0	1	0	0	1	285673,35	-0,0100000007	0,95443207	-2,7758063491071677E-005	-0,0099927104480657997	9,53736344E-006	-0,0093259805688317709	0,00034796487393734573	0,0093259805688317709
1	0	0	1	0	0	1	285813,36	-0,0100000007	0,928157449	-2,7757171479105536E-005	-0,009992389329941088	9,27451038E-006	-0,009714584035374519	0,00036246419175697331	0,009714584035374519
1	0	0	1	0	0	1	285953,36	-0,0100000007	0,903276801	-2,7757917165497526E-005	-0,0099926577718733798	9,02613556E-006	-0,010103190716439896	0,00037696362951476218	0,010103190716439896
1	1	0	0	0	0	2	286081,17	0,0100000007	1,09370387	2,7796167452767907E-005	0,010006427610153749	1,09440689E-005	-0,0098468625673490637	0,00036739968163532134	0,00030575895886785459
1	1	0	0	0	0	2	286221,17	0,0100000007	1,2264899	2,7796423547952954E-005	0,010006519802645206	1,22728952E-005	-0,0094577184669886464	0,00035288019204106662	0,00069490305922827174
1	1	0	0	0	0	2	286361,17	0,0100000007	1,33464348	2,779648153183775E-005	0,01000654067644181	1,33551639E-005	-0,0090685666809197786	0,00033836041568269613	0,0010840548452971403
1	1	0	0	0	0	2	286501,18	0,0100000007	1,4283421	2,7797144698186051E-005	0,010006779411730371	1,4293104E-005	-0,0086794102395390989	0,00032384046562838272	0,0014732112866778243
1	1	0	0	0	0	2	286641,18	0,0100000007	1,51195872	2,7796791377736048E-005	0,010006652218817461	1,51296454E-005	-0,0082902520300320563	0,00030932044960289754	0,0018623694961848678
1	1	0	0	0	0	2	286781,18	0,0100000007	1,58730721	2,7797009226193443E-005	0,010006730642286109	1,58837556E-005	-0,0079011012825290547	0,00029480071199481581	0,0022515202436878666
1	1	0	0	0	0	2	286921,18	0,0100000007	1,65633535	2,779671885844113E-005	0,010006626112140987	1,65743295E-005	-0,007511949520375671	0,00028028093652876416	0,0026406720058412509
1	1	0	0	0	0	2	287061,19	0,0100000007	1,71974957	2,7796034879775514E-005	0,010006379884445971	1,72084674E-005	-0,0071227998033371238	0,00026576123736869674	0,0030298217228798003
1	1	0	0	0	0	2	287201,19	0,0100000007	1,77821815	2,7796611561232973E-005	0,010006587485889795	1,77938946E-005	-0,0067336465993611456	0,00025124140810630544	0,0034189749268557786
1	1	0	0	0	0	2	287341,19	0,0100000007	1,83141661	2,7796406473395309E-005	0,010006513655456854	1,83260945E-005	-0,0063444965398729574	0,00023672169616898154	0,0038081249863439661
1	1	0	0	0	0	2	287481,20	0,0100000007	1,88018489	2,7796701541584397E-005	0,010006619878425578	1,88142949E-005	-0,0059553439731396544	0,00022220189068297133	0,0041972775530772698
1	1	0	0	0	0	2	287621,20	0,0100000007	1,92414141	2,7796919780110733E-005	0,010006698442782309	1,9254303E-005	-0,0055661886874707859	0,00020768198374981946	0,0045864328387461389
1	1	0	0	0	0	2	287761,20	0,0100000007	1,96403062	2,7797667061754813E-005	0,010006967458994294	1,96539913E-005	-0,0051770267256145907	0,00019316182771914227	0,0049755948006023341
1	1	0	0	0	0	2	287901,20	0,0100000007	1,99987185	2,7797422916835382E-005	0,010006879568515621	2,00124759E-005	-0,0047878655747986938	0,00017864170194946902	0,005364755951418231
1	1	0	0	0	0	2	288041,21	0,0100000007	2,03252411	2,7796820267879712E-005	0,010006662619068923	2,03387826E-005	-0,0043987068496244979	0,00016412166668374899	0,0057539146765924269
1	1	0	0	0	0	2	288181,21	0,0100000007	2,06219769	2,7796670902365197E-005	0,010006608848519043	2,06356053E-005	-0,0040095493444810643	0,00014960167693901706	0,0061430721817358605
1	1	0	0	0	0	2	288321,21	0,0100000007	2,08896875	2,7797023299150173E-005	0,010006735708452982	2,09037589E-005	-0,0036203898092926816	0,00013508161145057859	0,0065322317169242432
1	1	0	0	0	0	2	288461,21	0,0100000007	2,11344838	2,779716841193537E-005	0,010006787948049784	2,11488295E-005	-0,0032312358336623469	0,00012056175339672584	0,0069213856925545779
1	1	0	0	0	0	2	288601,22	0,0100000007	2,13569403	2,7797441543856016E-005	0,010006886273764456	2,13716467E-005	-0,0028420727367362234	0,00010604155501506347	0,0073105487894807027
1	1	0	0	0	0	2	288741,22	0,0100000007	2,15616369	2,7797269350642134E-005	0,01000682428540104	2,15763521E-005	-0,0024529083037721434	9,1521306784028646E-005	0,0076997132224447821
1	1	0	0	0	0	2	288881,22	0,0100000007	2,17531586	2,7797196613935133E-005	0,010006798100807197	2,17679462E-005	-0,002063749892455207	7,7001283228744934E-005	0,0080888716337617165
1	1	0	0	0	0	2	289021,23	0,0100000007	2,19305515	2,77971213405124E-005	0,010006771002663798	2,19454014E-005	-0,001674593285277633	6,2481326988326528E-005	0,0084780282409392896
1	1	0	0	0	0	2	289161,23	0,0100000007	2,20879555	2,7797944036726323E-005	0,010007067168064149	2,21035662E-005	-0,0012854299641807168	4,796112024255049E-005	0,0088671915620362061
1	1	0	0	0	0	2	289301,23	0,0100000007	2,22401428	2,7797743077027712E-005	0,010006994823965629	2,22556992E-005	-0,00089625996522889178	3,3440664337029344E-005	0,009256361560988032
1	1	0	0	0	0	2	289441,23	0,0100000007	2,23799181	2,7797195571009069E-005	0,010006797725594027	2,2395132E-005	-0,00050709476999632422	1,8920387664732358E-005	0,0096455267562206003
1	1	0	0	0	0	2	289581,24	0,0100000007	2,2509954	2,779744659302135E-005	0,010006888091778456	2,25254589E-005	-0,00011793097260981619	4,40016314795128E-006	0,010034690553607107
1	1	0	0	0	0	2	289721,24	0,0100000007	2,26285338	2,7797849430754368E-005	0,010007033110570019	2,26444481E-005	0,0002712367798943256	-1,0120208939586429E-005	0,01042385830611125
1	1	0	0	0	0	2	289861,24	0,0100000007	2,27408123	2,7797736932678768E-005	0,010006992612042598	2,27567143E-005	0,00066040884200996595	-2,4640741824523482E-005	0,010813030368226891
1	1	0	0	0	0	2	290001,24	0,0100000007	2,28427792	2,7796836058764406E-005	0,010006668303211994	2,2858012E-005	0,001049577666521805	-3,9161153910109696E-005	0,01120219919273873
1	1	0	0	0	0	2	290141,25	0,0100000007	2,29390168	2,779674615416055E-005	0,010006635938410773	2,29542384E-005	0,0014387351562700626	-5,368114308042695E-005	0,011591356682486989
1	1	0	0	0	0	2	290281,25	0,0100000007	2,30247521	2,7797292283270506E-005	0,010006832540988293	2,30404839E-005	0,0018278962966251373	-6,8201268459792845E-005	0,011980517822842066
1	1	0	0	0	0	2	290421,25	0,0100000007	2,31051421	2,779724387053607E-005	0,010006815112622986	2,31208887E-005	0,0022170588049625341	-8,2721444880418432E-005	0,012369680331179461
1	1	0	0	0	0	2	290561,26	0,0100000007	2,31801844	2,7797548627894784E-005	0,010006924823159648	2,31962367E-005	0,0026062265245306608	-9,724181573906912E-005	0,012758848050747589
1	1	0	0	0	0	2	290701,26	0,0100000007	2,32487369	2,779678310898857E-005	0,010006649241659722	2,3264196E-005	0,0029953887806971546	-0,0001117619827508593	0,013148010306914082
1	1	0	0	0	0	2	290841,26	0,0100000007	2,33149958	2,7797474761700464E-005	0,010006898232307683	2,33310784E-005	0,003384548938105513	-0,00012628207145516158	0,013537170464322442
1	1	0	0	0	0	2	290981,26	0,0100000007	2,33761001	2,7797024563213603E-005	0,010006736163973022	2,33918472E-005	0,0037737060137958765	-0,0001408020451764221	0,013926327540012805
1	1	0	0	0	0	2	291121,27	0,0100000007	2,34333825	2,7796600041859264E-005	0,010006583339228088	2,34488089E-005	0,0041628579423161197	-0,00015532182684984499	0,014315479468533051
1	1	0	0	0	0	2	291261,27	0,0100000007	2,34881854	2,7796584497257651E-005	0,010006577743279256	2,3503635E-005	0,0045520073858618611	-0,00016984151580552813	0,01470462891207879
1	1	0	0	0	0	2	291401,27	0,0100000007	2,35403156	2,7796499283984304E-005	0,010006547067091518	2,35557272E-005	0,0049411539271258208	-0,00018436109647317581	0,015093775453342752
1	1	0	0	0	0	2	291541,27	0,0100000007	2,35914898	2,7796119748045584E-005	0,010006410436318434	2,36066135E-005	0,0053303036725702266	-0,00019888079669310403	0,015482925198787155
1	1	0	0	0	0	2	291681,28	0,0100000007	2,36394167	2,7795245229318326E-005	0,010006095615638477	2,36538272E-005	0,0057194493822112979	-0,00021340034633178362	0,015872070908428227
1	1	0	0	0	0	2	291821,28	0,0100000007	2,36861992	2,7795172352550758E-005	0,010006069380623792	2,37005752E-005	0,0061085846187146995	-0,00022791950520361549	0,016261206144931629
1	1	0	0	0	0	2	291961,28	0,0100000007	2,37322187	2,7794796425590496E-005	0,010005934049523891	2,37463009E-005	0,0064977167803984653	-0,00024243854934979258	0,016650338306615386
1	1	0	0	0	0	2	292101,28	0,0100000007	2,37734628	2,7794898344462531E-005	0,010005970739960805	2,37876575E-005	0,0068868440929234355	-0,00025695741256733526	0,017039465619140358
1	1	0	0	0	0	2	292241,29	0,0100000007	2,38156629	2,779445251134328E-005	0,010005810242662304	2,38294997E-005	0,0072759695870808115	-0,00027147620793913824	0,017428591113297734
1	1	0	0	0	0	2	292381,29	0,0100000007	2,38563347	2,7794038083249085E-005	0,010005661051886979	2,38698394E-005	0,0076650917288805978	-0,00028599487822997216	0,017817713255097523
1	1	0	0	0	0	2	292521,29	0,0100000007	2,38954806	2,7794748735976304E-005	0,010005916881942795	2,39096189E-005	0,008054214316345815	-0,00030051356514918253	0,018206835842562739
1	1	0	0	0	0	2	292661,30	0,0100000007	2,39346242	2,7794125869973667E-005	0,010005692654499325	2,39482488E-005	0,0084433319285798733	-0,00031503206643582912	0,018595953454796803
1	1	0	0	0	0	2	292801,30	0,0100000007	2,39718604	2,7794038125572518E-005	0,010005661067123123	2,39854307E-005	0,0088324462569875046	-0,00032955044519849658	0,018985067783204429
1	1	0	0	0	0	2	292941,30	0,0100000007	2,40073776	2,779358856074719E-005	0,010005499226902224	2,40205791E-005	0,0092215607728219405	-0,00034406883095431008	0,01937418229903887
1	1	0	0	0	0	2	293081,30	0,0100000007	2,40413666	2,7793418206791914E-005	0,010005437900659155	2,40544396E-005	0,0096106675379647386	-0,0003585869275213977	0,01976328906418167
1	1	0	0	0	0	2	293221,31	0,0100000007	2,40761185	2,779386451612744E-005	0,010005598568460379	2,4089597E-005	0,0099997738434483123	-0,00037310500693798163	0,020152395369665235
1	1	0	0	0	0	2	293361,31	0,0100000007	2,41083884	2,7793328908375565E-005	0,010005405753615302	2,41214202E-005	0,010388882582230558	-0,00038762317714421062	0,020541504108447488
1	1	0	0	0	0	2	293501,31	0,0100000007	2,41416144	2,7793337852901056E-005	0,010005408973466003	2,41546732E-005	0,010777990818304438	-0,0004021413285937145	0,020930612344521363
1	1	0	0	0	0	2	293641,31	0,0100000007	2,41723561	2,7793374174895386E-005	0,010005422049132189	2,41854632E-005	0,01116709871548633	-0,00041665946739870272	0,021319720241703254
1	1	0	0	0	0	2	293781,32	0,0100000007	2,42042446	2,7793073485760637E-005	0,010005313803011477	2,42171063E-005	0,011556206417996142	-0,00043117759894021395	0,021708827944213062
1	1	0	0	0	0	2	293921,32	0,0100000007	2,42325044	2,7792848780130346E-005	0,010005232910542152	2,42451842E-005	0,011945308424600678	-0,00044569551795984102	0,022097929950817597
1	1	0	0	0	0	2	294061,32	0,0100000007	2,42634392	2,7793063657047846E-005	0,010005310265208899	2,42763235E-005	0,012334415053166984	-0,0004602136094310761	0,022487036579383907
1	1	0	0	0	0	2	294201,33	0,0100000007	2,42918897	2,7793518771986579E-005	0,010005474103432154	2,43051873E-005	0,012723519721662024	-0,00047473162776941683	0,022876141247878947
1	1	0	0	0	0	2	294341,33	0,0100000007	2,43195772	2,7794228778996816E-005	0,010005729701034331	2,43335107E-005	0,013112632484717571	-0,00048924994812669338	0,023265254010934493
1	1	0	0	0	0	2	294481,33	0,0100000007	2,43468833	2,7793331768363715E-005	0,010005406783424163	2,4360048E-005	0,01350174193512081	-0,00050376814488445843	0,023654363461337738
1	1	0	0	0	0	2	294621,33	0,0100000007	2,43736172	2,7793862423393875E-005	0,010005597815556715	2,43872619E-005	0,013890846129274629	-0,00051828614552449043	0,024043467655491562
1	1	0	0	0	0	2	294761,34	0,0100000007	2,4398632	2,7793140705312707E-005	0,010005338002050179	2,44116563E-005	0,014279953829030827	-0,00053280427696326061	0,024432575355247773
1	1	0	0	0	0	2	294901,34	0,0100000007	2,44253635	2,7793675055365184E-005	0,010005530363899242	2,44388721E-005	0,014669063656039962	-0,00054732248777269792	0,024821685182256906
1	1	0	0	0	0	2	295041,34	0,0100000007	2,44490409	2,7793251678554547E-005	0,010005377951415066	2,44621897E-005	0,015058175000712083	-0,00056184075520818189	0,025210796526929027
1	1	0	0	0	0	2	295181,34	0,0100000007	2,44753933	2,779393782057903E-005	0,01000562495767131	2,44891598E-005	0,015447285717932525	-0,00057635899923259987	0,025599907244149469
1	1	0	0	0	0	2	295321,35	0,0100000007	2,44990706	2,7795341831890659E-005	0,010006130391894902	2,45140891E-005	0,015836406546050598	-0,00059087762050820288	0,025989028072267542
1	1	0	0	0	0	2	295461,35	0,0100000007	2,45223665	2,7795528645523722E-005	0,010006197643507878	2,4537565E-005	0,016225536582808234	-0,00060539658537052915	0,026378158109025181
1	1	0	0	0	0	2	295601,35	0,0100000007	2,45429897	2,7795245936657821E-005	0,010006095870741728	2,45579504E-005	0,016614671657612102	-0,00061991573820913395	0,026767293183829046
1	1	0	0	0	0	2	295741,35	0,0100000007	2,45680022	2,7794690950514957E-005	0,010005896079577258	2,45824885E-005	0,017003802115593798	-0,00063443471878789619	0,027156423641810742
1	1	0	0	0	0	2	295881,36	0,0100000007	2,45897722	2,7794801685234739E-005	0,010005935943308806	2,46043692E-005	0,01739293337246239	-0,00064895372917420262	0,027545554898679334
1	1	0	0	0	0	2	296021,36	0,0100000007	2,46113491	2,7794907032149949E-005	0,010005973867468058	2,46260515E-005	0,017782062720774736	-0,00066347266834970944	0,027934684246991683
1	1	0	0	0	0	2	296161,36	0,0100000007	2,46334982	2,7795151469039005E-005	0,01000606186305377	2,46484306E-005	0,018171193355908266	-0,00067799165553824486	0,028323814882125213
1	1	0	0	0	0	2	296301,37	0,0100000007	2,46556497	2,7794819882139562E-005	0,01000594249406841	2,46703021E-005	0,018560320415448102	-0,00069251050931657203	0,028712941941665046
1	1	0	0	0	0	2	296441,37	0,0100000007	2,46779895	2,7795534363223446E-005	0,010006199701840146	2,46932887E-005	0,018949454148933718	-0,00070702961210878938	0,029102075675150662
1	1	0	0	0	0	2	296581,37	0,0100000007	2,47007132	2,7795036788719398E-005	0,010006020578467701	2,4715584E-005	0,019338590689286861	-0,00072154881962900813	0,029491212215503808
1	1	0	0	0	0	2	296721,37	0,0100000007	2,47215271	2,7795018364571859E-005	0,010006013946018781	2,47363951E-005	0,019727723113443606	-0,00073606787356840525	0,02988034463966055
1	1	0	0	0	0	2	296861,38	0,0100000007	2,4739666	2,7795394621479014E-005	0,010006149395897277	2,47548796E-005	0,020116856158073584	-0,00075058695065849254	0,030269477684290528
1	1	0	0	0	0	2	297001,38	0,0100000007	2,47600985	2,7794931040404157E-005	0,010005982510040189	2,47749103E-005	0,020505994807769914	-0,0007651062368811415	0,030658616333986861
1	1	0	0	0	0	2	297141,38	0,0100000007	2,47769022	2,7795636644379958E-005	0,010006236522347514	2,47923545E-005	0,020895133782552454	-0,00077962553523319424	0,031047755308769402
1	1	0	0	0	0	2	297281,38	0,0100000007	2,47969508	2,7795721397476477E-005	0,010006267033340726	2,48124907E-005	0,02128427443993495	-0,00079414489636531366	0,031436895966151891
1	1	0	0	0	0	2	297421,39	0,0100000007	2,48143268	2,7796414778309152E-005	0,010006516645634224	2,48304968E-005	0,021673416492253389	-0,00080866430954436851	0,031826038018470336
1	1	0	0	0	0	2	297561,39	0,0100000007	2,48355222	2,7796471078259248E-005	0,010006536913226011	2,48517572E-005	0,022062560817810502	-0,00082318380754101466	0,03221518234402745
1	1	0	0	0	0	2	297701,39	0,0100000007	2,48534727	2,7795648454429789E-005	0,010006240774349533	2,4868983E-005	0,022451705417379738	-0,00083770331576142157	0,032604326943596704
1	1	0	0	0	0	2	297841,40	0,0100000007	2,48719931	2,7795647884563853E-005	0,010006240569201744	2,48875149E-005	0,022840845600204589	-0,00085222265918715712	0,032993467126421568
1	1	0	0	0	0	2	297981,40	0,0100000007	2,48903251	2,7797116676190246E-005	0,010006769324006122	2,49071745E-005	0,023229997200327917	-0,00086674242860764954	0,033382618726544915
1	1	0	0	0	0	2	298121,40	0,0100000007	2,49075103	2,779629762413808E-005	0,010006474470478755	2,49236364E-005	0,023619146854761821	-0,0008812621254318537	0,033771768380978822
1	1	0	0	0	0	2	298261,40	0,0100000007	2,4926033	2,7796303617250589E-005	0,010006476628190694	2,49421773E-005	0,024008298650503306	-0,00089578190215112243	0,034160920176720314
1	1	0	0	0	0	2	298401,41	0,0100000007	2,4942646	2,7796469844308579E-005	0,010006536468662854	2,49589502E-005	0,024397444939025878	-0,00091030147338864922	0,034550066465242886
1	1	0	0	0	0	2	298541,41	0,0100000007	2,49604034	2,7795879795009062E-005	0,01000632405512153	2,49761888E-005	0,024786588175012045	-0,00092482093073193843	0,034939209701229069
1	1	0	0	0	0	2	298681,41	0,0100000007	2,49756789	2,7796752862994458E-005	0,010006638353311494	2,49922577E-005	0,025175739525137299	-0,00093934069082466662	0,035328361051354323
1	1	0	0	0	0	2	298821,41	0,0100000007	2,49938202	2,7795741719400717E-005	0,010006274348626642	2,50095018E-005	0,025564883255858944	-0,00095386016662720179	0,035717504782075962
1	1	0	0	0	0	2	298961,42	0,0100000007	2,50108147	2,7796046929175245E-005	0,010006384222495813	2,50267822E-005	0,025954027472686054	-0,00096837966056698534	0,036106648998903078
1	1	0	0	0	0	2	299101,42	0,0100000007	2,50257087	2,7796149317899514E-005	0,01000642108172683	2,50417779E-005	0,026343173045629978	-0,00098289920510531046	0,036495794571847008
1	1	0	0	0	0	2	299241,42	0,0100000007	2,50411749	2,7795961870087517E-005	0,010006353601813832	2,50570847E-005	0,02673231520756617	-0,00099741862237435123	0,036884936733783187
1	1	0	0	0	0	2	299381,42	0,0100000007	2,50572157	2,7796179817316848E-005	0,010006432061305661	2,50733319E-005	0,027121459009877024	-0,001011938100847976	0,037274080536094048
1	1	0	0	0	0	2	299521,43	0,0100000007	2,50724912	2,7795567555456525E-005	0,010006211651279918	2,50880657E-005	0,027510604180034182	-0,0010264576303577854	0,037663225706251206
1	1	0	0	0	0	2	299661,43	0,0100000007	2,50885296	2,7796264111167856E-005	0,010006462406041776	2,51047422E-005	0,027899748356859136	-0,0010409771228050347	0,038052369883076147
1	1	0	0	0	0	2	299801,43	0,0100000007	2,51041889	2,7796343524836832E-005	0,010006490994412139	2,51204838E-005	0,028288895707816598	-0,0010554967336834358	0,038441517234033613
1	1	0	0	0	0	2	299941,44	0,0100000007	2,51190829	2,7796242236366704E-005	0,010006454531381477	2,51352958E-005	0,02867804239651497	-0,0010700163198520595	0,038830663922731987
1	1	0	0	0	0	2	300081,44	0,0100000007	2,51328301	2,7796011408480502E-005	0,010006371434942462	2,51488436E-005	0,029067184308034093	-0,0010845357277777027	0,039219805834251117
1	1	0	0	0	0	2	300221,44	0,0100000007	2,51461959	2,7796006048615606E-005	0,010006369505311766	2,51622132E-005	0,029456327564086957	-0,0010990551858697075	0,039608949090303974
1	1	0	0	0	0	2	300361,44	0,0100000007	2,51614738	2,7796555686638586E-005	0,010006567371190141	2,51779984E-005	0,029845478685458541	-0,0011135749374273286	0,039998100211675565
1	1	0	0	0	0	2	300501,45	0,0100000007	2,51702571	2,7796601003035904E-005	0,010006583685245014	2,51868278E-005	0,03023462922910631	-0,0011280946674292974	0,040387250755323328
1	1	0	0	0	0	2	300641,45	0,0100000007	2,51765585	2,7796410152171222E-005	0,010006514980256637	2,51929614E-005	0,030623780244222355	-0,0011426144150223816	0,040776401770439398
1	1	0	0	0	0	2	300781,45	0,0100000007	2,51870608	2,7796294616173126E-005	0,010006473388098178	2,5203366E-005	0,031012930460364179	-0,0011571341328046634	0,041165551986581222
1	1	0	0	0	0	2	300921,45	0,0100000007	2,51975632	2,7796246014121504E-005	0,010006455891696485	2,52138307E-005	0,03140208013989671	-0,0011716538305653309	0,041554701666113754
1	1	0	0	0	0	2	301061,46	0,0100000007	2,52095914	2,7796469383666083E-005	0,010006536303184218	2,52260688E-005	0,031791229580505363	-0,0011861735194114274	0,041943851106722406
1	1	0	0	0	0	2	301201,46	0,0100000007	2,5221622	2,7796565447830493E-005	0,010006570885617523	2,52381942E-005	0,032180382616018739	-0,0012006933423882522	0,042333004142235776
1	1	0	0	0	0	2	301341,46	0,0100000007	2,5233078	2,7796811807900666E-005	0,010006659573069146	2,5249883E-005	0,032569538531561715	-0,0012152132728228539	0,042722160057778758
1	1	0	0	0	0	2	301481,47	0,0100000007	2,52456808	2,7796804106483859E-005	0,010006656800845459	2,52624868E-005	0,032958696007532032	-0,0012297332614790976	0,043111317533749075
1	1	0	0	0	0	2	301621,47	0,0100000007	2,52565646	2,7797195128734326E-005	0,010006797566028709	2,52737336E-005	0,033347856679660019	-0,0012442533693882813	0,043500478205877062
1	1	0	0	0	0	2	301761,47	0,0100000007	2,52691674	2,7796796751519046E-005	0,010006654152992618	2,52859827E-005	0,03373701225146311	-0,0012587732869974858	0,043889633777680154
1	1	0	0	0	0	2	301901,47	0,0100000007	2,52785254	2,7796804886414774E-005	0,0100066570813822	2,52953541E-005	0,03412616640687513	-0,001273293151759235	0,044278787933092173
1	1	0	0	0	0	2	302041,48	0,0100000007	2,52905536	2,7795915918528205E-005	0,010006337059105051	2,53065809E-005	0,034515314065467789	-0,0012878127741159186	0,044667935591684832
1	1	0	0	0	0	2	302181,48	0,0100000007	2,53008652	2,7797161458887984E-005	0,010006785445466891	2,53180333E-005	0,03490446902451936	-0,00130233266886254	0,045057090550736403
1	1	0	0	0	0	2	302321,48	0,0100000007	2,53119397	2,779678466367639E-005	0,010006649801802522	2,53287708E-005	0,035293624411641491	-0,0013168525795810493	0,045446245937858534
1	1	0	0	0	0	2	302461,48	0,0100000007	2,53235888	2,7796682140841664E-005	0,01000661289429267	2,53403359E-005	0,035682775018674451	-0,0013313723119480048	0,045835396544891494
1	1	0	0	0	0	2	302601,49	0,0100000007	2,53346634	2,7796142570674419E-005	0,010006418652772566	2,53509243E-005	0,03607192645905129	-0,0013458920754081411	0,046224547985268333
1	1	0	0	0	0	2	302741,49	0,0100000007	2,53459287	2,7796662673198928E-005	0,01000660588607623	2,53626713E-005	0,036461076939799488	-0,0013604118030632426	0,046613698466016531
1	1	0	0	0	0	2	302881,49	0,0100000007	2,53571963	2,7796679670715498E-005	0,010006612004598414	2,53739618E-005	0,036850230038541709	-0,0013749316283992208	0,047002851564758752
1	1	0	0	0	0	2	303021,49	0,0100000007	2,53680801	2,7796043194726934E-005	0,01000638287765436	2,53842718E-005	0,037239381939150477	-0,001389451409031229	0,04739200346536752
1	1	0	0	0	0	2	303161,50	0,0100000007	2,53776264	2,7796038874994134E-005	0,01000638132281347	2,53938215E-005	0,037628528032670048	-0,0014039709729929315	0,047781149558887091
1	1	0	0	0	0	2	303301,50	0,0100000007	2,5386219	2,7796781669577789E-005	0,010006648723540062	2,54030983E-005	0,038017680778434182	-0,0014184907851588229	0,048170302304651226
1	1	0	0	0	0	2	303441,50	0,0100000007	2,53957677	2,7796533629091248E-005	0,010006559430858973	2,54124261E-005	0,038406833815171878	-0,0014330106081813286	0,048559455341388922
1	1	0	0	0	0	2	303581,51	0,0100000007	2,5407033	2,7795919385945632E-005	0,010006338307351288	2,54231363E-005	0,038795981108739962	-0,0014475302169184547	0,048948602634957005
1	1	0	0	0	0	2	303721,51	0,0100000007	2,54171538	2,7795883471818845E-005	0,010006325378980538	2,54332317E-005	0,039185129205220634	-0,0014620498556133293	0,049337750731437677
1	1	0	0	0	0	2	303861,51	0,0100000007	2,54272747	2,7795764508760637E-005	0,01000628255310419	2,54432489E-005	0,039574279962754022	-0,0014765695935956579	0,049726901488971059
1	1	0	0	0	0	2	304001,51	0,0100000007	2,54354835	2,7796373289906317E-005	0,010006501710096789	2,54520201E-005	0,03996342953855145	-0,0014910892874858294	0,050116051064768493
1	1	0	0	0	0	2	304141,52	0,0100000007	2,54456043	2,7796501192626442E-005	0,010006547754189458	2,54622646E-005	0,040352575634495814	-0,0015056088515380038	0,050505197160712858
1	1	0	0	0	0	2	304281,52	0,0100000007	2,54509521	2,7796865810691894E-005	0,010006679014165622	2,54679508E-005	0,040741726996231392	-0,001520128612063929	0,050894348522448435
1	1	0	0	0	0	2	304421,52	0,0100000007	2,54564881	2,7796388000353347E-005	0,010006507005755749	2,5473053E-005	0,041130878670692602	-0,0015346483842580678	0,051283500196909645
1	1	0	0	0	0	2	304561,52	0,0100000007	2,54627895	2,7796382294295149E-005	0,010006504951148397	2,54793522E-005	0,041520032227165984	-0,0015491682266726112	0,051672653753383027
1	1	0	0	0	0	2	304701,53	0,0100000007	2,5471766	2,7796520099302547E-005	0,010006554559995843	2,54884617E-005	0,04190918261568873	-0,001563687950886657	0,052061804141905773
1	1	0	0	0	0	2	304841,53	0,0100000007	2,5479784	2,7797031013760714E-005	0,010006738485775795	2,54969527E-005	0,042298338220982816	-0,001578207869745455	0,052450959747199853
1	1	0	0	0	0	2	304981,53	0,0100000007	2,54881859	2,7796638023522163E-005	0,010006597012013987	2,55049999E-005	0,042687492412207853	-0,0015927277358434362	0,052840113938424896
1	1	0	0	0	0	2	305121,54	0,0100000007	2,54958248	2,7797207569186061E-005	0,010006802044388608	2,55131672E-005	0,043076647134931763	-0,0016072476217723552	0,053229268661148806
1	1	0	0	0	0	2	305261,54	0,0100000007	2,55025077	2,7796635313528694E-005	0,010006596036318632	2,55193299E-005	0,04346579999410279	-0,0016217674381696096	0,053618421520319834
1	1	0	0	0	0	2	305401,54	0,0100000007	2,55105281	2,7797142582583341E-005	0,010006778650128064	2,5527821E-005	0,043854957526932531	-0,0016362874289473552	0,054007579053149574
1	1	0	0	0	0	2	305541,54	0,0100000007	2,55200744	2,7797134094509402E-005	0,01000677559448028	2,55373652E-005	0,044244121630353498	-0,0016508076648826931	0,054396743156570541
1	1	0	0	0	0	2	305681,55	0,0100000007	2,55250406	2,7797030405400112E-005	0,01000673826711967	2,55422401E-005	0,044633280734285722	-0,0016653277142803846	0,054785902260502765
1	1	0	0	0	0	2	305821,55	0,0100000007	2,55343962	2,7797446656351286E-005	0,010006888114576795	2,55519844E-005	0,045022440469168717	-0,0016798477872196973	0,05517506199538576
1	1	0	0	0	0	2	305961,55	0,0100000007	2,55414605	2,7797464875711334E-005	0,010006894673420123	2,55590712E-005	0,045411599282360301	-0,0016943678257694646	0,055564220808577344
1	1	0	0	0	0	2	306101,55	0,0100000007	2,55498624	2,7797343428608854E-005	0,010006850953305056	2,55673658E-005	0,045800764678998624	-0,0017088881099564813	0,055953386205215667
1	1	0	0	0	0	2	306241,56	0,0100000007	2,55576921	2,7797326391976742E-005	0,010006844819769616	2,55751856E-005	0,046189927131822637	-0,0017234082843058275	0,05634254865803968
1	1	0	0	0	0	2	306381,56	0,0100000007	2,5565331	2,7797189343099795E-005	0,010006795483356874	2,55827035E-005	0,04657908888482048	-0,001737928432543719	0,056731710411037523
1	1	0	0	0	0	2	306521,56	0,0100000007	2,5573349	2,7797235994910198E-005	0,010006812277568752	2,55907707E-005	0,046968249813622726	-0,0017524485500297645	0,05712087133983977
1	1	0	0	0	0	2	306661,57	0,0100000007	2,55798411	2,7797587680785606E-005	0,010006938881929643	2,55975901E-005	0,047357410517124813	-0,0017669686591095581	0,057510032043341856
1	1	0	0	0	0	2	306801,57	0,0100000007	2,55867171	2,779656409420487E-005	0,010006570397855723	2,56035291E-005	0,047746566970806765	-0,0017814886096228486	0,057899188497023808
1	1	0	0	0	0	2	306941,57	0,0100000007	2,55939722	2,7797513990662995E-005	0,010006912353996298	2,56116637E-005	0,048135726512423706	-0,001796008675351145	0,058288348038640742
1	1	0	0	0	0	2	307081,57	0,0100000007	2,56012273	2,7796289486448381E-005	0,010006471541432827	2,56177955E-005	0,048524884419506144	-0,0018105286800927616	0,058677505945723187
1	1	0	0	0	0	2	307221,58	0,0100000007	2,56094384	2,779697908916407E-005	0,0100067197936304	2,56266467E-005	0,048914041621504813	-0,0018250486585267549	0,059066663147721856
1	1	0	0	0	0	2	307361,58	0,0100000007	2,56155491	2,7797218006880333E-005	0,010006805802352163	2,56329822E-005	0,049303199664469171	-0,0018395686683383085	0,059455821190686221
1	1	0	0	0	0	2	307501,58	0,0100000007	2,5623951	2,7796458593880134E-005	0,010006532418936067	2,56406893E-005	0,04969235271705488	-0,0018540884919521254	0,059844974243271923
1	1	0	0	0	0	2	307641,58	0,0100000007	2,56287241	2,7796612014424883E-005	0,01000658764926872	2,56456078E-005	0,050081504273794611	-0,0018686082597539174	0,060234125800011648
1	1	0	0	0	0	2	307781,59	0,0100000007	2,56352162	2,7796271559575363E-005	0,010006465087416848	2,56517887E-005	0,050470655101888678	-0,0018831280003689603	0,060623276628105728
1	1	0	0	0	0	2	307921,59	0,0100000007	2,56415176	2,7796405766211037E-005	0,010006513400875418	2,56582189E-005	0,050859805637180666	-0,0018976477300591635	0,061012427163397709
1	1	0	0	0	0	2	308061,59	0,0100000007	2,5647819	2,779636854849135E-005	0,0100065000028708	2,56644907E-005	0,051248961584107027	-0,0019121676616647216	0,06140158311032407
1	1	0	0	0	0	2	308201,59	0,0100000007	2,56541204	2,7796782234424931E-005	0,010006648926939363	2,56711774E-005	0,05163811089209111	-0,001926687345562417	0,061790732418308147
1	1	0	0	0	0	2	308341,60	0,0100000007	2,56609964	2,7796720134973939E-005	0,01000662657191693	2,56780004E-005	0,052027265434611085	-0,0019412072247676845	0,062179886960828134
1	1	0	0	0	0	2	308481,60	0,0100000007	2,56676793	2,7797054018825293E-005	0,010006746767323088	2,56849962E-005	0,052416423375797632	-0,0019557272307817712	0,062569044902014682
1	1	0	0	0	0	2	308621,60	0,0100000007	2,56753159	2,7797405667913459E-005	0,010006873359023293	2,56929634E-005	0,052805582118466944	-0,0019702472667002573	0,062958203644683994
1	1	0	0	0	0	2	308761,61	0,0100000007	2,56816173	2,7796506836648205E-005	0,01000654978599817	2,56984385E-005	0,053194736361628525	-0,0019847671347360611	0,063347357887845594
1	1	0	0	0	0	2	308901,61	0,0100000007	2,56877279	2,7796163418537213E-005	0,010006426157858662	2,57042357E-005	0,053583885176760115	-0,001999286800244767	0,06373650670297719
1	1	0	0	0	0	2	309041,61	0,0100000007	2,56947947	2,7797019544885389E-005	0,010006734357409653	2,57120992E-005	0,053973035734059213	-0,0020138065307560851	0,064125657260276288
1	1	0	0	0	0	2	309181,61	0,0100000007	2,57007122	2,7796397561052195E-005	0,010006510447541066	2,57174452E-005	0,054362187946870944	-0,0020283263230368058	0,064514809473088
1	1	0	0	0	0	2	309321,62	0,0100000007	2,57062507	2,7796388802791222E-005	0,010006507294627824	2,57229785E-005	0,054751338073690547	-0,0020428460374863555	0,06490395959990761
1	1	0	0	0	0	2	309461,62	0,0100000007	2,57127428	2,7796435106183507E-005	0,010006523963062134	2,57295178E-005	0,055140487646104806	-0,0020573657312502963	0,06529310917232183
1	1	0	0	0	0	2	309601,62	0,0100000007	2,57198071	2,7796625137432582E-005	0,010006592373227549	2,57367628E-005	0,055529639140105741	-0,0020718854967112192	0,065682260666322778
1	1	0	0	0	0	2	309741,62	0,0100000007	2,57247734	2,7796476101606259E-005	0,010006538721246646	2,57415941E-005	0,055918789338813619	-0,0020864052138430176	0,066071410865030656
1	1	0	0	0	0	2	309881,63	0,0100000007	2,57308817	2,7796348518381517E-005	0,010006492792170101	2,57475876E-005	0,056307937528517606	-0,0021009248560161786	0,066460559054734656
1	1	0	0	0	0	2	310021,63	0,0100000007	2,57362294	2,7796649124059411E-005	0,010006601008013962	2,57532174E-005	0,056697092455218752	-0,0021154447495557622	0,066849713981435802
1	1	0	0	0	0	2	310161,63	0,0100000007	2,57423401	2,7797232103223606E-005	0,010006810876472062	2,57598731E-005	0,057086248985837261	-0,0021299647029396589	0,06723887051205431
1	1	0	0	0	0	2	310301,64	0,0100000007	2,57492137	2,7796329711977805E-005	0,01000648602234459	2,5765914E-005	0,0574754075865792	-0,0021444847335626442	0,067628029112796275
1	1	0	0	0	0	2	310441,64	0,0100000007	2,57560873	2,7796578336351862E-005	0,010006575525395878	2,57730226E-005	0,057864564288148134	-0,0021590046933249312	0,068017185814365222
1	1	0	0	0	0	2	310581,64	0,0100000007	2,57616258	2,7797374815007462E-005	0,010006862252190995	2,57793035E-005	0,058253720550554227	-0,0021735246367014621	0,068406342076771302
1	1	0	0	0	0	2	310721,64	0,0100000007	2,57698369	2,7796750108970118E-005	0,010006637362347786	2,57869415E-005	0,058642881712826368	-0,0021880447628985834	0,06879550323904343
1	1	0	0	0	0	2	310861,65	0,0100000007	2,57751822	2,7796778654110515E-005	0,010006647638400464	2,57923166E-005	0,059032038967155213	-0,0022025647432850854	0,06918466049337225
1	1	0	0	0	0	2	311001,65	0,0100000007	2,57811022	2,7796878083816006E-005	0,010006683431939267	2,5798332E-005	0,05942119913706295	-0,0022170848324557565	0,069573820663280013
1	1	0	0	0	0	2	311141,65	0,0100000007	2,57870221	2,7796778628033482E-005	0,010006647628546949	2,58041637E-005	0,059810355637409139	-0,0022316047847101526	0,069962977163626176
1	1	0	0	0	0	2	311281,65	0,0100000007	2,5793705	2,7796763105524909E-005	0,010006642040784442	2,58108375E-005	0,060199515382220186	-0,0022461248580198941	0,07035213690843721
1	1	0	0	0	0	2	311421,66	0,0100000007	2,57998157	2,7796988808291238E-005	0,010006723292099338	2,58171622E-005	0,060588670074597197	-0,0022606447428165293	0,070741291600814221
1	1	0	0	0	0	2	311561,66	0,0100000007	2,58049703	2,779704418685287E-005	0,010006743227881168	2,58223718E-005	0,060977825387420442	-0,002275164650762847	0,07113044691363744
1	1	0	0	0	0	2	311701,66	0,0100000007	2,58112717	2,7797842505232742E-005	0,010007030616964259	2,58294185E-005	0,061366985910546918	-0,0022896847531125843	0,071519607436763904
1	1	0	0	0	0	2	311841,66	0,0100000007	2,58170009	2,7797515829818118E-005	0,010006913016545368	2,58348482E-005	0,061756149467182093	-0,0023042049686466093	0,071908770993399053
1	1	0	0	0	0	2	311981,67	0,0100000007	2,58236837	2,779693455869953E-005	0,010006703762971834	2,58409946E-005	0,062145307507719642	-0,002318724978367616	0,072297929033936589
1	1	0	0	0	0	2	312121,67	0,0100000007	2,58280754	2,7796963772167347E-005	0,010006714279617752	2,58454165E-005	0,062534466223865498	-0,0023332450132964762	0,072687087750082432
1	1	0	0	0	0	2	312261,67	0,0100000007	2,58341861	2,7796926466799856E-005	0,010006700849944042	2,58514974E-005	0,062923622197431462	-0,0023477649458959936	0,07307624372364841
1	1	0	0	0	0	2	312401,68	0,0100000007	2,58412504	2,7797468379657299E-005	0,010006895934816381	2,58590699E-005	0,063312781983086694	-0,002362285020729687	0,073465403509303642
1	1	0	0	0	0	2	312541,68	0,0100000007	2,58473611	2,7796884396993037E-005	0,0100066857051052	2,58646414E-005	0,063701942115237082	-0,0023768051084915805	0,073854563641454029
1	1	0	0	0	0	2	312681,68	0,0100000007	2,58538532	2,7797415840077315E-005	0,0100068770204658	2,58716336E-005	0,064091108604046656	-0,0023913254334289747	0,074243730130263603
1	1	0	0	0	0	2	312821,68	0,0100000007	2,58597732	2,7796672388445587E-005	0,010006609383264704	2,5876865E-005	0,064480268239838131	-0,0024058455026710496	0,074632889766055078
1	1	0	0	0	0	2	312961,69	0,0100000007	2,58645463	2,7797206201952781E-005	0,010006801552310597	2,58821383E-005	0,064869429417764352	-0,0024203656294522458	0,075022050943981299
1	1	0	0	0	0	2	313101,69	0,0100000007	2,58714223	2,7796472453460509E-005	0,010006537407939466	2,58883356E-005	0,06525858862399767	-0,002434885682666928	0,075411210150214605
1	1	0	0	0	0	2	313241,69	0,0100000007	2,5875814	2,7797695013384026E-005	0,010006977520921083	2,5893869E-005	0,065647750716609536	-0,0024494058435762755	0,075800372242826483
1	1	0	0	0	0	2	313381,69	0,0100000007	2,58817315	2,7796784867998208E-005	0,010006649874890998	2,58989421E-005	0,066036909306805542	-0,0024639258738057779	0,07618953083302249
1	1	0	0	0	0	2	313521,70	0,0100000007	2,58874607	2,7796857473957869E-005	0,01000667601299916	2,59047429E-005	0,066426064045523827	-0,0024784457603314682	0,076578685571740774
1	1	0	0	0	0	2	313661,70	0,0100000007	2,58929992	2,779679757511864E-005	0,010006654449832234	2,59102289E-005	0,066815220624155853	-0,0024929657155068134	0,076967842150372787
1	1	0	0	0	0	2	313801,70	0,0100000007	2,58989191	2,7797011353799866E-005	0,010006731408675642	2,59163535E-005	0,067204372161545344	-0,0025074854825866224	0,077356993687762291
1	1	0	0	0	0	2	313941,71	0,0100000007	2,59048367	2,7796824219636621E-005	0,010006664041674019	2,59220997E-005	0,067593526402642867	-0,0025220053505454125	0,077746147928859814
1	1	0	0	0	0	2	314081,71	0,0100000007	2,59094191	2,7797189195329946E-005	0,010006795430393738	2,59270255E-005	0,067982685181595251	-0,0025365253878176694	0,078135306707812198
1	1	0	0	0	0	2	314221,71	0,0100000007	2,59138131	2,7796210185572918E-005	0,010006442993667344	2,59305089E-005	0,068371839086241421	-0,0025510452432230074	0,078524460612458368
1	1	0	0	0	0	2	314361,71	0,0100000007	2,59201145	2,7796804676763715E-005	0,010006657005909274	2,59373701E-005	0,068760992788722701	-0,0025655650910853018	0,078913614314939648
1	1	0	0	0	0	2	314501,72	0,0100000007	2,59235501	2,7796318506201107E-005	0,010006481988109677	2,59403532E-005	0,069150147081899622	-0,0025800849609872445	0,07930276860811657
1	1	0	0	0	0	2	314641,72	0,0100000007	2,5928514	2,779639332105095E-005	0,010006508920820541	2,594539E-005	0,069539301773918694	-0,0025946048457705242	0,079691923300135642
1	1	0	0	0	0	2	314781,72	0,0100000007	2,59351993	2,7797224782355546E-005	0,010006808241243293	2,5952857E-005	0,0699284555948192	-0,0026091246980511987	0,080081077121036134
1	1	0	0	0	0	2	314921,72	0,0100000007	2,59399724	2,7797130529768765E-005	0,010006774310732394	2,59575445E-005	0,070317611766060262	-0,00262364463802624	0,08047023329227721
1	1	0	0	0	0	2	315061,73	0,0100000007	2,59455085	2,7797659497552861E-005	0,010006964735934024	2,59635781E-005	0,070706774924469926	-0,0026381648387019363	0,080859396450686874
1	1	0	0	0	0	2	315201,73	0,0100000007	2,59512377	2,7796769789937472E-005	0,01000664444735961	2,59684803E-005	0,071095929319840576	-0,002652684712416864	0,081248550846057523
1	1	0	0	0	0	2	315341,73	0,0100000007	2,59569669	2,7796502274564573E-005	0,010006548143679685	2,59739645E-005	0,071485081210949005	-0,0026672044926944019	0,081637702737165952
1	1	0	0	0	0	2	315481,73	0,0100000007	2,59619308	2,7796613685424544E-005	0,010006588250817014	2,59790359E-005	0,071874231690821427	-0,0026817242203168269	0,082026853217038374
1	1	0	0	0	0	2	315621,74	0,0100000007	2,5965941	2,779645199489055E-005	0,010006530043345558	2,59828976E-005	0,072263384210775117	-0,0026962440240574272	0,082416005736992064
1	1	0	0	0	0	2	315761,74	0,0100000007	2,59720516	2,7796074650612554E-005	0,010006394202021093	2,59886583E-005	0,072652533217977958	-0,0027107636967325699	0,082805154744194906
1	1	0	0	0	0	2	315901,74	0,0100000007	2,59779716	2,7796819945900803E-005	0,010006662502692784	2,59952794E-005	0,073041684132878016	-0,0027252834405864605	0,08319430565909495
1	1	0	0	0	0	2	316041,75	0,0100000007	2,5982554	2,7796627650968733E-005	0,01000659327785016	2,5999685E-005	0,073430835042259277	-0,0027398031842344378	0,083583456568476224
1	1	0	0	0	0	2	316181,75	0,0100000007	2,59875178	2,7797025803942234E-005	0,010006736610277256	2,60050238E-005	0,073819989006433702	-0,0027543230418608554	0,08397261053265065
1	1	0	0	0	0	2	316321,75	0,0100000007	2,59928656	2,7796295640472739E-005	0,010006473756547715	2,60096931E-005	0,074209144969591936	-0,0027688429740720461	0,084361766495808883
1	1	0	0	0	0	2	316461,75	0,0100000007	2,59982109	2,7796756828410755E-005	0,010006639780833877	2,60154738E-005	0,074598300473249472	-0,0027833628891386483	0,084750921999466419
1	1	0	0	0	0	2	316601,76	0,0100000007	2,60045123	2,7797355256974698E-005	0,010006855210968798	2,60223387E-005	0,074987457368821504	-0,0027978828561394522	0,085140078895038451
1	1	0	0	0	0	2	316741,76	0,0100000007	2,60094786	2,7796812864641347E-005	0,010006659953954429	2,60268007E-005	0,075376618163905293	-0,0028124029686362816	0,08552923969012224
1	1	0	0	0	0	2	316881,76	0,0100000007	2,60142517	2,7797191031121955E-005	0,010006796091266138	2,60319321E-005	0,07576577474568087	-0,0028269229239289178	0,085918396271897818
1	1	0	0	0	0	2	317021,76	0,0100000007	2,60194063	2,7797309185636954E-005	0,010006838626072531	2,60371999E-005	0,076154931515897894	-0,0028414428862525565	0,086307553042114829
1	1	0	0	0	0	2	317161,77	0,0100000007	2,60249448	2,7796449128745328E-005	0,010006529011553146	2,60419365E-005	0,07654408815557929	-0,002855962843705737	0,086696709681796237
1	1	0	0	0	0	2	317301,77	0,0100000007	2,60293365	2,7797159824054688E-005	0,010006784856938235	2,60469969E-005	0,076933240636623936	-0,0028704826459945878	0,087085862162840883
1	1	0	0	0	0	2	317441,77	0,0100000007	2,60356379	2,7796966720631139E-005	0,01000671534104428	2,60531215E-005	0,077322402446739008	-0,0028850027963636	0,087475023972955955
1	1	0	0	0	0	2	317581,78	0,0100000007	2,60411739	2,7796763217180138E-005	0,01000664208074657	2,60584711E-005	0,077711560272866112	-0,0028995227980846643	0,087864181799083059
1	1	0	0	0	0	2	317721,78	0,0100000007	2,60461402	2,7796841667344173E-005	0,010006670322494814	2,60635134E-005	0,078100718134185075	-0,002914042801118784	0,088253339660402022
1	1	0	0	0	0	2	317861,78	0,0100000007	2,60491943	2,7797161810255296E-005	0,01000678557160721	2,60668694E-005	0,078489880411796659	-0,0029285629689307194	0,088642501938013606
1	1	0	0	0	0	2	318001,78	0,0100000007	2,60551143	2,7797456383549917E-005	0,010006891615834902	2,60730703E-005	0,078879038499462554	-0,0029430829804101472	0,089031660025679501
1	1	0	0	0	0	2	318141,79	0,0100000007	2,60596967	2,7797180534288701E-005	0,010006792312012957	2,60773977E-005	0,079268199411822797	-0,00295760309728272	0,089420820938039744
1	1	0	0	0	0	2	318281,79	0,0100000007	2,60640883	2,7797251751491181E-005	0,010006817949712195	2,60818579E-005	0,079657357712752666	-0,0029721231167193133	0,0898099792389696
1	1	0	0	0	0	2	318421,79	0,0100000007	2,60694361	2,7797234424131197E-005	0,01000681171244868	2,6087193E-005	0,080046515144191155	-0,0029866431037140147	0,090199136670408102
1	1	0	0	0	0	2	318561,79	0,0100000007	2,60728717	2,7797049414521706E-005	0,01000674511027168	2,60904581E-005	0,080435670338450752	-0,0030011630072365638	0,090588291864667699
1	1	0	0	0	0	2	318701,80	0,0100000007	2,60782194	2,7796817077582496E-005	0,010006661470584038	2,60955912E-005	0,080824826228558592	-0,0030156829367221466	0,090977447754775539
1	1	0	0	0	0	2	318841,80	0,0100000007	2,60828018	2,7797493810299786E-005	0,010006905089671398	2,61008117E-005	0,081213987569967565	-0,0030302030696031034	0,091366609096184512
1	1	0	0	0	0	2	318981,80	0,0100000007	2,60866213	2,779776937369671E-005	0,010007004290584189	2,61048935E-005	0,081603149548908672	-0,0030447232262712416	0,091755771075125619
1	1	0	0	0	0	2	319121,80	0,0100000007	2,60906315	2,7797100877751494E-005	0,010006763636211712	2,61082787E-005	0,081992309311557478	-0,0030592433002465344	0,092144930837774413
1	1	0	0	0	0	2	319261,81	0,0100000007	2,60959768	2,7796859345398842E-005	0,010006676686238976	2,6113401E-005	0,082381466156041792	-0,0030737632653411866	0,092534087682258739
1	1	0	0	0	0	2	319401,81	0,0100000007	2,61005592	2,7797121907739587E-005	0,010006771207094638	2,61182322E-005	0,082770626190534323	-0,0030882833494593338	0,09292324771675127
1	1	0	0	0	0	2	319541,81	0,0100000007	2,61057162	2,7796740169740384E-005	0,010006633783944504	2,61230343E-005	0,083159787842296806	-0,0031028034939199974	0,093312409368513741
1	1	0	0	0	0	2	319681,82	0,0100000007	2,6109345	2,7796782270332589E-005	0,010006648939982363	2,61267051E-005	0,083548943214580838	-0,0031173234040848781	0,093701564740797786
1	1	0	0	0	0	2	319821,82	0,0100000007	2,61150718	2,7797177248530918E-005	0,01000679112916293	2,61328078E-005	0,083938103052761728	-0,0031318434808783738	0,094090724578978675
1	1	0	0	0	0	2	319961,82	0,0100000007	2,61194634	2,7797292580000227E-005	0,010006832648158414	2,61373098E-005	0,084327263874707853	-0,0031463635943774733	0,094479885400924787
1	1	0	0	0	0	2	320101,82	0,0100000007	2,61229014	2,7796645131738237E-005	0,010006599571271971	2,61401419E-005	0,084716424821147251	-0,0031608837125215846	0,094869046347364186
1	1	0	0	0	0	2	320241,83	0,0100000007	2,6128056	2,7797317380240806E-005	0,010006841576073117	2,61459318E-005	0,085105578896933888	-0,0031754035743124045	0,095258200423150835
1	1	0	0	0	0	2	320381,83	0,0100000007	2,61328316	2,7797220227412048E-005	0,010006806601728192	2,61506193E-005	0,085494734822698739	-0,0031899235051283981	0,095647356348915686
1	1	0	0	0	0	2	320521,83	0,0100000007	2,61377954	2,7797375447944634E-005	0,01000686248004399	2,61557325E-005	0,085883895960905613	-0,0032044436304276109	0,096036517487122547
1	1	0	0	0	0	2	320661,83	0,0100000007	2,61416149	2,7797444367056918E-005	0,010006887290446691	2,61596197E-005	0,086273058889950234	-0,0032189638225453894	0,096425680416167181
1	1	0	0	0	0	2	320801,84	0,0100000007	2,61461973	2,7797485571406368E-005	0,010006902123260906	2,61642435E-005	0,086662221358053632	-0,0032334839974648301	0,096814842884270566
1	1	0	0	0	0	2	320941,84	0,0100000007	2,61513519	2,7797269885945651E-005	0,010006824478223088	2,61691985E-005	0,087051380196289498	-0,003248004036949033	0,097204001722506445
1	1	0	0	0	0	2	321081,84	0,0100000007	2,61544085	2,779677078055425E-005	0,010006644803625312	2,61717869E-005	0,087440539180962035	-0,003262524081896985	0,097593160707178982
1	1	0	0	0	0	2	321221,85	0,0100000007	2,61589909	2,779756424839919E-005	0,010006930446549453	2,61771202E-005	0,087829703352968768	-0,003277044320391351	0,097982324879185715
1	1	0	0	0	0	2	321361,85	0,0100000007	2,6163764	2,7796958160431437E-005	0,010006712258965757	2,61813257E-005	0,088218864240484109	-0,0032915644363369261	0,098371485766701056
1	1	0	0	0	0	2	321501,85	0,0100000007	2,61694932	2,7797581738067997E-005	0,010006936742592499	2,61876467E-005	0,088608023442382874	-0,0033060844893898803	0,098760644968599821
1	1	0	0	0	0	2	321641,85	0,0100000007	2,61721659	2,7797474616207184E-005	0,01000689817993111	2,61902205E-005	0,08899718817763767	-0,0033206047488997888	0,099149809703854618
1	1	0	0	0	0	2	321781,86	0,0100000007	2,61773229	2,7797974992077798E-005	0,010007078311776109	2,61958521E-005	0,08938635424885623	-0,0033351250582563008	0,099538975775073178
1	1	0	0	0	0	2	321921,86	0,0100000007	2,61815238	2,7798117528928237E-005	0,010007129624054254	2,62001904E-005	0,089775522084625446	-0,0033496454334505702	0,099928143610842394
1	1	0	0	0	0	2	321971,14	0,0100000007	2,61836243	2,5796079257451411E-005	0,010006891500973304	2,62016692E-005	0,089912508655993728	-0,0033547565866087251	0,10006513018221067