File: Experimentelles/Rohdaten/Batteriemessungen/AlteZelle/150511_LLTO_LTO_Tests/ECLab-Export/LLTO_LP30_LTO_02_CV_C01_loop4.mpt
EC-Lab ASCII FILE
Nb header lines : 3
mode	ox/red	error	control changes	counter inc.	time/s	control/V	Ewe/V	<I>/mA	cycle number	(Q-Qo)/C	P/W
2	1	0	0	0	3744,10	0,271591902	0,272242069	-0,61854028701782221	5	0	0,000168392682
2	1	0	0	0	3745,53	0,285892904	0,286186129	-0,32799741967270733	5	-0,000621820334	9,38683152E-005
2	1	0	1	0	3746,98	0,300394028	0,300691605	-0,20523060703029315	5	-0,000999790849	6,17111218E-005
2	1	0	1	0	3748,43	0,314895123	0,31516704	-0,12893286859616682	5	-0,00123727135	4,06353902E-005
2	1	0	0	0	3749,88	0,329396218	0,329822898	-0,079534845620704346	5	-0,00138542859	2,62324138E-005
2	1	0	0	0	3751,37	0,344297379	0,344599068	-0,046560368326027059	5	-0,00147683045	1,60446598E-005
2	1	0	1	0	3752,82	0,358798474	0,359144628	-0,024514846484331968	5	-0,00152651512	8,80437528E-006
2	1	0	1	0	3754,27	0,373299569	0,373600006	-0,0093316697893896934	5	-0,00154961506	3,48631193E-006
2	1	0	0	0	3755,76	0,38820073	0,388626814	0,0021880191610155891	5	-0,0015540818	8,5032292E-007
2	1	0	1	0	3757,25	0,403102338	0,403312892	0,010272851315214798	5	-0,00154415553	4,14317356E-006
2	1	0	1	0	3758,70	0,417602926	0,418088883	0,016577068265178186	5	-0,00152407761	6,93068796E-006
2	1	0	0	0	3760,15	0,432104051	0,432624429	0,021691294765332602	5	-0,0014957831	9,38418361E-006
2	1	0	0	0	3761,60	0,446605146	0,446899354	0,025683616840979002	5	-0,00146069052	1,14779914E-005
2	1	0	1	0	3763,05	0,461106271	0,461515129	0,02949911111500103	5	-0,0014199398	1,36142862E-005
2	1	0	1	0	3764,50	0,475607365	0,475790054	0,032926348552185344	5	-0,00137392536	1,56660299E-005
2	1	0	0	0	3765,95	0,49010849	0,490385801	0,036077079217648243	5	-0,00132322207	1,76916874E-005
2	1	0	0	0	3767,40	0,504609585	0,5051319	0,038773905873919488	5	-0,00126822386	1,95859375E-005
2	1	0	1	0	3768,85	0,51911068	0,519577205	0,041606792695044192	5	-0,00120923575	2,16179415E-005
2	1	0	0	0	3770,30	0,533611834	0,534012496	0,044088855288767661	5	-0,00114645448	2,35440002E-005
2	1	0	0	0	3771,75	0,548112929	0,548628271	0,046556592462972333	5	-0,00108004129	2,55422619E-005
2	1	0	1	0	3773,20	0,562614024	0,562883139	0,04870196885895001	5	-0,00101023575	2,74135164E-005
2	1	0	1	0	3774,65	0,577115119	0,577629268	0,051292647180768371	5	-0,000936903758	2,96281341E-005
2	1	0	0	0	3776,10	0,591616213	0,592114687	0,053787653218023482	5	-0,000860170228	3,18484599E-005
2	1	0	0	0	3777,55	0,606117308	0,606459796	0,056155360245611296	5	-0,000779949711	3,40559673E-005
2	1	0	1	0	3779,00	0,620618463	0,620945215	0,05877313322465239	5	-0,00069629628	3,64948974E-005
2	1	0	1	0	3780,45	0,635119617	0,635400593	0,06107844315314048	5	-0,00060907047	3,88092776E-005
2	1	0	0	0	3781,90	0,649620652	0,649846017	0,06364836322609335	5	-0,000518253888	4,13616362E-005
2	1	0	1	0	3783,35	0,664121747	0,664531946	0,065709878612930432	5	-0,000423836114	4,3666314E-005
2	1	0	1	0	3784,80	0,678622901	0,678796828	0,068436294134395725	5	-0,000325801026	4,64543409E-005
2	1	0	0	0	3786,26	0,693124056	0,69329226	0,070787282059124326	5	-0,000224213072	4,90762759E-005
2	1	0	0	0	3787,71	0,707625091	0,708198726	0,073162503598723507	5	-0,000119177719	5,1813593E-005
2	1	0	1	0	3789,16	0,722126186	0,72258395	0,075326485462331443	5	-1,09209814E-005	5,44297109E-005
2	1	0	1	0	3790,61	0,73662734	0,737129569	0,077294641096765645	5	0,00010035243	5,69761651E-005
2	1	0	0	0	3792,06	0,751128495	0,751574934	0,079039252382547776	5	0,000214371699	5,94039193E-005
2	1	0	0	0	3793,51	0,76562953	0,766040325	0,080625107026814246	5	0,000330799172	6,17620826E-005
2	1	0	1	0	3794,96	0,780130684	0,780385375	0,081747972270629133	5	0,000449389976	6,37949197E-005
2	1	0	0	0	3796,41	0,79463166	0,795111418	0,083138947627352077	5	0,000569859927	6,61047234E-005
2	1	0	0	0	3797,86	0,809132814	0,809376299	0,084293708205223782	5	0,000691960333	6,82253303E-005
2	1	0	1	0	3799,31	0,823633969	0,824012101	0,085258596266309158	5	0,000815413077	7,02541147E-005
2	1	0	1	0	3800,76	0,838135064	0,838818371	0,086008608399424384	5	0,00093998079	7,21456017E-005
2	1	0	0	0	3802,21	0,852636099	0,853083253	0,086559177104693965	5	0,00106548064	7,38421877E-005
2	1	0	0	0	3803,66	0,867137194	0,867658913	0,087083264273436096	5	0,0011917185	7,55585716E-005
2	1	0	1	0	3805,11	0,881638467	0,882254601	0,086952596883444838	5	0,00131857547	7,67143283E-005
2	1	0	1	0	3806,56	0,896139503	0,896549642	0,087500591684753101	5	0,00144581031	7,84486256E-005
2	1	0	1	0	3807,93	0,909840465	0,910273254	0,087584069658380723	5	0,00156643579	7,97254324E-005
2	1	0	1	0	3809,38	0,92434144	0,924998462	0,087839814444098829	5	0,00169431453	8,12516955E-005
2	1	0	0	0	3810,83	0,938842714	0,939464629	0,088064558260763648	5	0,00182244508	8,27335389E-005
2	1	0	1	0	3812,28	0,953343868	0,953849852	0,088358045187002406	5	0,00195072941	8,42803056E-005
2	1	0	1	0	3813,73	0,967844903	0,968285143	0,088283685365847078	5	0,00207913085	8,54837781E-005
2	1	0	0	0	3815,18	0,982346058	0,982760608	0,08845031030553696	5	0,00220767478	8,692548E-005
2	1	0	0	0	3816,63	0,996847153	0,997446537	0,088091057744653645	5	0,0023362427	8,78661231E-005
2	1	0	1	0	3818,08	1,01134825	1,01171136	0,088389292242936717	5	0,00246494915	8,94244513E-005
2	1	0	1	0	3819,53	1,02584946	1,02625692	0,088416269243074112	5	0,00259368378	9,07378053E-005
2	1	0	0	0	3820,98	1,04035044	1,04070234	0,088473351730499418	5	0,00272254786	9,20744278E-005
2	1	0	1	0	3822,43	1,05485153	1,05514765	0,088533268102134349	5	0,00285147759	9,34156706E-005
2	1	0	1	0	3823,88	1,06935263	1,0698837	0,088633024715818355	5	0,00298051978	9,48270317E-005
2	1	0	0	0	3825,33	1,08385372	1,08449948	0,088765442507186278	5	0,00310975057	9,62660779E-005
2	1	0	0	0	3826,78	1,0983547	1,09898484	0,088961767226767962	5	0,00323918741	9,77676318E-005
2	1	0	1	0	3828,23	1,11285603	1,11335015	0,088897399216269376	5	0,00336889271	9,89739347E-005
2	1	0	1	0	3829,68	1,12735713	1,12765515	0,089216200188578342	5	0,00349889952	0,00010060511
2	1	0	0	0	3831,13	1,14185822	1,14228082	0,089502179393700198	5	0,00362929027	0,00010223662
2	1	0	0	0	3832,58	1,15635931	1,15712726	0,089966611975493389	5	0,00376004935	0,000104102823
2	1	0	1	0	3834,03	1,17086041	1,17132199	0,090335497244571571	5	0,0038913053	0,000105811952
2	1	0	1	0	3835,48	1,18536067	1,18586707	0,090940990040100032	5	0,00402316637	0,000107843924
2	1	0	0	0	3836,93	1,1998626	1,20028281	0,091564058947066406	5	0,00415574666	0,000109902765
2	1	0	1	0	3838,38	1,21436369	1,21476829	0,091626116462672486	5	0,0042891684	0,0001113045
2	1	0	1	0	3839,83	1,22886467	1,22928381	0,092417001491412442	5	0,00442332402	0,000113606722
2	1	0	0	0	3841,28	1,243366	1,24391949	0,092631409817840909	5	0,00455811573	0,000115226016
2	1	0	0	0	3842,73	1,25786698	1,25816441	0,092606133917191296	5	0,00469300337	0,000116513744
2	1	0	1	0	3844,18	1,27236819	1,27285028	0,091848903820694771	5	0,0048275697	0,000116909905
2	1	0	1	0	3845,63	1,28686929	1,28739607	0,091608512040693094	5	0,00496130949	0,000117936441
2	1	0	0	0	3847,08	1,30137026	1,30161083	0,090796999827337613	5	0,00509415939	0,000118182361
2	1	0	0	0	3848,53	1,31587172	1,31645739	0,090184037883798362	5	0,0052260356	0,000118723445
2	1	0	1	0	3849,98	1,33037257	1,33085227	0,089253135995628787	5	0,00535686221	0,000118782737
2	1	0	0	0	3851,43	1,34487355	1,34520745	0,088608203358792934	5	0,00548671419	0,000119196418
2	1	0	0	0	3852,88	1,35937476	1,35974312	0,087572419802502861	5	0,00561525114	0,000119075994
2	1	0	1	0	3854,33	1,37387598	1,37437892	0,086396126173591718	5	0,00574217597	0,000118741016
2	1	0	1	0	3855,78	1,38837695	1,38893449	0,08506329838807369	5	0,00586703792	0,000118147349
2	1	0	0	0	3857,23	1,40287817	1,40340984	0,083777924863776666	5	0,00598992733	0,000117574768
2	1	0	0	0	3858,68	1,41737926	1,4180758	0,082599883433431168	5	0,00611086376	0,000117132899
2	1	0	1	0	3860,13	1,43188024	1,43233061	0,081142192046778752	5	0,00623015501	0,000116222443
2	1	0	1	0	3861,58	1,44638145	1,44673586	0,080905556678771866	5	0,00634831423	0,00011704897
2	1	0	0	0	3863,03	1,46088254	1,46136165	0,080557763518299802	5	0,0064658029	0,000117724026
2	1	0	1	0	3864,48	1,47538352	1,47598743	0,080581126657004237	5	0,00658310298	0,000118936732
2	1	0	1	0	3865,93	1,48988473	1,49024236	0,080718948214780544	5	0,00670048548	0,000120290795
2	1	0	0	0	3867,38	1,50438583	1,50492823	0,081124498256637146	5	0,00681838207	0,000122086552
2	1	0	0	0	3868,83	1,51888692	1,51936364	0,081726154875165325	5	0,00693703117	0,000124171755
2	1	0	1	0	3870,28	1,53338814	1,53396928	0,082481248769908915	5	0,00705662649	0,000126523708
2	1	0	1	0	3871,73	1,54788911	1,54823434	0,083067948212071309	5	0,00717736501	0,000128608648
2	1	0	0	0	3873,18	1,56239021	1,56319082	0,084192199108656499	5	0,00729947211	0,000131608467
2	1	0	0	0	3874,63	1,5768913	1,57756591	0,085341311777786688	5	0,00742315361	0,00013463154
2	1	0	1	0	3876,08	1,5913924	1,5918709	0,086600254251000934	5	0,00754845701	0,000137856419
2	1	0	0	0	3877,53	1,60589337	1,60648668	0,087858988612424576	5	0,00767565705	0,000141144294
2	1	0	0	0	3878,98	1,62039471	1,62093222	0,089366740993379162	5	0,00780481193	0,000144857433
2	1	0	1	0	3880,43	1,6348958	1,63542747	0,09091669293896631	5	0,00793601107	0,000148687657
2	1	0	1	0	3881,88	1,64939678	1,64990306	0,092096223883951667	5	0,00806936529	0,000151949847
2	1	0	0	0	3883,33	1,66389811	1,66431832	0,09391369885997824	5	0,00820489787	0,000156302296
2	1	0	0	0	3884,78	1,67839909	1,6788739	0,095524055107186317	5	0,00834279135	0,000160372845
2	1	0	1	0	3886,23	1,69290018	1,69324911	0,097270465009690496	5	0,00848307647	0,000164703131
2	1	0	1	0	3887,72	1,70780206	1,70825577	0,098541458497135808	5	0,00862972811	0,000168334009
2	1	0	0	0	3889,17	1,72230244	1,72296178	0,10057990299537766	5	0,00877492409	0,000173295324
2	1	0	1	0	3890,62	1,73680353	1,73740697	0,10215646645519894	5	0,00892265141	0,000177487353
2	1	0	1	0	3892,07	1,75130451	1,75183237	0,10387821677916987	5	0,00907284953	0,000181977215
2	1	0	0	0	3893,52	1,76580584	1,76631784	0,10530905623454578	5	0,00922551844	0,00018600926
2	1	0	0	0	3894,97	1,78030682	1,78083348	0,10732141820092982	5	0,00938077457	0,00019112158
2	1	0	1	0	3896,42	1,79480791	1,79511821	0,10916324076242723	5	0,00953850895	0,000195960922
2	1	0	1	0	3897,87	1,80930901	1,8098141	0,11095699186747221	5	0,00969883148	0,000200811526
2	1	0	0	0	3899,32	1,82381022	1,82447016	0,11296302631187016	5	0,00986172818	0,000206097669
2	1	0	0	0	3900,77	1,83831131	1,83881521	0,11465854512061878	5	0,0100272344	0,000210835875
2	1	0	1	0	3902,22	1,85281241	1,85342109	0,11643726452408986	5	0,0101952655	0,000215807275
2	1	0	0	0	3903,67	1,86731339	1,86797678	0,11775250015004234	5	0,0103658279	0,000219958936
2	1	0	0	0	3905,12	1,88181472	1,88240194	0,11969223075235914	5	0,0105389059	0,00022530889
2	1	0	1	0	3906,57	1,89631581	1,89696753	0,12143046839628368	5	0,0107145524	0,000230349659
2	1	0	1	0	3908,02	1,91081679	1,91135275	0,12339030376945949	5	0,0108926995	0,000235842395
2	1	0	0	0	3909,48	1,92531788	1,92570794	0,12493782420642667	5	0,0110733453	0,000240593756
2	1	0	0	0	3910,93	1,93981898	1,9401933	0,126567208984246	5	0,0112563968	0,00024556485
2	1	0	1	0	3912,38	1,95432019	1,9547087	0,12812767907356203	5	0,0114419013	0,000250452285
2	1	0	1	0	3913,83	1,96882129	1,96942472	0,129800916610596	5	0,0116296746	0,000255633146
2	1	0	0	0	3915,28	1,98332238	1,98393035	0,1309729561908175	5	0,0118197082	0,00025984121
2	1	0	1	0	3916,73	1,9978236	1,99846578	0,13260779223249664	5	0,0120118968	0,000265012146
2	1	0	1	0	3918,18	2,01232457	2,0130415	0,13416035322006758	5	0,0122062871	0,000270070363
2	1	0	0	0	3919,63	2,02682567	2,02738667	0,13567681044029678	5	0,0124027347	0,000275069353
2	1	0	0	0	3921,08	2,04132676	2,04189229	0,13715277654894931	5	0,0126012247	0,000280051201
2	1	0	1	0	3922,53	2,05582786	2,05628729	0,13854681296894955	5	0,0128016854	0,000284892041
2	1	0	1	0	3923,98	2,07032895	2,07091308	0,13986062565042357	5	0,0130039658	0,000289639196
2	1	0	0	0	3925,43	2,08483005	2,08544874	0,14057719668683907	5	0,0132081434	0,000293166551
2	1	0	0	0	3926,88	2,09933162	2,09986401	0,1419810676604547	5	0,0134138381	0,00029814092
2	1	0	1	0	3928,33	2,11383224	2,1142993	0,14311532121306936	5	0,0136213265	0,000302588625
2	1	0	0	0	3929,78	2,12833333	2,12891507	0,14435606282980419	5	0,0138304504	0,00030732181
2	1	0	0	0	3931,23	2,14283466	2,14334035	0,14533506190249069	5	0,0140411919	0,000311502488
2	1	0	1	0	3932,68	2,15733552	2,15809679	0,14644189279836896	5	0,0142534673	0,000316035788
2	1	0	1	0	3934,13	2,17183661	2,17225122	0,14736916485708272	5	0,0144672142	0,000320122839
2	1	0	0	0	3935,58	2,18633771	2,18698716	0,14845989896760669	5	0,0146824997	0,000324679888
2	1	0	0	0	3937,03	2,2008388	2,20134211	0,14904226234648333	5	0,0148990965	0,00032809301
2	1	0	1	0	3938,48	2,2153399	2,21600819	0,15020955097861587	5	0,0151173081	0,000332865602
2	1	0	1	0	3939,93	2,22984076	2,2304225	0,15127983676877034	5	0,0153369103	0,000337417965
2	1	0	0	0	3941,38	2,24434233	2,24503922	0,1525125398378191	5	0,0155581422	0,000342396641
2	1	0	1	0	3942,83	2,25884342	2,25942445	0,1536180181040736	5	0,0157808531	0,000347088295
2	1	0	1	0	3944,28	2,27334452	2,2737093	0,15480300687098224	5	0,0160051212	0,00035197704
2	1	0	0	0	3945,73	2,28784561	2,28829503	0,15614129486493798	5	0,01623106	0,000357297336
2	1	0	0	0	3947,18	2,30234671	2,30312133	0,15682912990450925	5	0,0164586157	0,000361196522
2	1	0	1	0	3948,63	2,3168478	2,31771708	0,15830010121377859	5	0,0166880004	0,000366894848
2	1	0	1	0	3950,08	2,33134866	2,33200216	0,15959553366216499	5	0,0169191845	0,000372177135
2	1	0	0	0	3951,53	2,34584999	2,34659743	0,16106358508113728	5	0,0171523225	0,000377951394
2	1	0	0	0	3952,98	2,3603518	2,36103368	0,16230820628757136	5	0,0173873827	0,000383215141
2	1	0	1	0	3954,43	2,37485218	2,37544847	0,16359902852370118	5	0,0176243987	0,000388621062
2	1	0	0	0	3955,88	2,38935328	2,39010429	0,16507581128583594	5	0,0178634468	0,000394548406
2	1	0	0	0	3957,33	2,40385437	2,40433884	0,16647284757345872	5	0,0181044303	0,000400257122
2	1	0	1	0	3958,78	2,41835546	2,41904497	0,16742369427811331	5	0,0183474794	0,000405005441
2	1	0	1	0	3960,23	2,43285656	2,43342018	0,16904624931824698	5	0,0185925197	0,000411360554
2	1	0	0	0	3961,68	2,44735765	2,44782567	0,17052616178989443	5	0,0188397206	0,000417418312
2	1	0	0	0	3963,13	2,46185899	2,46228075	0,17200112661036272	5	0,0190889481	0,00042351507
2	1	0	1	0	3964,58	2,47636008	2,47688651	0,17337589877812797	5	0,0193403028	0,000429432432
2	1	0	1	0	3966,03	2,49086118	2,49152231	0,17505776959781837	5	0,0195937175	0,000436160335
2	1	0	0	0	3967,48	2,50536227	2,50591779	0,17630706906008186	5	0,0198490247	0,000441811018
2	1	0	1	0	3968,93	2,51986337	2,5205133	0,1775137813917047	5	0,0201064497	0,000447425846
2	1	0	1	0	3970,38	2,53436446	2,53484845	0,17913106646543974	5	0,0203658454	0,000454070105
2	1	0	0	0	3971,83	2,54886556	2,54952431	0,18056785920634854	5	0,0206273589	0,000460362149
2	1	0	0	0	3973,28	2,56336665	2,56406999	0,18206404021475398	5	0,0208908822	0,000466824946
2	1	0	1	0	3974,73	2,57786775	2,57865548	0,1833747427832959	5	0,0211565327	0,000472860294
2	1	0	1	0	3976,18	2,59236884	2,59283018	0,18492341142458256	5	0,0214242432	0,000479475013
2	1	0	0	0	3977,63	2,60686994	2,60732579	0,18632590246852531	5	0,0216941014	0,000485812343
2	1	0	0	0	3979,08	2,62137103	2,62195158	0,18791784460494342	5	0,0219661389	0,000492711493
2	1	0	1	0	3980,53	2,63587213	2,63646698	0,18910809850785837	5	0,0222404413	0,000498577254
2	1	0	0	0	3981,98	2,65037322	2,65087223	0,19097498544336534	5	0,0225170981	0,000506250304
2	1	0	0	0	3983,43	2,66487432	2,66563845	0,19261790361876275	5	0,0227961149	0,000513449661
2	1	0	1	0	3984,88	2,67937541	2,68002367	0,19441650357718253	5	0,0230776761	0,000521040813
2	1	0	1	0	3986,33	2,69387674	2,69443893	0,1960391498481231	5	0,0233615786	0,000528215547
2	1	0	0	0	3987,78	2,70837784	2,7087841	0,19759931780087302	5	0,0236478783	0,000535253901
2	1	0	0	0	3989,23	2,72287893	2,72352004	0,1993490544458223	5	0,0239364486	0,000542931142
2	1	0	1	0	3990,68	2,73738003	2,7380054	0,20071395696140826	5	0,024227323	0,000549555873
2	1	0	1	0	3992,13	2,75188088	2,75240064	0,20244921509162995	5	0,0245203879	0,000557221356
2	1	0	0	0	3993,58	2,76638222	2,76704669	0,204069886511812	5	0,024815781	0,000564670889
2	1	0	1	0	3995,03	2,78088331	2,78152204	0,20587782980874093	5	0,0251135994	0,00057265372
2	1	0	1	0	3996,48	2,79538441	2,79615784	0,20750454704587629	5	0,0254138187	0,000580215477
2	1	0	0	0	3997,93	2,8098855	2,81050277	0,20921960294557139	5	0,025716614	0,000588012277
2	1	0	0	0	3999,38	2,8243866	2,82489824	0,21117197372950614	5	0,0260219872	0,00059653935
2	1	0	1	0	4000,83	2,83888769	2,83954406	0,21315102667237306	5	0,0263302494	0,000605251756
2	1	0	1	0	4002,28	2,85338879	2,85391927	0,21489060142387894	5	0,0266415104	0,000613280456
2	1	0	0	0	4003,73	2,86788988	2,86841464	0,2172809166368097	5	0,0269559678	0,000623251777
2	1	0	0	0	4005,18	2,8823905	2,88281965	0,21977243688895597	5	0,0272737872	0,000633564312
2	1	0	1	0	4006,63	2,89689207	2,89749575	0,22226965574858083	5	0,0275950879	0,000644025393
2	1	0	0	0	4008,08	2,91139293	2,91196108	0,22453272707449923	5	0,0279201213	0,00065383059
2	1	0	0	0	4009,53	2,92589426	2,92626643	0,22765072163504829	5	0,0282488875	0,000666166656
2	1	0	1	0	4010,98	2,94039536	2,94098234	0,23056813663182218	5	0,0285819527	0,00067809684
2	1	0	1	0	4012,43	2,95489669	2,95537734	0,23373614383550922	5	0,028919505	0,000690778485
2	1	0	0	0	4013,88	2,96939778	2,96972275	0,23702811566181482	5	0,0292616636	0,000703907805
2	1	0	0	0	4015,33	2,98389888	2,98453879	0,24074881151318595	5	0,0296088308	0,000718524156
2	1	0	1	0	4016,78	2,99839997	2,99917459	0,24451106856577043	5	0,0299612097	0,00073333137
2	1	0	1	0	4018,23	3,01290178	3,01362991	0,24807298176385965	5	0,0303190406	0,000747600163
2	1	0	0	0	4019,68	3,02740216	3,02799511	0,25230166083201766	5	0,0306824315	0,000763968215
2	1	0	1	0	4021,13	3,04190326	3,04269099	0,25620892360495939	5	0,0310517568	0,000779564609
2	1	0	1	0	4022,58	3,05640435	3,05690575	0,26073675222384464	5	0,031427186	0,000797047687
2	1	0	0	0	4024,03	3,07090545	3,07157183	0,26469344149033146	5	0,0318090841	0,000813024933
2	1	0	0	0	4025,48	3,08540654	3,08596706	0,26988163070442717	5	0,0321977735	0,000832845806
2	1	0	1	0	4026,93	3,09990764	3,10030198	0,2748889909901968	5	0,0325936712	0,000852238911
2	1	0	1	0	4028,38	3,11440873	3,11512828	0,28037754624771603	5	0,0329971984	0,000873412006
2	1	0	0	0	4029,83	3,12890959	3,12957335	0,28606785096538534	5	0,0334086791	0,000895270321
2	1	0	0	0	4031,28	3,14341068	3,14383864	0,29200982488691629	5	0,0338286944	0,000918031787
2	1	0	1	0	4032,73	3,15791178	3,15849423	0,29835509213929254	5	0,034257628	0,00094235281
2	1	0	1	0	4034,18	3,17241216	3,17292833	0,30494253001289363	5	0,0346958824	0,000967560802
2	1	0	0	0	4035,63	3,18691421	3,1876359	0,31188551631445626	5	0,0351440534	0,000994177419
2	1	0	1	0	4037,08	3,2014153	3,20182061	0,31954100650424762	5	0,0356027856	0,00102311303
2	1	0	1	0	4038,53	3,2159164	3,21677685	0,32795775022047296	5	0,0360729322	0,00105496694
2	1	0	0	0	4039,99	3,23041749	3,23095155	0,33671925015126637	5	0,0365551934	0,00108792353
2	1	0	0	0	4041,44	3,24491858	3,24553728	0,34611672675236883	5	0,0370506644	0,00112333475
2	1	0	1	0	4042,89	3,25941944	3,26009297	0,35625090061997165	5	0,0375603512	0,00116141106
2	1	0	1	0	4044,34	3,27392101	3,27457857	0,36733933701179923	5	0,0380853228	0,00120288157
2	1	0	0	0	4045,79	3,28842211	3,28908396	0,37857944153559718	5	0,0386269204	0,00124517956
2	1	0	1	0	4047,24	3,30292392	3,30355859	0,39144502013655648	5	0,0391861312	0,00129316153
2	1	0	1	0	4048,69	3,31742406	3,31794453	0,40500530973076864	5	0,0397644117	0,0013437852
2	1	0	0	0	4050,14	3,33192515	3,3326807	0,41995696319888154	5	0,0403634384	0,00139958248
2	1	0	0	0	4051,59	3,34642625	3,34710622	0,43501373426988896	5	0,0409840941	0,00145603716
2	1	0	1	0	4053,04	3,36092734	3,3617816	0,45133005548268378	5	0,0416275524	0,00151727302
2	1	0	1	0	4054,49	3,37542844	3,37611675	0,46797031816095117	5	0,0422948264	0,00157992239
2	1	0	0	0	4055,94	3,38992953	3,39069247	0,48545277118682842	5	0,0429869704	0,00164602103
2	1	0	0	0	4057,39	3,40443063	3,40519786	0,50352633651346144	5	0,0437049605	0,00171460677
2	1	0	1	0	4058,84	3,41893172	3,41960335	0,5227566192236992	5	0,044450108	0,00178762025
2	1	0	0	0	4060,29	3,43343258	3,43392849	0,54180042709534426	5	0,0452226773	0,00186050392
2	1	0	0	0	4061,74	3,44793415	3,44844365	0,5610260364289088	5	0,0460229777	0,00193466665
2	1	0	1	0	4063,19	3,46243525	3,46324992	0,58072153556470771	5	0,0468513891	0,00201118388
2	1	0	1	0	4064,64	3,47693634	3,47771549	0,60051815242816973	5	0,0477083586	0,00208843127
2	1	0	0	0	4066,09	3,49143744	3,4920907	0,62098820957665344	5	0,0485945381	0,00216854713
2	1	0	0	0	4067,54	3,50593829	3,50663614	0,64080112598215373	5	0,0495100841	0,00224705646
2	1	0	1	0	4068,99	3,52043986	3,52120161	0,66217658855020826	5	0,0504559577	0,00233165734
2	1	0	1	0	4070,44	3,53494096	3,53585768	0,68325031020988659	5	0,0514322706	0,0024158759
2	1	0	0	0	4071,89	3,54944205	3,55030322	0,70493071433156634	5	0,0524398163	0,00250271778
2	1	0	1	0	4073,34	3,56394291	3,56464815	0,72617852097998131	5	0,0534784272	0,00258857082
2	1	0	1	0	4074,79	3,578444	3,57911348	0,74802865739911616	5	0,0545482188	0,00267727952
2	1	0	0	0	4076,24	3,5929451	3,5934186	0,76904844508196032	5	0,0556490347	0,00276351301
2	1	0	0	0	4077,69	3,60744619	3,60808444	0,78952716477214579	5	0,0567796938	0,0028486806
2	1	0	1	0	4079,14	3,62194729	3,62270021	0,80854827693352909	5	0,0579394884	0,00292912801
2	1	0	1	0	4080,59	3,63644838	3,63716578	0,82738970313220954	5	0,0591268763	0,00300935353
2	1	0	0	0	4082,04	3,65094948	3,65156078	0,84516117628663424	5	0,0603406727	0,00308615738
2	1	0	0	0	4083,49	3,66545057	3,66624665	0,86255488948275354	5	0,0615796819	0,00316233886
2	1	0	1	0	4084,94	3,67995143	3,68047166	0,87870785562942362	5	0,0628428534	0,00323405932
2	1	0	0	0	4086,39	3,69445252	3,69523764	0,89405761552353267	5	0,0641288608	0,00330375531
2	1	0	0	0	4087,84	3,7089541	3,70970321	0,90899255530287706	5	0,0654366612	0,0033720925
2	1	0	1	0	4089,29	3,72345519	3,72414827	0,92311343116064922	5	0,0667659417	0,00343781128
2	1	0	1	0	4090,74	3,73795629	3,73831296	0,93744859254608666	5	0,0681156665	0,00350447628
2	1	0	0	0	4092,19	3,75245714	3,75305915	0,95092966128141043	5	0,0694858134	0,00356889516
2	1	0	0	0	4093,64	3,76695824	3,76751447	0,96485612945009792	5	0,0708754659	0,0036351094
2	1	0	1	0	4095,09	3,78145981	3,7821207	0,97762188408523443	5	0,072284542	0,00369748403
2	1	0	1	0	4096,54	3,79596114	3,79661608	0,99030195052425011	5	0,0737118348	0,00375979627
2	1	0	0	0	4098,03	3,8108623	3,81160283	1,0037970303868259	5	0,0751982853	0,0038260757
2	1	0	1	0	4099,48	3,82536387	3,82603741	1,0164874862689696	5	0,076663889	0,00388911925
2	1	0	1	0	4100,93	3,83986449	3,84060383	1,0291142308463642	5	0,0781476349	0,00395241985
2	1	0	0	0	4102,38	3,85436559	3,85517955	1,0422714737554397	5	0,0796504095	0,00401814375
2	1	0	0	0	4103,83	3,86886668	3,86966491	1,0563728576526046	5	0,0811725035	0,00408780901
2	1	0	1	0	4105,28	3,88336778	3,88409996	1,0703047361845747	5	0,0827150866	0,00415717065
2	1	0	1	0	4106,73	3,89786863	3,8985858	1,0853157471865381	5	0,0842783302	0,00423119636
2	1	0	0	0	4108,18	3,91236973	3,9130013	1,1006507085015435	5	0,0858637467	0,0043068477
2	1	0	0	0	4109,63	3,92687082	3,92760658	1,1165844369679654	5	0,0874716267	0,00438550441
2	1	0	1	0	4111,08	3,94137192	3,94205213	1,1311379913240707	5	0,0891022682	0,00445900485
2	1	0	0	0	4112,53	3,9558723	3,95664787	1,1465495929146936	5	0,090755038	0,00453649322
2	1	0	0	0	4113,98	3,97037411	3,97121334	1,1619556937366706	5	0,0924298838	0,00461437413
2	1	0	1	0	4115,43	3,98487544	3,98564887	1,177783038777612	5	0,0941269025	0,00469422946
2	1	0	1	0	4116,88	3,99937654	4,00012398	1,1928012585267442	5	0,0958461985	0,00477135275
2	1	0	0	0	4118,33	4,01387739	4,01457977	1,2087283240010275	5	0,0975881889	0,00485253613
2	1	0	0	0	4119,78	4,02837896	4,02915478	1,2246089962621518	5	0,0993534029	0,00493413908
2	1	0	1	0	4121,23	4,04288006	4,04383087	1,2420299015939218	5	0,101142935	0,00502255885
2	1	0	0	0	4122,68	4,05738163	4,05819654	1,2605043595303021	5	0,102958269	0,00511537446
2	1	0	0	0	4124,13	4,07188225	4,07270193	1,2797326274836997	5	0,104800954	0,00521196937
2	1	0	1	0	4125,58	4,08638334	4,08717728	1,3018010832990213	5	0,106674105	0,00532069197
2	1	0	1	0	4127,03	4,10088444	4,10172272	1,3263746527954909	5	0,108579732	0,00544042094
2	1	0	0	0	4128,48	4,11538553	4,11634874	1,3529053047920243	5	0,110522337	0,00556903007
2	1	0	0	0	4129,93	4,12988663	4,13066339	1,3832465202237146	5	0,112506129	0,00571372593
2	1	0	1	0	4131,38	4,14438772	4,14533949	1,4180481334527269	5	0,114537381	0,00587829109
2	1	0	1	0	4132,83	4,15888882	4,15976477	1,45725115543852	5	0,116622157	0,00606182218
2	1	0	0	0	4134,28	4,17338943	4,17412996	1,5021927114576048	5	0,118767977	0,00627034763
2	1	0	0	0	4135,73	4,18789005	4,18884563	1,5530843822161539	5	0,120983236	0,00650563091
2	0	0	1	1	4137,12	4,19819164	4,19889021	1,5542451037714864	5	0,123176344	0,00652610464
2	0	0	0	1	4138,57	4,18369055	4,18459511	1,318608867004512	5	0,125246733	0,00551784411
2	0	0	0	1	4140,02	4,16918945	4,16993952	1,1339376273875387	5	0,12701945	0,00472845137
2	0	0	1	1	4141,47	4,15468836	4,15560484	0,97613671018431526	5	0,128545716	0,00405643834
2	0	0	1	1	4142,92	4,14018726	4,14090824	0,83947766075531955	5	0,129858822	0,00347619993
2	0	0	0	1	4144,37	4,12568617	4,12625313	0,72096423602973299	5	0,130987525	0,00297488086
2	0	0	1	1	4145,82	4,11118412	4,11204576	0,61718355227594483	5	0,131955102	0,00253788708
2	0	0	1	1	4147,27	4,09668398	4,09735203	0,52624511625617696	5	0,132781759	0,00215621153
2	0	0	0	1	4148,76	4,08178282	4,08260584	0,44506654826303206	5	0,133503109	0,0018170313
2	0	0	0	1	4150,21	4,06728172	4,06760931	0,37722811242565478	5	0,134096831	0,00153441657
2	0	0	1	1	4151,66	4,05278063	4,05363512	0,31769859363945805	5	0,134598508	0,00128783414
2	0	0	1	1	4153,11	4,03827906	4,03919983	0,26632184341239462	5	0,135020092	0,00107572717
2	0	0	0	1	4154,56	4,02377844	4,02453375	0,22170397282267638	5	0,135372505	0,000892255106
2	0	0	0	1	4156,01	4,00927734	4,0098176	0,18303320137783907	5	0,135664612	0,000733929744
2	0	0	1	1	4157,46	3,99477625	3,99552274	0,14922205773958262	5	0,135904476	0,000596220139
2	0	0	0	1	4158,91	3,98027515	3,98096728	0,11986335068165022	5	0,136098683	0,000477172085
2	0	0	0	1	4160,36	3,96577406	3,96657205	0,094499749461344205	5	0,136252925	0,000374840078
2	0	0	1	1	4161,81	3,95127296	3,95191646	0,071541192029447526	5	0,136372	0,000282724825
2	0	0	1	1	4163,26	3,93677187	3,93738055	0,051216607602934118	5	0,136459857	0,000201659277
2	0	0	0	1	4164,76	3,92187071	3,92245412	0,032526162084347219	5	0,136521325	0,000127582374
2	0	0	0	1	4166,21	3,90736938	3,90784836	0,016371339797236346	5	0,136555865	6,39767168E-005
2	0	0	1	1	4167,70	3,89246821	3,89334297	0,00059476298126052378	5	0,136568084	2,31561626E-006
2	0	0	1	1	4169,19	3,87756777	3,8784771	-0,012598407676365942	5	0,136558905	4,88626356E-005
2	0	0	0	1	4170,64	3,86306596	3,86373043	-0,024395395652391018	5	0,136531264	9,42572296E-005
2	0	0	1	1	4172,09	3,84856486	3,84932518	-0,03568599768914288	5	0,136486709	0,000137367009
2	0	0	1	1	4173,54	3,83406377	3,83485985	-0,046039523110569805	5	0,136426568	0,000176555113
2	0	0	0	1	4174,99	3,81956267	3,82030416	-0,055496874284775398	5	0,136352226	0,000212014944
2	0	0	0	1	4176,44	3,80506158	3,80583882	-0,064187712074878221	5	0,136264592	0,000244288094
2	0	0	1	1	4177,89	3,79056072	3,79139352	-0,072386405721772403	5	0,136164874	0,000274445338
2	0	0	1	1	4179,34	3,77605963	3,77676773	-0,07975817609500791	5	0,136053875	0,000301228109
2	0	0	0	1	4180,79	3,76155853	3,76212168	-0,086814215232152486	5	0,135932386	0,00032660563
2	0	0	0	1	4182,24	3,74705791	3,74775743	-0,093027228744113626	5	0,135801286	0,000348643487
2	0	0	1	1	4183,73	3,73215628	3,73281002	-0,099154923538056218	5	0,135657117	0,00037012648
2	0	0	0	1	4185,18	3,71765518	3,71827435	-0,10483651961355101	5	0,135508627	0,000389810943
2	0	0	0	1	4186,63	3,70315385	3,70379901	-0,11028598881481843	5	0,135351881	0,00040847715
2	0	0	1	1	4188,08	3,68865275	3,68931365	-0,1155600088338059	5	0,135187462	0,000426337123
2	0	0	1	1	4189,53	3,67415166	3,67479825	-0,12023688519063101	5	0,13501586	0,000441846292
2	0	0	0	1	4190,98	3,65965056	3,66050291	-0,12513534181440854	5	0,13483727	0,00045805829
2	0	0	0	1	4192,43	3,64514947	3,64583731	-0,1290336846141144	5	0,134652197	0,000470435829
2	0	0	1	1	4193,88	3,63064837	3,63122129	-0,13353603771732514	5	0,134460703	0,00048489889
2	0	0	1	1	4195,33	3,61614704	3,61692643	-0,13766285479811114	5	0,134263262	0,000497916422
2	0	0	0	1	4196,78	3,60164595	3,60231042	-0,14175565362287069	5	0,134059682	0,000510647893
2	0	0	1	1	4198,23	3,58714485	3,58777523	-0,14577626991861779	5	0,133850351	0,000523012481
2	0	0	1	1	4199,68	3,57264376	3,57329988	-0,14962859870866029	5	0,133635417	0,000534667866
2	0	0	0	1	4201,13	3,55814266	3,55888438	-0,1535299815004696	5	0,133414984	0,000546395429
2	0	0	0	1	4202,58	3,54364157	3,54453945	-0,15659459404802643	5	0,13318947	0,00055505574
2	0	0	1	1	4204,03	3,52914071	3,52985334	-0,16017237278477626	5	0,132958949	0,00056538498
2	0	0	1	1	4205,48	3,51463962	3,51544833	-0,16327281179837859	5	0,132723808	0,00057397713
2	0	0	0	1	4206,93	3,50013852	3,50077224	-0,16632139286957725	5	0,132484138	0,000582253328
2	0	0	1	1	4208,38	3,48563671	3,48608661	-0,1690770548457632	5	0,13224034	0,000589417235
2	0	0	1	1	4209,83	3,47113609	3,47181129	-0,17184594137749344	5	0,131992474	0,000596616708
2	0	0	0	1	4211,28	3,456635	3,45744634	-0,17440470862978442	5	0,131740898	0,000602994929
2	0	0	0	1	4212,73	3,4421339	3,4428103	-0,17683795432094442	5	0,13148573	0,000608819537
2	0	0	1	1	4214,18	3,42763281	3,4281044	-0,17869842424988723	5	0,131227121	0,000612596865
2	0	0	1	1	4215,63	3,41313171	3,41368914	-0,18096519669052192	5	0,130965397	0,000617758953
2	0	0	0	1	4217,08	3,39863062	3,39930391	-0,18314109474886186	5	0,130700424	0,000622552237
2	0	0	0	1	4218,53	3,38412952	3,38487864	-0,18536286153054506	5	0,130432457	0,000627430796
2	0	0	1	1	4219,98	3,36962819	3,37044334	-0,18727035913616442	5	0,130161464	0,000631184143
2	0	0	1	1	4221,43	3,3551271	3,35576749	-0,18942744533220957	5	0,129887581	0,000635674456
2	0	0	0	1	4222,88	3,340626	3,34135199	-0,19147737591993021	5	0,129610851	0,000639793288
2	0	0	1	1	4224,33	3,32612491	3,32680631	-0,19313076033722576	5	0,129331246	0,000642508618
2	0	0	1	1	4225,78	3,31162381	3,31223106	-0,19516563652238483	5	0,129048958	0,000646433677
2	0	0	0	1	4227,23	3,29712272	3,29790545	-0,19696015585213946	5	0,128763929	0,000649555994
2	0	0	0	1	4228,68	3,28262186	3,28307962	-0,19887644541449888	5	0,128476441	0,000652927207
2	0	0	1	1	4230,13	3,26812077	3,268574	-0,20056626309330272	5	0,128186211	0,000655565644
2	0	0	1	1	4231,58	3,25361967	3,25426888	-0,20246071151147315	5	0,127893507	0,000658861594
2	0	0	0	1	4233,03	3,2391181	3,23983383	-0,20403652708046093	5	0,127598301	0,00066104444
2	0	0	0	1	4234,48	3,22461629	3,225317	-0,20582022739398288	5	0,12730059	0,000663835497
2	0	0	1	1	4235,93	3,21011615	3,21090293	-0,20703415603687373	5	0,127000496	0,000664766587
2	0	0	0	1	4237,38	3,19561505	3,19623709	-0,20895860623568342	5	0,126697868	0,000667881221
2	0	0	0	1	4238,83	3,18111396	3,18195224	-0,21074830546664723	5	0,126392737	0,00067059102
2	0	0	1	1	4240,28	3,16661286	3,16730618	-0,21256773251419277	5	0,126084968	0,000673267117
2	0	0	1	1	4241,73	3,15211177	3,15282083	-0,2142965773430967	5	0,125774756	0,00067563873
2	0	0	0	1	4243,18	3,13761067	3,13815475	-0,21610958664678016	5	0,125461921	0,000678185315
2	0	0	0	1	4244,63	3,12310958	3,12370968	-0,21791341000547072	5	0,125146613	0,000680698256
2	0	0	1	1	4246,08	3,10860848	3,10904384	-0,21944352565333338	5	0,124828719	0,000682259561
2	0	0	1	1	4247,53	3,09410739	3,09443808	-0,22134281586234771	5	0,124508366	0,000684931641
2	0	0	0	1	4248,98	3,07960629	3,08014321	-0,2231327968183905	5	0,124185361	0,000687280961
2	0	0	0	1	4250,43	3,06510592	3,06587863	-0,22515962017091072	5	0,123859674	0,000690312067
2	0	0	1	1	4251,88	3,0506041	3,05123234	-0,22687528825675418	5	0,123531483	0,000692249218
2	0	0	0	1	4253,33	3,03610301	3,03660631	-0,22879296052269638	5	0,123200513	0,000694754126
2	0	0	0	1	4254,78	3,02160192	3,02215099	-0,23056329088285654	5	0,122866966	0,000696797098
2	0	0	1	1	4256,23	3,00710082	3,00761557	-0,23227357375435443	5	0,122530907	0,000698589603
2	0	0	1	1	4257,68	2,99259973	2,99311996	-0,23368141551812461	5	0,122192331	0,000699436525
2	0	0	0	1	4259,13	2,97809863	2,97851443	-0,23550117861790022	5	0,121851243	0,000701443641
2	0	0	0	1	4260,58	2,96359754	2,96416926	-0,23711276442433338	5	0,121507637	0,000702842372
2	0	0	1	1	4262,03	2,94909644	2,94964361	-0,23870953288860618	5	0,121161796	0,000704108039
2	0	0	0	1	4263,48	2,93459487	2,93497658	-0,24024193128380045	5	0,120813556	0,000705104438
2	0	0	0	1	4264,93	2,92009425	2,92051244	-0,2418890673822416	5	0,12046317	0,000706440012
2	0	0	1	1	4266,38	2,90559316	2,90631771	-0,24298709436940678	5	0,120110773	0,000706197694
2	0	0	1	1	4267,83	2,89109206	2,89155149	-0,24447883401686998	5	0,119756483	0,000706923136
2	0	0	0	1	4269,28	2,87659073	2,87715626	-0,24558473091262022	5	0,1194003	0,000706585648
2	0	0	0	1	4270,73	2,86208963	2,86268091	-0,24693916994147046	5	0,119042367	0,00070690806
2	0	0	1	1	4272,18	2,84758854	2,84817553	-0,24806460055212208	5	0,118682824	0,000706531515
2	0	0	1	1	4273,63	2,83308744	2,83359957	-0,24880250667532346	5	0,118321911	0,000705006649
2	0	0	0	1	4275,08	2,81858635	2,818964	-0,24971919724096826	5	0,117959954	0,000703949423
2	0	0	1	1	4276,53	2,80408525	2,80467868	-0,24999817584951645	5	0,117597125	0,000701164536
2	0	0	1	1	4277,98	2,78958416	2,79012322	-0,25040218979120256	5	0,117233753	0,000698652992
2	0	0	0	1	4279,43	2,77508307	2,7753973	-0,25008130880693712	5	0,11687009	0,000694075017
2	0	0	0	1	4280,88	2,76058197	2,7611022	-0,25031640791955101	5	0,116506204	0,000691149209
2	0	0	1	1	4282,33	2,74608088	2,74660683	-0,25009245735903552	5	0,116142631	0,000686905638
2	0	0	1	1	4283,78	2,73157978	2,73231173	-0,24975230847485453	5	0,115779474	0,00068240118
2	0	0	0	1	4285,23	2,71707869	2,71771622	-0,24923209690799331	5	0,115417011	0,000677342119
2	0	0	0	1	4286,68	2,70257759	2,70313025	-0,24855610992138621	5	0,11505536	0,000671879563
2	0	0	1	1	4288,13	2,6880765	2,68870521	-0,24789640260860317	5	0,11469464	0,000666520325
2	0	0	0	1	4289,58	2,6735754	2,67419958	-0,24716161276834698	5	0,114334978	0,000660959457
2	0	0	0	1	4291,03	2,65907431	2,65960383	-0,24614415581648608	5	0,113976359	0,000654645963
2	0	0	1	1	4292,48	2,64457321	2,64521885	-0,24548361302974352	5	0,113618836	0,000649357855
2	0	0	1	1	4293,93	2,63007188	2,63065314	-0,24504672968760131	5	0,113262445	0,000644632964
2	0	0	0	1	4295,39	2,61557078	2,61610746	-0,24426970584318042	5	0,112907194	0,000639035774
2	0	0	0	1	4296,84	2,60106969	2,60149193	-0,2433913293449832	5	0,112553164	0,000633180607
2	0	0	1	1	4298,29	2,58656859	2,58699632	-0,24250145427261805	5	0,112200394	0,000627350353
2	0	0	1	1	4299,74	2,5720675	2,57280135	-0,24179228488355875	5	0,111848779	0,000622083491
2	0	0	0	1	4301,19	2,5575664	2,55810595	-0,24062860539803933	5	0,111498266	0,000615553465
2	0	0	1	1	4302,64	2,54306531	2,54371023	-0,23994411881392154	5	0,111148849	0,000610348303
2	0	0	1	1	4304,09	2,52856421	2,52919459	-0,23938253203717363	5	0,110800512	0,000605445006
2	0	0	0	1	4305,54	2,51406312	2,51458931	-0,23875700682401658	5	0,110453188	0,000600375817
2	0	0	0	1	4306,99	2,49956203	2,50006366	-0,23750135450003053	5	0,110106848	0,000593768491
2	0	0	1	1	4308,44	2,48506093	2,48554778	-0,23732941737398506	5	0,109761685	0,000589893607
2	0	0	1	1	4309,89	2,47055984	2,4711628	-0,23661993063675891	5	0,109417416	0,000584726396
2	0	0	0	1	4311,34	2,45605874	2,45651698	-0,2361470718557639	5	0,109074011	0,000580099295
2	0	0	0	1	4312,79	2,44155765	2,44198132	-0,23505488705510925	5	0,108731613	0,000573999656
2	0	0	1	1	4314,24	2,42705655	2,42773652	-0,23449597484432115	5	0,108390115	0,00056929444
2	0	0	1	1	4315,69	2,41255617	2,41320086	-0,23396987449364115	5	0,108049609	0,00056461629
2	0	0	0	1	4317,14	2,39805436	2,39884591	-0,23328530338282506	5	0,107710011	0,000559615495
2	0	0	1	1	4318,59	2,38355303	2,3843503	-0,23292388247015562	5	0,107371569	0,000555372157
2	0	0	1	1	4320,04	2,36905193	2,36955428	-0,23198458009089107	5	0,107034132	0,000549700053
2	0	0	0	1	4321,49	2,35455084	2,35500836	-0,23127378360368333	5	0,106697783	0,000544651703
2	0	0	0	1	4322,94	2,34004974	2,34055328	-0,23001129537199949	5	0,106362641	0,000538353692
2	0	0	1	1	4324,39	2,32554865	2,32612777	-0,22939301600369344	5	0,106028669	0,000533597486
2	0	0	1	1	4325,84	2,31104755	2,3117125	-0,22853147828330611	5	0,105695881	0,000528299075
2	0	0	0	1	4327,29	2,29654646	2,29702663	-0,22766148756879011	5	0,105364308	0,000522944494
2	0	0	1	1	4328,74	2,28204465	2,28258014	-0,22680709039571069	5	0,105034068	0,000517705339
2	0	0	1	1	4330,19	2,26754427	2,26806593	-0,22584960966681411	5	0,10470514	0,000512241793
2	0	0	0	1	4331,64	2,25304317	2,25367069	-0,22501179932927152	5	0,104377531	0,000507102523
2	0	0	0	1	4333,09	2,23854208	2,23914504	-0,22399749420583338	5	0,104051359	0,000501562899
2	0	0	1	1	4334,54	2,22404099	2,22461963	-0,22271262512852762	5	0,103726558	0,000495450862
2	0	0	1	1	4335,99	2,20953989	2,20995355	-0,2218335526995361	5	0,1034033	0,000490241859
2	0	0	0	1	4337,44	2,1950388	2,19573879	-0,22083944811796118	5	0,103081331	0,00048490573
2	0	0	0	1	4338,89	2,1805377	2,18113303	-0,21995726196716234	5	0,10276106	0,00047975604
2	0	0	1	1	4340,34	2,16603661	2,16656733	-0,21905032421151827	5	0,102442078	0,000474587287
2	0	0	1	1	4341,79	2,15153623	2,15216351	-0,21813347686608496	5	0,102124617	0,000469458901
2	0	0	0	1	4343,24	2,13703418	2,13749647	-0,21729890326969325	5	0,101808526	0,000464475626
2	0	0	1	1	4344,69	2,12253308	2,1230309	-0,21586170381245574	5	0,101493821	0,00045828108
2	0	0	1	1	4346,14	2,10803199	2,10859561	-0,21510859904810787	5	0,101180553	0,000453577057
2	0	0	0	1	4347,59	2,09353089	2,09401989	-0,21433555280479366	5	0,100868396	0,000448822917
2	0	0	0	1	4349,04	2,0790298	2,07953453	-0,21355452039279133	5	0,100557648	0,00044409401
2	0	0	1	1	4350,49	2,0645287	2,0650692	-0,21290501059653933	5	0,100247741	0,000439663592
2	0	0	1	1	4351,94	2,05002761	2,05061364	-0,2123806527815759	5	0,0999387875	0,00043551065
2	0	0	0	1	4353,39	2,03552651	2,03607821	-0,21181425056420266	5	0,0996305645	0,000431270368
2	0	0	1	1	4354,84	2,02102423	2,02165151	-0,21131037924239536	5	0,0993231386	0,000427195948
2	0	0	1	1	4356,29	2,00652432	2,00718737	-0,21063796042775085	5	0,0990164503	0,000422789861
2	0	0	0	1	4357,74	1,99202335	1,99252152	-0,21033207164146006	5	0,098710224	0,000419091171
2	0	0	0	1	4359,19	1,97752202	1,97823656	-0,20992947129222371	5	0,0984046981	0,000415290153
2	0	0	1	1	4360,64	1,96302104	1,96365094	-0,20961255875105645	5	0,0980996415	0,000411605899
2	0	0	1	1	4362,09	1,94851995	1,94903517	-0,20937858040755053	5	0,0977951512	0,000408086227
2	0	0	0	1	4363,54	1,93401873	1,9346801	-0,20906571228988557	5	0,0974911749	0,000404475286
2	0	0	0	1	4364,99	1,91951764	1,92001402	-0,20875706740965504	5	0,097187832	0,000400816498
2	0	0	1	1	4366,44	1,90501654	1,90558875	-0,20779919360453914	5	0,0968850851	0,00039597979
2	0	0	1	1	4367,89	1,89051616	1,89103436	-0,20751089300997315	5	0,0965831056	0,000392410235
2	0	0	0	1	4369,34	1,87601447	1,87644744	-0,20700609699512602	5	0,096281983	0,000388436049
2	0	0	1	1	4370,79	1,86151338	1,86214256	-0,20641568318630282	5	0,0959816203	0,000384375424
2	0	0	1	1	4372,24	1,84701204	1,84758687	-0,20572491673131798	5	0,0956823081	0,000380094658
2	0	0	0	1	4373,69	1,83251107	1,83313143	-0,20498187040599757	5	0,095383957	0,000375758711
2	0	0	0	1	4375,14	1,81800973	1,81867599	-0,20415769075043411	5	0,0950866789	0,000371296686
2	0	0	1	1	4376,59	1,80350876	1,80398011	-0,20341443627451827	5	0,0947905704	0,000366955588
2	0	0	1	1	4378,04	1,78900766	1,78953481	-0,20228433127825475	5	0,0944956318	0,00036199484
2	0	0	0	1	4379,49	1,77450657	1,77489889	-0,2015260842939215	5	0,0942018926	0,000357688434
2	0	0	0	1	4380,94	1,76000524	1,76054418	-0,20074886044614051	5	0,0939092711	0,000353427225
2	0	0	1	1	4382,39	1,7455045	1,74603844	-0,20014090665305616	5	0,0936177969	0,000349453709
2	0	0	0	1	4383,84	1,73100317	1,73156297	-0,19940144560920726	5	0,0933272615	0,000345276174
2	0	0	0	1	4385,29	1,71650219	1,7168169	-0,19898252841085238	5	0,0930377319	0,000341616571
2	0	0	1	1	4386,74	1,70200109	1,70249188	-0,19853064495449274	5	0,0927489623	0,000337996811
2	0	0	1	1	4388,19	1,68749988	1,68788612	-0,1976951704515759	5	0,0924609601	0,000333686941
2	0	0	0	1	4389,64	1,67299879	1,6736412	-0,19761616946198045	5	0,0921735838	0,000330738578
2	0	0	0	1	4391,09	1,65849769	1,65902543	-0,19730566923196147	5	0,0918866768	0,000327335118
2	0	0	1	1	4392,54	1,6439966	1,64452994	-0,19711289259915654	5	0,0916001573	0,000324158056
2	0	0	1	1	4393,99	1,62949479	1,62998426	-0,1968926140377496	5	0,0913138092	0,000320931867
2	0	0	0	1	4395,44	1,61499453	1,61541879	-0,19704111758619635	5	0,09102761	0,000318303937
2	0	0	1	1	4396,89	1,60049319	1,60095334	-0,19686648249626205	5	0,0907414034	0,000315174053
2	0	0	1	1	4398,34	1,58599222	1,58650815	-0,1971615458993865	5	0,0904550627	0,000312798395
2	0	0	0	1	4399,79	1,57149088	1,57206261	-0,19694543327204794	5	0,090168491	0,000309610565
2	0	0	0	1	4401,24	1,55698991	1,55740678	-0,19751762497859725	5	0,0898815244	0,000307615293
2	0	0	1	1	4402,69	1,54248893	1,54287124	-0,19793471042066768	5	0,0895939767	0,000305387774
2	0	0	1	1	4404,14	1,52798772	1,52842605	-0,19845876982435629	5	0,0893058032	0,000303329551
2	0	0	0	1	4405,59	1,51348662	1,51392043	-0,19897766760550438	5	0,0890168771	0,000301236345
2	0	0	0	1	4407,04	1,49898565	1,49971569	-0,19965207596322963	5	0,0887271017	0,000299421343
2	0	0	1	1	4408,49	1,48448455	1,48497963	-0,20028143826251245	5	0,0884363949	0,000297413848
2	0	0	0	1	4409,94	1,46998334	1,47067463	-0,20090185524895699	5	0,0881446749	0,000295461272
2	0	0	0	1	4411,39	1,45548236	1,45601881	-0,20196149335242896	5	0,0878518745	0,000294059719
2	0	0	1	1	4412,84	1,44098103	1,44143307	-0,20283970586024314	5	0,0875578076	0,000292379875
2	0	0	1	1	4414,29	1,42648005	1,42703772	-0,20378028422904525	5	0,0872624591	0,000290802156
2	0	0	0	1	4415,74	1,41197896	1,41260254	-0,20471332144613098	5	0,0869657248	0,00028917857
2	0	0	0	1	4417,19	1,39747775	1,39795661	-0,20577377251659901	5	0,0866675377	0,000287662813
2	0	0	1	1	4418,64	1,38297677	1,38347125	-0,20682265950987677	5	0,0863678381	0,000286133203
2	0	0	0	1	4420,09	1,36847496	1,36889446	-0,20783312760374906	5	0,0860665739	0,000284501613
2	0	0	0	1	4421,54	1,35397446	1,35438013	-0,20864540004792342	5	0,0857637674	0,000282585184
2	0	0	1	1	4422,99	1,33947337	1,33977437	-0,20995726319961251	5	0,0854592621	0,000281295361
2	0	0	1	1	4424,44	1,32497227	1,32548928	-0,21119005310659578	5	0,0851530731	0,000279930158
2	0	0	0	1	4425,90	1,31047106	1,31077337	-0,21230959395567606	5	0,0848452151	0,00027828975
2	0	0	0	1	4427,35	1,29597008	1,29657853	-0,21341020225857686	5	0,0845357478	0,000276703096
2	0	0	1	1	4428,80	1,28146887	1,28195286	-0,21456375718116762	5	0,0842246339	0,000275060622
2	0	0	1	1	4430,25	1,26696777	1,26744723	-0,21558101948661078	5	0,0839120746	0,000273237558
2	0	0	0	1	4431,70	1,2524668	1,2529819	-0,2166231614537537	5	0,0835979357	0,000271424913
2	0	0	0	1	4433,15	1,2379657	1,2385366	-0,21777201443910643	5	0,083282277	0,000269718614
2	0	0	1	1	4434,60	1,22346449	1,22390068	-0,21900219408174371	5	0,082964994	0,000268036936
2	0	0	0	1	4436,05	1,20896351	1,20944536	-0,22013448458164954	5	0,0826460868	0,000266240619
2	0	0	0	1	4437,50	1,1944623	1,19487977	-0,2211771903093903	5	0,0823255181	0,000264280156
2	0	0	1	1	4438,95	1,1799612	1,18040431	-0,22256984235718934	5	0,0820031762	0,000262722402
2	0	0	1	1	4440,40	1,16546011	1,16593885	-0,22369054340136563	5	0,0816790983	0,000260809495
2	0	0	0	1	4441,85	1,1509589	1,15135312	-0,22528197236048707	5	0,0813530013	0,0002593791
2	0	0	0	1	4443,30	1,13645792	1,13690794	-0,22625794347065219	5	0,0810248926	0,000257234438
2	0	0	1	1	4444,75	1,12195683	1,12257278	-0,22827563217530678	5	0,0806943923	0,000256255997
2	0	0	1	1	4446,20	1,10745561	1,10769629	-0,23023381099725792	5	0,0803612024	0,000255029154
2	0	0	0	1	4447,65	1,09295452	1,09334123	-0,23258768596375923	5	0,0800248906	0,000254297716
2	0	0	1	1	4449,10	1,07845342	1,07889593	-0,23522884476309037	5	0,0796849802	0,000253787439
2	0	0	1	1	4450,55	1,06395221	1,06455088	-0,23848042404279114	5	0,0793407634	0,000253874547
2	0	0	0	1	4452,00	1,04945123	1,04977465	-0,2421981730343159	5	0,0789914206	0,000254253508
2	0	0	0	1	4453,45	1,03495014	1,03554988	-0,24630579026415946	5	0,0786364898	0,000255061925
2	0	0	1	1	4454,90	1,02044904	1,02075362	-0,25058221995520134	5	0,07827539	0,00025578271
2	0	0	1	1	4456,35	1,00594795	1,00653887	-0,2556698656796168	5	0,0779075772	0,000257341657
2	0	0	0	1	4457,80	0,991446853	0,991832912	-0,26105582163048259	5	0,0775324181	0,00025892377
2	0	0	0	1	4459,25	0,976946175	0,97730732	-0,26657152362316294	5	0,07714957	0,000260522298
2	0	0	1	1	4460,70	0,962444663	0,962831914	-0,27224869118072093	5	0,076758422	0,000262129732
2	0	0	0	1	4462,15	0,947943509	0,948165953	-0,27830181589039693	5	0,0763586462	0,000263876311
2	0	0	0	1	4463,60	0,933442414	0,933760762	-0,28456792553576358	5	0,0759500712	0,00026571835
2	0	0	1	1	4465,05	0,918941259	0,919565976	-0,29054248495958803	5	0,0755323246	0,000267172989
2	0	0	1	1	4466,50	0,904440224	0,904990315	-0,29715654098739174	5	0,0751053989	0,000268923788
2	0	0	0	1	4467,95	0,88993907	0,890394628	-0,30345899751409888	5	0,0746689737	0,000270198274
2	0	0	0	1	4469,40	0,875437975	0,875899196	-0,30989347933791667	5	0,0742234141	0,000271435449
2	0	0	1	1	4470,85	0,860936821	0,861403704	-0,31614538064847418	5	0,07376872	0,000272328791
2	0	0	1	1	4472,30	0,846436203	0,846886873	-0,32213182054918918	5	0,0733051971	0,000272809208
2	0	0	0	1	4473,75	0,83193469	0,832422674	-0,3277727383344121	5	0,0728331655	0,000272845471
2	0	0	1	1	4475,20	0,817433536	0,817766964	-0,33316471660509664	5	0,0723530725	0,000272451085
2	0	0	1	1	4476,65	0,802932382	0,803401768	-0,33797483673940218	5	0,0718655437	0,00027152957
2	0	0	0	1	4478,10	0,788431287	0,789046645	-0,34299325399721779	5	0,0713708252	0,000270637684
2	0	0	0	1	4479,55	0,773930252	0,774410844	-0,34731838875450374	5	0,0708696395	0,000268967124
2	0	0	1	1	4481,00	0,759429157	0,759745002	-0,35126053177130688	5	0,0703623071	0,000266868446
2	0	0	1	1	4482,45	0,744928002	0,745209396	-0,35534480214118976	5	0,069849506	0,000264806295
2	0	0	0	1	4483,90	0,730426908	0,730683863	-0,35857760393992019	5	0,0693314448	0,000262006855
2	0	0	0	1	4485,35	0,715925813	0,716449022	-0,36197916511446323	5	0,0688085034	0,000259339606
2	0	0	1	1	4486,80	0,701424658	0,70195353	-0,36473875422962099	5	0,0682808608	0,000256029656
2	0	0	0	1	4488,25	0,686923563	0,687538266	-0,36799067755540224	5	0,0677486956	0,00025300766
2	0	0	0	1	4489,70	0,672422469	0,672882318	-0,37109747575596141	5	0,0672120377	0,000249704928
2	0	0	1	1	4491,15	0,657921374	0,658276677	-0,37425142138575482	5	0,0666708276	0,000246360985
2	0	0	1	1	4492,60	0,643420279	0,643841326	-0,3775232084250697	5	0,0661251321	0,000243065049
2	0	0	0	1	4494,05	0,628919125	0,629295766	-0,38065168533163795	5	0,0655746683	0,000239542496
2	0	0	0	1	4495,50	0,61441803	0,614649892	-0,38409405628529658	5	0,065019466	0,000236083375
2	0	0	1	1	4496,95	0,599916935	0,600435078	-0,38765125675127002	5	0,0644590482	0,000232759412
2	0	0	1	1	4498,40	0,58541584	0,586019874	-0,39109535282477824	5	0,0638935491	0,000229189653
2	0	0	0	1	4499,85	0,570914745	0,571273744	-0,39531608810648275	5	0,0633223504	0,000225833704
2	0	0	1	1	4501,30	0,556413591	0,556818366	-0,39950235498448275	5	0,0627452508	0,000222450253
2	0	0	1	1	4502,75	0,541912496	0,542523384	-0,4040179015137255	5	0,0621621385	0,000219189154
2	0	0	0	1	4504,20	0,527411401	0,527747214	-0,40882305769870707	5	0,0615722686	0,000215755223
2	0	0	0	1	4505,65	0,512910306	0,513382077	-0,41385804582387386	5	0,0609753989	0,000212467305
2	0	0	1	1	4507,10	0,498409182	0,498716205	-0,41926099825650541	5	0,0603709742	0,00020909225
2	0	0	1	1	4508,55	0,483908057	0,4842408	-0,42422269502033939	5	0,0597586706	0,000205425938
2	0	0	0	1	4510,00	0,469406962	0,469705224	-0,43014424946159149	5	0,0591381788	0,000202041003
2	0	0	0	1	4511,45	0,454906821	0,455271065	-0,43655209012572538	5	0,0585090369	0,000198749534
2	0	0	1	1	4512,90	0,440404743	0,440794498	-0,44296863380198739	5	0,0578708909	0,000195258137
2	0	0	0	1	4514,35	0,425903618	0,426399231	-0,44988630494723661	5	0,0572227128	0,000191831175
2	0	0	0	1	4515,80	0,411402524	0,411893725	-0,45778078151246016	5	0,0565640591	0,000188557038
2	0	0	1	1	4517,25	0,396901399	0,39724791	-0,4658577035491689	5	0,0558936708	0,000185060999
2	0	0	1	1	4518,70	0,382400304	0,382612109	-0,47523791420583981	5	0,0552107058	0,000181831783
2	0	0	0	1	4520,15	0,367899209	0,368417352	-0,48508004254351181	5	0,054513596	0,000178711911
2	0	0	0	1	4521,60	0,353398114	0,353761494	-0,49657718185335578	5	0,0538009852	0,000175669891
2	0	0	1	1	4523,05	0,33889699	0,339476556	-0,50934197334572672	5	0,0530707687	0,000172909655
2	0	0	1	1	4524,50	0,324395657	0,324751198	-0,52405469862797549	5	0,0523208566	0,000170187384
2	0	0	0	1	4525,95	0,30989477	0,310174882	-0,54054569142560282	5	0,0515486412	0,000167663689
2	0	0	1	1	4527,40	0,295393676	0,295769602	-0,55952967160070874	5	0,0507506989	0,000165491874
2	0	0	1	1	4528,85	0,280892551	0,281584889	-0,58089452283456794	5	0,0499237999	0,000163571123
2	0	0	1	1	4529,83	0,270991862	0,271520317	-0,59742653369903565	5	0,0493461974	0,000162213444