File: Experimentelles/Rohdaten/Batteriemessungen/AlteZelle/150511_LLTO_LTO_Tests/ECLab-Export/LLTO_LP30_LTO_02_CV_C01_loop1.mpt
EC-Lab ASCII FILE
Nb header lines : 3
mode	ox/red	error	control changes	counter inc.	time/s	control/V	Ewe/V	<I>/mA	cycle number	(Q-Qo)/C	P/W
2	1	0	0	0	1386,11	0,271191865	0,272081673	-0,49299645423889158	2	0	0,000134135305
2	1	0	0	0	1387,54	0,285492867	0,286025733	-0,2191961449570945	2	-0,000448153151	6,26957408E-005
2	1	0	1	0	1388,99	0,299993992	0,300290614	-0,13292975440466149	2	-0,000694817572	3,99175588E-005
2	1	0	1	0	1390,44	0,314495087	0,314806163	-0,087156667257658803	2	-0,000850313925	2,74374561E-005
2	1	0	0	0	1391,89	0,328996241	0,329401851	-0,05975261875816329	2	-0,000954458665	1,9682624E-005
2	1	0	0	0	1393,38	0,343897343	0,344338417	-0,041357115522259904	2	-0,00102796068	1,42408435E-005
2	1	0	1	0	1394,83	0,358398467	0,35886398	-0,028224142889181846	2	-0,00107719121	1,01286287E-005
2	1	0	1	0	1396,28	0,372899562	0,373389482	-0,018201457026104013	2	-0,00110985513	6,79623281E-006
2	1	0	0	0	1397,73	0,387400687	0,387664437	-0,0099548392026918003	2	-0,00112951593	3,859137E-006
2	1	0	0	0	1399,22	0,402301043	0,402559489	-0,0028326620253403926	2	-0,00113842974	1,14031502E-006
2	1	0	1	0	1400,67	0,416802883	0,417367131	0,0031792237011056096	2	-0,00113792322	1,32690343E-006
2	1	0	0	0	1402,12	0,431303978	0,431692153	0,0082595993299036941	2	-0,00112944888	3,56560417E-006
2	1	0	0	0	1403,61	0,446205109	0,446638733	0,012313533918738074	2	-0,00111353479	5,49970127E-006
2	1	0	1	0	1405,06	0,460706264	0,460913658	0,016487646207679062	2	-0,00109200843	7,59938121E-006
2	1	0	1	0	1406,51	0,475207329	0,475659728	0,020037963739014202	2	-0,0010648953	9,53125254E-006
2	1	0	0	0	1407,96	0,489708483	0,490135163	0,0232352409657324	2	-0,00103296712	1,13884089E-005
2	1	0	0	0	1409,41	0,504209518	0,504610538	0,025969796911037069	2	-0,00099666696	1,31046336E-005
2	1	0	1	0	1410,86	0,518710673	0,519226372	0,028603449871297926	2	-0,000956533535	1,48516656E-005
2	1	0	0	0	1412,31	0,533211768	0,533701777	0,03079396368896903	2	-0,000912929012	1,6434793E-005
2	1	0	0	0	1413,76	0,547712922	0,548096955	0,032779906653255642	2	-0,000866273884	1,79665676E-005
2	1	0	1	0	1415,21	0,562213957	0,562582433	0,034244674801205606	2	-0,000816942193	1,92654534E-005
2	1	0	1	0	1416,66	0,576715112	0,577077866	0,036050222726771603	2	-0,000765072997	2,08037854E-005
2	1	0	0	0	1418,11	0,591216207	0,591713727	0,037504813265210598	2	-0,000710966066	2,21921127E-005
2	1	0	0	0	1419,56	0,605717361	0,606078863	0,038965524193675494	2	-0,000654767035	2,36161814E-005
2	1	0	1	0	1421,01	0,620218456	0,620454073	0,040301397656245824	2	-0,000596668222	2,50051671E-005
2	1	0	1	0	1422,46	0,634719551	0,635129988	0,041479881484216858	2	-0,000536775158	2,63451166E-005
2	1	0	0	0	1423,91	0,649220645	0,64956522	0,042768552181466189	2	-0,000475222216	2,77809631E-005
2	1	0	1	0	1425,36	0,66372174	0,664151013	0,043360291999609504	2	-0,00041214432	2,87977819E-005
2	1	0	1	0	1426,81	0,678222895	0,678496063	0,044705596432322528	2	-0,000347567868	3,03325705E-005
2	1	0	0	0	1428,26	0,69272393	0,692941427	0,045677247602725344	2	-0,000281538203	3,16516562E-005
2	1	0	0	0	1429,71	0,707225084	0,707587242	0,046741306626548378	2	-0,000214038446	3,30735529E-005
2	1	0	1	0	1431,16	0,721726179	0,722353399	0,047690187794311558	2	-0,000145156868	3,44491709E-005
2	1	0	1	0	1432,61	0,736227334	0,736508012	0,04859365094065049	2	-7,48553066E-005	3,57896133E-005
2	1	0	0	0	1434,06	0,750728369	0,751244128	0,049480540580892128	2	-3,18207276E-006	3,71719652E-005
2	1	0	0	0	1435,51	0,765229523	0,765799761	0,050419073047426931	2	6,9770409E-005	3,86109132E-005
2	1	0	1	0	1436,96	0,779730618	0,780104697	0,050910954499461926	2	0,000143988917	3,97158765E-005
2	1	0	0	0	1438,41	0,794231653	0,794640243	0,05179551719144615	2	0,00021934598	4,11588007E-005
2	1	0	0	0	1439,86	0,808732808	0,808945298	0,052518027388335443	2	0,000295780541	4,2484211E-005
2	1	0	1	0	1441,31	0,823233902	0,823851764	0,053072134168663187	2	0,000373088318	4,37235722E-005
2	1	0	1	0	1442,76	0,837734938	0,838247001	0,053453107694318989	2	0,000451105501	4,48069077E-005
2	1	0	0	0	1444,21	0,852236032	0,852662206	0,053823067360402432	2	0,000529668469	4,58928953E-005
2	1	0	0	0	1445,66	0,866737306	0,867298007	0,05413106788182617	2	0,000608545844	4,69477673E-005
2	1	0	1	0	1447,11	0,881238341	0,881613135	0,053861976251937728	2	0,000687529333	4,74854241E-005
2	1	0	1	0	1448,56	0,895739436	0,89639926	0,053969828334326176	2	0,000766351877	4,83785152E-005
2	1	0	1	0	1449,97	0,909840465	0,910393476	0,05344503376788128	2	0,000842745183	4,86560093E-005
2	1	0	0	0	1451,42	0,924341619	0,925089478	0,053143640572670848	2	0,00092078594	4,91626233E-005
2	1	0	0	0	1452,87	0,938842714	0,939514756	0,052689907839521766	2	0,000998184318	4,95029453E-005
2	1	0	1	0	1454,32	0,953343868	0,953589141	0,05235514512363193	2	0,00107477873	4,99252965E-005
2	1	0	1	0	1455,77	0,967844903	0,968335271	0,051572142556930547	2	0,00115048222	4,99391244E-005
2	1	0	0	0	1457,22	0,982346058	0,98265034	0,051000406383536755	2	0,00122525741	5,01155664E-005
2	1	0	0	0	1458,67	0,996847153	0,997286141	0,049934054278613082	2	0,00129905681	4,9798542E-005
2	1	0	1	0	1460,12	1,01134825	1,01194203	0,049628400534857062	2	0,00137199124	5,02210642E-005
2	1	0	1	0	1461,57	1,02584946	1,02630723	0,049032067123334854	2	0,00144411065	5,03219635E-005
2	1	0	0	0	1463,02	1,04035044	1,04088271	0,048693361837649773	2	0,00151558965	5,0684077E-005
2	1	0	1	0	1464,47	1,05485153	1,05540836	0,048290518044571738	2	0,00158650288	5,09662168E-005
2	1	0	1	0	1465,92	1,06935263	1,06983352	0,048033916818288282	2	0,00165698538	5,13882951E-005
2	1	0	0	0	1467,37	1,08385372	1,08453965	0,047897965763695539	2	0,00172719068	5,19472414E-005
2	1	0	0	0	1468,82	1,0983547	1,09870422	0,047774219264586694	2	0,00179722928	5,24897368E-005
2	1	0	1	0	1470,27	1,11285603	1,11316967	0,047576166281942253	2	0,00186718395	5,29603458E-005
2	1	0	1	0	1471,72	1,12735713	1,12780535	0,047803691627147424	2	0,00193722965	5,39132598E-005
2	1	0	0	0	1473,17	1,14185822	1,1424613	0,048095087481972998	2	0,00200750679	5,49467768E-005
2	1	0	0	0	1474,62	1,15635931	1,15696681	0,048430886827797171	2	0,0020780873	5,60329281E-005
2	1	0	1	0	1476,07	1,17086041	1,1713419	0,048760346631752301	2	0,00214908877	5,71150376E-005
2	1	0	0	0	1477,52	1,1853615	1,18578732	0,049113317606194586	2	0,0022205587	5,82379507E-005
2	1	0	0	0	1478,97	1,1998626	1,20037305	0,04963945678900944	2	0,00229252176	5,95858655E-005
2	1	0	1	0	1480,42	1,21436369	1,2147181	0,049412116738191347	2	0,00236496865	6,00217936E-005
2	1	0	1	0	1481,87	1,22886467	1,22938406	0,049986857474626336	2	0,00243777153	6,14530436E-005
2	1	0	0	0	1483,32	1,243366	1,24388957	0,050191531908543142	2	0,00251098513	6,24327222E-005
2	1	0	0	0	1484,77	1,25786698	1,25818455	0,05054484375674889	2	0,00258456706	6,35947436E-005
2	1	0	1	0	1486,22	1,27236819	1,27277029	0,050517995162711744	2	0,0026586114	6,42978048E-005
2	1	0	1	0	1487,67	1,28686929	1,28722572	0,051377380713044205	2	0,0027332427	6,61342856E-005
2	1	0	0	0	1489,12	1,30137026	1,30171096	0,051944635924883245	2	0,00280873454	6,76169002E-005
2	1	0	0	0	1490,57	1,31587064	1,31626606	0,052747512380074912	2	0,00288531161	6,94297632E-005
2	1	0	1	0	1492,02	1,33037257	1,33085239	0,053369001718238221	2	0,00296302279	7,10262611E-005
2	1	0	0	0	1493,48	1,34487355	1,34526753	0,054546767166660403	2	0,00304214912	7,3379997E-005
2	1	0	0	0	1494,93	1,35937476	1,35978317	0,055742757879973402	2	0,00312283495	7,5798067E-005
2	1	0	1	0	1496,38	1,37387598	1,37432873	0,057421383506152557	2	0,00320565072	7,89158585E-005
2	1	0	1	0	1497,83	1,38837695	1,38884425	0,059348863646543347	2	0,0032908849	8,24263261E-005
2	1	0	0	0	1499,28	1,40287817	1,40343988	0,061428623370981542	2	0,00337895984	8,62113811E-005
2	1	0	0	0	1500,73	1,41737926	1,41789544	0,063603176153264717	2	0,00347000058	9,01826497E-005
2	1	0	1	0	1502,18	1,43188024	1,43235075	0,064930780480305318	2	0,00356384367	9,30036549E-005
2	1	0	1	0	1503,63	1,44638109	1,44668591	0,06683295113323351	2	0,00366019574	9,66862863E-005
2	1	0	0	0	1505,08	1,46088254	1,46135175	0,068196403464147123	2	0,00375871616	9,9658937E-005
2	1	0	1	0	1506,53	1,47538352	1,47592735	0,069362744591975053	2	0,00385895744	0,000102374375
2	1	0	1	0	1507,98	1,48988473	1,49044287	0,070264884561765939	2	0,00396067323	0,000104725797
2	1	0	0	0	1509,43	1,50438583	1,50491822	0,070937200430004403	2	0,00406368263	0,000106754684
2	1	0	0	0	1510,88	1,51888692	1,51936364	0,071579838385029683	2	0,00416763639	0,000108755805
2	1	0	1	0	1512,33	1,53338814	1,53369868	0,072326282601958835	2	0,00427258527	0,000110926725
2	1	0	1	0	1513,78	1,54788911	1,54838467	0,07264732670349417	2	0,004378499	0,000112486006
2	1	0	0	0	1515,23	1,56239021	1,56306064	0,073263639390158234	2	0,0044851955	0,000114515511
2	1	0	0	0	1516,68	1,57689202	1,57743728	0,073627510559258752	2	0,0045925309	0,000116142779
2	1	0	1	0	1518,13	1,5913924	1,59197128	0,074091767504190106	2	0,00470034871	0,000117951968
2	1	0	0	0	1519,58	1,60589337	1,60631645	0,074616745987441562	2	0,00480891904	0,000119858109
2	1	0	0	0	1521,03	1,62039471	1,62088192	0,075451493146829414	2	0,00491843186	0,000122297963
2	1	0	1	0	1522,48	1,6348958	1,63530719	0,076203020444760794	2	0,00502889557	0,000124615341
2	1	0	1	0	1523,93	1,64939678	1,64969242	0,07629271763532119	2	0,00514021423	0,000125859515
2	1	0	0	0	1525,38	1,66389811	1,66433835	0,077161802561021901	2	0,00525217084	0,000128423344
2	1	0	0	0	1526,83	1,67839909	1,67874348	0,07752866779143575	2	0,00536490232	0,000130150744
2	1	0	1	0	1528,28	1,69290018	1,6934495	0,078258941008243482	2	0,00547819259	0,000132527566
2	1	0	1	0	1529,73	1,70740128	1,70784473	0,078784195182379341	2	0,00559256878	0,00013455117
2	1	0	0	0	1531,18	1,72190237	1,72232008	0,079854515672195699	2	0,0057081515	0,00013753504
2	1	0	1	0	1532,63	1,73640358	1,73713648	0,080718352148930522	2	0,00582509208	0,000140218792
2	1	0	1	0	1534,08	1,75090468	1,75149155	0,082235040278949786	2	0,00594370579	0,000144033984
2	1	0	0	0	1535,53	1,76540565	1,7657063	0,08296668634284265	2	0,00606400939	0,0001464948
2	1	0	0	0	1536,98	1,77990675	1,78035212	0,084190905268769626	2	0,00618604757	0,000149889456
2	1	0	1	0	1538,43	1,79440796	1,79475749	0,085539766645524762	2	0,00630976772	0,000153523142
2	1	0	1	0	1539,88	1,80890906	1,8095336	0,086741327948402611	2	0,00643535703	0,000156961352
2	1	0	0	0	1541,33	1,82341015	1,82397902	0,088073312072083136	2	0,00656275637	0,000160643875
2	1	0	0	0	1542,78	1,83791125	1,83862484	0,089277481679649331	2	0,0066919704	0,000164147801
2	1	0	1	0	1544,23	1,85241246	1,85309029	0,090523646038491328	2	0,00682294369	0,000167748483
2	1	0	0	0	1545,68	1,86691356	1,8674854	0,091543425941684518	2	0,00695578381	0,000170956017
2	1	0	0	0	1547,13	1,88141465	1,88186049	0,09311501868069161	2	0,00709041627	0,000175229477
2	1	0	1	0	1548,58	1,89591563	1,8964262	0,094360111688729152	2	0,00722684711	0,000178946982
2	1	0	1	0	1550,03	1,91041672	1,91096175	0,095633233528739533	2	0,00736506609	0,00018275145
2	1	0	0	0	1551,48	1,92491794	1,92546725	0,096826216477590157	2	0,00750492606	0,000186435704
2	1	0	0	0	1552,93	1,93941903	1,9399426	0,097828136989846822	2	0,00764647685	0,000189780971
2	1	0	1	0	1554,42	1,95432019	1,95491946	0,098763716911586701	2	0,00779363234	0,000193075117
2	1	0	1	0	1555,87	1,96882129	1,9693948	0,099889158193643085	2	0,00793848466	0,000196721187
2	1	0	0	0	1557,32	1,98332238	1,98391032	0,10054915817454413	2	0,00808483176	0,000199480506
2	1	0	1	0	1558,77	1,9978236	1,99833548	0,10166565907032499	2	0,00823268853	0,000203162097
2	1	0	1	0	1560,22	2,01232457	2,01267076	0,10266825160942973	2	0,00838188268	0,000206637385
2	1	0	0	0	1561,67	2,02682567	2,02740669	0,10357961535919458	2	0,00853226706	0,000209998005
2	1	0	0	0	1563,12	2,04132676	2,04184222	0,1044860548572612	2	0,00868386403	0,000213344043
2	1	0	1	0	1564,57	2,05582786	2,05631733	0,10542733431793706	2	0,00883663911	0,000216792061
2	1	0	1	0	1566,02	2,07032895	2,07094312	0,1061836273098984	2	0,00899050105	0,000219900248
2	1	0	0	0	1567,47	2,08483005	2,08560896	0,10638033994473494	2	0,00914544519	0,000221867784
2	1	0	1	0	1568,92	2,09933233	2,09986329	0,10731051539932546	2	0,00930121914	0,000225337411
2	1	0	1	0	1570,37	2,11383224	2,1143496	0,10799367170936125	2	0,00945809577	0,000228336372
2	1	0	0	0	1571,82	2,12833333	2,12873459	0,10869094314208906	2	0,0096159447	0,000231374172
2	1	0	0	0	1573,27	2,14283466	2,14350057	0,10918572180283515	2	0,00977472961	0,00023403966
2	1	0	1	0	1574,72	2,15733552	2,1580863	0,10997795530905341	2	0,0099344831	0,000237341912
2	1	0	1	0	1576,17	2,17183661	2,17261219	0,11055080763374691	2	0,0100951446	0,000240184032
2	1	0	0	0	1577,62	2,18633771	2,18692708	0,11128881014883474	2	0,0102568045	0,000243380506
2	1	0	0	0	1579,07	2,2008388	2,20159292	0,11158599099144317	2	0,0104192989	0,000245666917
2	1	0	1	0	1580,52	2,2153399	2,21575761	0,11245218190985386	2	0,0105828354	0,000249166769
2	1	0	1	0	1581,97	2,22984028	2,23053217	0,11307238347706904	2	0,0107473843	0,000252211583
2	1	0	0	0	1583,42	2,24434233	2,24473834	0,11385283809310387	2	0,0109129781	0,000255569845
2	1	0	1	0	1584,87	2,25884342	2,25936413	0,11478302453178912	2	0,0110796159	0,000259336637
2	1	0	1	0	1586,32	2,27334452	2,2739501	0,11564553839464952	2	0,0112473778	0,000262972171
2	1	0	0	0	1587,77	2,28784561	2,28824496	0,11660410684999078	2	0,0114163607	0,000266818766
2	1	0	0	0	1589,22	2,30234671	2,30304122	0,11682268647321782	2	0,0115863811	0,00026904745
2	1	0	1	0	1590,67	2,3168478	2,31756687	0,11816288779179242	2	0,011757819	0,000273850397
2	1	0	1	0	1592,12	2,33134866	2,33182144	0,11904186468260946	2	0,0119305775	0,00027758436
2	1	0	0	0	1593,57	2,34584999	2,34650755	0,1200109677544483	2	0,01210465	0,000281606655
2	1	0	1	0	1595,02	2,36035228	2,36082387	0,12092017173767888	2	0,0122800944	0,000285471237
2	1	0	1	0	1596,47	2,37485218	2,37533808	0,12211918601921434	2	0,0124569852	0,000290074357
2	1	0	0	0	1597,92	2,38935328	2,39015412	0,12278117542155021	2	0,012635259	0,000293465942
2	1	0	0	0	1599,37	2,40385437	2,40445924	0,12376263365149499	2	0,0128148161	0,000297582214
2	1	0	1	0	1600,82	2,41835546	2,4191153	0,12445111801692587	2	0,0129957804	0,000301061606
2	1	0	1	0	1602,27	2,43285656	2,43350029	0,12549719730547304	2	0,0131781576	0,000305397465
2	1	0	0	0	1603,72	2,44735765	2,44792581	0,12653330531126494	2	0,0133619728	0,000309744151
2	1	0	0	0	1605,17	2,46185899	2,46234107	0,12760150510196861	2	0,0135472603	0,000314198434
2	1	0	1	0	1606,62	2,47636008	2,47714734	0,12858398693303296	2	0,0137340045	0,000318521488
2	1	0	1	0	1608,07	2,49086022	2,49158263	0,1297201844076017	2	0,0139222583	0,000323208573
2	1	0	0	0	1609,52	2,50536227	2,5060277	0,13086242581872875	2	0,0141117834	0,000327944872
2	1	0	1	0	1610,97	2,51986337	2,52050328	0,13158457431321314	2	0,0143029811	0,000331659365
2	1	0	1	0	1612,42	2,53436446	2,53505874	0,13310420117340938	2	0,0144958161	0,000337426958
2	1	0	0	0	1613,87	2,54886556	2,54950428	0,13428213850905491	2	0,0146903489	0,000342352898
2	1	0	0	0	1615,32	2,56336665	2,56415987	0,13563235399002816	2	0,0148865907	0,000347783032
2	1	0	1	0	1616,77	2,57786775	2,57873607	0,136759445769712	2	0,0150848133	0,00035266651
2	1	0	1	0	1618,22	2,59236884	2,59296036	0,13855768530629597	2	0,0152850971	0,000359274592
2	1	0	0	0	1619,67	2,60686994	2,60750628	0,13945479896695678	2	0,015487276	0,000363629253
2	1	0	0	0	1621,12	2,62137127	2,62191129	0,14106799354277254	2	0,0156915206	0,000369867776
2	1	0	1	0	1622,57	2,63587213	2,63654733	0,14231788642549282	2	0,0158978999	0,000375227857
2	1	0	0	0	1624,03	2,65037322	2,65107274	0,14412237800813011	2	0,0161066577	0,000382078899
2	1	0	0	0	1625,48	2,66487432	2,6654079	0,14579735785567565	2	0,0163178369	0,00038860942
2	1	0	1	0	1626,93	2,67937541	2,67989349	0,14753391194002096	2	0,0165314544	0,000395375158
2	1	0	1	0	1628,38	2,69387674	2,69426847	0,14935844577848957	2	0,0167476144	0,000402411737
2	1	0	0	0	1629,83	2,70837784	2,70896459	0,15111659474981322	2	0,0169663467	0,000409369502
2	1	0	0	0	1631,28	2,72287893	2,72358036	0,15306068867600208	2	0,0171877462	0,000416873081
2	1	0	1	0	1632,73	2,73738003	2,73813605	0,15460195570873702	2	0,0174117442	0,00042332118
2	1	0	0	0	1634,18	2,7518816	2,75241232	0,15674415083004534	2	0,0176383965	0,000431424531
2	1	0	0	0	1635,63	2,76638222	2,76699662	0,15875176091988851	2	0,0178678725	0,000439265597
2	1	0	1	0	1637,08	2,78088331	2,78175259	0,16090457149160397	2	0,018100258	0,000447596714
2	1	0	1	0	1638,53	2,79538441	2,79598737	0,16289967449847597	2	0,018335538	0,00045546543
2	1	0	0	0	1639,98	2,8098855	2,81030273	0,16512187325861306	2	0,0185739491	0,000464042445
2	1	0	0	0	1641,43	2,8243866	2,82507873	0,16729654786953098	2	0,0188155733	0,000472625921
2	1	0	1	0	1642,88	2,83888769	2,83946395	0,16965811870371274	2	0,0190605633	0,000481738098
2	1	0	1	0	1644,33	2,85338879	2,85404944	0,17175653658341654	2	0,0193091631	0,000490201637
2	1	0	0	0	1645,78	2,86788988	2,86835432	0,17470210786753648	2	0,0195615422	0,000501107541
2	1	0	0	0	1647,23	2,88239002	2,88326025	0,1775717390751792	2	0,0198179726	0,000511985563
2	1	0	1	0	1648,68	2,89689207	2,8973856	0,18067185623416048	2	0,0200787298	0,000523476047
2	1	0	0	0	1650,13	2,91139293	2,91211152	0,1834485067132241	2	0,0203439426	0,000534222519
2	1	0	0	0	1651,58	2,92589426	2,9264667	0,18717379689527046	2	0,0206137374	0,000547757896
2	1	0	1	0	1653,03	2,94039536	2,94100213	0,19065529131330528	2	0,0208886489	0,000560717599
2	1	0	1	0	1654,48	2,95489669	2,95523715	0,19441871760257802	2	0,0211688522	0,000574553444
2	1	0	0	0	1655,93	2,96939778	2,96986294	0,19844681660955078	2	0,0214545541	0,000589359843
2	1	0	0	0	1657,38	2,98389888	2,98454881	0,2026847360345223	2	0,0217460766	0,000604922476
2	1	0	1	0	1658,83	2,99839997	2,99906445	0,2069799789072313	2	0,0220436323	0,000620746287
2	1	0	0	0	1660,28	3,01290226	3,01360226	0,21102068618058166	2	0,022347508	0,000635932432
2	1	0	0	0	1661,73	3,02740216	3,02788472	0,21588232026745846	2	0,0226577073	0,000653666793
2	1	0	1	0	1663,18	3,04190326	3,04266095	0,22043065144680442	2	0,0229746923	0,000670695736
2	1	0	1	0	1664,63	3,05640435	3,0569458	0,22539845574647187	2	0,0232986063	0,000689030858
2	1	0	0	0	1666,08	3,07090545	3,07159162	0,23027019101815872	2	0,0236298405	0,000707296014
2	1	0	0	0	1667,53	3,08540654	3,08595705	0,23583509687644621	2	0,0239688344	0,000727776962
2	1	0	1	0	1668,98	3,09990764	3,10050249	0,24167469834598342	2	0,0243160743	0,000749312981
2	1	0	1	0	1670,43	3,11440873	3,11497784	0,24803515197709248	2	0,0246720146	0,000772623986
2	1	0	0	0	1671,88	3,12890959	3,12962365	0,2546266301845511	2	0,0250372831	0,000796885521
2	1	0	0	0	1673,33	3,14341021	3,14393854	0,26141820520162627	2	0,0254122335	0,000821882742
2	1	0	1	0	1674,78	3,15791178	3,15844417	0,26884383855697981	2	0,0257976353	0,000849128235
2	1	0	0	0	1676,23	3,17241287	3,17306995	0,27674027765169651	2	0,0261941701	0,000878116232
2	1	0	0	0	1677,68	3,18691421	3,18758559	0,28510811839563094	2	0,0266025625	0,000908806513
2	1	0	1	0	1679,13	3,2014153	3,20210099	0,29432984938224147	2	0,0270236023	0,000942473882
2	1	0	1	0	1680,58	3,2159164	3,21676683	0,30404083097043078	2	0,0274580959	0,000978028518
2	1	0	0	0	1682,03	3,23041749	3,23112226	0,31427681772038253	2	0,0279067867	0,00101546687
2	1	0	0	0	1683,48	3,24491858	3,24560761	0,32492545472147571	2	0,0283706281	0,00105458056
2	1	0	1	0	1684,93	3,25941944	3,26005292	0,33637491877501178	2	0,0288506635	0,00109660008
2	1	0	1	0	1686,38	3,27392173	3,2744782	0,34872186115280371	2	0,0293479133	0,00114188215
2	1	0	0	0	1687,83	3,28842211	3,28896332	0,36145365439976173	2	0,0298635401	0,00118880777
2	1	0	1	0	1689,28	3,3029232	3,30364943	0,3756058024397735	2	0,0303988922	0,00124086987
2	1	0	1	0	1690,73	3,31742406	3,31811523	0,3905801143652441	2	0,0309552066	0,00129598984
2	1	0	0	0	1692,18	3,33192515	3,33255005	0,4067785885805879	2	0,031534262	0,00135560997
2	1	0	0	0	1693,63	3,34642625	3,34714603	0,42329646445189971	2	0,03213704	0,00141683512
2	1	0	1	0	1695,08	3,36092734	3,36135054	0,44115193560719315	2	0,0327647738	0,00148286624
2	1	0	1	0	1696,53	3,37542844	3,376127	0,45930596518640954	2	0,0334183648	0,00155067525
2	1	0	0	0	1697,98	3,38992953	3,39059234	0,47908121875176768	2	0,0340996645	0,00162436906
2	1	0	1	0	1699,43	3,40443158	3,40518832	0,49980845084931149	2	0,0348104835	0,00170194195
2	1	0	1	0	1700,88	3,41893172	3,41965365	0,52195878047495994	2	0,0355523676	0,00178491825
2	1	0	0	0	1702,33	3,43343258	3,43410873	0,54447992006316691	2	0,0363264605	0,00186980329
2	1	0	0	0	1703,78	3,44793415	3,44855404	0,5677615897729975	2	0,0371338092	0,00195795647
2	1	0	1	0	1705,23	3,46243525	3,46317983	0,59198956688244928	2	0,0379753187	0,00205016625
2	1	0	1	0	1706,68	3,47693634	3,47769547	0,61631876990820083	2	0,0388517641	0,00214336906
2	1	0	0	0	1708,13	3,49143744	3,49213052	0,64151079285268595	2	0,0397644639	0,00224023941
2	1	0	0	0	1709,58	3,50593829	3,50663614	0,6665152180939895	2	0,0407139286	0,00233722641
2	1	0	1	0	1711,03	3,52043986	3,5211215	0,69267499369258624	2	0,0417007171	0,00243899273
2	1	0	1	0	1712,48	3,53494048	3,53557801	0,71822615184726502	2	0,0427245013	0,0025393446
2	1	0	0	0	1713,93	3,54944205	3,55023289	0,743495599832384	2	0,0437854417	0,00263958261
2	1	0	1	0	1715,38	3,56394291	3,56452799	0,76827835524454541	2	0,0448825359	0,00273854961
2	1	0	1	0	1716,83	3,578444	3,57918382	0,79234330325076736	2	0,046014823	0,00283594243
2	1	0	0	0	1718,28	3,5929451	3,59358883	0,81567802652716634	2	0,0471815802	0,00293121138
2	1	0	0	0	1719,73	3,60744619	3,60806465	0,83742358504483866	2	0,0483811311	0,00302147842
2	1	0	1	0	1721,18	3,62194729	3,62278032	0,85808561556041242	2	0,049611751	0,00310865557
2	1	0	1	0	1722,63	3,63644838	3,63684464	0,87764296370248115	2	0,0508714728	0,00319185108
2	1	0	0	0	1724,08	3,65094948	3,65171123	0,89637277616808576	2	0,0521588996	0,00327329454
2	1	0	0	0	1725,53	3,6654501	3,66616583	0,91352947283239066	2	0,053471826	0,00334915053
2	1	0	1	0	1726,98	3,67995143	3,6806221	0,9293968395019529	2	0,0548089221	0,00342075853
2	1	0	0	0	1728,43	3,69445252	3,695328	0,94390949296454707	2	0,0561680421	0,0034880552
2	1	0	0	0	1729,88	3,7089541	3,70970321	0,95816161328305331	2	0,0575478934	0,00355449528
2	1	0	1	0	1731,33	3,72345519	3,72428918	0,97104463043312	2	0,0589477606	0,00361645105
2	1	0	1	0	1732,78	3,73795629	3,73863411	0,98365452513098355	2	0,0603659004	0,00367752439
2	1	0	0	0	1734,23	3,75245714	3,75320935	0,99524726470311718	2	0,0618018657	0,0037353714
2	1	0	0	0	1735,72	3,7673583	3,76810598	1,0071331666161605	2	0,0632949546	0,00379498443
2	1	0	1	0	1737,17	3,7818594	3,78274155	1,0171931516379118	2	0,0647637621	0,00384777877
2	1	0	1	0	1738,62	3,79636097	3,79708695	1,0273556954807699	2	0,0662471205	0,00390095892
2	1	0	0	0	1740,07	3,81086206	3,81162262	1,0372374430298805	2	0,0677450895	0,00395355793
2	1	0	1	0	1741,52	3,82536292	3,82617807	1,0494500479350464	2	0,0692591816	0,00401538284
2	1	0	1	0	1742,97	3,83986402	3,84047318	1,0633111294979845	2	0,0707915425	0,00408361806
2	1	0	0	0	1744,42	3,85436511	3,85516906	1,0798091106116736	2	0,0723460317	0,0041628466
2	1	0	0	0	1745,87	3,86886621	3,86972451	1,1000160363813229	2	0,07392665	0,00425675884
2	1	0	1	0	1747,32	3,8833673	3,88406992	1,1243891806031208	2	0,0755400285	0,00436720625
2	1	0	1	0	1748,77	3,89786839	3,89873552	1,1526618994151541	2	0,0771913007	0,00449392386
2	1	0	0	0	1750,22	3,91236949	3,91309094	1,1842829134936128	2	0,0788864046	0,00463420665
2	1	0	1	0	1751,67	3,92687154	3,927526	1,217273439943856	2	0,0806284174	0,00478087319
2	1	0	1	0	1753,12	3,94137144	3,94224215	1,2479746794948917	2	0,0824170485	0,0049198186
2	1	0	0	0	1754,58	3,95587254	3,95649695	1,2760639513532333	2	0,0842488259	0,00504874298
2	1	0	0	0	1756,03	3,97037363	3,97128344	1,2984947332491501	2	0,0861169249	0,00515669072
2	1	0	1	0	1757,48	3,9848752	3,98575878	1,3182823496560285	2	0,0880159512	0,00525435526
2	1	0	1	0	1758,93	3,9993763	4,0001936	1,3342135219524315	2	0,089940317	0,00533711258
2	1	0	0	0	1760,38	4,01387691	4,01467896	1,3503433819860219	2	0,091888167	0,00542119518
2	1	0	0	0	1761,83	4,02837849	4,02914429	1,3656254038214738	2	0,0938583985	0,00550230173
2	1	0	1	0	1763,28	4,04287958	4,04386044	1,38143285239736	2	0,0958516076	0,00558632147
2	1	0	0	0	1764,73	4,05738163	4,05818605	1,3994309091368642	2	0,097868979	0,00567915104
2	1	0	0	0	1766,18	4,07188177	4,07260132	1,4178667391339914	2	0,0999127701	0,00577440578
2	1	0	1	0	1767,63	4,08638287	4,08710623	1,4393450791637115	2	0,101985313	0,00588275632
2	1	0	1	0	1769,08	4,10088396	4,1016717	1,4633128220836333	2	0,104090534	0,00600202894
2	1	0	0	0	1770,53	4,11538506	4,11630774	1,4912878287335226	2	0,106232733	0,00613859948
2	1	0	0	0	1771,98	4,12988615	4,13082314	1,5221851331492218	2	0,1084176	0,00628787745
2	1	0	1	0	1773,43	4,14438725	4,14535904	1,5585709406683926	2	0,110651292	0,00646083616
2	1	0	1	0	1774,88	4,15888786	4,15975523	1,5998331029216413	2	0,11294093	0,006654914
2	1	0	0	0	1776,33	4,17338943	4,17415905	1,6470013242214918	2	0,115295291	0,00687484536
2	1	0	0	0	1777,78	4,18789053	4,18859625	1,7018393569295734	2	0,117723376	0,00712831784
2	0	0	1	1	1779,17	4,19819164	4,1991806	1,7049655299633741	2	0,120125338	0,00715945801
2	0	0	0	1	1780,62	4,18369007	4,18458509	1,4646887844428358	2	0,122411326	0,00612911489
2	0	0	0	1	1782,07	4,16918898	4,16989899	1,273563221096989	2	0,124391928	0,00531062996
2	0	0	1	1	1783,52	4,15468788	4,15543365	1,1089169979095459	2	0,126115397	0,0046080309
2	0	0	1	1	1784,97	4,14018679	4,14092827	0,9656295338645577	2	0,127616361	0,00399860274
2	0	0	0	1	1786,42	4,12568569	4,12661314	0,84035601994643725	2	0,128922969	0,00346782431
2	0	0	1	1	1787,87	4,11118317	4,11193705	0,73028407829895053	2	0,130059019	0,00300288224
2	0	0	1	1	1789,32	4,0966835	4,09744167	0,63477737177163366	2	0,13104631	0,00260096323
2	0	0	0	1	1790,77	4,08218241	4,08294678	0,55096953758326304	2	0,131903917	0,00224957941
2	0	0	0	1	1792,26	4,06728125	4,06780958	0,47596488799899814	2	0,132666692	0,00193613453
2	0	0	1	1	1793,71	4,05278015	4,05352449	0,4123039683327079	2	0,133308396	0,0016712842
2	0	0	1	1	1795,16	4,03827906	4,03904915	0,35693986364640294	2	0,133864075	0,00144169771
2	0	0	0	1	1796,61	4,02377844	4,0244832	0,30850514707466029	2	0,13434495	0,00124157383
2	0	0	0	1	1798,06	4,00927734	4,0098877	0,26591406219328294	2	0,134759977	0,00106628553
2	0	0	1	1	1799,51	3,99477577	3,99546242	0,22831602208316282	2	0,135117203	0,000912228075
2	0	0	1	1	1800,96	3,98027563	3,98075724	0,19462343213646038	2	0,135422781	0,000774748623
2	0	0	0	1	1802,41	3,96577358	3,96638131	0,1647321861625335	2	0,135682181	0,000653390656
2	0	0	1	1	1803,86	3,95127273	3,95211649	0,13701939924309547	2	0,135899767	0,000541516638
2	0	0	1	1	1805,31	3,93677115	3,93755054	0,1115947988582775	2	0,136078924	0,000439410156
2	0	0	0	1	1806,76	3,92227006	3,92298508	0,087860576827855309	2	0,13622269	0,000344675733
2	0	0	0	1	1808,21	3,90776896	3,90853953	0,065626471342208448	2	0,136333004	0,00025650367
2	0	0	1	1	1809,70	3,8928678	3,89373326	0,043756737887936826	2	0,136413679	0,000170377069
2	0	0	1	1	1811,15	3,87836695	3,87900758	0,023808579615433699	2	0,136461884	9,23536572E-005
2	0	0	0	1	1812,62	3,86366534	3,86462712	0,004713066020485712	2	0,136482045	1,8214243E-005
2	0	0	1	1	1814,13	3,84856462	3,84931517	-0,013076727026297418	2	0,136474952	5,03364427E-005
2	0	0	1	1	1815,58	3,83406353	3,83475924	-0,029078817101738624	2	0,136443332	0,000111510264
2	0	0	0	1	1817,03	3,81956244	3,82022357	-0,043350252662397395	2	0,136390001	0,000165607664
2	0	0	0	1	1818,48	3,80506134	3,80580854	-0,056183987685168858	2	0,13631694	0,000213825493
2	0	0	1	1	1819,93	3,79056025	3,79112267	-0,067604193638544525	2	0,136226401	0,000256295782
2	0	0	1	1	1821,38	3,77605915	3,77668738	-0,077519534912426138	2	0,136120439	0,000292767043
2	0	0	0	1	1822,83	3,76155806	3,76222157	-0,086472463794052595	2	0,136000738	0,000325328583
2	0	0	0	1	1824,28	3,74705696	3,74762583	-0,09445774658039863	2	0,135868698	0,000353992276
2	0	0	1	1	1825,77	3,7321558	3,73275948	-0,10193274608658021	2	0,135721505	0,000380490412
2	0	0	0	1	1827,22	3,71765494	3,71835399	-0,1085297128884124	2	0,135568365	0,00040355188
2	0	0	0	1	1828,67	3,70315385	3,70406938	-0,11458308490303626	2	0,135405838	0,000424423692
2	0	0	1	1	1830,12	3,68865228	3,6894536	-0,12033690981722112	2	0,135234788	0,000443977449
2	0	0	1	1	1831,57	3,67415118	3,67502809	-0,12561438678919035	2	0,13505581	0,000461636402
2	0	0	0	1	1833,02	3,65965009	3,66026235	-0,13046302848185176	2	0,134869531	0,000477528898
2	0	0	0	1	1834,47	3,64514923	3,6455965	-0,13453841178367565	2	0,134676561	0,000490472768
2	0	0	1	1	1835,92	3,63064814	3,63146162	-0,13888449974668515	2	0,134477183	0,000504353724
2	0	0	1	1	1837,37	3,61614656	3,61687613	-0,14286335740083267	2	0,134272009	0,000516719068
2	0	0	0	1	1838,82	3,60164547	3,60240078	-0,1465873627069727	2	0,134061202	0,000528066419
2	0	0	1	1	1840,27	3,58714461	3,58782482	-0,15017576612687379	2	0,133845285	0,000538804336
2	0	0	1	1	1841,72	3,57264352	3,5732193	-0,15341130162899642	2	0,13362439	0,000548172218
2	0	0	0	1	1843,17	3,55814242	3,55866361	-0,15675780475915645	2	0,133398876	0,000557848311
2	0	0	0	1	1844,62	3,54364133	3,54471946	-0,15906360458272205	2	0,133169204	0,000563835842
2	0	0	1	1	1846,07	3,52914023	3,52995348	-0,16195122878222467	2	0,132935584	0,000571680313
2	0	0	1	1	1847,52	3,51463914	3,51560807	-0,16441899817436912	2	0,132698283	0,000578032748
2	0	0	0	1	1848,97	3,50013804	3,50093246	-0,16696130038083834	2	0,132457331	0,000584520225
2	0	0	0	1	1850,42	3,48563695	3,48638654	-0,16910114500205965	2	0,132213101	0,000589551928
2	0	0	1	1	1851,87	3,47113609	3,47204161	-0,17156570226264512	2	0,131965503	0,000595683232
2	0	0	0	1	1853,32	3,45663548	3,45732713	-0,17353846487208614	2	0,131714731	0,000599979248
2	0	0	0	1	1854,77	3,44213343	3,44284987	-0,17559014365542746	2	0,131461009	0,000604530505
2	0	0	1	1	1856,22	3,42763233	3,42823434	-0,17720824394685402	2	0,131204292	0,000607511378
2	0	0	1	1	1857,67	3,41313124	3,41366887	-0,17936168285086838	2	0,130944744	0,000612281379
2	0	0	0	1	1859,12	3,39863038	3,39941382	-0,1812120809142167	2	0,130682305	0,000616014877
2	0	0	0	1	1860,57	3,38412929	3,38482809	-0,18330393622939821	2	0,130417049	0,000620452338
2	0	0	1	1	1862,02	3,36962819	3,37035275	-0,1851238276964673	2	0,130148932	0,000623932574
2	0	0	1	1	1863,47	3,35512662	3,3558774	-0,18734458162604506	2	0,129878104	0,000628705428
2	0	0	0	1	1864,92	3,34062576	3,34123135	-0,18924048589542518	2	0,129604414	0,000632296258
2	0	0	0	1	1866,37	3,32612538	3,32692766	-0,19099874413696448	2	0,129327968	0,000635439006
2	0	0	1	1	1867,82	3,31162357	3,31233096	-0,19274071367302349	2	0,129048929	0,000638421043
2	0	0	0	1	1869,27	3,29712248	3,29793572	-0,19460544451916029	2	0,128767312	0,000641796272
2	0	0	0	1	1870,72	3,28262138	3,28324938	-0,19648688115800538	2	0,128483251	0,000645115448
2	0	0	1	1	1872,17	3,26812029	3,2686739	-0,19802411901764659	2	0,128196582	0,000647276291
2	0	0	1	1	1873,62	3,25361919	3,25417852	-0,19991793436929584	2	0,127907529	0,000650568632
2	0	0	0	1	1875,07	3,2391181	3,2396729	-0,20126403177467632	2	0,127615958	0,000652029645
2	0	0	0	1	1876,52	3,22461677	3,22528768	-0,20316726698850608	2	0,127322063	0,000655272859
2	0	0	1	1	1877,97	3,21011567	3,21091247	-0,20395164044263504	2	0,127025917	0,000654870877
2	0	0	0	1	1879,43	3,19561434	3,19622517	-0,20606390415052144	2	0,126727358	0,00065862661
2	0	0	0	1	1880,88	3,18111348	3,1816709	-0,20773970374527107	2	0,126426443	0,000660959398
2	0	0	1	1	1882,33	3,16661239	3,16715574	-0,20948011567816227	2	0,126123145	0,000663456158
2	0	0	1	1	1883,78	3,15211153	3,1526103	-0,21094655113605133	2	0,125817686	0,000665032247
2	0	0	0	1	1885,23	3,13761044	3,13806438	-0,21247896164034819	2	0,125509813	0,000666772656
2	0	0	0	1	1886,68	3,12310934	3,12359905	-0,21421556205799149	2	0,125199795	0,000669123547
2	0	0	1	1	1888,13	3,10860825	3,10882282	-0,2154566237392519	2	0,124887563	0,000669816451
2	0	0	1	1	1889,58	3,09410715	3,094558	-0,21688796059849392	2	0,124573283	0,000671172398
2	0	0	0	1	1891,03	3,07960606	3,08010268	-0,21856214820096877	2	0,124256879	0,000673193834
2	0	0	0	1	1892,48	3,06510615	3,06582952	-0,21994612546597158	2	0,123938315	0,0006743173
2	0	0	1	1	1893,93	3,05060387	3,05121183	-0,22126313531771302	2	0,123617925	0,000675120682
2	0	0	0	1	1895,38	3,03610277	3,03665638	-0,22249343269504694	2	0,123295583	0,000675636111
2	0	0	0	1	1896,83	3,02160168	3,02213073	-0,22388173872604989	2	0,122971505	0,000676599855
2	0	0	1	1	1898,28	3,00710058	3,00762534	-0,22493123232076506	2	0,122645691	0,000676508876
2	0	0	1	1	1899,73	2,99259949	2,99316978	-0,22564644622616381	2	0,122318238	0,0006753981
2	0	0	0	1	1901,18	2,97809839	2,97863436	-0,22680051011654179	2	0,121989131	0,000675555784
2	0	0	0	1	1902,63	2,96359706	2,96405888	-0,22788818785920829	2	0,121658571	0,000675474002
2	0	0	1	1	1904,08	2,94909596	2,94962335	-0,2289055471774193	2	0,121326558	0,000675185118
2	0	0	0	1	1905,53	2,93459415	2,93497777	-0,22975931220462797	2	0,120993115	0,000674338487
2	0	0	0	1	1906,98	2,92009377	2,92036152	-0,23069211429295456	2	0,120658509	0,000673704373
2	0	0	1	1	1908,43	2,90559268	2,90628743	-0,23114070676577603	2	0,120322861	0,000671761343
2	0	0	1	1	1909,88	2,89109159	2,89175177	-0,23214319022372365	2	0,119986139	0,000671300455
2	0	0	0	1	1911,33	2,87659049	2,87725616	-0,23246215935796544	2	0,119648434	0,000668853172
2	0	0	0	1	1912,78	2,8620894	2,86257005	-0,23310453615461846	2	0,119310014	0,000667278073
2	0	0	1	1	1914,23	2,8475883	2,84801483	-0,23375012772157878	2	0,118970931	0,000665723812
2	0	0	1	1	1915,68	2,83308721	2,83370972	-0,2339945752949768	2	0,118631266	0,000663072686
2	0	0	0	1	1917,13	2,81858611	2,81904411	-0,23432261496782349	2	0,118291304	0,000660565798
2	0	0	1	1	1918,58	2,80408597	2,80460954	-0,23411734500833014	2	0,117951222	0,000656607735
2	0	0	1	1	1920,03	2,78958392	2,79007292	-0,23396142828278243	2	0,117611431	0,000652769464
2	0	0	0	1	1921,48	2,77508283	2,77552724	-0,23314183088950768	2	0,117272012	0,000647091481
2	0	0	0	1	1922,93	2,76058173	2,76139283	-0,23282608257917136	2	0,116933279	0,000642924279
2	0	0	1	1	1924,38	2,7460804	2,74688721	-0,23195604258216918	2	0,11659544	0,000637157063
2	0	0	1	1	1925,83	2,73157954	2,7323215	-0,23137801908887971	2	0,116258599	0,00063219911
2	0	0	0	1	1927,28	2,71707845	2,71757579	-0,23055062295558538	2	0,115922987	0,000626538764
2	0	0	0	1	1928,73	2,70257711	2,70322037	-0,2294677713265023	2	0,115588613	0,000620301929
2	0	0	1	1	1930,18	2,68807602	2,68847418	-0,22861621350360474	2	0,115255713	0,000614628778
2	0	0	1	1	1931,63	2,67357588	2,67439032	-0,22749656554886576	2	0,114924304	0,000608414586
2	0	0	0	1	1933,08	2,65907383	2,65960383	-0,22609015647321939	2	0,114594519	0,000601310225
2	0	0	1	1	1934,53	2,64457273	2,64524865	-0,22501774970442144	2	0,114266321	0,000595227873
2	0	0	1	1	1935,98	2,63007164	2,63073301	-0,22413330571725965	2	0,113939896	0,000589634874
2	0	0	0	1	1937,43	2,61557055	2,6162076	-0,22286869057764669	2	0,113615282	0,000583070738
2	0	0	0	1	1938,88	2,60106945	2,60149145	-0,22147140333739434	2	0,113292642	0,000576155959
2	0	0	1	1	1940,33	2,58656836	2,58701611	-0,22017209573338547	2	0,112971939	0,000569588738
2	0	0	1	1	1941,78	2,57206726	2,57270098	-0,2187798214921104	2	0,112653308	0,000562855043
2	0	0	0	1	1943,23	2,55756617	2,55817556	-0,21689014858566314	2	0,112336732	0,000554843107
2	0	0	1	1	1944,68	2,54306436	2,54351735	-0,21530392893190042	2	0,112022497	0,000547629257
2	0	0	1	1	1946,13	2,52856398	2,52908444	-0,2138010657702889	2	0,111710608	0,000540720939
2	0	0	0	1	1947,58	2,51406288	2,51459885	-0,21215986654472906	2	0,111401126	0,000533496961
2	0	0	0	1	1949,03	2,49956179	2,50026369	-0,20980095126045261	2	0,111094162	0,000524557719
2	0	0	1	1	1950,48	2,48506069	2,48587871	-0,20855539687909296	2	0,110789992	0,000518443412
2	0	0	1	1	1951,93	2,4705596	2,47118282	-0,20661274382534157	2	0,110488288	0,000510577869
2	0	0	0	1	1953,38	2,4560585	2,45673728	-0,20495541983594602	2	0,110189095	0,000503521645
2	0	0	0	1	1954,83	2,44155717	2,44201136	-0,20278257488583539	2	0,109892569	0,000495197368
2	0	0	1	1	1956,28	2,42705607	2,42757583	-0,20100130893600544	2	0,109598696	0,000487945916
2	0	0	1	1	1957,73	2,41255617	2,41312122	-0,19934942204140826	2	0,109307595	0,000481054332
2	0	0	0	1	1959,18	2,39805388	2,39864516	-0,19747924509768765	2	0,109018996	0,000473682623
2	0	0	1	1	1960,63	2,38355279	2,38399911	-0,19590853682408848	2	0,108733296	0,000467045786
2	0	0	1	1	1962,08	2,36905169	2,36959386	-0,19401573707970422	2	0,108450226	0,000459738512
2	0	0	0	1	1963,53	2,3545506	2,35504842	-0,19224092942507376	2	0,108169794	0,000452736684
2	0	0	0	1	1964,98	2,34004951	2,34060287	-0,18990306920992726	2	0,107892044	0,000444487669
2	0	0	1	1	1966,43	2,32554841	2,3260777	-0,18840165801035981	2	0,107616924	0,000438236893
2	0	0	1	1	1967,88	2,31104732	2,31165218	-0,18667284969706054	2	0,107344329	0,000431522698
2	0	0	0	1	1969,33	2,29654646	2,29698658	-0,18510893196798883	2	0,107074119	0,000425192731
2	0	0	1	1	1970,78	2,28204417	2,28244042	-0,18346109715241021	2	0,106806323	0,000418739015
2	0	0	1	1	1972,23	2,26754403	2,26798511	-0,18186589652517248	2	0,10654074	0,000412469148
2	0	0	0	1	1973,68	2,25304294	2,25371027	-0,18047162971924986	2	0,106277287	0,000406730775
2	0	0	0	1	1975,13	2,23854184	2,23905444	-0,17906013065173011	2	0,106016017	0,000400925375
2	0	0	1	1	1976,58	2,22404075	2,2246995	-0,1774769322946672	2	0,105756566	0,000394832838
2	0	0	1	1	1978,03	2,20953965	2,2100637	-0,17647415857451731	2	0,105498977	0,000390019122
2	0	0	0	1	1979,48	2,19503856	2,19540763	-0,17529694371235837	2	0,10524299	0,000384848245
2	0	0	0	1	1980,93	2,18053722	2,18098235	-0,17437823054691149	2	0,104988724	0,000380315847
2	0	0	1	1	1982,38	2,16603613	2,16658735	-0,17337361490353942	2	0,104735933	0,000375629083
2	0	0	1	1	1983,83	2,15153599	2,15209222	-0,17265113754818806	2	0,104484528	0,000371561182
2	0	0	0	1	1985,28	2,13703394	2,13751602	-0,17185311535528624	2	0,104234383	0,000367338798
2	0	0	1	1	1986,73	2,12253284	2,1231811	-0,17061274948840288	2	0,103985414	0,000362241757
2	0	0	1	1	1988,18	2,10803175	2,10880589	-0,17006647718759827	2	0,103737608	0,000358637189
2	0	0	0	1	1989,63	2,09353065	2,0939393	-0,16945980167171638	2	0,10349068	0,000354838528
2	0	0	0	1	1991,08	2,0790298	2,0795846	-0,16895667048326435	2	0,103244819	0,000351359689
2	0	0	1	1	1992,53	2,06452847	2,0649786	-0,16837790426022102	2	0,102999538	0,000347696769
2	0	0	1	1	1993,98	2,05002761	2,0505836	-0,16819352334520544	2	0,102754861	0,000344894885
2	0	0	0	1	1995,43	2,03552651	2,0360477	-0,16776403303568576	2	0,102510653	0,000341575564
2	0	0	0	1	1996,88	2,02102447	2,02160072	-0,16767380887312	2	0,102266826	0,00033896949
2	0	0	1	1	1998,33	2,00652409	2,00706697	-0,16713984264060922	2	0,102023259	0,000335460849
2	0	0	0	1	1999,78	1,99202311	1,99252141	-0,16725072396608688	2	0,101779751	0,000333250646
2	0	0	0	1	2001,23	1,9775219	1,97805583	-0,16730981968187997	2	0,101536304	0,000330948154
2	0	0	1	1	2002,68	1,9630208	1,96352041	-0,16757425976296259	2	0,10129261	0,00032903548
2	0	0	1	1	2004,13	1,94851971	1,94912505	-0,16794484399724842	2	0,101048641	0,000327345508
2	0	0	0	1	2005,58	1,93401849	1,93455958	-0,16827030390656294	2	0,100804262	0,000325528934
2	0	0	0	1	2007,03	1,9195174	1,92019451	-0,16872154711745725	2	0,100559413	0,000323978195
2	0	0	1	1	2008,48	1,9050163	1,90569878	-0,16868029620187968	2	0,100314021	0,000321453845
2	0	0	1	1	2009,93	1,89051533	1,89122343	-0,16942940489389046	2	0,10006804	0,000320428866
2	0	0	0	1	2011,39	1,87601423	1,87644732	-0,16994535523311603	2	0,099821344	0,000318893493
2	0	0	1	1	2012,84	1,86151314	1,86202204	-0,17058114924778534	2	0,0995738432	0,000317625847
2	0	0	1	1	2014,29	1,84701192	1,84759676	-0,17099501506891078	2	0,0993256494	0,00031592985
2	0	0	0	1	2015,74	1,83251083	1,83310115	-0,17160460473193462	2	0,0990765691	0,000314568606
2	0	0	0	1	2017,19	1,81800973	1,81843543	-0,17215602414216867	2	0,0988266468	0,000313054625
2	0	0	1	1	2018,64	1,80350852	1,80374956	-0,17283238982781766	2	0,098575823	0,000311746349
2	0	0	1	1	2020,09	1,78900743	1,78929412	-0,17316977287797907	2	0,0983240902	0,000309851661
2	0	0	0	1	2021,54	1,77450645	1,77472842	-0,17405213023691158	2	0,0980713442	0,000308895251
2	0	0	0	1	2022,99	1,76000535	1,76059389	-0,1748587908999375	2	0,0978174657	0,000307855313
2	0	0	1	1	2024,44	1,74550426	1,74605823	-0,1757205099177863	2	0,0975623876	0,000306818256
2	0	0	0	1	2025,89	1,73100317	1,73172331	-0,17658004261708538	2	0,0973060057	0,000305787777
2	0	0	0	1	2027,34	1,71650195	1,71700716	-0,1776457400216409	2	0,0970483497	0,000305018999
2	0	0	1	1	2028,79	1,70200086	1,70232129	-0,17877418796221446	2	0,0967892632	0,000304331101
2	0	0	1	1	2030,24	1,68749988	1,68780589	-0,17950811590223293	2	0,0965287015	0,000302974862
2	0	0	0	1	2031,69	1,67299855	1,67343056	-0,18091361601060906	2	0,096266523	0,000302746368
2	0	0	0	1	2033,14	1,65849745	1,65899539	-0,18208705218664067	2	0,0960026905	0,000302081578
2	0	0	1	1	2034,59	1,64399648	1,64448988	-0,18339049664791741	2	0,0957370996	0,000301583816
2	0	0	1	1	2036,04	1,62949538	1,62983382	-0,18462311736463331	2	0,0954696089	0,000300904998
2	0	0	0	1	2037,49	1,61499429	1,61545885	-0,18612036159417232	2	0,0952002183	0,000300669781
2	0	0	1	1	2038,94	1,60049319	1,60083294	-0,18744565915161139	2	0,0949287489	0,000300069194
2	0	0	1	1	2040,39	1,58599198	1,58640754	-0,1890150777374704	2	0,0946551189	0,000299854932
2	0	0	0	1	2041,84	1,57149088	1,57202232	-0,19030086346901952	2	0,0943792686	0,000299157196
2	0	0	0	1	2043,29	1,55698991	1,55758715	-0,19210876640863693	2	0,0941010639	0,000299226143
2	0	0	1	1	2044,74	1,54248869	1,54317188	-0,19384542670256134	2	0,0938203558	0,000299136824
2	0	0	1	1	2046,19	1,5279876	1,5286063	-0,19571619325627898	2	0,0935370922	0,000299173
2	0	0	0	1	2047,64	1,51348662	1,51399052	-0,19758020783774643	2	0,0932511538	0,000299134554
2	0	0	0	1	2049,09	1,49898553	1,49944484	-0,19952785503119274	2	0,0929624364	0,000299181003
2	0	0	1	1	2050,54	1,48448443	1,48495936	-0,20161447456727456	2	0,092670843	0,000299389299
2	0	0	0	1	2051,99	1,46998334	1,4705441	-0,20339574432000518	2	0,0923763812	0,000299102423
2	0	0	0	1	2053,44	1,45548213	1,45605862	-0,20570117638756803	2	0,0920790508	0,000299512962
2	0	0	1	1	2054,89	1,44098103	1,44147313	-0,20769662503153085	2	0,0917787477	0,000299389096
2	0	0	1	1	2056,34	1,42647994	1,42721808	-0,20972698709616998	2	0,0914755613	0,000299326144
2	0	0	0	1	2057,79	1,41197872	1,41269267	-0,21159797635239875	2	0,0911694989	0,000298922911
2	0	0	0	1	2059,24	1,39747763	1,39804673	-0,21345340677847478	2	0,0908606648	0,000298417843
2	0	0	1	1	2060,69	1,38297665	1,38348114	-0,21523924032226272	2	0,090549171	0,000297779421
2	0	0	1	1	2062,14	1,36847556	1,36898577	-0,21689865854568781	2	0,0902352557	0,00029693119
2	0	0	0	1	2063,59	1,35397434	1,35457039	-0,21809177209312701	2	0,0899189711	0,000295420643
2	0	0	1	1	2065,04	1,33947325	1,34009492	-0,21965018644308064	2	0,0896006078	0,000294352096
2	0	0	1	1	2066,49	1,32497203	1,32550931	-0,22101738668667891	2	0,0892802998	0,000292960613
2	0	0	0	1	2067,94	1,31047106	1,31103384	-0,22203296019385331	2	0,0889582708	0,000291092729
2	0	0	0	1	2069,39	1,29596996	1,29652834	-0,22280286648310765	2	0,088634856	0,000288870244
2	0	0	1	1	2070,84	1,28146875	1,2821331	-0,22356965586853584	2	0,088310279	0,000286646071
2	0	0	1	1	2072,29	1,26696777	1,26765776	-0,22403621890892598	2	0,0879849717	0,00028400126
2	0	0	0	1	2073,74	1,25246668	1,25326252	-0,22435211196231376	2	0,0876589715	0,000281172106
2	0	0	0	1	2075,19	1,23796546	1,2384963	-0,22465240551779651	2	0,0873325914	0,000278231164
2	0	0	1	1	2076,64	1,22346449	1,22389054	-0,22486900313136448	2	0,0870058537	0,000275215047
2	0	0	0	1	2078,09	1,20896316	1,20963573	-0,22523715409139776	2	0,08667887	0,000272454898
2	0	0	0	1	2079,54	1,19446218	1,19507015	-0,22534511090877139	2	0,0863516182	0,000269303215
2	0	0	1	1	2080,99	1,17996109	1,18039417	-0,22602238211159965	2	0,086023815	0,000266795512
2	0	0	1	1	2082,44	1,16545999	1,16601896	-0,22650475023935357	2	0,0856952593	0,000264108821
2	0	0	0	1	2083,89	1,15095878	1,15138316	-0,22747783223167094	2	0,0853655413	0,00026191416
2	0	0	0	1	2085,34	1,1364578	1,13713825	-0,22827688379523715	2	0,0850343406	0,00025958239
2	0	0	1	1	2086,79	1,12195671	1,12246239	-0,23015996410200979	2	0,0847009867	0,000258345914
2	0	0	1	1	2088,24	1,10745549	1,10790682	-0,23217336212595363	2	0,0843650252	0,000257226464
2	0	0	0	1	2089,69	1,0929544	1,09349144	-0,23473560344427869	2	0,0840256587	0,000256681378
2	0	0	1	1	2091,14	1,07845318	1,07890582	-0,23758026460806557	2	0,0836824328	0,000256326719
2	0	0	1	1	2092,59	1,06395221	1,06442034	-0,24066958692856176	2	0,0833349898	0,000256173604
2	0	0	0	1	2094,04	1,04945111	1,04984462	-0,24402662289018461	2	0,0829827413	0,000256190047
2	0	0	0	1	2095,49	1,03495002	1,0354495	-0,24765455575349382	2	0,082625486	0,000256433792
2	0	0	1	1	2096,94	1,02044892	1,02078354	-0,25159880681894774	2	0,0822626874	0,000256827916
2	0	0	1	1	2098,39	1,00594783	1,00651872	-0,25587764188336771	2	0,0818940327	0,000257545646
2	0	0	0	1	2099,84	0,991446793	0,991943061	-0,26060684762584698	2	0,0815189406	0,000258507149
2	0	0	0	1	2101,29	0,976945698	0,977036536	-0,2654137258262681	2	0,081137158	0,000259318913
2	0	0	1	1	2102,74	0,962444544	0,962591231	-0,27018862303035894	2	0,0807482898	0,0002600812
2	0	0	0	1	2104,19	0,947943389	0,948115766	-0,27547010220587386	2	0,0803521052	0,000261177542
2	0	0	0	1	2105,64	0,933442354	0,933991253	-0,28082922527877098	2	0,0799482912	0,000262292044
2	0	0	1	1	2107,09	0,918941259	0,919425666	-0,28589216821516493	2	0,0795365646	0,0002628566
2	0	0	1	1	2108,54	0,904440105	0,904719591	-0,29159956860045664	2	0,0791169405	0,000263815833
2	0	0	0	1	2109,99	0,889938951	0,890404582	-0,29723916195022592	2	0,0786890611	0,000264663104
2	0	0	0	1	2111,44	0,875437856	0,87590915	-0,302727854577824	2	0,0782532692	0,000265162089
2	0	0	1	1	2112,89	0,860936821	0,861273289	-0,3081641837488873	2	0,0778094605	0,000265413575
2	0	0	1	1	2114,34	0,846435726	0,846767783	-0,31356460546764307	2	0,0773578808	0,000265516399
2	0	0	0	1	2115,79	0,831934571	0,832462847	-0,31848093572383142	2	0,0768988281	0,000265123555
2	0	0	1	1	2117,24	0,817433417	0,817766845	-0,32327688694931565	2	0,0764325857	0,00026436511
2	0	0	1	1	2118,69	0,802932382	0,803331554	-0,327756789357712	2	0,0759595856	0,000263297377
2	0	0	0	1	2120,14	0,788431287	0,788765848	-0,33234546372356544	2	0,0754798949	0,000262142741
2	0	0	0	1	2121,59	0,773930192	0,774380744	-0,33673112443648365	2	0,0749940723	0,000260758097
2	0	0	1	1	2123,04	0,759429038	0,759945393	-0,34027659621400173	2	0,0745023862	0,000258591637
2	0	0	1	1	2124,49	0,744927943	0,745409846	-0,3441969436438137	2	0,0740055293	0,000256567786
2	0	0	0	1	2125,94	0,730426848	0,730904341	-0,34733524111409952	2	0,073503606	0,000253868842
2	0	0	0	1	2127,39	0,715925753	0,716318607	-0,35029797946723827	2	0,0729972571	0,000250924961
2	0	0	1	1	2128,84	0,701424658	0,701783061	-0,35256210636968576	2	0,0724867433	0,000247422111
2	0	0	0	1	2130,29	0,686923504	0,687197387	-0,35520636934476557	2	0,0719725117	0,000244096882
2	0	0	0	1	2131,74	0,672422409	0,672812164	-0,35731860265756723	2	0,0714550763	0,000240408306
2	0	0	1	1	2133,19	0,657921314	0,658266544	-0,35941168759018093	2	0,0709345117	0,00023658869
2	0	0	1	1	2134,64	0,643420219	0,643590629	-0,36104367044754323	2	0,0704114661	0,000232364328
2	0	0	0	1	2136,09	0,628919065	0,629165351	-0,36271809739992026	2	0,0698859021	0,000228209654
2	0	0	0	1	2137,54	0,61441797	0,614569604	-0,36471407821712454	2	0,0693577006	0,00022414219
2	0	0	1	1	2138,99	0,599916875	0,60052526	-0,36721896411230182	2	0,0688261986	0,000220524264
2	0	0	1	1	2140,44	0,585415781	0,585929573	-0,36962472282660653	2	0,0682910308	0,000216574059
2	0	0	0	1	2141,90	0,570914626	0,571303785	-0,37284356301339981	2	0,0677516907	0,000213006933
2	0	0	1	1	2143,35	0,556413591	0,556918561	-0,37618120596744301	2	0,0672076419	0,000209502294
2	0	0	1	1	2144,80	0,541912436	0,542242587	-0,38002904690802099	2	0,0666587502	0,00020606794
2	0	0	0	1	2146,25	0,527411342	0,527717113	-0,38405812042765363	2	0,0661042631	0,00020267404
2	0	0	0	1	2147,70	0,512910247	0,513211668	-0,38811514643020928	2	0,0655439943	0,000199185219
2	0	0	1	1	2149,15	0,498409122	0,498796344	-0,3926486911562583	2	0,0649774671	0,000195851739
2	0	0	1	1	2150,60	0,483908027	0,48421067	-0,39670871260265536	2	0,06440451	0,000192090592
2	0	0	0	1	2152,05	0,469406903	0,46986559	-0,4017260835195593	2	0,0638246313	0,000188757258
2	0	0	0	1	2153,50	0,454906315	0,45522055	-0,40699756286066522	2	0,0632375106	0,00018527366
2	0	0	1	1	2154,95	0,440404683	0,440724283	-0,4126799199730167	2	0,0626426786	0,000181878058
2	0	0	0	1	2156,40	0,425903589	0,426359087	-0,41857789689674976	2	0,0620391518	0,000178464485
2	0	0	0	1	2157,85	0,411402464	0,411683202	-0,42530652058000307	2	0,0614267066	0,000175091554
2	0	0	1	1	2159,30	0,396901369	0,397237837	-0,43216753409554534	2	0,0608042814	0,000171673295
2	0	0	1	1	2160,75	0,382400304	0,382632107	-0,43993094268565389	2	0,0601713285	0,00016833171
2	0	0	0	1	2162,20	0,36789915	0,36826697	-0,44761370836446624	2	0,059527006	0,000164841345
2	0	0	0	1	2163,65	0,353398055	0,353631139	-0,4566333297019207	2	0,0588704608	0,000161479766
2	0	0	1	1	2165,10	0,33889696	0,339536667	-0,46646205646296314	2	0,0582002811	0,000158380979
2	0	0	1	1	2166,55	0,324395835	0,324690342	-0,47762258723378182	2	0,0575150847	0,00015507944
2	0	0	0	1	2168,00	0,309894741	0,310084611	-0,49037295657520525	2	0,0568127744	0,00015205711
2	0	0	1	1	2169,45	0,295393646	0,295689374	-0,50497292380780045	2	0,0560906343	0,000149315121
2	0	0	1	1	2170,90	0,280892521	0,281364322	-0,52231609945495949	2	0,0553456657	0,000146961116
2	0	0	1	1	2171,92	0,270591825	0,270638138	-0,53668016195297242	2	0,0548028387	0,000145246115