File: Experimentelles/Rohdaten/Batteriemessungen/AlteZelle/150511_LLTO_LTO_Tests/ECLab-Export/LLTO_LP30_LTO_05_GCPL_C01_loop5.mpt
EC-Lab ASCII FILE
Nb header lines : 3
mode	ox/red	error	control changes	Ns changes	counter inc.	Ns	time/s	control/V/mA	Ewe/V	dq/mA.h	<I>/mA	P/W	(Q-Qo)/mA.h	x	Capacity/mA.h
1	0	0	1	1	0	1	203052,67	-0,0100000007	2,59785438	0	0	0	0	0	0
1	0	0	1	0	0	1	203192,67	-0,0100000007	2,31626177	-2,7757401609689824E-005	-0,0099926630160143731	2,31456233E-005	-0,00038846117330251962	1,4494008667519341E-005	0,00038846117330251962
1	0	0	1	0	0	1	203332,67	-0,0100000007	2,16632867	-2,7757596738170832E-005	-0,0099927332622565427	2,16475437E-005	-0,0007770666780022953	2,8993402533525939E-005	0,0007770666780022953
1	0	0	1	0	0	1	203472,67	-0,0100000007	2,04734826	-2,7757646607235075E-005	-0,0099927512151168627	2,04586413E-005	-0,0011656767962525546	4,3492968537304051E-005	0,0011656767962525546
1	0	0	1	0	0	1	203612,67	-0,0100000007	1,94467485	-2,7757161849230115E-005	-0,0099925767022623821	1,94323129E-005	-0,001554284745964247	5,7992453629992614E-005	0,001554284745964247
1	0	0	1	0	0	1	203752,67	-0,0100000007	1,8528856	-2,7756945769147328E-005	-0,0099924989134447488	1,85149565E-005	-0,0019428818507963629	7,2491534085643098E-005	0,0019428818507963629
1	0	0	1	0	0	1	203892,67	-0,0100000007	1,76915443	-2,7756816342162586E-005	-0,0099924523197375322	1,76781905E-005	-0,0023314797887482611	8,6990645626112768E-005	0,0023314797887482611
1	0	0	1	0	0	1	204032,67	-0,0100000007	1,69206834	-2,7757195101119578E-005	-0,0099925886729407155	1,69081432E-005	-0,0027200803776716323	0,00010148985607789238	0,0027200803776716323
1	0	0	1	0	0	1	204172,67	-0,0100000007	1,62135983	-2,7757050163940422E-005	-0,0099925364955643827	1,62014967E-005	-0,0031086743636992992	0,00011598882016675555	0,0031086743636992992
1	0	0	1	0	0	1	204312,67	-0,0100000007	1,55660903	-2,7757031761575488E-005	-0,0099925298707140442	1,55544622E-005	-0,0034972738404301645	0,00013048798912113744	0,0034972738404301645
1	0	0	1	0	0	1	204452,67	-0,0100000007	1,49712837	-2,7756924419301667E-005	-0,009992491227501513	1,49600419E-005	-0,0038858692807877773	0,00014498700747300627	0,0038858692807877773
1	0	0	1	0	0	1	204592,67	-0,0100000007	1,4421351	-2,7756707838477773E-005	-0,009992413258417111	1,44104097E-005	-0,0042744637251064525	0,00015948598866132317	0,0042744637251064525
1	0	0	1	0	0	1	204732,67	-0,0100000007	1,39124715	-2,7757006070266166E-005	-0,0099925206218441344	1,39020658E-005	-0,0046630649695918195	0,00017398522357300227	0,0046630649695918195
1	0	0	1	0	0	1	204872,67	-0,0100000007	1,34335709	-2,7756946992180826E-005	-0,0099924993537367398	1,34234951E-005	-0,0050516616300520096	0,00018848428744853872	0,0050516616300520096
1	0	0	1	0	0	1	205012,67	-0,0100000007	1,29815948	-2,775709629410671E-005	-0,0099925531024216486	1,29719274E-005	-0,0054402586509883117	0,00020298336477392358	0,0054402586509883117
1	0	0	1	0	0	1	205152,67	-0,0100000007	1,2551769	-2,7757052568356611E-005	-0,0099925373611540749	1,25424021E-005	-0,0058288575661621389	0,00021748251277585731	0,0058288575661621389
1	0	0	1	0	0	1	205292,67	-0,0100000007	1,21387458	-2,7756655611563475E-005	-0,0099923944567309069	1,21295134E-005	-0,0062174571965583821	0,00023198168746370102	0,0062174571965583821
1	0	0	1	0	0	1	205432,67	-0,0100000007	1,17423356	-2,7756938979184877E-005	-0,0099924964690586496	1,17335248E-005	-0,0066060527558567014	0,00024648071025340755	0,0066060527558567014
1	0	0	1	0	0	1	205572,67	-0,0100000007	1,13568091	-2,7757268308351437E-005	-0,0099926150275400602	1,1348422E-005	-0,0069946497028359526	0,00026097978481935539	0,0069946497028359526
1	0	0	1	0	0	1	205712,67	-0,0100000007	1,09838855	-2,7756626349873843E-005	-0,0099923839225242867	1,09755201E-005	-0,007383243450176768	0,00027547874000249126	0,007383243450176768
1	0	0	1	0	0	1	205852,67	-0,0100000007	1,0617646	-2,7756974456055712E-005	-0,0099925092407301517	1,06096923E-005	-0,0077718369868491059	0,00028997768732530291	0,0077718369868491059
1	0	0	1	0	0	1	205992,67	-0,0100000007	1,02617168	-2,7755858153415226E-005	-0,0099921073718424525	1,02536178E-005	-0,0081604180146357658	0,00030447616792477158	0,0081604180146357658
1	0	0	1	0	0	1	206132,67	-0,0100000007	0,991705298	-2,7758127119650861E-005	-0,009992924199559479	9,91003617E-006	-0,0085490122899681306	0,00031897514280798214	0,0085490122899681306
1	0	0	1	0	0	1	206272,67	-0,0100000007	0,958174646	-2,7758368649778682E-005	-0,0099930111503918912	9,57505017E-006	-0,0089376276033171136	0,00033347490264787846	0,0089376276033171136
1	0	0	1	0	0	1	206412,67	-0,0100000007	0,926152468	-2,775844431001072E-005	-0,0099930383880711629	9,2550772E-006	-0,0093262477531994675	0,00034797484294533766	0,0093262477531994675
1	1	0	0	0	0	2	206540,74	0,0100000007	0,939951718	2,7794401220770349E-005	0,010005982873453366	9,4051411E-006	-0,0096261972542265626	0,0003591663621150519	2,7794951775887363E-005
1	1	0	0	0	0	2	206680,74	0,0100000007	1,14178491	2,7794599196407942E-005	0,010006054145137691	1,14247614E-005	-0,0092370742380239488	0,00034464765919907283	0,00041691796797850272
1	1	0	0	0	0	2	206820,74	0,0100000007	1,27802706	2,7795368710791485E-005	0,010006331170272419	1,27883623E-005	-0,0088479471592090035	0,00033012880470156538	0,00080604504679345216
1	1	0	0	0	0	2	206960,74	0,0100000007	1,39274931	2,7795593246351926E-005	0,010006412003061533	1,39364238E-005	-0,0084588112216988416	0,00031560961967422874	0,0011951809843036134
1	1	0	0	0	0	2	207100,74	0,0100000007	1,49400949	2,7795589038067392E-005	0,010006410488079336	1,49496727E-005	-0,0080696724367746291	0,0003010903284060455	0,0015843197692278253
1	1	0	0	0	0	2	207240,74	0,0100000007	1,58484399	2,7795555065385997E-005	0,010006398257915947	1,58585808E-005	-0,0076805353793698176	0,00028657110159393389	0,0019734568266326352
1	1	0	0	0	0	2	207380,74	0,0100000007	1,66737223	2,7794685120746077E-005	0,010006085077894578	1,6683869E-005	-0,007291397045488855	0,00027205182715478074	0,0023625951605135981
1	1	0	0	0	0	2	207520,74	0,0100000007	1,7427398	2,779487868827871E-005	0,010006154762195422	1,74381239E-005	-0,0069022686948483648	0,00025753292520375226	0,0027517235111540906
1	1	0	0	0	0	2	207660,74	0,0100000007	1,81155789	2,779513640334416E-005	0,010006247539604469	1,8126897E-005	-0,0065131379620453798	0,00024301393437103824	0,0031408542439570758
1	1	0	0	0	0	2	207800,74	0,0100000007	1,87396002	2,7795626006658291E-005	0,010006423796769979	1,8751638E-005	-0,0061240024378414822	0,00022849476476471405	0,0035299897681609734
1	1	0	0	0	0	2	207940,74	0,0100000007	1,93015635	2,7795220166030858E-005	0,01000627769416696	1,93136802E-005	-0,0057348655910210726	0,0002139755458097895	0,003919126614981383
1	1	0	0	0	0	2	208080,74	0,0100000007	1,98020411	2,7795695730640243E-005	0,010006448897399554	1,98148118E-005	-0,0053457256368437203	0,00019945621091519955	0,0043082665691587354
1	1	0	0	0	0	2	208220,74	0,0100000007	2,02463794	2,7795297716847725E-005	0,010006305612456666	2,02591455E-005	-0,0049565893187113869	0,00018493701168633798	0,0046974028872910688
1	1	0	0	0	0	2	208360,74	0,0100000007	2,06378245	2,7796079267695962E-005	0,01000658697071801	2,06514178E-005	-0,0045674486830794605	0,00017041765136576163	0,0050865435229229952
1	1	0	0	0	0	2	208500,74	0,0100000007	2,09857345	2,7795369769912214E-005	0,010006331551555822	2,09990212E-005	-0,0041783133679986157	0,00015589848956209971	0,00547567883800384
1	1	0	0	0	0	2	208640,74	0,0100000007	2,12891531	2,7795397197724214E-005	0,0100063414255666	2,13026542E-005	-0,0037891774701362022	0,00014137930601407394	0,0058648147358662541
1	1	0	0	0	0	2	208780,74	0,0100000007	2,15587735	2,7795533898596963E-005	0,010006390637873088	2,15725504E-005	-0,003400043277930857	0,00012686018610640664	0,0062539489280715955
1	1	0	0	0	0	2	208920,74	0,0100000007	2,17961216	2,779518443071801E-005	0,010006264829456349	2,18097757E-005	-0,0030109060056549235	0,00011234095127716451	0,006643086200347529
1	1	0	0	0	0	2	209060,74	0,0100000007	2,20056581	2,7796235481380589E-005	0,010006643207635675	2,20202764E-005	-0,0026217710334924314	9,782180226824736E-005	0,0070322211725100224
1	1	0	0	0	0	2	209200,74	0,0100000007	2,21952701	2,7795959948613827E-005	0,010006544015855162	2,22097951E-005	-0,0022326301530299245	8,3302432812712896E-005	0,0074213620529725286
1	1	0	0	0	0	2	209340,74	0,0100000007	2,23686528	2,7795561719478829E-005	0,010006400653388995	2,23829702E-005	-0,0018434908639264762	6,8783122732924518E-005	0,007810501342075977
1	1	0	0	0	0	2	209480,74	0,0100000007	2,25259948	2,7796059439165725E-005	0,01000657983244824	2,25408166E-005	-0,0014543520821399936	5,4263831581814227E-005	0,0081996401238624602
1	1	0	0	0	0	2	209620,74	0,0100000007	2,26684427	2,7795434800287088E-005	0,010006354962487114	2,26828488E-005	-0,0010652124987871957	3,9744510523186976E-005	0,0085887797072152563
1	1	0	0	0	0	2	209760,74	0,0100000007	2,2799623	2,7795308278252682E-005	0,010006309414561854	2,28140088E-005	-0,00067607838962602202	2,5225393714009373E-005	0,0089779138163764339
1	1	0	0	0	0	2	209900,74	0,0100000007	2,29183936	2,7796000169434896E-005	0,01000655849534848	2,29334255E-005	-0,00028693750538876147	1,070602411763377E-005	0,0093670547006136934
1	1	0	0	0	0	2	210040,74	0,0100000007	2,30274248	2,7794874662067741E-005	0,010006153312759701	2,30415935E-005	0,00010219642146788054	-3,8130858895166522E-006	0,0097561886274703373
1	1	0	0	0	0	2	210180,74	0,0100000007	2,31295848	2,7795394644658602E-005	0,01000634050646312	2,314425E-005	0,00049132994451950765	-1,8332180830159046E-005	0,010145322150521963
1	1	0	0	0	0	2	210320,74	0,0100000007	2,32231498	2,7794781884799402E-005	0,010006119912948323	2,32373623E-005	0,00088045779974274893	-3,2851064296503891E-005	0,010534450005745203
1	1	0	0	0	0	2	210460,74	0,0100000007	2,33083129	2,7794909372046176E-005	0,010006165808349982	2,33226838E-005	0,0012695856780903677	-4,7369948625650349E-005	0,010923577884092822
1	1	0	0	0	0	2	210600,74	0,0100000007	2,33852649	2,7794841901968339E-005	0,010006141519125762	2,3399627E-005	0,001658716521276239	-6,1888943576898278E-005	0,011312708727278693
1	1	0	0	0	0	2	210740,74	0,0100000007	2,3457253	2,7794179725615926E-005	0,01000590313567619	2,34711006E-005	0,0020478388382655616	-7,6407620404289382E-005	0,011701831044268016
1	1	0	0	0	0	2	210880,74	0,0100000007	2,35242748	2,7794738601375786E-005	0,010006104330918261	2,35386342E-005	0,002436966766358793	-9,0926506589511526E-005	0,012090958972361251
1	1	0	0	0	0	2	211020,74	0,0100000007	2,35819411	2,7794501619361757E-005	0,010006019017406558	2,35961343E-005	0,0028260911401562749	-0,00010544526015918046	0,012480083346158733
1	1	0	0	0	0	2	211160,74	0,0100000007	2,36361718	2,7794086136906925E-005	0,010005869443746222	2,36500455E-005	0,003215211229626839	-0,00011996385387485176	0,012869203435629302
1	1	0	0	0	0	2	211300,74	0,0100000007	2,36896372	2,779394950381377E-005	0,010005820255840381	2,37034255E-005	0,003604326757279095	-0,00013448227738294854	0,013258318963281558
1	1	0	0	0	0	2	211440,74	0,0100000007	2,37368011	2,7793951666137824E-005	0,010005821034276918	2,37506192E-005	0,0039934405555434579	-0,00014900063636525786	0,013647432761545923
1	1	0	0	0	0	2	211580,74	0,0100000007	2,37782383	2,7793676735678067E-005	0,010005722059326893	2,37918448E-005	0,0043825543833551667	-0,00016351899645001837	0,014036546589357629
1	1	0	0	0	0	2	211720,74	0,0100000007	2,38217735	2,7793607497536061E-005	0,01000569713359967	2,38353459E-005	0,0047716718300673843	-0,00017803749156082253	0,014425664036069846
1	1	0	0	0	0	2	211860,74	0,0100000007	2,38613009	2,779345712195047E-005	0,010005642998397328	2,38747652E-005	0,0051607793088840166	-0,00019255561475604042	0,01481477151488648
1	1	0	0	0	0	2	212000,74	0,0100000007	2,38991094	2,779338056568263E-005	0,010005615438145219	2,39125293E-005	0,0055498858021851891	-0,00020707370118035146	0,015203878008187654
1	1	0	0	0	0	2	212140,74	0,0100000007	2,39348149	2,7793627473887885E-005	0,0100057043250852	2,39484689E-005	0,0059389944938936307	-0,00022159186963019354	0,015592986699896099
1	1	0	0	0	0	2	212280,74	0,0100000007	2,39688039	2,7792328394742477E-005	0,010005236656666027	2,39813562E-005	0,0063281001949765875	-0,00023610992649577779	0,015982092400979059
1	1	0	0	0	0	2	212420,74	0,0100000007	2,3999548	2,7793167028627878E-005	0,010005538564817534	2,40128411E-005	0,0067172013266639411	-0,00025062781287106848	0,016371193532666413
1	1	0	0	0	0	2	212560,74	0,0100000007	2,40274262	2,7793094611002339E-005	0,010005512494476419	2,40406716E-005	0,0071063007767389555	-0,00026514563650314186	0,016760292982741427
1	1	0	0	0	0	2	212700,74	0,0100000007	2,40604615	2,7792683474616045E-005	0,010005364485400512	2,4073368E-005	0,007495400817661984	-0,00027966348218054906	0,017149393023664454
1	1	0	0	0	0	2	212840,74	0,0100000007	2,40904403	2,7792586891342784E-005	0,010005329715427576	2,41032794E-005	0,007884498493688361	-0,00029418123962048256	0,017538490699690829
1	1	0	0	0	0	2	212980,74	0,0100000007	2,41200376	2,7793234638404099E-005	0,010005562904333166	2,41334546E-005	0,0082736018767675315	-0,00030869920999822893	0,017927594082770003
1	1	0	0	0	0	2	213120,74	0,0100000007	2,41465783	2,779211032587207E-005	0,010005158151884965	2,41590333E-005	0,0086626987093861658	-0,00032321693596948557	0,018316690915388643
1	1	0	0	0	0	2	213260,74	0,0100000007	2,41736937	2,7792444246976323E-005	0,010005278363463688	2,41864527E-005	0,0090517927199308992	-0,00033773455664537062	0,018705784925933382
1	1	0	0	0	0	2	213400,74	0,0100000007	2,419909	2,779175305547607E-005	0,010005029534562526	2,42112619E-005	0,0094408834935534054	-0,0003522520565473353	0,019094875699555882
1	1	0	0	0	0	2	213540,74	0,0100000007	2,42225766	2,7792320639826362E-005	0,010005233864896662	2,42352544E-005	0,0098299698660662669	-0,00036676939223798176	0,019483962072068739
1	1	0	0	0	0	2	213680,74	0,0100000007	2,42466354	2,7792395686937706E-005	0,010005260881852518	2,42593906E-005	0,010219063382874528	-0,00038128699449189517	0,019873055588877005
1	1	0	0	0	0	2	213820,74	0,0100000007	2,42705035	2,7792814801809274E-005	0,010005411763182678	2,42836377E-005	0,010608159617605338	-0,00039580469815515322	0,020262151823607808
1	1	0	0	0	0	2	213960,74	0,0100000007	2,42930365	2,7793045944689462E-005	0,010005494974606525	2,4306386E-005	0,010997259154828395	-0,00041032252503883731	0,020651251360830867
1	1	0	0	0	0	2	214100,74	0,0100000007	2,43155694	2,7792350225823206E-005	0,010005244515853859	2,43283212E-005	0,011386357053973582	-0,00042484029080363354	0,021040349259976054
1	1	0	0	0	0	2	214240,74	0,0100000007	2,43365717	2,7792565505175539E-005	0,010005322016408574	2,43495233E-005	0,011775452275774262	-0,0004393579566731065	0,021429444481776733
1	1	0	0	0	0	2	214380,74	0,0100000007	2,4358151	2,7792932186637904E-005	0,010005454021714371	2,43714367E-005	0,01216454645655892	-0,000453875583700872	0,021818538662561386
1	1	0	0	0	0	2	214520,74	0,0100000007	2,43774366	2,7793168088421226E-005	0,01000553894634308	2,43909399E-005	0,012553645484921608	-0,00046839339159829146	0,02220763769092407
1	1	0	0	0	0	2	214660,74	0,0100000007	2,43978667	2,7792552214943702E-005	0,010005317231925862	2,44108396E-005	0,012942745220898066	-0,00048291122589773216	0,022596737426900518
1	1	0	0	0	0	2	214800,74	0,0100000007	2,44161987	2,7792797528931664E-005	0,01000540554494771	2,44293969E-005	0,013331844285660254	-0,00049742903515326592	0,022985836491662701
1	1	0	0	0	0	2	214940,74	0,0100000007	2,44360566	2,7792756570192672E-005	0,010005390799803981	2,44492294E-005	0,013720945226216157	-0,00051194691439718522	0,023374937432218602
1	1	0	0	0	0	2	215080,74	0,0100000007	2,44532418	2,7792673405932467E-005	0,010005360860674992	2,44663515E-005	0,01411004626360084	-0,00052646479725391648	0,023764038469603283
1	1	0	0	0	0	2	215220,74	0,0100000007	2,44715738	2,7792738106877856E-005	0,010005384153011686	2,44847488E-005	0,014499146681205203	-0,00054098265698581056	0,024153138887207638
1	1	0	0	0	0	2	215360,74	0,0100000007	2,44902873	2,7793236905864131E-005	0,01000556372061865	2,45039137E-005	0,014888250305148915	-0,00055550063635053702	0,024542242511151354
1	1	0	0	0	0	2	215500,74	0,0100000007	2,45074725	2,7792977845761926E-005	0,010005470458996448	2,45208794E-005	0,01527735494235824	-0,00057001865352156557	0,024931347148360685
1	1	0	0	0	0	2	215640,74	0,0100000007	2,45258021	2,7793522996620998E-005	0,010005666713275008	2,45397005E-005	0,015666460706874662	-0,00058453671275393792	0,025320452912877107
1	1	0	0	0	0	2	215780,74	0,0100000007	2,45427966	2,7792805297558918E-005	0,010005408341653085	2,45560695E-005	0,016055564732527398	-0,00059905470710696794	0,025709556938529843
1	1	0	0	0	0	2	215920,74	0,0100000007	2,45578837	2,7793431841664842E-005	0,010005633897495926	2,45717201E-005	0,01644466247869121	-0,00061357246716382336	0,026098654684693654
1	1	0	0	0	0	2	216060,74	0,0100000007	2,45737314	2,7792977345693443E-005	0,010005470278971822	2,45871743E-005	0,016833768238249162	-0,00062809052621118835	0,026487760444251606
1	1	0	0	0	0	2	216200,74	0,0100000007	2,45891976	2,7793501893834518E-005	0,010005659116273064	2,46031123E-005	0,017222877547404605	-0,00064260871769880819	0,02687686975340705
1	1	0	0	0	0	2	216340,74	0,0100000007	2,46052384	2,7793882208358912E-005	0,010005796029480424	2,46194995E-005	0,017611993858797773	-0,0006571271704493321	0,027265986064800218
1	1	0	0	0	0	2	216480,74	0,0100000007	2,46207047	2,7793866847538285E-005	0,010005790499585866	2,46349609E-005	0,018001107852968323	-0,0006716455367411648	0,027655100058970768
1	1	0	0	0	0	2	216620,74	0,0100000007	2,46354079	2,7794102580752224E-005	0,010005875363529603	2,46498821E-005	0,018390221554391795	-0,00068616389211021018	0,02804421376039424
1	1	0	0	0	0	2	216760,74	0,0100000007	2,46506834	2,7793634812761514E-005	0,010005706967079294	2,46647523E-005	0,018779338057288118	-0,00070068235200597427	0,028433330263290563
1	1	0	0	0	0	2	216900,74	0,0100000007	2,46651959	2,7793586259345626E-005	0,01000568948785231	2,46792297E-005	0,019168446893586096	-0,0007152005258506464	0,028822439099588541
1	1	0	0	0	0	2	217040,74	0,0100000007	2,46791363	2,7793846770603622E-005	0,010005783271890517	2,46934087E-005	0,019557554990324704	-0,00072971867210136397	0,029211547196327149
1	1	0	0	0	0	2	217180,74	0,0100000007	2,46919298	2,7793851929923728E-005	0,010005785129245462	2,47062144E-005	0,019946667402739373	-0,00074423697937575808	0,029600659608741818
1	1	0	0	0	0	2	217320,74	0,0100000007	2,47066331	2,7793695067521184E-005	0,010005728658789382	2,47207863E-005	0,020335782190306064	-0,00075875537527026714	0,029989774396308506
1	1	0	0	0	0	2	217460,74	0,0100000007	2,47199988	2,7793902396483139E-005	0,01000580329720401	2,47343451E-005	0,02072489210132489	-0,00077327358921421914	0,030378884307327334
1	1	0	0	0	0	2	217600,74	0,0100000007	2,47322202	2,7793865000518659E-005	0,010005789834658902	2,47465396E-005	0,021114005033825523	-0,00078779191589371968	0,030767997239827968
1	1	0	0	0	0	2	217740,74	0,0100000007	2,47452044	2,7794853066922064E-005	0,01000614553850847	2,47604112E-005	0,021503120710877555	-0,00080231034497612301	0,03115711291688
1	1	0	0	0	0	2	217880,74	0,0100000007	2,47591424	2,7793561127554214E-005	0,010005680440408816	2,4773206E-005	0,021892243583770374	-0,00081682904254502093	0,031546235789772806
1	1	0	0	0	0	2	218020,74	0,0100000007	2,47704101	2,77942232039964E-005	0,010005918787890714	2,47850712E-005	0,022281358781161008	-0,00083134745373061248	0,031935350987163443
1	1	0	0	0	0	2	218160,74	0,0100000007	2,47790027	2,7793774105194544E-005	0,010005757112347341	2,47932676E-005	0,022670475523629654	-0,00084586592256514227	0,03232446772963209
1	1	0	0	0	0	2	218300,74	0,0100000007	2,47925591	2,779369687433872E-005	0,010005729309243594	2,48067627E-005	0,023059589227525014	-0,00086038427802641702	0,032713581433527443
1	1	0	0	0	0	2	218440,74	0,0100000007	2,48055434	2,779302354746809E-005	0,010005486911608093	2,48191536E-005	0,023448697280507133	-0,00087490242264452122	0,033102689486509574
1	1	0	0	0	0	2	218580,74	0,0100000007	2,48160458	2,7793698790534918E-005	0,010005729999074117	2,48302658E-005	0,02383781277611791	-0,00088942084495710733	0,033491804982120339
1	1	0	0	0	0	2	218720,74	0,0100000007	2,48288393	2,7793318857231901E-005	0,01000559322310643	2,48427259E-005	0,024226920503903344	-0,00090393897744168602	0,033880912709905766
1	1	0	0	0	0	2	218860,74	0,0100000007	2,48399138	2,7793697363696995E-005	0,010005729485412546	2,48541455E-005	0,024616031600356787	-0,00091845723561579725	0,034270023806359219
1	1	0	0	0	0	2	219000,74	0,0100000007	2,48511815	2,7793346738649741E-005	0,010005603260415283	2,48651068E-005	0,025005139743623747	-0,00093297538360255027	0,03465913194962617
1	1	0	0	0	0	2	219140,74	0,0100000007	2,48603463	2,7793637789371939E-005	0,01000570803865888	2,48745364E-005	0,025394252372082742	-0,00094749369893784845	0,035048244578085178
1	1	0	0	0	0	2	219280,74	0,0100000007	2,48718023	2,7793578658873837E-005	0,010005686751682893	2,48859469E-005	0,025783366403535741	-0,00096201206662073933	0,035437358609538176
1	1	0	0	0	0	2	219420,74	0,0100000007	2,48803949	2,7793073306377562E-005	0,010005504824812699	2,48940905E-005	0,026172474979720352	-0,00097653023076023181	0,035826467185722784
1	1	0	0	0	0	2	219560,74	0,0100000007	2,4891088	2,7793628072314378E-005	0,010005704540518704	2,49052864E-005	0,026561584344609398	-0,00099104842432734733	0,036215576550611834
1	1	0	0	0	0	2	219700,74	0,0100000007	2,49012089	2,7793067182621194E-005	0,010005502620260752	2,49149107E-005	0,026950692845274304	-0,0010055665856490982	0,036604685051276717
1	1	0	0	0	0	2	219840,74	0,0100000007	2,49099922	2,7793914847852042E-005	0,010005807779696112	2,49244586E-005	0,027339801015889459	-0,0010200847346562493	0,036993793221891859
1	1	0	0	0	0	2	219980,74	0,0100000007	2,49210668	2,7794042943666381E-005	0,010005853894182058	2,49356544E-005	0,02772891177883401	-0,0010346029803866954	0,037382903984836403
1	1	0	0	0	0	2	220120,74	0,0100000007	2,49317598	2,7793678542754301E-005	0,010005722709874237	2,49460281E-005	0,028118024334117181	-0,0010491212929917053	0,037772016540119584
1	1	0	0	0	0	2	220260,74	0,0100000007	2,49405456	2,7793336351350362E-005	0,010005599520988093	2,49545119E-005	0,028507127519814022	-0,0010636392560048515	0,038161119725816429
1	1	0	0	0	0	2	220400,74	0,0100000007	2,49499011	2,779263636723368E-005	0,010005347526745514	2,4963243E-005	0,0288962281710704	-0,0010781571244546165	0,0385502203770728
1	1	0	0	0	0	2	220540,74	0,0100000007	2,49563932	2,779287058337488E-005	0,010005431844543154	2,49699497E-005	0,029285326915651091	-0,0010926749217637482	0,038939319121653485
1	1	0	0	0	0	2	220680,74	0,0100000007	2,49653673	2,779319318414976E-005	0,010005547980803939	2,49792174E-005	0,029674428351348474	-0,0011071928194820618	0,039328420557350854
1	1	0	0	0	0	2	220820,74	0,0100000007	2,49735785	2,7793351442553101E-005	0,010005604953820229	2,49875757E-005	0,030063534749292666	-0,0011217109023484757	0,03971752695529504
1	1	0	0	0	0	2	220960,74	0,0100000007	2,49823618	2,779338010100441E-005	0,010005615270861085	2,49963905E-005	0,030452638566763194	-0,0011362288889339477	0,040106630772765562
1	1	0	0	0	0	2	221100,74	0,0100000007	2,49903822	2,7793698538353459E-005	0,010005729908288806	2,50047015E-005	0,030841751263008198	-0,001150747206798433	0,04049574346901056
1	1	0	0	0	0	2	221240,74	0,0100000007	2,49970651	2,7793745858491296E-005	0,01000574694353576	2,50114299E-005	0,031230869918751853	-0,0011652657470198256	0,040884862124754202
1	1	0	0	0	0	2	221380,74	0,0100000007	2,50060391	2,7793444213560883E-005	0,010005638351377805	2,50201392E-005	0,031619984283233594	-0,0011797841271284664	0,041273976489235942
1	1	0	0	0	0	2	221520,74	0,0100000007	2,50125313	2,7793734165995075E-005	0,010005742734237779	2,50268949E-005	0,03200909671183321	-0,0011943024350067427	0,041663088917835558
1	1	0	0	0	0	2	221660,74	0,0100000007	2,50226521	2,7794208461625709E-005	0,010005913480638094	2,50374487E-005	0,032398206678954093	-0,0012088206510439378	0,042052198884956442
1	1	0	0	0	0	2	221800,74	0,0100000007	2,50295258	2,779367284409495E-005	0,010005720658357189	2,50438443E-005	0,032787315306386746	-0,0012233388170955638	0,042441307512389094
1	1	0	0	0	0	2	221940,74	0,0100000007	2,50381207	2,7793517519512938E-005	0,010005664741516414	2,50523044E-005	0,033176429137217248	-0,0012378571772929595	0,04283042134321959
1	1	0	0	0	0	2	222080,74	0,0100000007	2,50449944	2,779378262332951E-005	0,010005760178875448	2,50594203E-005	0,03356554243935392	-0,0012523755177640776	0,043219534645356262
1	1	0	0	0	0	2	222220,74	0,0100000007	2,50543499	2,779363241408848E-005	0,010005706103557138	2,50686462E-005	0,033954648871356845	-0,0012668936019012688	0,043608641077359194
1	1	0	0	0	0	2	222360,74	0,0100000007	2,50612235	2,7794246385236166E-005	0,010005927133135722	2,50760768E-005	0,034343765244771738	-0,0012814120569659064	0,04399775745077408
1	1	0	0	0	0	2	222500,74	0,0100000007	2,50677156	2,7794498696561072E-005	0,010006017965198477	2,50828016E-005	0,034732881494332742	-0,0012959305074093893	0,044386873700335091
1	1	0	0	0	0	2	222640,74	0,0100000007	2,50742102	2,7794198107750464E-005	0,010005909753243589	2,5089028E-005	0,035121994292750112	-0,0013104488290860629	0,044775986498752461
1	1	0	0	0	0	2	222780,74	0,0100000007	2,5081656	2,7794392637132355E-005	0,010005979783810115	2,5096655E-005	0,03551111522570551	-0,0013249674542732877	0,045165107431707859
1	1	0	0	0	0	2	222920,74	0,0100000007	2,50871944	2,7793997008715651E-005	0,010005837357602384	2,51018391E-005	0,035900234997297523	-0,0013394860361284829	0,045554227203299872
1	1	0	0	0	0	2	223060,74	0,0100000007	2,50952125	2,7793764204821654E-005	0,010005753548213658	2,51096517E-005	0,036289346142313754	-0,0013540042961145366	0,045943338348316096
1	1	0	0	0	0	2	223200,74	0,0100000007	2,51020885	2,7793672735078467E-005	0,010005720619111261	2,51164493E-005	0,03667845875583056	-0,0013685226108923221	0,046332450961832909
1	1	0	0	0	0	2	223340,74	0,0100000007	2,51093435	2,779390943909271E-005	0,010005805832543056	2,51239217E-005	0,037067570081818426	-0,001383040877630671	0,046721562287820774
1	1	0	0	0	0	2	223480,74	0,0100000007	2,51167917	2,779345767893311E-005	0,010005643198911048	2,51309648E-005	0,037456681603328019	-0,0013975591516641989	0,047110673809330368
1	1	0	0	0	0	2	223620,74	0,0100000007	2,51229	2,7794326115244378E-005	0,010005955836400126	2,51378624E-005	0,037845793368560269	-0,0014120774347913464	0,047499785574562618
1	1	0	0	0	0	2	223760,74	0,0100000007	2,51301575	2,7794108197662154E-005	0,010005877385616859	2,51449273E-005	0,038234906425512768	-0,0014265957661143138	0,047888898631515117
1	1	0	0	0	0	2	223900,74	0,0100000007	2,51368403	2,7794907635491754E-005	0,010006165183190488	2,51523379E-005	0,038624027541867885	-0,001441114398144428	0,048278019747870227
1	1	0	0	0	0	2	224040,74	0,0100000007	2,51439047	2,7794510538275869E-005	0,010006022228215138	2,51590463E-005	0,039013151812826547	-0,0014556331478770426	0,04866714401882889
1	1	0	0	0	0	2	224180,74	0,0100000007	2,51507807	2,7794657415037766E-005	0,010006075103841147	2,51660604E-005	0,039402270708005766	-0,0014701516970320979	0,049056262914008115
1	1	0	0	0	0	2	224320,74	0,0100000007	2,51574636	2,7794443414598288E-005	0,010005998063694989	2,51725523E-005	0,039791389445456832	-0,001484670240302104	0,049445381651459181
1	1	0	0	0	0	2	224460,74	0,0100000007	2,51645279	2,779477803253879E-005	0,01000611852613472	2,51799247E-005	0,040180512039014035	-0,0014991889274486144	0,049834504245016384
1	1	0	0	0	0	2	224600,74	0,0100000007	2,51712108	2,7794286427812442E-005	0,010005941548460926	2,51861657E-005	0,040569634914866029	-0,0015137076251279235	0,050223627120868378
1	1	0	0	0	0	2	224740,74	0,0100000007	2,51778936	2,7794946266389968E-005	0,01000617909031167	2,51934507E-005	0,040958757002781517	-0,0015282262934082618	0,050612749208783866
1	1	0	0	0	0	2	224880,74	0,0100000007	2,51845765	2,7793929925964522E-005	0,010005813207815757	2,51992169E-005	0,041347875625160582	-0,0015427448323847763	0,051001867831162931
1	1	0	0	0	0	2	225020,74	0,0100000007	2,5191834	2,7794266244500048E-005	0,010005934282469602	2,52067839E-005	0,041736988559210726	-0,0015572631591220915	0,051390980765213075
1	1	0	0	0	0	2	225160,74	0,0100000007	2,51967978	2,7794489395339043E-005	0,010006014616759069	2,52119535E-005	0,04212610801642103	-0,0015717817292472826	0,051780100222423379
1	1	0	0	0	0	2	225300,74	0,0100000007	2,52036715	2,7793756466514122E-005	0,010005750762423381	2,52181653E-005	0,042515219240553574	-0,0015862999921852726	0,052169211446555923
1	1	0	0	0	0	2	225440,74	0,0100000007	2,52094007	2,7793839235427894E-005	0,010005780559227677	2,52239734E-005	0,04290433427679177	-0,0016008183973580499	0,052558326482794118
1	1	0	0	0	0	2	225580,74	0,0100000007	2,52153206	2,7792895703938688E-005	0,010005440887944707	2,52290392E-005	0,043293444748740147	-0,0016153366322310374	0,052947436954742496
1	1	0	0	0	0	2	225720,74	0,0100000007	2,52218127	2,779356918934112E-005	0,01000568334265165	2,52361478E-005	0,043682553556772122	-0,0016298548050210669	0,05333654576277447
1	1	0	0	0	0	2	225860,74	0,0100000007	2,52267766	2,7794257020319088E-005	0,010005930961764974	2,52417376E-005	0,044071669502867181	-0,0016443732441418272	0,05372566170886953
1	1	0	0	0	0	2	226000,74	0,0100000007	2,52336526	2,7794531311322416E-005	0,010006029706510723	2,5248868E-005	0,044460792511474534	-0,0016588919467744173	0,054114784717476883
1	1	0	0	0	0	2	226140,74	0,0100000007	2,52403355	2,7793959757778794E-005	0,010005823947267213	2,52550344E-005	0,044849911479911706	-0,0016734104986628256	0,054503903685914054
1	1	0	0	0	0	2	226280,74	0,0100000007	2,5246253	2,7794608643537181E-005	0,010006057546103682	2,52615464E-005	0,045239030331572608	-0,0016879290461941539	0,05489302253757495
1	1	0	0	0	0	2	226420,74	0,0100000007	2,52493095	2,7794175949827254E-005	0,010005901776392482	2,52642112E-005	0,045628149169230291	-0,0017024475932030035	0,055282141375232627
1	1	0	0	0	0	2	226560,74	0,0100000007	2,52569461	2,7794661233098141E-005	0,010006076478342666	2,5272293E-005	0,046017269309106317	-0,0017169661887993702	0,055671261515108659
1	1	0	0	0	0	2	226700,74	0,0100000007	2,52621031	2,7794827289154963E-005	0,010006136258513768	2,52776044E-005	0,046406390943337414	-0,0017314848401521338	0,056060383149339757
1	1	0	0	0	0	2	226840,74	0,0100000007	2,52685952	2,7794575347823814E-005	0,010006045559648746	2,52838709E-005	0,04679551632391504	-0,0017460036312861242	0,056449508529917382
1	1	0	0	0	0	2	226980,74	0,0100000007	2,52737498	2,7794100597086883E-005	0,010005874649410192	2,52885966E-005	0,047184636602625696	-0,0017605222320625974	0,056838628808628032
1	1	0	0	0	0	2	227120,74	0,0100000007	2,52813888	2,779468098588081E-005	0,010006083589343314	2,52967693E-005	0,047573757975576845	-0,001775040873666655	0,057227750181579181
1	1	0	0	0	0	2	227260,74	0,0100000007	2,52838707	2,779408458677224E-005	0,010005868885697824	2,52987102E-005	0,047962881461078848	-0,0017895595940928253	0,05761687366708119
1	1	0	0	0	0	2	227400,74	0,0100000007	2,52886438	2,7794030268780061E-005	0,010005849331223696	2,53034359E-005	0,048351998351764627	-0,0018040780684575354	0,058005990557766963
1	1	0	0	0	0	2	227540,75	0,0100000007	2,52941823	2,7794059452083379E-005	0,010005859837211248	2,53090038E-005	0,048741115266438605	-0,0018185965437172774	0,058395107472440947
1	1	0	0	0	0	2	227680,75	0,0100000007	2,52987647	2,7794268327351245E-005	0,010005935032295914	2,53137805E-005	0,049130230402100493	-0,0018331149525996867	0,058784222608102835
1	1	0	0	0	0	2	227820,75	0,0100000007	2,53046846	2,7793979057214326E-005	0,010005830895062915	2,53194394E-005	0,049519344290161536	-0,0018476333149324307	0,059173336496163878
1	1	0	0	0	0	2	227960,75	0,0100000007	2,53094578	2,7793820291705843E-005	0,010005773739488808	2,53240705E-005	0,049908461077620877	-0,0018621517854456237	0,059562453283623219
1	1	0	0	0	0	2	228100,75	0,0100000007	2,53165245	2,779362382279295E-005	0,010005703010691232	2,53309627E-005	0,050297575224441965	-0,0018766701574330528	0,059951567430444301
1	1	0	0	0	0	2	228240,75	0,0100000007	2,53205323	2,7793986009589085E-005	0,010005833397917438	2,53353028E-005	0,050686694259080486	-0,0018911887117915226	0,060340686465082829
1	1	0	0	0	0	2	228380,75	0,0100000007	2,53262615	2,7794516076747741E-005	0,010006024222064699	2,53415183E-005	0,051075814143856966	-0,0019057072978697824	0,060729806349859302
1	1	0	0	0	0	2	228520,75	0,0100000007	2,53319907	2,7793725115971434E-005	0,010005739476229779	2,53465296E-005	0,051464934393561734	-0,001920225897564007	0,06111892659956407
1	1	0	0	0	0	2	228660,75	0,0100000007	2,53367639	2,7793677194820096E-005	0,010005722224617998	2,53512626E-005	0,051854049242238656	-0,0019347442957386218	0,061508041448240998
1	1	0	0	0	0	2	228800,75	0,0100000007	2,53428745	2,7794102075820166E-005	0,01000587518175409	2,53577637E-005	0,052243162479792141	-0,0019492626338000541	0,061897154685794483
1	1	0	0	0	0	2	228940,75	0,0100000007	2,5346694	2,7793846841021958E-005	0,010005783297241112	2,53613525E-005	0,052632271757278054	-0,0019637808241060413	0,062286263963280397
1	1	0	0	0	0	2	229080,75	0,0100000007	2,53537583	2,7794138559864627E-005	0,01000588831600804	2,53686867E-005	0,05302138550359127	-0,0019782991811499834	0,062675377709593613
1	1	0	0	0	0	2	229220,75	0,0100000007	2,53560495	2,7794232525862752E-005	0,010005922143762074	2,53710659E-005	0,05341050294540535	-0,0019928176760780314	0,06306449515140768
1	1	0	0	0	0	2	229360,75	0,0100000007	2,53617787	2,779460185383343E-005	0,010006055101810717	2,53771359E-005	0,053799624526300582	-0,0020073363254407622	0,06345361673230295
1	1	0	0	0	0	2	229500,75	0,0100000007	2,53663611	2,7794202910580982E-005	0,010005911482262304	2,5381356E-005	0,054188745795419904	-0,0020218549631707152	0,063842738001422272
1	1	0	0	0	0	2	229640,75	0,0100000007	2,53720903	2,7794877318458426E-005	0,010006154269060197	2,53877042E-005	0,054577871371327123	-0,0020363737615927146	0,064231863577329485
1	1	0	0	0	0	2	229780,75	0,0100000007	2,53778172	2,7794630239252E-005	0,0100060653205598	2,53932103E-005	0,054967004664927821	-0,0020508928479722339	0,064620996870930202
1	1	0	0	0	0	2	229920,75	0,0100000007	2,53841186	2,7795646321494131E-005	0,010006431110109738	2,54004426E-005	0,055356136747570554	-0,0020654118891692838	0,065010128953572941
1	1	0	0	0	0	2	230060,75	0,0100000007	2,53890848	2,7795235257440557E-005	0,010006283127073603	2,54050374E-005	0,05574527186352439	-0,0020799310435432496	0,065399264069526784
1	1	0	0	0	0	2	230200,75	0,0100000007	2,53959584	2,7794752804976371E-005	0,010006109444213672	2,54114748E-005	0,056134400443798605	-0,0020944499540622208	0,065788392649801024
1	1	0	0	0	0	2	230340,75	0,0100000007	2,53992033	2,7794182307811248E-005	0,010005904065266362	2,54141996E-005	0,056523529209852166	-0,0021089688715128698	0,066177521415854566
1	1	0	0	0	0	2	230480,75	0,0100000007	2,54022598	2,7794738344072051E-005	0,010006104238288931	2,54177667E-005	0,056912648152009901	-0,0021234874224207568	0,066566640358012314
1	1	0	0	0	0	2	230620,75	0,0100000007	2,54089427	2,7794390574459814E-005	0,010005979041248114	2,54241349E-005	0,05730177427554784	-0,0021380062412755946	0,066955766481550234
1	1	0	0	0	0	2	230760,75	0,0100000007	2,54139066	2,7794800657365059E-005	0,010006126671070902	2,54294773E-005	0,057690899338493811	-0,00215252502055832	0,067344891544496205
1	1	0	0	0	0	2	230900,75	0,0100000007	2,54200172	2,7795367586478176E-005	0,010006330765519694	2,54361094E-005	0,058080028545953805	-0,0021670439544784365	0,067734020751956211
1	1	0	0	0	0	2	231040,75	0,0100000007	2,54224992	2,7795511707715277E-005	0,010006382649156931	2,54387251E-005	0,05846916062921911	-0,0021815629956987155	0,068123152835221555
1	1	0	0	0	0	2	231180,75	0,0100000007	2,54282284	2,779512922341625E-005	0,010006244954830826	2,54441075E-005	0,058858291493254182	-0,0021960819914278749	0,068512283699256627
1	1	0	0	0	0	2	231320,75	0,0100000007	2,54328108	2,7795023936416122E-005	0,01000620705151671	2,54485967E-005	0,059247421366576781	-0,0022106009501922202	0,0689014135725792
1	1	0	0	0	0	2	231460,75	0,0100000007	2,54364395	2,7794749477050368E-005	0,010006108246160498	2,54519764E-005	0,059636548876900902	-0,0022251198207899149	0,069290541082903334
1	1	0	0	0	0	2	231600,75	0,0100000007	2,54427409	2,7794641006324026E-005	0,010006069196705123	2,54581828E-005	0,060025672923577523	-0,0022396385621542653	0,069679665129579994
1	1	0	0	0	0	2	231740,75	0,0100000007	2,54463696	2,7795601048506797E-005	0,010006414811836846	2,54626939E-005	0,060414807853106355	-0,0022541577095724624	0,070068800059108826
1	1	0	0	0	0	2	231880,75	0,0100000007	2,54511428	2,7795666575587046E-005	0,010006438401582045	2,54675288E-005	0,060803949842329754	-0,0022686771203973571	0,070457942048332224
1	1	0	0	0	0	2	232020,75	0,0100000007	2,54553437	2,7795824447336294E-005	0,010006495235402882	2,5471878E-005	0,061193094324230899	-0,0022831966242274093	0,070847086530233357
1	1	0	0	0	0	2	232160,75	0,0100000007	2,54589725	2,7795346732665267E-005	0,010006323258148221	2,54750703E-005	0,061582231612305101	-0,0022977158596461062	0,071236223818307584
1	1	0	0	0	0	2	232300,75	0,0100000007	2,54645085	2,7795261342595846E-005	0,01000629251772804	2,54805327E-005	0,061971366340389018	-0,0023122349995481232	0,071625358546391462
1	1	0	0	0	0	2	232440,75	0,0100000007	2,54681373	2,7795468092482125E-005	0,010006366947675453	2,54843526E-005	0,062360502354539866	-0,0023267541874350266	0,072014494560542259
1	1	0	0	0	0	2	232580,75	0,0100000007	2,54736733	2,7796032327537734E-005	0,010006570072263691	2,54904098E-005	0,062749647375412032	-0,0023412737113748125	0,072403639581414426
1	1	0	0	0	0	2	232720,75	0,0100000007	2,54780674	2,7795193345855094E-005	0,010006268038905197	2,54940369E-005	0,063138783806855936	-0,0023557929148314813	0,07279277601285833
1	1	0	0	0	0	2	232860,75	0,0100000007	2,54816937	2,779573884047568E-005	0,010006464416937882	2,5498166E-005	0,063527919628047731	-0,002370312095518823	0,073181911834050125
1	1	0	0	0	0	2	233000,75	0,0100000007	2,54857039	2,7795239323387958E-005	0,010006284590814438	2,55017203E-005	0,063917055984088614	-0,002384831296162104	0,073571048190091008
1	1	0	0	0	0	2	233140,75	0,0100000007	2,54895234	2,7795709122851904E-005	0,010006453718594998	2,55059731E-005	0,06430619209958057	-0,0023993504878301802	0,073960184305582963
1	1	0	0	0	0	2	233280,75	0,0100000007	2,54941058	2,7795376385562122E-005	0,010006333933189418	2,55102532E-005	0,064695327075817344	-0,0024138696369911146	0,07434931928181975
1	1	0	0	0	0	2	233420,75	0,0100000007	2,54990697	2,7795152241985002E-005	0,010006253241514278	2,55150153E-005	0,065084468041345869	-0,002428389009620576	0,074738460247348262
1	1	0	0	0	0	2	233560,75	0,0100000007	2,55013609	2,7795185919385405E-005	0,010006265365376528	2,55173381E-005	0,065473606118167846	-0,0024429082744685133	0,07512759832417024
1	1	0	0	0	0	2	233700,75	0,0100000007	2,55044174	2,7796130368227344E-005	0,010006605366906429	2,55212635E-005	0,065862742648160358	-0,0024574274816021629	0,075516734854162752
1	1	0	0	0	0	2	233840,75	0,0100000007	2,55103374	2,7795747154081859E-005	0,010006467410301602	2,55268351E-005	0,066251883383874918	-0,0024719468456569568	0,075905875589877312
1	1	0	0	0	0	2	233980,75	0,0100000007	2,55151105	2,7795032078451994E-005	0,010006209982649166	2,55309551E-005	0,066641018705080589	-0,002486466007689144	0,076295010911082982
1	1	0	0	0	0	2	234120,75	0,0100000007	2,55181646	2,779531273483816E-005	0,010006311018932376	2,55342693E-005	0,067030156558734426	-0,0025009852642103779	0,076684148764736819
1	1	0	0	0	0	2	234260,75	0,0100000007	2,55223656	2,7795498173787363E-005	0,010006377776943643	2,5538644E-005	0,067419299510449651	-0,0025155047109471363	0,077073291716452058
1	1	0	0	0	0	2	234400,75	0,0100000007	2,55265665	2,7796121352093504E-005	0,010006602121098752	2,55434188E-005	0,06780844010226455	-0,0025300240696328403	0,077462432308266957
1	1	0	0	0	0	2	234540,75	0,0100000007	2,55324864	2,7795785014776307E-005	0,010006481039683507	2,5549034E-005	0,068197581368495974	-0,0025445434534819315	0,077851573574498368
1	1	0	0	0	0	2	234680,75	0,0100000007	2,55376434	2,779546473195983E-005	0,010006365737887618	2,55538998E-005	0,068586723432884198	-0,0025590628671113264	0,078240715638886605
1	1	0	0	0	0	2	234820,75	0,0100000007	2,55416512	2,7794838829483421E-005	0,010006140413031365	2,55573341E-005	0,068975854724214221	-0,0025735818787834352	0,078629846930216614
1	1	0	0	0	0	2	234960,75	0,0100000007	2,55454707	2,7795527424508083E-005	0,010006388307201456	2,55617906E-005	0,069364989427886182	-0,0025881010177746096	0,079018981633888589
1	1	0	0	0	0	2	235100,75	0,0100000007	2,55502439	2,7795027158481792E-005	0,01000620821146017	2,55661053E-005	0,069754120216237683	-0,002602620010679913	0,079408112422240077
1	1	0	0	0	0	2	235240,75	0,0100000007	2,55546379	2,7795437440586586E-005	0,010006355912994786	2,55708801E-005	0,070143249298547725	-0,0026171389399305158	0,079797241504550118
1	1	0	0	0	0	2	235380,75	0,0100000007	2,55599833	2,779539386809079E-005	0,010006340226898755	2,55761897E-005	0,070532381581478643	-0,0026316579886005882	0,08018637378748105
1	1	0	0	0	0	2	235520,75	0,0100000007	2,55634212	2,7795158455303562E-005	0,010006255478308611	2,5579413E-005	0,070921511883020058	-0,0026461769633423526	0,080575504089022451
1	1	0	0	0	0	2	235660,75	0,0100000007	2,55687666	2,7795175818829901E-005	0,010006261729177115	2,55847772E-005	0,071310642884806336	-0,0026606959642111952	0,08096463509080873
1	1	0	0	0	0	2	235800,75	0,0100000007	2,55729675	2,779564275794352E-005	0,010006429827464698	2,55894101E-005	0,071699778268967642	-0,0026752151285923421	0,081353770474970035
1	1	0	0	0	0	2	235940,75	0,0100000007	2,5578506	2,779537701705057E-005	0,010006334160525222	2,5594707E-005	0,072088915889071859	-0,0026897343763995254	0,081742908095074253
1	1	0	0	0	0	2	236080,75	0,0100000007	2,55827069	2,7795763226019014E-005	0,01000647319573211	2,55992672E-005	0,072478054135416896	-0,0027042536475725952	0,08213204634141929
1	1	0	0	0	0	2	236220,75	0,0100000007	2,55844259	2,7795545312162074E-005	0,010006394746755886	2,56007861E-005	0,072867188482334528	-0,0027187727732527859	0,082521180688336934
1	1	0	0	0	0	2	236360,75	0,0100000007	2,55891991	2,7796132137222835E-005	0,010006606003744706	2,5606103E-005	0,073256330107413389	-0,0027332921704909578	0,082910322313415782
1	1	0	0	0	0	2	236500,75	0,0100000007	2,55949283	2,7795762352283213E-005	0,010006472881187272	2,56114963E-005	0,073645470299119706	-0,0027478115142480726	0,083299462505122099
1	1	0	0	0	0	2	236640,75	0,0100000007	2,55991268	2,779551615540145E-005	0,010006384250323702	2,56154708E-005	0,074034609131923302	-0,0027623308073027002	0,083688601337925709
1	1	0	0	0	0	2	236780,75	0,0100000007	2,56021833	2,7795695940963923E-005	0,010006448973116067	2,56186941E-005	0,074423744756462464	-0,0027768499806526675	0,084077736962464858
1	1	0	0	0	0	2	236920,75	0,0100000007	2,56060028	2,7795853178896426E-005	0,010006505578762909	2,56226613E-005	0,074812885671510848	-0,0027913693513986477	0,084466877877513242
1	1	0	0	0	0	2	237060,75	0,0100000007	2,56109667	2,7796033182233158E-005	0,010006570379953997	2,56277945E-005	0,075202029569146586	-0,0028058888334289718	0,084856021775148979
1	1	0	0	0	0	2	237200,75	0,0100000007	2,56151676	2,7795545175361133E-005	0,010006394697507555	2,5631547E-005	0,075591169200655168	-0,0028204081562843565	0,085245161406657574
1	1	0	0	0	0	2	237340,75	0,0100000007	2,56189871	2,7796202546709939E-005	0,010006631351156098	2,56359763E-005	0,075980309061777779	-0,0028349274877069488	0,085634301267780173
1	1	0	0	0	0	2	237480,75	0,0100000007	2,56233788	2,7796715882658544E-005	0,010006816152068682	2,56408439E-005	0,076369457711126349	-0,0028494471470300678	0,086023449917128755
1	1	0	0	0	0	2	237620,75	0,0100000007	2,56266236	2,7795587408822032E-005	0,010006409901551099	2,56430503E-005	0,076758598898160806	-0,0028639665279242138	0,0864125911041632
1	1	0	0	0	0	2	237760,75	0,0100000007	2,56323528	2,7795787477969296E-005	0,010006481926432845	2,56489675E-005	0,077147742507809165	-0,0028784859992093418	0,086801734713811558
1	1	0	0	0	0	2	237900,75	0,0100000007	2,56357908	2,7795250842968624E-005	0,010006288737862829	2,56519124E-005	0,077536880426022387	-0,0028930052581393728	0,087190872632024781
1	1	0	0	0	0	2	238040,75	0,0100000007	2,56407547	2,7795688693825571E-005	0,010006446364146667	2,56572839E-005	0,077926017439015475	-0,0029075244832944237	0,087580009645017869
1	1	0	0	0	0	2	238180,75	0,0100000007	2,56457186	2,7796192352349558E-005	0,010006627681186934	2,56627154E-005	0,078315161419154586	-0,0029220439684030592	0,087969153625156979
1	1	0	0	0	0	2	238320,75	0,0100000007	2,56489658	2,7795781179693421E-005	0,010006479659053885	2,56655858E-005	0,078704301259335258	-0,0029365632990442797	0,088358293465337651
1	1	0	0	0	0	2	238460,75	0,0100000007	2,56541204	2,7795905629121181E-005	0,010006524460840867	2,5670859E-005	0,079093443437462579	-0,002951082716917433	0,088747435643464973
1	1	0	0	0	0	2	238600,75	0,0100000007	2,56567955	2,7795749417868339E-005	0,010006468224798645	2,56733911E-005	0,079482586985204454	-0,0029656021858927475	0,089136579191206848
1	1	0	0	0	0	2	238740,75	0,0100000007	2,56617594	2,7796357411580781E-005	0,010006687102500875	2,5678919E-005	0,079871727581440704	-0,0029801215447434182	0,089525719787443098
1	1	0	0	0	0	2	238880,75	0,0100000007	2,56651974	2,779594241719072E-005	0,01000653770454383	2,56819767E-005	0,080260870933647194	-0,0029946410064230438	0,0899148631396496
1	1	0	0	0	0	2	239020,75	0,0100000007	2,56688237	2,7794869368430224E-005	0,010006151407050493	2,56846142E-005	0,080650007016125069	-0,003009160196859321	0,090303999222127462
1	1	0	0	0	0	2	239160,75	0,0100000007	2,56730247	2,7795145231092141E-005	0,010006250717593245	2,56890726E-005	0,081039142227540339	-0,0030236793547950803	0,090693134433542733
1	1	0	0	0	0	2	239300,75	0,0100000007	2,56770349	2,7795417119438451E-005	0,0100063485973826	2,56933363E-005	0,081428280472490099	-0,0030381986259160909	0,091082272678492493
1	1	0	0	0	0	2	239440,75	0,0100000007	2,56793261	2,7796191470801002E-005	0,010006627363829504	2,56963449E-005	0,081817423529208307	-0,0030527180765706515	0,091471415735210701
1	1	0	0	0	0	2	239580,75	0,0100000007	2,56839085	2,779652524403193E-005	0,010006747522173837	2,5701238E-005	0,082206571820228979	-0,0030672377225240742	0,091860564026231373
1	1	0	0	0	0	2	239720,75	0,0100000007	2,56881094	2,7795540189060074E-005	0,010006392902439453	2,57045322E-005	0,08259570862436745	-0,0030817569398864787	0,092249700830369843
1	1	0	0	0	0	2	239860,75	0,0100000007	2,56915474	2,7796423641292173E-005	0,010006710945193246	2,57087886E-005	0,082984850827474368	-0,0030962763586916544	0,092638843033476762
1	1	0	0	0	0	2	240000,75	0,0100000007	2,56959391	2,779617203782416E-005	0,010006620367958934	2,57129504E-005	0,083373993878089101	-0,0031107958091184864	0,093027986084091494
1	1	0	0	0	0	2	240140,75	0,0100000007	2,56997585	2,779597132249425E-005	0,010006548110451472	2,57165866E-005	0,083763137226309005	-0,003125315270649367	0,093417129432311398
1	1	0	0	0	0	2	240280,75	0,0100000007	2,57054877	2,7795819673480259E-005	0,010006493516814979	2,572218E-005	0,08415228049822528	-0,003139834729333257	0,093806272704227674
1	1	0	0	0	0	2	240420,75	0,0100000007	2,57093048	2,7795487813030678E-005	0,010006374047071822	2,57256925E-005	0,084541422518314573	-0,0031543541413097997	0,094195414724316966
1	1	0	0	0	0	2	240560,75	0,0100000007	2,57108331	2,7795565559166582E-005	0,010006402035676368	2,57272932E-005	0,084930558832825626	-0,0031688733404035462	0,094584551038828032
1	1	0	0	0	0	2	240700,75	0,0100000007	2,57144618	2,7795984228296826E-005	0,010006552756539674	2,57313113E-005	0,085319696985497715	-0,003183392608081552	0,094973689191500109
1	1	0	0	0	0	2	240840,75	0,0100000007	2,57173252	2,7795982668693699E-005	0,010006552195082634	2,57341762E-005	0,08570883776697687	-0,0031979119738438848	0,095362829972979264
1	1	0	0	0	0	2	240980,75	0,0100000007	2,57222891	2,7795589984912013E-005	0,010006410828943347	2,57387801E-005	0,086097976066654797	-0,0032124312470068768	0,09575196827265719
1	1	0	0	0	0	2	241120,75	0,0100000007	2,57262993	2,7796248486006838E-005	0,010006647889300394	2,57434021E-005	0,086487115041214477	-0,0032269505453506144	0,09614110724721687
1	1	0	0	0	0	2	241260,75	0,0100000007	2,5729928	2,7795533939730374E-005	0,010006390652681115	2,57463707E-005	0,086876258783682586	-0,0032414700215914259	0,096530250989684979
1	1	0	0	0	0	2	241400,75	0,0100000007	2,57345104	2,7795265579233984E-005	0,010006294042917528	2,57507072E-005	0,087265400002563827	-0,0032559894036738182	0,096919392208566221
1	1	0	0	0	0	2	241540,75	0,0100000007	2,57377577	2,7795806989642896E-005	0,01000648895063424	2,5754458E-005	0,087654537285262042	-0,0032705086388919296	0,097308529491264435
1	1	0	0	0	0	2	241680,75	0,0100000007	2,57411933	2,7796094922038416E-005	0,010006592606280411	2,57581632E-005	0,088043677455858099	-0,0032850279818613926	0,097697669661860493
1	1	0	0	0	0	2	241820,75	0,0100000007	2,57457757	2,7795772213540557E-005	0,010006476431239358	2,57624506E-005	0,088432816842842419	-0,003299547295593248	0,098086809048844813
1	1	0	0	0	0	2	241960,75	0,0100000007	2,57499766	2,7796344895795402E-005	0,010006682596818845	2,57671836E-005	0,088821962511619891	-0,0033140668437072518	0,098475954717622285
1	1	0	0	0	0	2	242100,75	0,0100000007	2,57513142	2,7796107249851856E-005	0,010006597044292554	2,57683023E-005	0,08921111051243991	-0,0033285864788328979	0,098865102718442304
1	1	0	0	0	0	2	242240,75	0,0100000007	2,57549429	2,779549929711761E-005	0,01000637818134247	2,57713691E-005	0,089600251333802202	-0,0033431058460833242	0,099254243539804595
1	1	0	0	0	0	2	242380,75	0,0100000007	2,57587624	2,7795172916207875E-005	0,01000626068423335	2,57748889E-005	0,089989391621903923	-0,0033576251934370816	0,099643383827906317
1	1	0	0	0	0	2	242520,75	0,0100000007	2,57612443	2,7795015420092064E-005	0,010006203985640528	2,57772263E-005	0,090378526460980326	-0,0033721443374803776	0,10003251866698272
1	1	0	0	0	0	2	242530,75	0,0100000007	2,57610536	2,7795131953381414E-005	0,010006245937618131	2,57771444E-005	0,090406321592933696	-0,0033731814112245107	0,1000603137989361