File: Experimentelles/Rohdaten/Batteriemessungen/AlteZelle/150511_LLTO_LTO_Tests/ECLab-Export/LLTO_LP30_LTO_02_CV_C01_loop9.mpt
EC-Lab ASCII FILE
Nb header lines : 3
mode	ox/red	error	control changes	counter inc.	time/s	control/V	Ewe/V	<I>/mA	cycle number	(Q-Qo)/C	P/W
2	1	0	0	0	7672,86	0,273992091	0,274487585	-0,72276681661605837	10	0	0,000198390524
2	1	0	0	0	7674,29	0,288293093	0,288511842	-0,41939257271587757	10	-0,000758492621	0,000120999721
2	1	0	1	0	7675,74	0,302794248	0,3031376	-0,28067673222782739	10	-0,00125783309	8,50836732E-005
2	1	0	1	0	7677,19	0,317295313	0,317603022	-0,18751887915035114	10	-0,00159228011	5,95565616E-005
2	1	0	0	0	7678,64	0,331796467	0,332118541	-0,12386190080239134	10	-0,00181422941	4,11368346E-005
2	1	0	0	0	7680,09	0,346297532	0,34683454	-0,078921588603407142	10	-0,00195809943	2,73727328E-005
2	1	0	1	0	7681,58	0,361198694	0,361570626	-0,04703847034640313	10	-0,00204967754	1,70077292E-005
2	1	0	1	0	7683,03	0,375699818	0,37595582	-0,025242143533735885	10	-0,00210052053	9,48993056E-006
2	1	0	0	0	7684,48	0,390200913	0,390561551	-0,0096710793028857715	10	-0,00212486344	3,77715173E-006
2	1	0	0	0	7685,97	0,405101776	0,405468881	0,0018829071893309706	10	-0,00213004695	7,63460264E-007
2	1	0	1	0	7687,46	0,420003176	0,420675218	0,0099790881334531904	10	-0,00212052884	4,19795515E-006
2	1	0	0	0	7688,91	0,434504241	0,435190767	0,016074603991000858	10	-0,00210067141	6,99551902E-006
2	1	0	0	0	7690,36	0,449005395	0,449575931	0,021544629412043549	10	-0,00207234127	9,68594668E-006
2	1	0	1	0	7691,81	0,46350646	0,463840872	0,026139237258272829	10	-0,00203714403	1,21244466E-005
2	1	0	1	0	7693,26	0,478007644	0,478386432	0,030165881607293389	10	-0,00199567596	1,44309488E-005
2	1	0	0	0	7694,71	0,492508709	0,49287191	0,034011277176129286	10	-0,00194874522	1,67632024E-005
2	1	0	0	0	7696,16	0,507009864	0,507507682	0,037132401067841133	10	-0,00189674948	1,88449794E-005
2	1	0	1	0	7697,61	0,521510899	0,521943033	0,040428011862483514	10	-0,0018401827	2,11011193E-005
2	1	0	0	0	7699,06	0,536012053	0,536498606	0,04310778196668247	10	-0,00177902495	2,31272643E-005
2	1	0	0	0	7700,51	0,550513148	0,551164567	0,046424432686762771	10	-0,00171337207	2,5587502E-005
2	1	0	1	0	7701,97	0,565014303	0,56525898	0,049389189982321005	10	-0,00164335454	2,79176838E-005
2	1	0	1	0	7703,42	0,579515338	0,579674304	0,052517182077280954	10	-0,00156888377	3,04428613E-005
2	1	0	0	0	7704,87	0,594016433	0,59441036	0,05556010716827575	10	-0,00149003149	3,30255025E-005
2	1	0	0	0	7706,32	0,608517587	0,608905852	0,05865069150847063	10	-0,00140665146	3,57127501E-005
2	1	0	1	0	7707,77	0,623018742	0,623311102	0,061889538056372429	10	-0,00131872378	3,85764361E-005
2	1	0	1	0	7709,22	0,637519777	0,637846649	0,065098049565373466	10	-0,00122615916	4,15225732E-005
2	1	0	0	0	7710,67	0,652020931	0,652161717	0,068084186331058278	10	-0,00112884038	4,44018988E-005
2	1	0	1	0	7712,12	0,666522026	0,666937828	0,071529583229372634	10	-0,00102672761	4,77057838E-005
2	1	0	1	0	7713,57	0,68102318	0,681673944	0,074956575117539507	10	-0,000919765502	5,10959435E-005
2	1	0	0	0	7715,02	0,695524216	0,695878685	0,078197491762693978	10	-0,000808127166	5,44159666E-005
2	1	0	0	0	7716,47	0,71002537	0,710434318	0,081245347993293107	10	-0,000691986061	5,77194842E-005
2	1	0	1	0	7717,92	0,724526465	0,724979877	0,084117369803910157	10	-0,000571675773	6,09833987E-005
2	1	0	1	0	7719,37	0,73902756	0,73950541	0,086674205861830413	10	-0,000447537255	6,40960425E-005
2	1	0	0	0	7720,82	0,753528714	0,754091144	0,088428392463053235	10	-0,000319973275	6,66830674E-005
2	1	0	0	0	7722,27	0,768029809	0,768496394	0,090552550701734848	10	-0,000189514234	6,95893104E-005
2	1	0	1	0	7723,72	0,782530844	0,782861412	0,092204341470884518	10	-5,64143629E-005	7,21832184E-005
2	1	0	0	0	7725,17	0,797031999	0,797397077	0,093604693713132288	10	7,88381076E-005	7,46401056E-005
2	1	0	0	0	7726,62	0,811533153	0,811882496	0,094639463136748429	10	0,000215908658	7,68361206E-005
2	1	0	1	0	7728,07	0,826034188	0,826638639	0,095619983990521459	10	0,000354438147	7,90431732E-005
2	1	0	1	0	7729,52	0,840535283	0,8412444	0,096257043265116634	10	0,000494080596	8,09756966E-005
2	1	0	0	0	7730,97	0,855036318	0,855308771	0,096815267616572557	10	0,000634654018	8,2806946E-005
2	1	0	0	0	7732,42	0,869537592	0,870074868	0,096936642657965427	10	0,000775863999	8,43421367E-005
2	1	0	1	0	7733,87	0,884038627	0,884580374	0,097308523894754061	10	0,000917578058	8,60772125E-005
2	1	0	1	0	7735,32	0,898539722	0,899015725	0,097448348843802803	10	0,00105951505	8,7607601E-005
2	1	0	0	0	7736,70	0,91234082	0,912939847	0,097669210052117709	10	0,00119483133	8,91661111E-005
2	1	0	0	0	7738,15	0,926841617	0,92737484	0,097654950678669478	10	0,00133699621	9,05627458E-005
2	1	0	1	0	7739,60	0,941343009	0,942151308	0,097584084180804442	10	0,00147912384	9,19389713E-005
2	1	0	0	0	7741,05	0,955844104	0,95621568	0,097506688112237722	10	0,00162115565	9,32374242E-005
2	1	0	0	0	7742,50	0,970345259	0,970731258	0,097483142958178112	10	0,00176309142	9,46299333E-005
2	1	0	1	0	7743,95	0,984846294	0,985286832	0,097333691761983898	10	0,00190508924	9,59016033E-005
2	1	0	1	0	7745,40	0,999347448	0,999842465	0,097594536123021158	10	0,00204719813	9,75791627E-005
2	1	0	0	0	7746,85	1,01384854	1,01447821	0,097813405406971814	10	0,00218962808	9,92295681E-005
2	1	0	0	0	7748,30	1,02834964	1,0289036	0,098267112198906714	10	0,00233242754	0,000101107384
2	1	0	1	0	7749,77	1,04305065	1,04357433	0,098511738101175526	10	0,00247775484	0,000102804319
2	1	0	0	0	7751,24	1,05775189	1,05820525	0,099139142238224397	10	0,00262374943	0,000104909559
2	1	0	0	0	7752,69	1,07225299	1,07281101	0,099668997727955456	10	0,0027684255	0,000106925996
2	1	0	1	0	7754,14	1,08675396	1,08727634	0,099799905903637184	10	0,00291385199	0,000108510074
2	1	0	1	0	7755,59	1,10125518	1,10162151	0,1005260533420369	10	0,00305994134	0,000110741661
2	1	0	0	0	7757,04	1,11575627	1,11605692	0,10095363393581147	10	0,0032067881	0,000112670001
2	1	0	0	0	7758,49	1,13025725	1,13076282	0,10150326594399894	10	0,00335427606	0,000114776121
2	1	0	1	0	7759,94	1,14475846	1,14535856	0,10185960470698752	10	0,00350246695	0,000116665768
2	1	0	1	0	7761,39	1,15925968	1,15993416	0,10249234169411158	10	0,00365134911	0,000118884367
2	1	0	0	0	7762,84	1,17376077	1,17417908	0,1028087647088488	10	0,00380092789	0,0001207159
2	1	0	1	0	7764,29	1,18826187	1,1885643	0,10341129727506382	10	0,00395130785	0,000122910977
2	1	0	1	0	7765,74	1,20276296	1,20316005	0,1039466221118348	10	0,00410241727	0,000125064427
2	1	0	0	0	7767,19	1,21726394	1,21783578	0,10472093638963997	10	0,00425449992	0,000127532898
2	1	0	0	0	7768,64	1,23176515	1,23235142	0,10541018246052158	10	0,00440739421	0,000129902386
2	1	0	1	0	7770,09	1,24626625	1,24685693	0,10592610194968621	10	0,00456119189	0,000132074696
2	1	0	1	0	7771,54	1,26076734	1,26152289	0,10661757198007149	10	0,00471574534	0,0001345005
2	1	0	0	0	7772,99	1,27526855	1,27553725	0,10691111080814154	10	0,0048709861	0,000136369112
2	1	0	0	0	7774,44	1,28976965	1,29019308	0,10744441188095744	10	0,00502692536	0,000138624033
2	1	0	1	0	7775,89	1,30427074	1,30462825	0,10734991845674768	10	0,00518339779	0,000140051736
2	1	0	0	0	7777,34	1,31877184	1,319224	0,10756652765286445	10	0,00534013612	0,00014190434
2	1	0	0	0	7778,79	1,33327281	1,33385968	0,10754732135683266	10	0,0054968195	0,000143453042
2	1	0	1	0	7780,24	1,34777403	1,34818482	0,10749760685333354	10	0,00565344701	0,000144926642
2	1	0	1	0	7781,69	1,36227512	1,36284077	0,1074042665228867	10	0,00580987707	0,000146374907
2	1	0	0	0	7783,14	1,37677622	1,37725604	0,10713730345014506	10	0,00596613204	0,000147555504
2	1	0	0	0	7784,59	1,39127743	1,39162123	0,10697522429594165	10	0,0061221486	0,000148868989
2	1	0	1	0	7786,04	1,40577853	1,40635717	0,10684430230564112	10	0,00627791369	0,000150261258
2	1	0	1	0	7787,49	1,42027962	1,42079258	0,10649939199599112	10	0,00643340917	0,00015131355
2	1	0	0	0	7788,94	1,43478072	1,43527806	0,10640313538412234	10	0,0065886369	0,000152718087
2	1	0	0	0	7790,39	1,44928098	1,44982386	0,1063398200336532	10	0,00674358802	0,000154174006
2	1	0	1	0	7791,84	1,46378279	1,46422887	0,10623924484631653	10	0,00689817313	0,000155558562
2	1	0	0	0	7793,29	1,478284	1,4787544	0,10614354539817782	10	0,00705264322	0,000156960232
2	1	0	0	0	7794,74	1,4927851	1,49334013	0,10621794487815306	10	0,00720709469	0,000158619514
2	1	0	1	0	7796,19	1,50728631	1,50779545	0,1065376135908691	10	0,00736181298	0,000160636933
2	1	0	1	0	7797,64	1,52178741	1,52225077	0,10656828910578043	10	0,00751700019	0,00016222366
2	1	0	0	0	7799,09	1,5362885	1,53687668	0,10742311474556709	10	0,00767292967	0,000165096077
2	1	0	0	0	7800,54	1,55078959	1,55131197	0,10826846763181154	10	0,00782999955	0,000167958176
2	1	0	1	0	7801,99	1,56529057	1,56602776	0,10933998611289986	10	0,00798847526	0,000171229447
2	1	0	1	0	7803,44	1,57979178	1,58018208	0,11046114036464294	10	0,00814865157	0,00017454871
2	1	0	0	0	7804,89	1,59429264	1,59474814	0,11213494569528848	10	0,00831077155	0,000178827002
2	1	0	1	0	7806,34	1,60879397	1,6092236	0,11358740219535899	10	0,00847514253	0,000182787524
2	1	0	1	0	7807,79	1,62329495	1,62364888	0,1154219976936779	10	0,00864194334	0,000187404803
2	1	0	0	0	7809,24	1,63779628	1,63822448	0,1169368667760864	10	0,00881126337	0,000191568834
2	1	0	0	0	7810,69	1,65229738	1,65282011	0,11899266069910165	10	0,00898334384	0,000196673456
2	1	0	1	0	7812,14	1,66679835	1,66733575	0,12110293101674573	10	0,00915821269	0,000201919247
2	1	0	1	0	7813,59	1,68129945	1,68187129	0,12329379958100616	10	0,00933602825	0,000207364297
2	1	0	0	0	7815,04	1,69580054	1,69627666	0,12542413190628024	10	0,00951685384	0,000212754021
2	1	0	0	0	7816,49	1,71030164	1,71073186	0,12751120472482091	10	0,00970064756	0,000218137488
2	1	0	1	0	7817,94	1,72480285	1,72555828	0,1296528675981481	10	0,00988749042	0,000223723575
2	1	0	0	0	7819,39	1,73930395	1,7399236	0,13130056303149696	10	0,0100773424	0,000228452947
2	1	0	0	0	7820,84	1,75380492	1,75448895	0,13358273628788675	10	0,0102702491	0,000234369436
2	1	0	1	0	7822,29	1,76830626	1,76880407	0,13575442092648454	10	0,0104662534	0,000240122972
2	1	0	1	0	7823,74	1,78280723	1,78325951	0,13798529895332878	10	0,0106654074	0,000246063602
2	1	0	0	0	7825,19	1,79730833	1,79789531	0,14006383938249157	10	0,0108676013	0,000251820107
2	1	0	0	0	7826,64	1,81180942	1,81241083	0,14215180149767558	10	0,0110729197	0,000257637468
2	1	0	1	0	7828,10	1,82631052	1,82693636	0,14421556505840317	10	0,0112812761	0,00026347267
2	1	0	1	0	7829,55	1,84081149	1,84126139	0,14634249809508515	10	0,0114925979	0,000269454787
2	1	0	0	0	7831,00	1,85531282	1,8560977	0,14805547567084387	10	0,0117069203	0,000274805439
2	1	0	1	0	7832,45	1,8698138	1,8703928	0,15023885248228864	10	0,0119242379	0,000281005661
2	1	0	1	0	7833,90	1,88431513	1,88465762	0,15235367394052416	10	0,0121445265	0,00028713452
2	1	0	0	0	7835,35	1,89881623	1,89932358	0,15454691900716445	10	0,0123677673	0,000293534598
2	1	0	0	0	7836,80	1,9133172	1,91394925	0,15670429189534288	10	0,0125939855	0,000299924053
2	1	0	1	0	7838,25	1,9278183	1,92838478	0,15873028031395142	10	0,0128231477	0,000306093047
2	1	0	1	0	7839,70	1,94231939	1,94279993	0,16079694129681821	10	0,0130551765	0,000312396296
2	1	0	0	0	7841,15	1,95682049	1,95720506	0,16223445841266448	10	0,0132900318	0,000317526108
2	1	0	0	0	7842,60	1,9713217	1,97184086	0,16425411659292832	10	0,0135275973	0,000323882967
2	1	0	1	0	7844,05	1,9858228	1,98646665	0,1662364700265848	10	0,0137680061	0,000330223207
2	1	0	0	0	7845,50	2,00032377	2,00074172	0,16813384334091075	10	0,0140110571	0,000336392404
2	1	0	0	0	7846,95	2,01482511	2,01558805	0,16988079657312438	10	0,0142568639	0,000342409709
2	1	0	1	0	7848,40	2,02932596	2,02976274	0,17177887458819875	10	0,0145052737	0,00034867035
2	1	0	1	0	7849,85	2,0438273	2,04415798	0,1735497541958464	10	0,0147563014	0,00035476312
2	1	0	0	0	7851,30	2,05832839	2,05903435	0,17539646922765926	10	0,0150098959	0,000361147366
2	1	0	0	0	7852,75	2,07282948	2,07345963	0,17669753412095114	10	0,0152659416	0,0003663752
2	1	0	1	0	7854,20	2,08733058	2,08805537	0,17854240408632861	10	0,0155245094	0,000372806418
2	1	0	1	0	7855,65	2,10183096	2,10233998	0,18017571054095293	10	0,0157853644	0,000378790603
2	1	0	0	0	7857,10	2,11633253	2,11705613	0,18192941125016694	10	0,0160488393	0,000385154766
2	1	0	1	0	7858,55	2,13083363	2,1312108	0,18368445138912582	10	0,0163146891	0,000391470297
2	1	0	1	0	7860,00	2,14533472	2,1458869	0,18536810196625632	10	0,0165828746	0,000397778989
2	1	0	0	0	7861,45	2,15983605	2,1604023	0,18706136806091866	10	0,016853407	0,000404127815
2	1	0	0	0	7862,90	2,17433715	2,17491794	0,18816922546830022	10	0,0171261672	0,000409252621
2	1	0	1	0	7864,35	2,18883824	2,1894834	0,18989497617197526	10	0,017401183	0,000415771909
2	1	0	1	0	7865,80	2,20333934	2,20396876	0,19133250671438896	10	0,0176782142	0,000421690871
2	1	0	0	0	7867,25	2,21784019	2,21848464	0,19292219371224429	10	0,0179575011	0,000427994935
2	1	0	0	0	7868,70	2,23234224	2,2331512	0,19422444252436221	10	0,0182387996	0,000433732552
2	1	0	1	0	7870,15	2,24684262	2,2474854	0,19566178927198006	10	0,0185221508	0,000439747004
2	1	0	0	0	7871,60	2,26134396	2,26168036	0,19706936227157702	10	0,0188075267	0,000445707905
2	1	0	0	0	7873,05	2,27584481	2,27643633	0,19842286004374365	10	0,0190948322	0,000451697008
2	1	0	1	0	7874,50	2,29034615	2,29078126	0,19947384934251565	10	0,019384196	0,000456950947
2	1	0	1	0	7875,95	2,30484724	2,30570793	0,20094816285806448	10	0,0196755547	0,000463327771
2	1	0	0	0	7877,40	2,31934834	2,31980252	0,20260496561725904	10	0,0199691504	0,000470003521
2	1	0	0	0	7878,85	2,33384943	2,3342979	0,20403313559169571	10	0,0202648528	0,000476274115
2	1	0	1	0	7880,30	2,34835052	2,348984	0,20565780826533885	10	0,0205628406	0,000483086915
2	1	0	1	0	7881,75	2,36285114	2,36340928	0,20737971089051421	10	0,0208630264	0,000490123115
2	1	0	0	0	7883,20	2,37735248	2,37793493	0,20904647970261792	10	0,0211655162	0,000497098954
2	1	0	1	0	7884,65	2,39185357	2,39269066	0,21026938377569104	10	0,0214703344	0,000503109593
2	1	0	1	0	7886,10	2,40635467	2,40714622	0,21209759094441917	10	0,0217772536	0,000510549929
2	1	0	0	0	7887,55	2,420856	2,42160153	0,21372695717339728	10	0,0220866613	0,000517561508
2	1	0	0	0	7889,00	2,43535709	2,43583632	0,2154196156964945	10	0,0223983377	0,000524726929
2	1	0	1	0	7890,45	2,44985819	2,4505825	0,2169084191943207	10	0,0227124449	0,000531551952
2	1	0	1	0	7891,90	2,46435928	2,46506786	0,21877977073503085	10	0,0230288804	0,000539306959
2	1	0	0	0	7893,35	2,47886038	2,47936273	0,22030663373880122	10	0,0233478416	0,00054622005
2	1	0	0	0	7894,80	2,49336219	2,49404001	0,22200187120673843	10	0,023669228	0,000553681573
2	1	0	1	0	7896,25	2,50786281	2,50838399	0,22319317166693443	10	0,0239927489	0,000559854205
2	1	0	0	0	7897,70	2,52236366	2,52308989	0,22515416354872266	10	0,0243189204	0,000568084186
2	1	0	0	0	7899,15	2,536865	2,53727436	0,22685462189838262	10	0,0246474463	0,000575592392
2	1	0	1	0	7900,60	2,55136609	2,55207062	0,22866257163695946	10	0,0249786023	0,000583563058
2	1	0	1	0	7902,05	2,56586719	2,56658626	0,23032028530724435	10	0,0253121313	0,000591136864
2	1	0	0	0	7903,50	2,58036828	2,58085132	0,23219143506139562	10	0,0256483182	0,000599251594
2	1	0	0	0	7904,95	2,59486938	2,59569764	0,23400940629653542	10	0,0259869248	0,000607417664
2	1	0	1	0	7906,40	2,60937023	2,60983205	0,23556149386179914	10	0,0263281241	0,000614775927
2	1	0	0	0	7907,85	2,6238718	2,62422657	0,23744950496925555	10	0,0266718809	0,000623121276
2	1	0	0	0	7909,30	2,63837242	2,63929439	0,23940127187718918	10	0,0270182174	0,000631850446
2	1	0	1	0	7910,75	2,65287352	2,65348911	0,24124215807144723	10	0,0273673031	0,000640133454
2	1	0	1	0	7912,20	2,66737485	2,66807485	0,24297875631600618	10	0,0277188737	0,000648285495
2	1	0	0	0	7913,65	2,68187594	2,68266034	0,24475177796557523	10	0,0280730817	0,000656585908
2	1	0	0	0	7915,10	2,69637704	2,69690514	0,24642193790835654	10	0,0284298398	0,000664576597
2	1	0	1	0	7916,55	2,71087813	2,71143055	0,2481340211040024	10	0,0287890937	0,000672798138
2	1	0	1	0	7918,00	2,72537923	2,72613668	0,24950671902236854	10	0,0291507803	0,000680189405
2	1	0	0	0	7919,45	2,73988032	2,74061227	0,25139669592802694	10	0,0295149628	0,000688980857
2	1	0	0	0	7920,90	2,75438046	2,75495601	0,25345238106649149	10	0,0298818871	0,000698250136
2	1	0	1	0	7922,35	2,76888251	2,76948285	0,25572395534254634	10	0,0302518662	0,000708223088
2	1	0	0	0	7923,80	2,78338361	2,78379774	0,25802380071642483	10	0,0306253023	0,000718286086
2	1	0	0	0	7925,25	2,79788494	2,79844356	0,26088780195762685	10	0,0310023762	0,000730079773
2	1	0	1	0	7926,70	2,81238604	2,81305933	0,26378747929508474	10	0,0313835479	0,00074204983
2	1	0	1	0	7928,15	2,82688713	2,82754469	0,26677990316723776	10	0,0317690484	0,000754332112
2	1	0	0	0	7929,60	2,84138823	2,84209061	0,27009493485093162	10	0,0321592167	0,00076763425
2	1	0	0	0	7931,05	2,85588908	2,85656595	0,27375739261818355	10	0,0325543433	0,000782006071
2	1	0	1	0	7932,50	2,87039018	2,87095094	0,27743140623594352	10	0,0329544805	0,000796491979
2	1	0	1	0	7933,95	2,88489151	2,88550735	0,28098855408852864	10	0,0333599597	0,000810794532
2	1	0	0	0	7935,40	2,89939237	2,90010238	0,28501852485351174	10	0,0337708406	0,000826582895
2	1	0	1	0	7936,85	2,9138937	2,91439748	0,28868219644452032	10	0,0341873951	0,000841334637
2	1	0	1	0	7938,30	2,92839479	2,92887282	0,29324802725265421	10	0,0346098617	0,000858886167
2	1	0	0	0	7939,75	2,94289589	2,94346857	0,29735422964828563	10	0,0350389071	0,000875252823
2	1	0	0	0	7941,20	2,95739698	2,95808434	0,30239110424493632	10	0,0354746208	0,000894498371
2	1	0	1	0	7942,65	2,97189808	2,97267008	0,30743279277036531	10	0,0359175317	0,000913896249
2	1	0	1	0	7944,10	2,98639917	2,98689508	0,31285991519689562	10	0,0363680385	0,000934479758
2	1	0	0	0	7945,55	3,00090027	3,00155044	0,31834969040937741	10	0,0368263796	0,000955542666
2	1	0	0	0	7947,00	3,01540065	3,01593542	0,32408655453594726	10	0,0372929536	0,00097742409
2	1	0	1	0	7948,45	3,02990246	3,03017068	0,33009344168628275	10	0,0377680957	0,00100023951
2	1	0	0	0	7949,90	3,04440379	3,04517746	0,33623606354619008	10	0,0382521339	0,00102389848
2	1	0	0	0	7951,35	3,05890489	3,05951238	0,34265499554263987	10	0,0387452543	0,00104835723
2	1	0	1	0	7952,80	3,07340598	3,0740881	0,34959719640513146	10	0,0392480269	0,00107469258
2	1	0	1	0	7954,25	3,08790708	3,08847332	0,35687950633776698	10	0,0397608131	0,00110221282
2	1	0	0	0	7955,70	3,10240793	3,10303903	0,36416647769510656	10	0,0402840264	0,00113002281
2	1	0	0	0	7957,15	3,11690903	3,11743426	0,37180796568281971	10	0,0408180915	0,00115908694
2	1	0	1	0	7958,61	3,13140988	3,13198972	0,37995884086315757	10	0,0413636602	0,00119002722
2	1	0	1	0	7960,06	3,14591146	3,146415	0,38800054113380608	10	0,0419208556	0,00122081069
2	1	0	0	0	7961,51	3,16041255	3,16110086	0,39606317877769472	10	0,0424902998	0,00125199568
2	1	0	1	0	7962,96	3,17491364	3,17551637	0,4050176621725168	10	0,0430721566	0,00128614018
2	1	0	1	0	7964,41	3,18941474	3,19022226	0,41406354866921766	10	0,0436668657	0,00132095476
2	1	0	0	0	7965,86	3,2039156	3,20467758	0,42325597101201498	10	0,0442748368	0,00135639892
2	1	0	0	0	7967,31	3,21841669	3,21907282	0,43282632855698464	10	0,0448964201	0,00139329943
2	1	0	1	0	7968,76	3,23291779	3,23357821	0,44288126720736365	10	0,0455321446	0,00143209123
2	1	0	1	0	7970,21	3,24741888	3,24804401	0,45318778154129811	10	0,0461824946	0,00147197384
2	1	0	0	0	7971,66	3,26191998	3,26236892	0,4640729531335337	10	0,0468482971	0,00151397719
2	1	0	0	0	7973,11	3,27642131	3,27672386	0,47489871131256045	10	0,0475298762	0,00155611197
2	1	0	1	0	7974,56	3,2909224	3,29157019	0,48694185710822515	10	0,0482283942	0,00160280336
2	1	0	0	0	7976,01	3,3054235	3,30592537	0,4994265510079767	10	0,0489444248	0,00165106694
2	1	0	0	0	7977,46	3,31992459	3,32051086	0,51265468091393632	10	0,0496787913	0,00170227548
2	1	0	1	0	7978,91	3,33442569	3,33507681	0,52662945057576115	10	0,0504328907	0,00175634969
2	1	0	1	0	7980,36	3,34892678	3,34956217	0,54108303211008346	10	0,0512074865	0,00181239122
2	1	0	0	0	7981,81	3,36342788	3,3642385	0,55622137663885683	10	0,0520035811	0,0018712614
2	1	0	0	0	7983,26	3,37792873	3,37859344	0,57135053599873939	10	0,0528218038	0,00193036115
2	1	0	1	0	7984,71	3,39243031	3,39313889	0,58792270626872781	10	0,0536633804	0,00199490343
2	1	0	1	0	7986,16	3,40693021	3,40758443	0,60508328920473216	10	0,0545291454	0,00206187251
2	1	0	0	0	7987,61	3,4214325	3,42208958	0,62270245856294797	10	0,0554199852	0,00213094358
2	1	0	1	0	7989,06	3,43593359	3,43650484	0,64043868193402842	10	0,0563363582	0,00220087054
2	1	0	1	0	7990,51	3,45043445	3,45108056	0,65838824662690509	10	0,0572788343	0,00227215094
2	1	0	0	0	7991,96	3,46493554	3,4655664	0,67727571011831373	10	0,0582480468	0,00234714383
2	1	0	0	0	7993,41	3,47943664	3,48022199	0,69571267114952115	10	0,0592440329	0,0024212345
2	1	0	1	0	7994,86	3,49393773	3,49478745	0,71477593931679987	10	0,060267847	0,00249798992
2	1	0	1	0	7996,31	3,50843883	3,50909257	0,73486544750630682	10	0,061319679	0,0025787109
2	1	0	0	0	7997,76	3,52293992	3,52365804	0,75524433547010266	10	0,0624008663	0,00266122282
2	1	0	0	0	7999,21	3,53744054	3,53821397	0,77610672409497638	10	0,06351161	0,00274603162
2	1	0	1	0	8000,66	3,55194235	3,55282974	0,7978249865894505	10	0,0646532103	0,00283453637
2	1	0	0	0	8002,11	3,56644344	3,56730509	0,81908123847097165	10	0,0658261627	0,00292191259
2	1	0	0	0	8003,56	3,58094454	3,58159018	0,84115139581262707	10	0,0670301467	0,00301265949
2	1	0	1	0	8005,01	3,59544563	3,59601545	0,86164527448515443	10	0,0682657138	0,00309848972
2	1	0	1	0	8006,46	3,60994673	3,61046076	0,88306576572358477	10	0,0695317537	0,00318827434
2	1	0	0	0	8007,91	3,62444806	3,62529707	0,90338957837472256	10	0,0708280206	0,00327505567
2	1	0	0	0	8009,36	3,63894916	3,63965201	0,92290958637992832	10	0,0721529126	0,00335906981
2	1	0	1	0	8010,81	3,65345025	3,65415764	0,94171887015302989	10	0,0735057965	0,00344118918
2	1	0	1	0	8012,26	3,66795135	3,66843247	0,95995044490943475	10	0,0748850107	0,00352151343
2	1	0	0	0	8013,71	3,68245244	3,68311834	0,9770495109260064	10	0,0762903318	0,00359858898
2	1	0	1	0	8015,16	3,6969533	3,69766426	0,99377605536331789	10	0,0777202323	0,0036746501
2	1	0	1	0	8016,65	3,71185446	3,71254086	1,0118067435299346	10	0,0792154372	0,00375637389
2	1	0	0	0	8018,10	3,72635555	3,72711587	1,0279733814919965	10	0,080695428	0,00383137586
2	1	0	0	0	8019,55	3,74085665	3,74168181	1,0441626310348538	10	0,0821982399	0,00390692428
2	1	0	1	0	8021,00	3,75535774	3,75591683	1,0602834969758987	10	0,083724983	0,00398233673
2	1	0	1	0	8022,45	3,76985884	3,7707932	1,0769750901187435	10	0,0852751508	0,00406105025
2	1	0	0	0	8023,90	3,78435993	3,78505802	1,0924346161385382	10	0,0868486539	0,00413492834
2	1	0	0	0	8025,35	3,79886127	3,7996335	1,1084538483992202	10	0,0884448588	0,00421171822
2	1	0	1	0	8026,80	3,81336236	3,81403899	1,1240635355934466	10	0,0900645033	0,00428722193
2	1	0	0	0	8028,25	3,82786345	3,82854438	1,1399868708103914	10	0,0917070806	0,00436449051
2	1	0	0	0	8029,70	3,84236455	3,8431201	1,1554220151156152	10	0,0933722779	0,00444042543
2	1	0	1	0	8031,15	3,85686564	3,8576858	1,1721784767384342	10	0,0950608701	0,00452189613
2	1	0	1	0	8032,60	3,87136674	3,87219095	1,1880352844794544	10	0,0967728794	0,00460029952
2	1	0	0	0	8034,05	3,88586807	3,88677716	1,2050837501883507	10	0,0985090733	0,00468389178
2	1	0	0	0	8035,50	3,90036917	3,90113211	1,2218412198126314	10	0,100269295	0,00476656388
2	1	0	1	0	8036,95	3,91487026	3,91551733	1,2388100726529947	10	0,102054581	0,00485058222
2	1	0	1	0	8038,40	3,92937136	3,93012309	1,2563551298032216	10	0,103864655	0,00493763015
2	1	0	0	0	8039,85	3,94387245	3,94460845	1,2748658691222491	10	0,105700873	0,00502884667
2	1	0	1	0	8041,30	3,95837331	3,9590435	1,2939346004277467	10	0,107564047	0,00512274355
2	1	0	1	0	8042,75	3,9728744	3,97376966	1,3138817685345786	10	0,109454758	0,00522106374
2	1	0	0	0	8044,20	3,9873755	3,98838544	1,3343179958562032	10	0,111375146	0,00532177463
2	1	0	0	0	8045,65	4,00187635	4,00255013	1,3555492370699848	10	0,113325693	0,00542565389
2	1	0	1	0	8047,10	4,01637793	4,01721573	1,377692561596632	10	0,115308031	0,00553448824
2	1	0	1	0	8048,55	4,03087902	4,03174162	1,3994333495696392	10	0,117322214	0,00564215379
2	1	0	0	0	8050,00	4,04538012	4,04638767	1,4232391926149504	10	0,119369492	0,0057589775
2	1	0	0	0	8051,45	4,05987978	4,06051064	1,4466131965889254	10	0,121451467	0,00587398838
2	1	0	1	0	8052,90	4,07438231	4,07509756	1,4703378649428483	10	0,12356735	0,00599177042
2	1	0	0	0	8054,35	4,0888834	4,08955288	1,4943047464018077	10	0,125717595	0,00611103838
2	1	0	0	0	8055,80	4,10338449	4,10425901	1,5195850366726518	10	0,127903506	0,00623677066
2	1	0	1	0	8057,25	4,11788559	4,11874437	1,5457252537210787	10	0,130126432	0,00636644708
2	1	0	1	0	8058,70	4,13238668	4,13335037	1,573107086742919	10	0,132388487	0,00650220271
2	1	0	0	0	8060,15	4,14688778	4,14771509	1,6030212162683421	10	0,134692147	0,00664887531
2	1	0	0	0	8061,60	4,16138887	4,16255188	1,6360166470209734	10	0,137041092	0,00681000436
2	1	0	1	0	8063,05	4,17588997	4,17664623	1,671859653045729	10	0,139440402	0,00698276609
2	1	0	0	0	8064,50	4,19039106	4,19148111	1,7111653875581395	10	0,141893536	0,00717231724
2	0	0	0	1	8065,89	4,19569159	4,19660473	1,6414628451069149	10	0,14427571	0,00688857073
2	0	0	1	1	8067,34	4,18119049	4,18190861	1,4102548218021837	10	0,146479726	0,0058975569
2	0	0	1	1	8068,79	4,16668844	4,16753244	1,2217474823453714	10	0,148382708	0,0050916723
2	0	0	0	1	8070,24	4,1521883	4,15289831	1,0607272777706349	10	0,150033206	0,00440509245
2	0	0	1	1	8071,69	4,13768673	4,13845015	0,92115357201168282	10	0,151466921	0,00381214824
2	0	0	1	1	8073,14	4,12318611	4,12401724	0,7998839206993545	10	0,152711838	0,00329873501
2	0	0	0	1	8074,59	4,10868454	4,10964203	0,69427559586862835	10	0,15379265	0,00285322405
2	0	0	0	1	8076,04	4,09418344	4,09497643	0,60230254956210586	10	0,154730409	0,00246641482
2	0	0	1	1	8077,49	4,07968235	4,08051109	0,52122868442287021	10	0,155542791	0,00212687952
2	0	0	1	1	8078,98	4,06478119	4,0653944	0,44828380846107942	10	0,1562628	0,00182245043
2	0	0	0	1	8080,43	4,05028009	4,05082846	0,38656725835365613	10	0,156866252	0,00156591763
2	0	0	0	1	8081,88	4,03577948	4,03667259	0,33274996192383565	10	0,157386005	0,00134320266
2	0	0	1	1	8083,34	4,02127838	4,02199745	0,28523875392663011	10	0,157832578	0,00114722957
2	0	0	0	1	8084,79	4,00677586	4,00751019	0,24398205386599603	10	0,158215001	0,00097776053
2	0	0	0	1	8086,24	3,99227619	3,99296641	0,20725606723378042	10	0,158540934	0,000827566488
2	0	0	1	1	8087,69	3,97777462	3,97853136	0,175669599014024	10	0,158817276	0,00069890701
2	0	0	1	1	8089,14	3,96327376	3,96401572	0,14704487049796966	10	0,15904972	0,000582888199
2	0	0	0	1	8090,59	3,94877267	3,9495604	0,1215274274970095	10	0,159243181	0,000479979906
2	0	0	0	1	8092,04	3,93427157	3,9347744	0,098828280034164211	10	0,159401774	0,000388866989
2	0	0	1	1	8093,49	3,91977048	3,92036915	0,078434737903686707	10	0,159529433	0,000307493116
2	0	0	1	1	8094,94	3,90526915	3,90608621	0,060268434441241754	10	0,159629241	0,000235413696
2	0	0	0	1	8096,43	3,89036822	3,89099717	0,04329524060206791	10	0,159705773	0,000168461658
2	0	0	1	1	8097,88	3,87586713	3,87648177	0,029128637562583629	10	0,159757465	0,000112916634
2	0	0	1	1	8099,33	3,86136603	3,86211634	0,015475374059557568	10	0,159788847	5,97676953E-005
2	0	0	0	1	8100,82	3,84646487	3,84724975	0,0028820539973821725	10	0,159801841	1,10879819E-005
2	0	0	0	1	8102,27	3,83196354	3,83277488	-0,0084278965368867021	10	0,159797415	3,23022286E-005
2	0	0	1	1	8103,76	3,81706238	3,81779814	-0,018893910227537446	10	0,159776866	7,2133138E-005
2	0	0	1	1	8105,21	3,80256128	3,80314231	-0,028287864687930208	10	0,159742251	0,000107582775
2	0	0	0	1	8106,66	3,78806019	3,78855634	-0,037118382577318701	10	0,159694418	0,000140625081
2	0	0	1	1	8108,11	3,77355886	3,77430129	-0,044908132842367968	10	0,159634307	0,000169496823
2	0	0	1	1	8109,56	3,759058	3,75969577	-0,052850290162799405	10	0,159562603	0,000198701018
2	0	0	0	1	8111,01	3,7445569	3,74511027	-0,060019162502916058	10	0,159480035	0,000224778385
2	0	0	0	1	8112,46	3,73005605	3,73079515	-0,067046225963470989	10	0,159387201	0,000250135723
2	0	0	1	1	8113,91	3,71555495	3,7162497	-0,073479673417750861	10	0,15928492	0,000273068814
2	0	0	1	1	8115,36	3,70105386	3,70156336	-0,079763944260776038	10	0,159173191	0,000295251288
2	0	0	0	1	8116,81	3,68655276	3,68732882	-0,085794481410024218	10	0,159052536	0,000316352467
2	0	0	0	1	8118,26	3,67205167	3,67279291	-0,091505294840317325	10	0,158923388	0,000336080004
2	0	0	1	1	8119,71	3,65755057	3,65807748	-0,096742530722016	10	0,158786133	0,000353891664
2	0	0	1	1	8121,20	3,64264941	3,64323139	-0,1023188889690072	10	0,158637032	0,000372771377
2	0	0	0	1	8122,65	3,62814808	3,62884569	-0,10756804995859693	10	0,158484176	0,00039034785
2	0	0	1	1	8124,10	3,61364698	3,61444044	-0,11250140013483678	10	0,158324078	0,00040662961
2	0	0	1	1	8125,55	3,59914589	3,59972453	-0,11742719627606379	10	0,158156723	0,000422705547
2	0	0	0	1	8127,00	3,58464479	3,58532906	-0,12223445825899626	10	0,157982498	0,000438250747
2	0	0	0	1	8128,45	3,5701437	3,57094359	-0,12677947897464037	10	0,157801345	0,000452722365
2	0	0	1	1	8129,90	3,55564237	3,55619788	-0,13096419329910214	10	0,15761368	0,0004657346
2	0	0	1	1	8131,35	3,54114127	3,54199314	-0,13541297129510576	10	0,157419652	0,000479631824
2	0	0	0	1	8132,80	3,52664018	3,52748728	-0,13951143808662914	10	0,157219455	0,000492124818
2	0	0	1	1	8134,25	3,51213813	3,51268005	-0,1434017015427651	10	0,15701358	0,000503724325
2	0	0	1	1	8135,70	3,49763799	3,49844646	-0,1470216217761239	10	0,156802133	0,000514347281
2	0	0	0	1	8137,15	3,48313689	3,48387098	-0,15076951895995693	10	0,156585425	0,000525261567
2	0	0	0	1	8138,60	3,46863604	3,46929526	-0,15414634292634838	10	0,156363726	0,000534779159
2	0	0	1	1	8140,05	3,45413494	3,45503044	-0,15720103463778877	10	0,156137198	0,000543134345
2	0	0	1	1	8141,50	3,43963385	3,44028425	-0,16037967711842317	10	0,15590626	0,000551751698
2	0	0	0	1	8142,95	3,42513275	3,42559838	-0,16323206771630838	10	0,155670926	0,000559167529
2	0	0	0	1	8144,40	3,41063166	3,41118312	-0,16607696233162051	10	0,155431718	0,000566518924
2	0	0	1	1	8145,85	3,39613056	3,396878	-0,16859546171811779	10	0,155188471	0,000572698191
2	0	0	1	1	8147,30	3,38163018	3,38235235	-0,17132439957688739	10	0,154941529	0,0005794795
2	0	0	0	1	8148,75	3,36712813	3,3676362	-0,17374473503635568	10	0,154690757	0,000585109054
2	0	0	1	1	8150,20	3,35262704	3,35313106	-0,17629156009449386	10	0,154436469	0,000591128715
2	0	0	1	1	8151,65	3,33812594	3,3386755	-0,17823986957470582	10	0,154178768	0,00059508509
2	0	0	0	1	8153,10	3,32362485	3,32430029	-0,1807242136759064	10	0,153917566	0,000600781583
2	0	0	0	1	8154,55	3,30912352	3,30961442	-0,18294140444292339	10	0,153653145	0,000605465495
2	0	0	1	1	8156,00	3,29462242	3,29531932	-0,18528777260022854	10	0,153385282	0,000610582356
2	0	0	1	1	8157,45	3,28012133	3,28077364	-0,18741195990393632	10	0,153114334	0,000614856195
2	0	0	0	1	8158,90	3,26562023	3,26631832	-0,18963509285822554	10	0,152840212	0,000619408558
2	0	0	0	1	8160,35	3,25112009	3,25159383	-0,19187846831801197	10	0,152562916	0,000623910862
2	0	0	1	1	8161,80	3,23661804	3,23708677	-0,19400138757191642	10	0,152282432	0,00062799931
2	0	0	0	1	8163,25	3,22211719	3,22292256	-0,19605724862776698	10	0,151998833	0,000631877338
2	0	0	0	1	8164,70	3,20761609	3,20817637	-0,19838930309439728	10	0,151712179	0,000636467885
2	0	0	1	1	8166,15	3,193115	3,19361043	-0,20076879874492602	10	0,151422173	0,00064117735
2	0	0	1	1	8167,60	3,1786139	3,17922568	-0,20302936093260902	10	0,151129037	0,000645476161
2	0	0	0	1	8169,05	3,16411281	3,16456962	-0,20531035331077962	10	0,150832489	0,000649718917
2	0	0	0	1	8170,50	3,14961171	3,15007401	-0,20751761489858243	10	0,150532663	0,000653695839
2	0	0	1	1	8171,95	3,13511038	3,13554883	-0,20988502617304582	10	0,150229499	0,00065810472
2	0	0	0	1	8173,40	3,12060905	3,12129307	-0,21193075314771059	10	0,149922863	0,000661497994
2	0	0	0	1	8174,85	3,10610843	3,10671806	-0,21450100031991859	10	0,149612814	0,000666394131
2	0	0	1	1	8176,30	3,09160733	3,09209228	-0,21707088802941232	10	0,149299115	0,00067120319
2	0	0	1	1	8177,75	3,07710624	3,07774711	-0,21966838673688528	10	0,14898175	0,000676083728
2	0	0	0	1	8179,20	3,0626049	3,06324172	-0,2221683319658041	10	0,1486606	0,000680555298
2	0	0	0	1	8180,65	3,04810405	3,04883623	-0,22507347376085862	10	0,148335606	0,000686212152
2	0	0	1	1	8182,10	3,03360295	3,03412056	-0,22767503000795709	10	0,148006707	0,000690793502
2	0	0	1	1	8183,55	3,01910162	3,01953483	-0,23044397922543158	10	0,14767383	0,000695833645
2	0	0	0	1	8185,00	3,00460052	3,00527978	-0,23290777873868774	10	0,147337183	0,00069995306
2	0	0	0	1	8186,45	2,99010015	2,99064589	-0,23581381398212666	10	0,146996543	0,000705235638
2	0	0	1	1	8187,90	2,97559834	2,97615862	-0,23856584999399843	10	0,146652028	0,00071000983
2	0	0	0	1	8189,35	2,96109724	2,96171308	-0,24111485000078938	10	0,146303639	0,000714113005
2	0	0	0	1	8190,80	2,94659615	2,94715762	-0,24375981596919427	10	0,145951673	0,000718398602
2	0	0	1	1	8192,25	2,93209505	2,93290281	-0,24620230907263974	10	0,145596027	0,000722087454
2	0	0	1	1	8193,70	2,91759396	2,91811657	-0,2485677956137815	10	0,145236924	0,000725349819
2	0	0	0	1	8195,15	2,90309286	2,90371132	-0,25014496051395939	10	0,144874692	0,000726348779
2	0	0	0	1	8196,60	2,88859177	2,88941646	-0,2526228968054065	10	0,144509286	0,000729932741
2	0	0	1	1	8198,05	2,87409067	2,87465024	-0,25446912219437533	10	0,14414081	0,000731509703
2	0	0	0	1	8199,50	2,85958838	2,86001277	-0,25658776505074422	10	0,143769354	0,000733844296
2	0	0	0	1	8200,95	2,84508848	2,84585977	-0,25835171109065482	10	0,143395379	0,000735232723
2	0	0	1	1	8202,40	2,83058739	2,83112359	-0,25989872884626262	10	0,143018931	0,000735805428
2	0	0	1	1	8203,85	2,81608605	2,81678843	-0,26120936536850947	10	0,142640486	0,000735771493
2	0	0	0	1	8205,30	2,8015852	2,80221295	-0,26212905983751078	10	0,142260358	0,000734541449
2	0	0	0	1	8206,75	2,78708386	2,7875874	-0,2627529243472968	10	0,141878992	0,00073244673
2	0	0	1	1	8208,20	2,77258277	2,77322197	-0,26351529763390678	10	0,141496494	0,000730786414
2	0	0	1	1	8209,65	2,75808167	2,75863624	-0,26410918341328672	10	0,141113222	0,000728581159
2	0	0	0	1	8211,10	2,74358058	2,74446177	-0,26439899912414422	10	0,140729547	0,000725632941
2	0	0	0	1	8212,55	2,72908044	2,72958684	-0,26448651155781011	10	0,140345544	0,000721938908
2	0	0	1	1	8214,01	2,71457839	2,71503973	-0,26448029807458352	10	0,139961481	0,000718074501
2	0	0	0	1	8215,46	2,7000773	2,70054412	-0,2643672544509177	10	0,139577642	0,000713935413
2	0	0	0	1	8216,91	2,6855762	2,68616891	-0,26372976088896304	10	0,139194012	0,000708422682
2	0	0	1	1	8218,36	2,67107511	2,67149305	-0,26381290370287981	10	0,138810664	0,000704774342
2	0	0	1	1	8219,81	2,65657401	2,6571281	-0,26366744531939456	10	0,138427526	0,000700598175
2	0	0	0	1	8221,26	2,64207292	2,64269257	-0,26359627310497082	10	0,138044626	0,000696603907
2	0	0	0	1	8222,71	2,62757182	2,62808704	-0,26325053597490067	10	0,137661904	0,000691845315
2	0	0	1	1	8224,16	2,61307096	2,6137116	-0,26331502750205526	10	0,137279451	0,000688229513
2	0	0	1	1	8225,61	2,59856915	2,59901452	-0,26305404874487693	10	0,136897236	0,000683681283
2	0	0	0	1	8227,06	2,58406854	2,5845902	-0,26302793629777987	10	0,13651523	0,000679819437
2	0	0	1	1	8228,51	2,56956744	2,57029533	-0,26250659798582454	10	0,136133388	0,000674719457
2	0	0	1	1	8229,96	2,55506611	2,55573988	-0,26285551154675613	10	0,13575156	0,000671790331
2	0	0	0	1	8231,41	2,54056501	2,5412643	-0,26284915884025395	10	0,135369673	0,000667969172
2	0	0	0	1	8232,86	2,52606392	2,52684927	-0,26304840273223728	10	0,134987742	0,000664683641
2	0	0	1	1	8234,31	2,51156282	2,51191258	-0,26330896754128298	10	0,134605616	0,000661409111
2	0	0	1	1	8235,76	2,49706173	2,49766779	-0,26303958954910451	10	0,134223446	0,000656985503
2	0	0	0	1	8237,21	2,48256063	2,48306203	-0,26357892792050918	10	0,133841202	0,000654482807
2	0	0	1	1	8238,66	2,4680593	2,46883798	-0,26324192805516323	10	0,133458555	0,000649901689
2	0	0	1	1	8240,11	2,45355844	2,45408106	-0,26366830555101296	10	0,133075714	0,000647063367
2	0	0	0	1	8241,56	2,43905735	2,43957543	-0,26380665181204675	10	0,132692516	0,000643576204
2	0	0	0	1	8243,01	2,42455626	2,42512012	-0,26420317178902496	10	0,132309064	0,000640724436
2	0	0	1	1	8244,46	2,41005516	2,41045427	-0,26431401524071862	10	0,13192533	0,000637116842
2	0	0	1	1	8245,91	2,39555407	2,39618945	-0,26449501685177267	10	0,131541327	0,000633780146
2	0	0	0	1	8247,36	2,38105297	2,38165379	-0,26457238352547085	10	0,131157041	0,000630119815
2	0	0	0	1	8248,81	2,36655211	2,36720824	-0,26475000761759837	10	0,130772531	0,000626718393
2	0	0	1	1	8250,26	2,35205078	2,3528533	-0,26459142899451126	10	0,130387887	0,000622544845
2	0	0	1	1	8251,71	2,3375504	2,33809781	-0,2646960339751905	10	0,130003199	0,000618885213
2	0	0	0	1	8253,16	2,32304835	2,32358146	-0,26484965292426566	10	0,129618287	0,000615399738
2	0	0	1	1	8254,61	2,30854726	2,30911613	-0,26493001108368262	10	0,129233479	0,000611754134
2	0	0	1	1	8256,06	2,29404616	2,29468083	-0,26499139160538653	10	0,128848642	0,000608070695
2	0	0	0	1	8257,51	2,27954507	2,28004527	-0,26503552077338189	10	0,128463894	0,00060429296
2	0	0	0	1	8258,96	2,26504397	2,2654593	-0,26491818592573325	10	0,128079295	0,00060016138
2	0	0	1	1	8260,41	2,25054288	2,25097394	-0,2644183721859017	10	0,12769483	0,000595198886
2	0	0	1	1	8261,86	2,23604178	2,23659873	-0,26429479390693178	10	0,127310738	0,000591121381
2	0	0	0	1	8263,31	2,22154069	2,22217345	-0,26399463151271197	10	0,126926929	0,000586641836
2	0	0	1	1	8264,76	2,20703864	2,2076261	-0,26371808714221955	10	0,126543671	0,000582190929
2	0	0	1	1	8266,21	2,1925385	2,19309235	-0,26308258436620323	10	0,126160964	0,000576964405
2	0	0	0	1	8267,66	2,17803741	2,17849684	-0,26282507289821798	10	0,125778988	0,000572563615
2	0	0	0	1	8269,11	2,16353631	2,16418147	-0,26219063842048262	10	0,125397816	0,000567428127
2	0	0	1	1	8270,56	2,14903522	2,14962578	-0,26160936422335725	10	0,125017464	0,000562362256
2	0	0	1	1	8272,01	2,13453412	2,13509035	-0,26048219134099709	10	0,124638095	0,000556153012
2	0	0	0	1	8273,46	2,12003326	2,12038445	-0,2600616444057473	10	0,124259628	0,000551430683
2	0	0	0	1	8274,91	2,10553193	2,1060493	-0,25930512665460538	10	0,123882279	0,000546109397
2	0	0	1	1	8276,36	2,09103084	2,09154391	-0,2585833690439665	10	0,12350601	0,00054083846
2	0	0	1	1	8277,81	2,07652998	2,07712817	-0,25793244308184794	10	0,123131096	0,000535758736
2	0	0	0	1	8279,26	2,06202865	2,06270313	-0,25712445424869635	10	0,122757122	0,000530371442
2	0	0	1	1	8280,71	2,04752755	2,04798746	-0,25659117770070906	10	0,122384176	0,000525495503
2	0	0	1	1	8282,16	2,03302622	2,03364205	-0,25540798219541693	10	0,122012354	0,000519408437
2	0	0	0	1	8283,61	2,01852512	2,01900625	-0,25489079245987024	10	0,121641509	0,000514626096
2	0	0	0	1	8285,06	2,00402403	2,00466132	-0,25437507087675254	10	0,121271662	0,000509935839
2	0	0	1	1	8286,51	1,98952305	1,9901458	-0,25378802861087024	10	0,120902583	0,000505075208
2	0	0	1	1	8287,96	1,97502196	1,97559011	-0,25318626314401494	10	0,120534524	0,000500192284
2	0	0	0	1	8289,41	1,96052098	1,96086407	-0,25270760074878784	10	0,120167106	0,000495525252
2	0	0	0	1	8290,86	1,94601893	1,94650769	-0,25232269780540272	10	0,119800381	0,000491148094
2	0	0	1	1	8292,31	1,93151867	1,93182302	-0,2518105198008329	10	0,119434334	0,000486453355
2	0	0	0	1	8293,76	1,91701734	1,91776872	-0,25106998882256538	10	0,119068958	0,000481494179
2	0	0	0	1	8295,21	1,90251637	1,90314293	-0,25082559456738362	10	0,118704192	0,000477356953
2	0	0	1	1	8296,66	1,88801527	1,88879776	-0,25044706494857904	10	0,118339926	0,000473043852
2	0	0	1	1	8298,11	1,87351418	1,87385118	-0,24998012394644275	10	0,117976367	0,00046842554
2	0	0	0	1	8299,56	1,85901308	1,85945606	-0,24959479714743792	10	0,117613293	0,000464110548
2	0	0	0	1	8301,01	1,8445121	1,84500062	-0,24944357830099805	10	0,11725086	0,000460223557
2	0	0	1	1	8302,46	1,83001077	1,8303045	-0,24912602749342794	10	0,116888896	0,000455976493
2	0	0	1	1	8303,91	1,8155098	1,81607985	-0,24832544421466672	10	0,116527617	0,000450978841
2	0	0	0	1	8305,36	1,8010087	1,80156434	-0,24805980276626906	10	0,116167039	0,00044689569
2	0	0	1	1	8306,81	1,78650737	1,78692842	-0,24761833009930912	10	0,115806997	0,000442476245
2	0	0	1	1	8308,26	1,77200639	1,77242303	-0,24718552975294493	10	0,115447767	0,000438117335
2	0	0	0	1	8309,71	1,7575053	1,75811791	-0,24661631152654627	10	0,115089074	0,000433580542
2	0	0	0	1	8311,16	1,7430042	1,74374282	-0,24617958984648202	10	0,114731207	0,000429273903
2	0	0	1	1	8312,61	1,72850311	1,72907686	-0,24579966797803808	10	0,114373915	0,000425006525
2	0	0	1	1	8314,06	1,71400189	1,71454132	-0,24542505449305098	10	0,114017233	0,000420791388
2	0	0	0	1	8315,51	1,6995008	1,69984519	-0,24476625087360522	10	0,113661073	0,000416064722
2	0	0	0	1	8316,96	1,68499982	1,68543005	-0,24474875434922726	10	0,113305278	0,000412506895
2	0	0	1	1	8318,41	1,67049849	1,67109489	-0,24467678810469894	10	0,112949699	0,000408878142
2	0	0	0	1	8319,86	1,65599751	1,65631878	-0,24458450583430656	10	0,112594157	0,000405109924
2	0	0	0	1	8321,31	1,64149642	1,64188349	-0,24466057905616845	10	0,11223869	0,000401704165
2	0	0	1	1	8322,76	1,62699533	1,62743831	-0,24495750145676355	10	0,111882918	0,00039865321
2	0	0	1	1	8324,21	1,61249423	1,61271214	-0,24537198649098445	10	0,111526862	0,000395714393
2	0	0	0	1	8325,66	1,59799302	1,59840703	-0,24560428403007427	10	0,111170158	0,000392575603
2	0	0	0	1	8327,11	1,58349192	1,58403194	-0,24630144882636797	10	0,11081282	0,000390149362
2	0	0	1	1	8328,56	1,56899095	1,56957674	-0,2468934408389032	10	0,110454649	0,000387518201
2	0	0	1	1	8330,01	1,55448985	1,55488074	-0,24781585903838278	10	0,110095404	0,000385324092
2	0	0	0	1	8331,46	1,53998864	1,54039514	-0,24871369800530464	10	0,10973502	0,000383117382
2	0	0	1	1	8332,91	1,52548754	1,52595985	-0,24958144826814531	10	0,109373257	0,00038085127
2	0	0	1	1	8334,36	1,51098657	1,51151454	-0,25064244206684272	10	0,109010108	0,000378849683
2	0	0	0	1	8335,81	1,49648547	1,49693882	-0,2516787602410968	10	0,10864538	0,000376747717
2	0	0	0	1	8337,26	1,48198426	1,48229301	-0,25262022887667078	10	0,108279012	0,000374457188
2	0	0	1	1	8338,71	1,46748316	1,46793795	-0,2539363020720593	10	0,107910872	0,000372762734
2	0	0	1	1	8340,16	1,45298195	1,45348251	-0,25527489961435456	10	0,107540898	0,000371037604
2	0	0	0	1	8341,61	1,43848097	1,43883669	-0,25660795524406054	10	0,107169002	0,000369216956
2	0	0	0	1	8343,06	1,42397988	1,4244113	-0,25793565398392637	10	0,106795155	0,000367406465
2	0	0	1	1	8344,52	1,40947866	1,41001618	-0,25931427076769341	10	0,106419355	0,00036563733
2	0	0	0	1	8345,97	1,39497769	1,39537024	-0,26064482587389715	10	0,106041558	0,000363696046
2	0	0	0	1	8347,42	1,38047659	1,38090503	-0,26199418034714906	10	0,105661824	0,000361789076
2	0	0	1	1	8348,87	1,36597538	1,36645949	-0,26333617807055453	10	0,105280228	0,000359838217
2	0	0	1	1	8350,32	1,3514744	1,35170341	-0,26470475806854666	10	0,104896694	0,000357802317
2	0	0	0	1	8351,77	1,33697307	1,33754873	-0,26609206874854864	10	0,104511306	0,000355911121
2	0	0	0	1	8353,22	1,3224721	1,32293308	-0,26724444950620362	10	0,104124151	0,000353546522
2	0	0	1	1	8354,67	1,307971	1,30828726	-0,26836290831367158	10	0,103735365	0,000351095776
2	0	0	1	1	8356,12	1,29346991	1,29385197	-0,26929233370659312	10	0,103345066	0,000348424423
2	0	0	0	1	8357,57	1,27896869	1,27923608	-0,2703418032421423	10	0,102953315	0,00034583098
2	0	0	1	1	8359,02	1,26446772	1,26503146	-0,27068472537212029	10	0,102560312	0,000342424697
2	0	0	1	1	8360,47	1,2499665	1,25059605	-0,27170523985599494	10	0,102166131	0,000339793507
2	0	0	0	1	8361,92	1,23546541	1,23615074	-0,27250076341442851	10	0,101770699	0,000336852012
2	0	0	0	1	8363,37	1,22096419	1,22156501	-0,27342803116577395	10	0,10137406	0,00033401011
2	0	0	1	1	8364,82	1,2064631	1,20707953	-0,27422320245144282	10	0,100976244	0,000331009214
2	0	0	1	1	8366,27	1,19196212	1,19239354	-0,27511448731335443	10	0,10057731	0,000328044727
2	0	0	0	1	8367,72	1,17746103	1,17793822	-0,27601122064515949	10	0,100176997	0,000325124158
2	0	0	0	1	8369,17	1,16295981	1,16353297	-0,27697087475098848	10	0,0997752994	0,000322264736
2	0	0	1	1	8370,62	1,14845884	1,14879692	-0,2780299399358528	10	0,0993720964	0,000319399929
2	0	0	0	1	8372,07	1,13395715	1,13427043	-0,27933872191054077	10	0,0989672244	0,000316845661
2	0	0	0	1	8373,52	1,11945653	1,11990619	-0,2808890079613775	10	0,098560445	0,000314569334
2	0	0	1	1	8374,97	1,10495543	1,10554111	-0,28245345829054803	10	0,0981515422	0,000312263903
2	0	0	1	1	8376,42	1,09045422	1,09092534	-0,28417053616916131	10	0,0977403373	0,000310008851
2	0	0	0	1	8377,87	1,07595325	1,07671046	-0,28605604777112602	10	0,0973264575	0,000307999551
2	0	0	0	1	8379,32	1,06145215	1,06191432	-0,28826976086323494	10	0,0969096348	0,000306117785
2	0	0	1	1	8380,77	1,04695106	1,04743874	-0,29033334227278829	10	0,0964894071	0,00030410639
2	0	0	1	1	8382,22	1,03244984	1,03299356	-0,29338486880685011	10	0,0960653201	0,000303064677
2	0	0	0	1	8383,67	1,01794887	1,01845801	-0,29671978803041056	10	0,0956366435	0,000302196655
2	0	0	1	1	8385,12	1,0034467	1,00387955	-0,30032192547206906	10	0,0952030346	0,000301487045
2	0	0	1	1	8386,57	0,988946736	0,989286661	-0,30433619294005165	10	0,0947638974	0,00030107575
2	0	0	0	1	8388,02	0,974445462	0,974831343	-0,30891252728179098	10	0,0943185687	0,000301137625
2	0	0	0	1	8389,47	0,959944427	0,960255563	-0,31353480066172781	10	0,0938665494	0,000301073538
2	0	0	1	1	8390,92	0,945443332	0,945820272	-0,31901136653808224	10	0,0934071913	0,000301727414
2	0	0	1	1	8392,37	0,930942297	0,931415021	-0,32421786182870483	10	0,0929400325	0,000301981374
2	0	0	0	1	8393,82	0,916441143	0,917059898	-0,33035025784435398	10	0,0924643502	0,000302950968
2	0	0	0	1	8395,27	0,901939988	0,902554393	-0,33686206730393222	10	0,0919799134	0,000304036337
2	0	0	1	1	8396,72	0,887438893	0,888048947	-0,34308642917312685	10	0,0914863497	0,000304677553
2	0	0	0	1	8398,17	0,872937858	0,873503327	-0,34947871416807219	10	0,0909836367	0,000305270805
2	0	0	0	1	8399,62	0,858436704	0,858917594	-0,35566937170612346	10	0,0904718265	0,000305490685
2	0	0	1	1	8401,07	0,843935549	0,844261765	-0,36182710248976902	10	0,0899510607	0,000305476802
2	0	0	1	1	8402,52	0,829434454	0,829896569	-0,36720579505587558	10	0,0894217715	0,000304742833
2	0	0	0	1	8403,97	0,814933419	0,815280795	-0,37317014462314592	10	0,0888841003	0,000304238463
2	0	0	0	1	8405,42	0,800432265	0,800705194	-0,37850129588817574	10	0,088338457	0,000303067965
2	0	0	1	1	8406,87	0,785931051	0,786480367	-0,38382792814324326	10	0,0877849609	0,000301873137
2	0	0	1	1	8408,32	0,771430016	0,77171427	-0,38845875936870797	10	0,0872243941	0,000299779174
2	0	0	0	1	8409,77	0,756928921	0,757499456	-0,39301715108255661	10	0,0866569653	0,00029771027
2	0	0	1	1	8411,22	0,742427886	0,742863655	-0,39719559128085805	10	0,0860832855	0,000295062171
2	0	0	1	1	8412,67	0,727926672	0,728067517	-0,4010644607866807	10	0,0855037794	0,00029200202
2	0	0	0	1	8414,12	0,713425577	0,713822603	-0,40451838619386125	10	0,0849187747	0,000288754381
2	0	0	0	1	8415,57	0,698924482	0,699417293	-0,4080197714890055	10	0,084328644	0,000285376096
2	0	0	1	1	8417,02	0,684423447	0,684721291	-0,41155938866237741	10	0,0837334171	0,000281803485
2	0	0	1	1	8418,47	0,669922292	0,670105636	-0,41509961973254918	10	0,0831333324	0,000278160587
2	0	0	0	1	8419,92	0,655421138	0,655509889	-0,418825827538968	10	0,0825280845	0,000274544465
2	0	0	0	1	8421,37	0,640920043	0,641184807	-0,4224745399939529	10	0,0819177106	0,000270884251
2	0	0	1	1	8422,82	0,626419008	0,626869798	-0,42639015754684806	10	0,0813017786	0,000267291121
2	0	0	0	1	8424,27	0,611918628	0,612645686	-0,43035620255009798	10	0,0806797817	0,000263655878
2	0	0	0	1	8425,72	0,597416699	0,59803921	-0,43520909718548096	10	0,0800513327	0,000260272092
2	0	0	1	1	8427,17	0,582915604	0,583573878	-0,44029854020724813	10	0,0794157982	0,000256946718
2	0	0	1	1	8428,62	0,568414569	0,568897963	-0,44588633409390874	10	0,0787726715	0,000253663835
2	0	0	0	1	8430,07	0,553913414	0,554262102	-0,4517701178168263	10	0,0781210661	0,000250399054
2	0	0	0	1	8431,52	0,53941226	0,539846897	-0,45869818904126714	10	0,0774603635	0,000247626798
2	0	0	1	1	8432,97	0,524911165	0,525261223	-0,46552077742914477	10	0,0767897069	0,000244520023
2	0	0	1	1	8434,42	0,51041007	0,510835826	-0,47307180442536992	10	0,0761086643	0,000241662026
2	0	0	0	1	8435,87	0,495908946	0,496250182	-0,48043197269241069	10	0,0754165277	0,000238414461
2	0	0	1	1	8437,32	0,481407881	0,481684536	-0,48884322556356576	10	0,074712716	0,000235468222
2	0	0	1	1	8438,77	0,466906786	0,467359483	-0,49721439617375738	10	0,0739969239	0,000232377861
2	0	0	0	1	8440,22	0,452405661	0,452854007	-0,50622553455953677	10	0,0732683465	0,00022924626
2	0	0	0	1	8441,67	0,437904567	0,438308388	-0,51578889538844307	10	0,0725268871	0,000226074597
2	0	0	1	1	8443,12	0,423403442	0,423732698	-0,52560955736165171	10	0,0717713535	0,00022271795
2	0	0	1	1	8444,57	0,408902317	0,409377575	-0,53647629808013696	10	0,0710010529	0,000219621361
2	0	0	0	1	8446,02	0,394401222	0,39470166	-0,54716257052496256	10	0,0702148825	0,000215965978
2	0	0	0	1	8447,47	0,379900128	0,380256325	-0,55939094132433453	10	0,0694118068	0,000212711937
2	0	0	1	1	8448,92	0,365399033	0,365770906	-0,57278203141565152	10	0,0685901716	0,000209507009
2	0	0	0	1	8450,37	0,350897908	0,351155132	-0,5874825830881783	10	0,0677483156	0,000206297525
2	0	0	0	1	8451,82	0,336396784	0,336759925	-0,60329292590419392	10	0,0668846592	0,000203164876
2	0	0	1	1	8453,27	0,321895689	0,322144151	-0,62085091058785741	10	0,065996632	0,000200003487
2	0	0	1	1	8454,72	0,307394594	0,30770883	-0,6401395324307177	10	0,0650820211	0,000196976587
2	0	0	0	1	8456,17	0,292893469	0,293173224	-0,66162506847953037	10	0,0641376376	0,000193970758
2	0	0	0	1	8457,62	0,278392375	0,278948426	-0,68531809141859584	10	0,0631607547	0,000191168408
2	0	0	0	1	8458,12	0,273392051	0,273846	-0,69429927638598835	10	0,0628169775	0,000190131075