File: Experimentelles/Rohdaten/Batteriemessungen/AlteZelle/Studenten_Batterietests/LLTO_LP30_Li CV/ECLab-Export/LLTO_LP30_Li_05_GCPL_C01_loop7.mpt
EC-Lab ASCII FILE
Nb header lines : 3
mode	ox/red	error	control changes	Ns changes	counter inc.	Ns	time/s	control/V/mA	Ewe/V	dq/mA.h	<I>/mA	P/W	(Q-Qo)/mA.h	x	Capacity/mA.h
1	0	0	1	1	0	1	33330,82	-0,100000001	4,18837214	0	0	0	0	0	0
1	0	0	1	0	0	1	33350,82	-0,100000001	3,45335174	-0,00027773720119645197	-0,099985392244485402	0,00034528473	-0,00055410094011529549	2,0674251072339069E-005	0,00055410094011529549
1	0	0	1	0	0	1	33370,82	-0,100000001	2,82537746	-0,00027773842087139683	-0,09998583132746473	0,000282497727	-0,0011095773174538803	4,1399821556774074E-005	0,0011095773174538803
1	0	0	1	0	0	1	33390,82	-0,100000001	2,25518441	-0,00027773832625150678	-0,099985797264304384	0,000225486408	-0,0016650540242592086	6,2125404334056269E-005	0,0016650540242592086
1	0	0	1	0	0	1	33410,82	-0,100000001	1,85508883	-0,00027773827410034006	-0,09998577848988439	0,000185482495	-0,0022205307827657715	8,2850989040381018E-005	0,0022205307827657715
1	0	0	1	0	0	1	33430,82	-0,100000001	1,59432149	-0,00027773818620170154	-0,099985746846374592	0,000159409421	-0,0027760072807863776	0,0001035765640276245	0,0027760072807863776
1	0	0	1	0	0	1	33450,82	-0,100000001	1,4860152	-0,00027773838984304003	-0,099985820157256307	0,000148580453	-0,0033314842252043814	0,00012430215567055507	0,0033314842252043814
1	0	0	1	0	0	1	33470,82	-0,100000001	1,44904745	-0,0002777382911671367	-0,099985784633931174	0,00014488415	-0,0038869606625412499	0,00014502772839360672	0,0038869606625412499
1	0	0	1	0	0	1	33490,82	-0,100000001	1,4249115	-0,00027773771357908848	-0,099985576702234189	0,000142470599	-0,0044424364316785933	0,00016575327618523565	0,0044424364316785933
1	0	0	1	0	0	1	33510,82	-0,100000001	1,40514827	-0,00027773765040023459	-0,099985553957846848	0,000140494521	-0,0049979119782091443	0,00018647881567110592	0,0049979119782091443
1	0	0	1	0	0	1	33530,82	-0,100000001	1,38765728	-0,0002777380189042952	-0,099985686619308416	0,000138745861	-0,0055533877095459667	0,00020720436205234662	0,0055533877095459667
1	0	0	1	0	0	1	33550,82	-0,100000001	1,37115932	-0,0002777380214540495	-0,099985687537219968	0,0001370963	-0,0061088633316874944	0,00022792990435936403	0,0061088633316874944
1	0	0	1	0	0	1	33570,82	-0,100000001	1,35550153	-0,00027773791516820592	-0,099985649274316352	0,000135530703	-0,0066643393006908006	0,00024865545960826083	0,0066643393006908006
1	0	0	1	0	0	1	33590,82	-0,100000001	1,34043562	-0,00027773804193321203	-0,099985694909718451	0,000134024391	-0,0072198154520495514	0,00026938102166108435	0,0072198154520495514
1	0	0	1	0	0	1	33610,82	-0,100000001	1,32599986	-0,0002777384546444648	-0,099985843485769178	0,000132581219	-0,007775292088779273	0,00029010660182375142	0,007775292088779273
1	0	0	1	0	0	1	33630,82	-0,100000001	1,31775081	-0,00027773823524349264	-0,099985764501419341	0,000131756329	-0,0083307689687327821	0,00031083219106142502	0,0083307689687327821
1	0	0	1	0	0	1	33650,82	-0,100000001	1,31355	-0,00027773822486483386	-0,099985760765102208	0,000131336303	-0,0088862456725346995	0,00033155777372664589	0,0088862456725346995
1	0	0	1	0	0	1	33670,82	-0,100000001	1,30799341	-0,0002777382002187272	-0,099985751892503821	0,000130780711	-0,0094417223875298701	0,00035228335680950214	0,0094417223875298701
1	0	0	1	0	0	1	33690,82	-0,100000001	1,30008805	-0,00027773811072732013	-0,099985719675597338	0,000129990236	-0,0099971989778201229	0,00037300893523945018	0,0099971989778201229
1	0	0	1	0	0	1	33710,82	-0,100000001	1,28992963	-0,00027773781802132723	-0,099985614301440077	0,00012897441	-0,01055267497903767	0,00039373449169030355	0,01055267497903767
1	0	0	1	0	0	1	33730,82	-0,100000001	1,27799523	-0,0002777374633732769	-0,099985486628142195	0,000127780979	-0,011108150162189333	0,00041446001761801894	0,011108150162189333
1	0	0	1	0	0	1	33750,82	-0,100000001	1,2652781	-0,000277738099001348	-0,099985715454247373	0,000126509738	-0,01166362595996712	0,00043518556647826138	0,01166362595996712
1	0	0	1	0	0	1	33770,82	-0,100000001	1,25217891	-0,0002777380382530391	-0,099985693584856205	0,000125199978	-0,012219102000460403	0,00045591112439454528	0,012219102000460403
1	0	0	1	0	0	1	33790,82	-0,100000001	1,2389462	-0,00027773818574845792	-0,099985746683206899	0,000123876962	-0,012774578556896046	0,00047663670156133229	0,012774578556896046
1	0	0	1	0	0	1	33810,82	-0,100000001	1,22533154	-0,00027773798287784061	-0,099985673649784781	0,000122515601	-0,013330054664323274	0,00049736226197501165	0,013330054664323274
1	0	0	1	0	0	1	33830,82	-0,100000001	1,21167862	-0,00027773874779169757	-0,099985949018772774	0,000121150835	-0,013885531629955978	0,00051808785440949126	0,013885531629955978
1	0	0	1	0	0	1	33850,82	-0,100000001	1,19772029	-0,00027773822527006266	-0,099985760910984576	0,000119754972	-0,014441008418439123	0,00053881344023428256	0,014441008418439123
1	0	0	1	0	0	1	33870,82	-0,100000001	1,18341815	-0,00027773800092935565	-0,099985680148330189	0,000118324868	-0,014996484152543837	0,00055953898671879699	0,014996484152543837
1	0	0	1	0	0	1	33890,82	-0,100000001	1,16856241	-0,00027773825610925754	-0,099985772013094694	0,000116839612	-0,01555196048824071	0,00058026455564952384	0,01555196048824071
1	0	0	1	0	0	1	33910,82	-0,100000001	1,15322912	-0,00027773833769104547	-0,099985801382538304	0,000115306539	-0,01610743719795425	0,0006009901385353152	0,01610743719795425
1	0	0	1	0	0	1	33930,82	-0,100000001	1,13724673	-0,00027773771118124326	-0,09998557583900992	0,000113708265	-0,016662913058982496	0,00062171568975551731	0,016662913058982496
1	0	0	1	0	0	1	33950,82	-0,100000001	1,12057686	-0,00027773708759910534	-0,099985351349440704	0,000112041271	-0,017218387571737542	0,0006424411906698336	0,017218387571737542
1	0	0	1	0	0	1	33970,82	-0,100000001	1,10285676	-0,00027773766584942736	-0,099985559519556237	0,00011026975	-0,017773862967345821	0,00066316672452459085	0,017773862967345821
1	0	0	1	0	0	1	33990,82	-0,100000001	1,08456385	-0,00027773788452438182	-0,099985638242539699	0,000108440807	-0,01832933816199911	0,00068389225088144742	0,01832933816199911
1	0	0	1	0	0	1	34010,82	-0,100000001	1,06529713	-0,00027773804736013213	-0,09998569686340969	0,000106514475	-0,018884814204272256	0,00070461780886414029	0,018884814204272256
1	0	0	1	0	0	1	34030,82	-0,100000001	1,04547656	-0,00027773772354962096	-0,099985580291625894	0,000104532577	-0,019440289771394557	0,00072534334911831642	0,019440289771394557
1	0	0	1	0	0	1	34050,82	-0,100000001	1,02514052	-0,00027773805673296253	-0,099985700237628634	0,000102499391	-0,019995765845234154	0,00074606890827879616	0,019995765845234154
1	0	0	1	0	0	1	34070,82	-0,100000001	1,00589287	-0,00027773811547127034	-0,099985721383419392	0,000100574922	-0,020551241899967981	0,00076679446672641395	0,020551241899967981
1	0	0	1	0	0	1	34090,82	-0,100000001	0,988955617	-0,00027774000676804115	-0,099986402250255629	9,88821121E-005	-0,021106720786372778	0,00078752013082748288	0,021106720786372778
1	0	0	1	0	0	1	34110,82	-0,100000001	0,975321889	-0,00027774007491932976	-0,099986426784719475	9,75189541E-005	-0,021662200589021005	0,00080824582911482598	0,021662200589021005
1	0	0	1	0	0	1	34130,82	-0,100000001	0,964781463	-0,00027774008151516317	-0,099986429159219494	9,64650535E-005	-0,022217680841757149	0,00082897154419555443	0,022217680841757149
1	0	0	1	0	0	1	34150,82	-0,100000001	0,956532478	-0,00027773985965881082	-0,099986349290932813	9,56401927E-005	-0,022773160680840371	0,00084969724384233626	0,022773160680840371
1	0	0	1	0	0	1	34170,82	-0,100000001	0,950135708	-0,00027774000213957498	-0,099986400584007821	9,50006506E-005	-0,023328640730933555	0,00087042295136218342	0,023328640730933555
1	0	0	1	0	0	1	34190,82	-0,100000001	0,944712758	-0,0002777399596940312	-0,099986385303612083	9,44584172E-005	-0,023884120544002246	0,00089114865003832806	0,023884120544002246
1	0	0	1	0	0	1	34210,82	-0,100000001	0,940607309	-0,00027773986138030886	-0,09998634991067209	9,40478931E-005	-0,024439599789602851	0,00091187432754147546	0,024439599789602851
1	0	0	1	0	0	1	34230,82	-0,100000001	0,936998367	-0,00027774006327241661	-0,099986422591830758	9,36871147E-005	-0,0249950798806436	0,00093260003658913139	0,0249950798806436
1	0	0	1	0	0	1	34250,82	-0,100000001	0,933694959	-0,00027773961342540051	-0,099986260646905267	9,33566698E-005	-0,025550559131012573	0,00095332571427019302	0,025550559131012573
1	0	0	1	0	0	1	34270,82	-0,100000001	0,930353343	-0,00027773972980885043	-0,099986302544947162	9,30225942E-005	-0,026106038400878474	0,0009740513926787113	0,026106038400878474
1	0	0	1	0	0	1	34290,82	-0,100000001	0,927030861	-0,00027773984900034138	-0,099986345453883814	9,26904249E-005	-0,026661517808270918	0,00099477707621852966	0,026661517808270918
1	0	0	1	0	0	1	34310,82	-0,100000001	0,923402846	-0,00027773986187039152	-0,09998635008710185	9,23276821E-005	-0,027216997525656355	0,0010155027713246035	0,027216997525656355
1	0	0	1	0	0	1	34330,82	-0,100000001	0,919622004	-0,00027773965917776029	-0,099986277117754752	9,19495797E-005	-0,027772477134560096	0,0010362284623830794	0,027772477134560096
1	0	0	1	0	0	1	34350,82	-0,100000001	0,915497541	-0,0002777398120690551	-0,099986332158620774	9,15372439E-005	-0,028327956662055482	0,0010569541504041	0,028327956662055482
1	0	0	1	0	0	1	34370,82	-0,100000001	0,911258459	-0,00027773950682414906	-0,099986222270454797	9,11132884E-005	-0,028883435796493421	0,0010776798237596189	0,028883435796493421
1	0	0	1	0	0	1	34390,82	-0,100000001	0,90709579	-0,0002777396764639351	-0,099986283340777677	9,069714E-005	-0,029438915259842618	0,0010984055093872592	0,029438915259842618
1	0	0	1	0	0	1	34410,82	-0,100000001	0,902570307	-0,00027773972046416666	-0,099986299180861005	9,02446627E-005	-0,029994394795504672	0,001119131197712989	0,029994394795504672
1	0	0	1	0	0	1	34430,82	-0,100000001	0,898006618	-0,00027773985286760659	-0,09998634684609929	8,9788402E-005	-0,030549874678601779	0,0011398568990019882	0,030549874678601779
1	0	0	1	0	0	1	34450,82	-0,100000001	0,893385649	-0,0002777397091206577	-0,099986295097197786	8,93263204E-005	-0,031105354139625158	0,0011605825845428488	0,031105354139625158
1	0	0	1	0	0	1	34470,82	-0,100000001	0,888802826	-0,00027773983967180058	-0,099986342095609139	8,88681461E-005	-0,031660833879979085	0,0011813082805059077	0,031660833879979085
1	0	0	1	0	0	1	34490,82	-0,100000001	0,884162784	-0,00027773981283398138	-0,09998633243399424	8,84041947E-005	-0,032216313388601318	0,0012020339678227459	0,032216313388601318
1	0	0	1	0	0	1	34510,82	-0,100000001	0,879198134	-0,00027774005731153818	-0,099986420445914522	8,79078725E-005	-0,032771793235993178	0,0012227596677795341	0,032771793235993178
1	0	0	1	0	0	1	34530,82	-0,100000001	0,874443471	-0,00027774003138310381	-0,09998641111167817	8,74324614E-005	-0,033327273125977107	0,0012434853693254899	0,033327273125977107
1	0	0	1	0	0	1	34550,82	-0,100000001	0,869459689	-0,00027773964867037203	-0,099986273335094976	8,69340365E-005	-0,033882752598738464	0,0012642110553043101	0,033882752598738464
1	0	0	1	0	0	1	34570,82	-0,100000001	0,864533246	-0,00027773963166856102	-0,099986267214443034	8,64414542E-005	-0,03443823205083191	0,001284936740511983	0,03443823205083191
1	0	0	1	0	0	1	34590,82	-0,100000001	0,859644949	-0,0002777399565676848	-0,099986384178127373	8,59527936E-005	-0,03499371185386839	0,0013056624388138125	0,03499371185386839
1	0	0	1	0	0	1	34610,82	-0,100000001	0,854661167	-0,0002777398756713503	-0,099986355055447002	8,5454456E-005	-0,035549191477803264	0,00132638813043312	0,035549191477803264
1	0	0	1	0	0	1	34630,82	-0,100000001	0,84960103	-0,00027774018009172544	-0,099986464646781862	8,49486023E-005	-0,036104671412703021	0,0013471138336549458	0,036104671412703021
1	0	0	1	0	0	1	34650,82	-0,100000001	0,844483554	-0,00027773938297687302	-0,09998617768543552	8,44366805E-005	-0,036660150796220902	0,0013678395163039722	0,036660150796220902
1	0	0	1	0	0	1	34670,82	-0,100000001	0,839404345	-0,00027774002580634422	-0,09998640910404471	8,39290296E-005	-0,037215630923125427	0,0013885652266897539	0,037215630923125427
1	0	0	1	0	0	1	34690,82	-0,100000001	0,834115028	-0,00027774043080872963	-0,099986554904903194	8,34002858E-005	-0,037771111313307398	0,0014092909468987707	0,037771111313307398
1	0	0	1	0	0	1	34710,82	-0,100000001	0,828997612	-0,00027774019113845296	-0,099986468623603763	8,28885459E-005	-0,038326591821760301	0,0014300166715206352	0,038326591821760301
1	0	0	1	0	0	1	34730,82	-0,100000001	0,823841989	-0,00027774019229039552	-0,099986469038303078	8,23730516E-005	-0,038882071924376352	0,0014507423810001811	0,038882071924376352
1	0	0	1	0	0	1	34750,82	-0,100000001	0,818342626	-0,00027774016882768934	-0,09998646059172887	8,18231856E-005	-0,039437552215842675	0,001471468097525985	0,039437552215842675
1	0	0	1	0	0	1	34770,82	-0,100000001	0,81328249	-0,00027774051643411322	-0,099986585730041229	8,13173392E-005	-0,039993032979309914	0,0014921938316627773	0,039993032979309914
1	0	0	1	0	0	1	34790,82	-0,100000001	0,80803138	-0,00027773998713948656	-0,099986395183975987	8,0792146E-005	-0,040548513188629869	0,0015129195451235891	0,040548513188629869
1	0	0	1	0	0	1	34810,82	-0,100000001	0,80266571	-0,00027773958398525914	-0,099986250048454374	8,02555369E-005	-0,041103992764833018	0,0015336452349619619	0,041103992764833018
1	1	0	0	1	0	2	34820,49	0,100000001	0,811722279	5,4884246653980678E-009	0,032930549622955008	2,67304604E-005	-0,041372672596357286	0,0015436700407200083	5,4884246653980678E-009
1	1	0	0	0	0	2	34840,49	0,100000001	0,838710487	0,00027780661638081072	0,100010381710808	8,38797569E-005	-0,040817059701690598	0,001522939376590512	0,00055561838309135693
1	1	0	0	0	0	2	34860,49	0,100000001	0,848487079	0,00027780690650973059	0,10001048615721896	8,48576019E-005	-0,040261445993301293	0,0015022086820999312	0,0011112320914806589
1	1	0	0	0	0	2	34880,49	0,100000001	0,856793404	0,00027780689369059274	0,10001048154232933	8,56883198E-005	-0,039705831889501402	0,0014814779728560493	0,0016668461952805517
1	1	0	0	0	0	2	34900,49	0,100000001	0,864851415	0,00027780706666782499	0,10001054381413285	8,64942631E-005	-0,039150217834649754	0,0014607472654384928	0,0022224602501321997
1	1	0	0	0	0	2	34920,49	0,100000001	0,872489393	0,00027780699692087043	0,10001051870522925	8,72581149E-005	-0,03859460352495431	0,0014400165485123709	0,0027780745598276454
1	1	0	0	0	0	2	34940,49	0,100000001	0,879802763	0,00027780731113006669	0,1000106318205397	8,79896324E-005	-0,038038989073460243	0,0014192858262955523	0,0033336890113217133
1	1	0	0	0	0	2	34960,49	0,100000001	0,887039721	0,00027780735343818864	0,10001064705146357	8,87134156E-005	-0,037483374748327194	0,0013985551087934331	0,0038893033364547622
1	1	0	0	0	0	2	34980,49	0,100000001	0,894181192	0,00027780712375624314	0,10001056436596334	8,94275654E-005	-0,036927760089393229	0,001377824378836753	0,0044449179953887226
1	1	0	0	0	0	2	35000,49	0,100000001	0,901112676	0,00027780684498324995	0,10001046400768597	9,01206949E-005	-0,036372146430341254	0,0013570936861870144	0,0050005316544406944
1	1	0	0	0	0	2	35020,49	0,100000001	0,907853186	0,00027780606982443072	0,10001018495051157	9,0794565E-005	-0,035816533787350208	0,0013363630314478749	0,0055561442974317395
1	1	0	0	0	0	2	35040,49	0,100000001	0,914593697	0,00027780633073051776	0,10001027887670272	9,14687698E-005	-0,035260921273603558	0,0013156323815310174	0,0061117568111783923
1	1	0	0	0	0	2	35060,49	0,100000001	0,921009541	0,00027780663367071085	0,10001038793517205	9,21105238E-005	-0,034705307965815827	0,0012949017019874198	0,0066673701189661184
1	1	0	0	0	0	2	35080,49	0,100000001	0,927406371	0,00027780640072334141	0,1000103040741192	9,27501897E-005	-0,034149694996958739	0,0012741710350897802	0,0072229830878232077
1	1	0	0	0	0	2	35100,49	0,100000001	0,933764935	0,0002778062635006176	0,10001025467393872	9,3386072E-005	-0,033594082346462893	0,0012534403800706262	0,0077785957383190579
1	1	0	0	0	0	2	35120,49	0,100000001	0,939989865	0,00027780637508589357	0,100010294844638	9,40086611E-005	-0,033038469716143629	0,0012327097258042885	0,0083342083686383219
1	1	0	0	0	0	2	35140,49	0,100000001	0,946310282	0,00027780647389300998	0,10001033041519984	9,46408036E-005	-0,032482856969931418	0,0012119790672138283	0,0088898211148505395
1	1	0	0	0	0	2	35160,49	0,100000001	0,952248812	0,00027780675312048858	0,10001043093709194	9,52348128E-005	-0,031927243630629805	0,0011912483864944054	0,0094454344541521523
1	1	0	0	0	0	2	35180,49	0,100000001	0,958072782	0,00027780650187283757	0,10001034048793776	9,58171877E-005	-0,03137163056443088	0,001170517715964811	0,010001047520351077
1	1	0	0	0	0	2	35200,49	0,100000001	0,963896692	0,00027780688450030154	0,10001047823382451	9,63997663E-005	-0,03081601694272329	0,0011497870247084414	0,010556661142058669
1	1	0	0	0	0	2	35220,49	0,100000001	0,969243288	0,00027780701538589267	0,10001052535263725	9,69345274E-005	-0,030260402866542285	0,0011290563164950576	0,011112275218239672
1	1	0	0	0	0	2	35240,49	0,100000001	0,975029051	0,00027780707620125677	0,10001054724616827	9,75131916E-005	-0,029704788615067744	0,0011083256017412366	0,011667889469714211
1	1	0	0	0	0	2	35260,49	0,100000001	0,981635869	0,00027780704772596557	0,10001053699506346	9,81739286E-005	-0,029149174435248749	0,00108759488966098	0,012223503649533206
1	1	0	0	0	0	2	35280,49	0,100000001	0,99106878	0,00027780699296005904	0,10001051727933712	9,91173001E-005	-0,02859356069523463	0,0010668641939904347	0,012779117389547325
1	1	0	0	0	0	2	35300,49	0,100000001	1,00542819	0,00027780671235298118	0,10001041626078931	0,00010055329	-0,028037947066763155	0,0010461335024816955	0,0133347310180188
1	1	0	0	0	0	2	35320,49	0,100000001	1,02524865	0,00027780707275867459	0,1000105460068387	0,000102535676	-0,027482333185199594	0,0010254028015297501	0,013890344899582362
1	1	0	0	0	0	2	35340,49	0,100000001	1,04659677	0,00027780702308275638	0,10001052812350816	0,000104670697	-0,026926718778323328	0,0010046720809776814	0,014445959306458627
1	1	0	0	0	0	2	35360,49	0,100000001	1,06683743	0,00027780695186100074	0,10001050248367619	0,000106694948	-0,026371105051249213	0,00098394138578994522	0,015001573033532742
1	1	0	0	0	0	2	35380,49	0,100000001	1,08593225	0,00027780704212478464	0,10001053497863832	0,000108604669	-0,025815491464246838	0,00096321069582847386	0,015557186620535114
1	1	0	0	0	0	2	35400,49	0,100000001	1,10401523	0,00027780638776098691	0,10001029940767158	0,000110412897	-0,025259878194994755	0,00094248001772269312	0,0161127998897872
1	1	0	0	0	0	2	35420,49	0,100000001	1,12089503	0,00027780715021491046	0,10001057389108355	0,000112101356	-0,02470426413040768	0,0009217493099418944	0,016668413954374275
1	1	0	0	0	0	2	35440,49	0,100000001	1,13676298	0,00027780677031311725	0,10001043712643826	0,000113688162	-0,02414865084043719	0,00090101863106308211	0,017224027244344765
1	1	0	0	0	0	2	35460,49	0,100000001	1,15192425	0,00027780661250112784	0,10001038031412219	0,000115204384	-0,023593037532611795	0,00088028795151807923	0,01777964055217016
1	1	0	0	0	0	2	35480,49	0,100000001	1,1667037	0,00027780651356900733	0,10001034469855885	0,000116682437	-0,02303742463508905	0,00085955728728201971	0,018335253449692906
1	1	0	0	0	0	2	35500,49	0,100000001	1,18106318	0,00027780664385565453	0,10001039160175178	0,000118118587	-0,022481811384744883	0,00083882660988171878	0,018890866700037072
1	1	0	0	0	0	2	35520,49	0,100000001	1,19538426	0,00027780644855938026	0,10001032129509315	0,000119550765	-0,021926198073384189	0,00081809593020480909	0,019446480011397766
1	1	0	0	0	0	2	35540,49	0,100000001	1,2095145	0,00027780653956615264	0,10001035405753114	0,000120963974	-0,021370585014353965	0,00079736525994268851	0,02000209307042799
1	1	0	0	0	0	2	35560,49	0,100000001	1,22396934	0,00027780651534638474	0,1000103453384147	0,00012240959	-0,020814972261396902	0,00077663460110056922	0,020557705823385053
1	1	0	0	0	0	2	35580,49	0,100000001	1,23836696	0,0002778060340359807	0,1000101720666696	0,000123849299	-0,020259360224379373	0,00075590396897111642	0,021113317860402582
1	1	0	0	0	0	2	35600,49	0,100000001	1,25287902	0,00027780574726892842	0,10001006883053098	0,000125300518	-0,019703748749991197	0,00073517335783412122	0,021668929334790758
1	1	0	0	0	0	2	35620,49	0,100000001	1,26746762	0,00027780580659500429	0,10001009018791824	0,000126759551	-0,019148137442597024	0,00071444275292789683	0,022224540642184931
1	1	0	0	0	0	2	35640,49	0,100000001	1,28232336	0,00027780599294975398	0,100010157275628	0,00012824536	-0,018592525220200774	0,00069371211388171469	0,022780152864581181
1	1	0	0	0	0	2	35660,49	0,100000001	1,2973702	0,00027780593426980909	0,10001013615084787	0,000129750173	-0,018036913445766128	0,00067298149154958234	0,023335764639015827
1	1	0	0	0	0	2	35680,49	0,100000001	1,31255066	0,00027780597529187795	0,10001015091879264	0,000131268389	-0,017481301182722403	0,00065225085098678835	0,023891376902059552
1	1	0	0	0	0	2	35700,49	0,100000001	1,32769287	0,00027780594687205222	0,10001014068765539	0,000132782749	-0,016925689437394694	0,00063152022974067482	0,024446988647387261
1	1	0	0	0	0	2	35720,49	0,100000001	1,34308338	0,00027780575189284157	0,10001007049513968	0,000134321861	-0,016370078111454371	0,00061078962414246861	0,025002599973327584
1	1	0	0	0	0	2	35740,49	0,100000001	1,35858846	0,00027780593115463846	0,10001013502938646	0,000135872615	-0,01581446640133976	0,00059005900421020326	0,025558211683442195
1	1	0	0	0	0	2	35760,49	0,100000001	1,37271869	0,00027780646140749251	0,10001032592041357	0,000137286042	-0,015258854082927878	0,0005693283615815488	0,02611382400185408
1	1	0	0	0	0	2	35780,49	0,100000001	1,37239408	0,00027780643591533107	0,10001031674323544	0,000137253563	-0,014703241432307024	0,00054859770655773088	0,026669436652474934
1	1	0	0	0	0	2	35800,49	0,100000001	1,36994994	0,00027780656590685248	0,10001036354018307	0,000137009192	-0,014147628827669082	0,00052786705324959731	0,027225049257112874
1	1	0	0	0	0	2	35820,49	0,100000001	1,37128663	0,00027780631825617616	0,10001027438593978	0,00013714275	-0,013592015977659101	0,0005071363907863031	0,027780662107122858
1	1	0	0	0	0	2	35840,49	0,100000001	1,37531567	0,00027780606074134512	0,10001018168060075	0,000137545576	-0,013036403719631275	0,00048640575041065901	0,028336274365150682
1	1	0	0	0	0	2	35860,49	0,100000001	1,3823998	0,00027780631853598688	0,10001027448667162	0,000138254181	-0,012480791149320227	0,00046567509838330797	0,028891886935461728
1	1	0	0	0	0	2	35880,49	0,100000001	1,39337933	0,00027780682624669536	0,10001045726252635	0,000139352502	-0,011925177739387939	0,00044494441502855968	0,029447500345394022
1	1	0	0	0	0	2	35900,49	0,100000001	1,4085598	0,00027780655574219094	0,10001035988090493	0,000140870572	-0,011369564659729128	0,00042421374399675872	0,030003113425052832
1	1	0	0	0	0	2	35920,49	0,100000001	1,42675734	0,00027780659881772262	0,1000103753880963	0,000142690536	-0,010813951633826667	0,00040348307497067955	0,03055872645095529
1	1	0	0	0	0	2	35940,49	0,100000001	1,44778073	0,00027780652816552256	0,10001034995330432	0,000144793055	-0,010258338707595592	0,00038275240966347379	0,031114339377186368
1	1	0	0	0	0	2	35960,49	0,100000001	1,4744755	0,00027780666845581594	0,10001040045780986	0,000147462881	-0,009702725776540265	0,00036202174417626874	0,031669952308241696
1	1	0	0	0	0	2	35980,49	0,100000001	1,52471411	0,00027780676466640496	0,10001043509362182	0,000152487322	-0,009147112621290345	0,00034129107032406189	0,032225565463491616
1	1	0	0	0	0	2	36000,49	0,100000001	1,85117972	0,00027780696715911232	0,10001050799099634	0,000185137425	-0,0085914988764114099	0,00032056037447200384	0,03278117920837056
1	1	0	0	0	0	2	36020,49	0,100000001	2,28878427	0,00027780699778555168	0,1000105190165145	0,0002289025	-0,0080358853294352115	0,00029982968600396294	0,033336792755346758
1	1	0	0	0	0	2	36040,49	0,100000001	2,60866213	0,00027780690731936035	0,10001048644868566	0,000260893576	-0,0074802714864942182	0,00027909898649307763	0,03389240659828775
1	1	0	0	0	0	2	36060,49	0,100000001	2,85796523	0,00027780715223194826	0,10001057461721715	0,00028582674	-0,0069246577472210189	0,00025836829085017702	0,034448020337560954
1	1	0	0	0	0	2	36080,49	0,100000001	3,05995107	0,00027780727155754963	0,10001061757443357	0,000306027592	-0,006369043203740841	0,00023763756520123283	0,035003634881041133
1	1	0	0	0	0	2	36100,49	0,100000001	3,22638226	0,00027780685200542208	0,10001046653566794	0,000322671985	-0,0058134293019067328	0,00021690686349296624	0,035559248782875245
1	1	0	0	0	0	2	36120,49	0,100000001	3,35827088	0,00027780626097073158	0,10001025376317974	0,000335861521	-0,005257816532813369	0,00019617620404877971	0,036114861551968608
1	1	0	0	0	0	2	36140,49	0,100000001	3,46228075	0,00027780649298512275	0,10001033728836042	0,000346263871	-0,0047022038037109965	0,00017544554609671088	0,036670474281070982
1	1	0	0	0	0	2	36160,49	0,100000001	3,55000281	0,00027780658176003232	0,10001036924732779	0,000355037104	-0,0041465908476163366	0,00015471487967525466	0,037226087237165638
1	1	0	0	0	0	2	36180,49	0,100000001	3,62810087	0,00027780682561422387	0,10001045703483659	0,000362848019	-0,0035909771692735706	0,00013398418630575045	0,037781700915508397
1	1	0	0	0	0	2	36200,49	0,100000001	3,70469069	0,0002778069046905471	0,10001048550231291	0,000370507914	-0,0030353631517642323	0,00011325348028148547	0,038337314933017741
1	1	0	0	0	0	2	36220,49	0,100000001	3,7801919	0,0002778074830402103	0,10001069370819126	0,000378059602	-0,0024797485357452016	9,2522751926019136E-005	0,038892929549036774
1	1	0	0	0	0	2	36240,49	0,100000001	3,85004115	0,00027780730669738518	0,10001063022477435	0,000385045045	-0,0019241338769130656	7,1792021973138278E-005	0,039448544207868909
1	1	0	0	0	0	2	36260,49	0,100000001	3,9147346	0,00027780747429943747	0,10001069056151307	0,000391515321	-0,0013685193681140987	5,1061297618196691E-005	0,040004158716667878
1	1	0	0	0	0	2	36280,49	0,100000001	3,97469258	0,00027780748272728592	0,1000106935955385	0,000397511758	-0,00081290416846170163	3,0330547486584774E-005	0,040559773916320275
1	1	0	0	0	0	2	36300,49	0,100000001	4,03136635	0,00027780676525541478	0,10001043530566538	0,00040317871	-0,00025729021986733683	9,5998440336300902E-006	0,041115387864914643
1	1	0	0	0	0	2	36320,49	0,100000001	4,08660793	0,00027780684120456381	0,10001046264735896	0,000408703549	0,00029832364127169914	-1,1130856156248686E-005	0,041671001726053677
1	1	0	0	0	0	2	36340,49	0,100000001	4,13911915	0,00027780715516168214	0,10001057567192136	0,000413955684	0,00085393772465120627	-3,1861564638218246E-005	0,042226615809433184
1	1	0	0	0	0	2	36360,49	0,100000001	4,1864171	0,00027780693837255235	0,10001049762783478	0,000418685668	0,0014095520556143344	-5,2592282357865594E-005	0,042782230140396307
1	1	0	0	0	0	2	36367,23	0,100000001	4,19998169	0,00018707534220814704	0,10001057776837494	0,000420042605	0,0015966273978224816	-5,9572314901124262E-005	0,042969305482604454