File: Experimentelles/Rohdaten/Batteriemessungen/AlteZelle/Studenten_Batterietests/LLTO_LP30_Li CV/ECLab-Export/LLTO_LP30_Li_05_GCPL_C01.mpt
EC-Lab ASCII FILE
Nb header lines : 89

Galvanostatic Cycling with Potential Limitation

Run on channel : 1 (SN 6985)
Grouped channel(s) : 1
User :
CE vs. WE compliance from -10 V to 10 V
Electrode connection : standard
Ewe ctrl range : min = 0,00 V, max = 5,00 V
Acquisition started on : 04.29.2015 11:07:38
Saved on :
	File : LLTO_LP30_Li_05_GCPL_C01.mpr
	Directory : C:\Hupfer\Studenten Batterietests\LLTO_LP30_Li CV\
	Host : 192.168.0.2
Device : VMP3 (SN 0324)
Address : 192.168.0.1
EC-Lab for windows v10.33 (software)
Internet server v10.33 (firmware)
Command interpretor v10.32 (firmware)
Electrode material : LATP vs Li
Initial state : charged
Electrolyte : DME:Diox 1:2, 1M LiTFSi
Comments : LATP als Elektrode, normaler Seperator und Elektrolyt, Goldschicht teilweise vorhanden, elektrolytschonend, Probe2
Mass of active material : 0,001 mg
 at x = 0,000
Molecular weight of active material (at x = 0) : 0,001 g/mol
Atomic weight of intercalated ion : 0,001 g/mol
Acquisition started at : xo = 0,000
Number of e- transfered per intercalated ion : 1
for DX = 1, DQ = 26,801 mA.h
Battery capacity : 0,000 A.h
Reference electrode : Li+/Li (-3,020 V)
Electrode surface area : 0,001 cm²
Characteristic mass : 0,001 g
Create one data file per loop
Ns                  0                   1                   2
Set I/C             I                   I                   I
Is                  0,000               -100,000            100,000
unit Is             mA                  µA                  µA
vs.                 <None>              <None>              <None>
N                   1                   1                   1
I sign              > 0                 > 0                 > 0
t1 (h:m:s)          0:00:0,0000         10:00:0,0000        10:00:0,0000
I Range             100 µA              100 µA              100 µA
Bandwidth           5                   5                   5
dE1 (mV)            0,00                0,00                0,00
dt1 (s)             0,0000              10,0000             10,0000
EM (V)              0,000               0,500               4,200
tM (h:m:s)          0:00:0,0000         0:00:0,0000         0:00:0,0000
Im                  0,000               0,000               0,000
unit Im             mA                  mA                  mA
E range min (V)     0,000               0,000               0,000
E range max (V)     5,000               5,000               5,000
dq                  0,000               1,000               1,000
unit dq             mA.h                mA.h                mA.h
dtq (s)             0,0000              120,0000            120,0000
dQM                 0,000               0,000               0,000
unit dQM            mA.h                mA.h                mA.h
dxM                 0,000               0,000               0,000
tR (h:m:s)          0:00:0,0000         0:00:0,0000         0:00:0,0000
dER/dt (mV/h)       0,0                 0,1                 0,1
dER (mV)            0,00                5,00                5,00
dtR (s)             1,0000              120,0000            120,0000
EL (V)              pass                4,200               4,200
goto Ns'            0                   0                   0
nc cycles           0                   0                   0

Modify on : 04.29.2015 11:48
Comments :
Create one data file for all loops
Ns                  0                   1                   2
EM (V)                                  0,800

Number of loops : 11
Loop 0 from point number 0 to 313
Loop 1 from point number 314 to 632
Loop 2 from point number 633 to 948
Loop 3 from point number 949 to 1261
Loop 4 from point number 1262 to 1572
Loop 5 from point number 1573 to 1881
Loop 6 from point number 1882 to 2189
Loop 7 from point number 2190 to 2495
Loop 8 from point number 2496 to 2800
Loop 9 from point number 2801 to 3104
Loop 10 from point number 3105 to 3407

mode	ox/red	error	control changes	Ns changes	counter inc.	Ns	time/s	control/V/mA	Ewe/V	dq/mA.h	<I>/mA	P/W	(Q-Qo)/mA.h	x	Capacity/mA.h
1	0	0	1	1	0	1	11641,0644	-0,100000001	2,25884342	0	0	0	0	0	0
1	0	0	1	0	0	1	11761,0644	-0,100000001	1,37694502	-0,00027773381343939242	-0,099984174048709005	0,000137672716	-0,0033314344550441133	0,00012430029867895877	0,0033314344550441133
1	0	0	1	0	0	1	11881,0644	-0,100000001	1,30579746	-0,00027773337560519578	-0,099984016428396314	0,000130558881	-0,0066642332874763776	0,00024865150411269437	0,0066642332874763776
1	0	0	1	0	0	1	12001,0644	-0,100000001	1,24158132	-0,0002777337031691439	-0,099984134351419059	0,000124138431	-0,0099970365133293402	0,00037300287347086323	0,0099970365133293402
1	0	0	1	0	0	1	12121,0644	-0,100000001	1,15762103	-0,00027773413990686339	-0,099984291576999987	0,000115743918	-0,01332984176428157	0,00049735431838820858	0,01332984176428157
1	0	0	1	0	0	1	12241,0644	-0,100000001	1,05510044	-0,0002777337127485209	-0,099984137799994829	0,000105493309	-0,016662644833485245	0,00062170568190158182	0,016662644833485245
1	0	0	1	0	0	1	12361,0644	-0,100000001	0,962967455	-0,00027773537358600234	-0,099984735701495386	9,62820486E-005	-0,01999545867132681	0,00074605744720731354	0,01999545867132681
1	0	0	1	0	0	1	12481,0644	-0,100000001	0,930582523	-0,0002777356420751247	-0,099984832357580595	9,30441383E-005	-0,023328281237421725	0,00087040953817591283	0,023328281237421725
1	0	0	1	0	0	1	12601,0644	-0,100000001	0,909253478	-0,00027773553584226301	-0,099984794113749926	9,09115188E-005	-0,026661111889388374	0,00099476193083925811	0,026661111889388374
1	0	0	1	0	0	1	12721,0644	-0,100000001	0,882864356	-0,00027773474540975357	-0,099984509558043098	8,82727618E-005	-0,029993934410998765	0,0011191140201480802	0,029993934410998765
1	0	0	1	0	0	1	12841,0644	-0,100000001	0,854432046	-0,00027773571394466694	-0,099984858230616115	8,54302634E-005	-0,033326756568151181	0,001243466095858485	0,033326756568151181
1	0	0	1	0	0	1	12961,0644	-0,100000001	0,824739456	-0,0002777356560561392	-0,099984837390745882	8,24614399E-005	-0,036659579233009741	0,0013678181905120888	0,036659579233009741
1	1	0	0	0	0	2	13067,6958	0,100000001	0,83353579	0,00027780758996018106	0,10001073359651448	8,33625236E-005	-0,039065548801261472	0,0014575881499640496	0,0002778130784208576
1	1	0	0	0	0	2	13187,6958	0,100000001	0,884614646	0,00027780843226611613	0,10001103682665477	8,84712281E-005	-0,035731846010266861	0,0013332032166209677	0,0036115158694154682
1	1	0	0	0	0	2	13307,6958	0,100000001	0,925554156	0,00027780876081933581	0,1000111551058153	9,25657368E-005	-0,032398141439870784	0,0012088182168860246	0,0069452204398115469
1	1	0	0	0	0	2	13427,6958	0,100000001	0,962273657	0,00027780891737714406	0,10001121146662694	9,62381528E-005	-0,029064437856120326	0,0010844332539641563	0,01027892402356201
1	1	0	0	0	0	2	13547,6958	0,100000001	1,02923954	0,00027780862560247386	0,1000111064277444	0,000102935388	-0,025730734098818522	0,0009600482845668535	0,013612627780863811
1	1	0	0	0	0	2	13667,6958	0,100000001	1,13832867	0,00027780836641291779	0,10001101311950307	0,000113845403	-0,022397034658084262	0,00083566347622648986	0,016946327221598064
1	1	0	0	0	0	2	13787,6958	0,100000001	1,22566879	0,00027780790099129082	0,10001084556771536	0,000122580168	-0,019063336749377296	0,00071127872504812416	0,02028002513030503
1	1	0	0	0	0	2	13907,6958	0,100000001	1,31444108	0,00027780780893647008	0,10001081242797949	0,000131458321	-0,015729641473799478	0,0005868940721153472	0,023613720405882848
1	1	0	0	0	0	2	14027,6958	0,100000001	1,36572993	0,00027780866390342512	0,10001112021608702	0,000136588176	-0,012395941080721664	0,00046250922824176506	0,026947420798960662
1	1	0	0	0	0	2	14147,6958	0,100000001	1,43061447	0,00027780798112518253	0,10001087441591674	0,000143077006	-0,0090622375465030784	0,00033812426716799731	0,030281124333179245
1	1	0	0	0	0	2	14267,6958	0,100000001	2,66271973	0,00027780807688252797	0,10001090888856149	0,000266301009	-0,0057285369323872339	0,00021373941504718896	0,033614824947295085
1	1	0	0	0	0	2	14387,6958	0,100000001	3,45248508	0,00027780831328324147	0,10001099399281938	0,000345286477	-0,002394836935964257	8,9354585973331994E-005	0,036948524943718061
1	1	0	0	0	0	2	14507,6958	0,100000001	3,70045161	0,00027780856346587341	0,10001108405856797	0,000370086171	0,0009388664650031785	-3,5030370128656179E-005	0,040282228344685504
1	1	0	0	0	0	2	14627,6958	0,100000001	3,95796537	0,0002778091590160297	0,10001129845662683	0,000395841256	0,004272572120291129	-0,00015941541034237373	0,043615933999973446
1	1	0	0	0	0	2	14747,6958	0,100000001	4,19877863	0,00027780857693072816	0,10001108890591576	0,000419924414	0,0076062782515151322	-0,00028380046831390534	0,046949640131197459
1	0	0	1	0	0	1	14848,4144	-0,100000001	1,63453531	-0,00027773354253959328	-0,099984076524780147	0,00016342751	0,0048488713833946906	-0,00018091791069136771	0,0027759644303441811
1	0	0	1	0	0	1	14968,4144	-0,100000001	1,37503564	-0,00027773363677163917	-0,099984110448317069	0,000137481722	0,0015160717532664288	-5,6566675494521914E-005	0,0061087640604724416
1	0	0	1	0	0	1	15088,4144	-0,100000001	1,30873811	-0,00027773461252409549	-0,099984461719205594	0,00013085347	-0,0018167417955911242	6,7785079028827661E-005	0,0094415776093299981
1	0	0	1	0	0	1	15208,4144	-0,100000001	1,24580121	-0,00027773430920516448	-0,09998435252438912	0,000124560625	-0,0051495588482398381	0,00019213696428333635	0,01277439466197871
1	0	0	1	0	0	1	15328,4144	-0,100000001	1,16420877	-0,00027773424318681165	-0,099984328757781811	0,000116402633	-0,0084823720848361075	0,00031648870715579757	0,016107207898574979
1	0	0	1	0	0	1	15448,4144	-0,100000001	1,06451416	-0,00027773443535384208	-0,0999843979379136	0,000106434811	-0,011815182482933358	0,00044084034412004403	0,019440018296672237
1	0	0	1	0	0	1	15568,4144	-0,100000001	0,966862857	-0,00027773592471662493	-0,099984934108521907	9,66717198E-005	-0,015148000178721568	0,00056519225337095213	0,022772835992460445
1	0	0	1	0	0	1	15688,4144	-0,100000001	0,932797492	-0,00027773590741554899	-0,099984927880134502	9,32656912E-005	-0,018480829357399235	0,00068954459106390464	0,026105665171138109
1	0	0	1	0	0	1	15808,4144	-0,100000001	0,911468506	-0,00027773549386072493	-0,099984779000396032	9,11329771E-005	-0,021813659827921069	0,00081389697695729984	0,029438495641659936
1	0	0	1	0	0	1	15928,4144	-0,100000001	0,885136604	-0,00027773642491549254	-0,099985114180116442	8,85004847E-005	-0,02514648888638527	0,00093824931016492634	0,032771324700124141
1	0	0	1	0	0	1	16048,4144	-0,100000001	0,856532454	-0,00027773632542168096	-0,099985078362343846	8,56404658E-005	-0,028479322849681331	0,001062601826378424	0,036104158663420211
1	0	0	1	0	0	1	16168,4144	-0,100000001	0,826629817	-0,00027773552517799869	-0,09998479027461472	8,26504111E-005	-0,031812151716617178	0,0011869541524398702	0,03943698753035607
1	1	0	0	1	0	2	16271,2305	0,100000001	0,812123239	5,488672604163488E-009	0,032932036456914144	2,67448722E-005	-0,034667701076282733	0,0012934985383759394	5,488672604163488E-009
1	1	0	0	0	0	2	16391,2305	0,100000001	0,881425798	0,0002778090053651896	0,10001124314232371	8,81524902E-005	-0,031333997046726368	0,0011691135588204531	0,0033337095182289677
1	1	0	0	0	0	2	16511,2305	0,100000001	0,922785401	0,00027780899587025248	0,10001123972414632	9,22889085E-005	-0,0280002901029052	0,0010447284705298286	0,0066674164620501286
1	1	0	0	0	0	2	16631,2305	0,100000001	0,959829509	0,00027780881123161981	0,10001117325423774	9,59936733E-005	-0,024666583318711069	0,00092034338819510374	0,010001123246244256
1	1	0	0	0	0	2	16751,2305	0,100000001	1,01699972	0,0002778077562087112	0,10001079344598605	0,000101710946	-0,021332877413256218	0,00079595833864732275	0,01333482915169911
1	1	0	0	0	0	2	16871,2305	0,100000001	1,12952602	0,00027780874116470419	0,10001114803014782	0,000112965194	-0,017999175493188118	0,00067157343779967987	0,016668531071767206
1	1	0	0	0	0	2	16991,2305	0,100000001	1,21743894	0,00027780875845460422	0,10001115425451194	0,000121757475	-0,014665469436042339	0,00054718838259210656	0,020002237128912986
1	1	0	0	0	0	2	17111,2305	0,100000001	1,3055619	0,00027780835387441846	0,1000110086056433	0,000130570566	-0,011331763802272078	0,00042280334318124282	0,023335942762683245
1	1	0	0	0	0	2	17231,2305	0,100000001	1,36714303	0,00027780880079790947	0,10001116949810198	0,000136729577	-0,0079980581334149619	0,00029841830246124147	0,026669648431540362
1	1	0	0	0	0	2	17351,2305	0,100000001	1,4184128	0,0002778087230796615	0,10001114151953238	0,00014185709	-0,0046643510657270714	0,00017403320954898314	0,030003355499228256
1	1	0	0	0	0	2	17471,2305	0,100000001	2,48897529	0,00027780947649147773	0,1000114127477895	0,000248925935	-0,0013306477104188629	4,9648255150602125E-005	0,033337058854536467
1	1	0	0	0	0	2	17591,2305	0,100000001	3,43510866	0,00027780910672123235	0,10001127963049955	0,000343549618	0,002003063437727263	-7,4736990009039168E-005	0,036670770002682586
1	1	0	0	0	0	2	17711,2305	0,100000001	3,75126314	0,0002778091449638208	0,10001129339783157	0,000375168689	0,0053367763088603027	-0,00019912229945563878	0,040004482873815642
1	1	0	0	0	0	2	17831,2305	0,100000001	4,03449821	0,00027780953396649821	0,10001143343879714	0,000403495942	0,0086704886844937203	-0,00032350759041448134	0,043338195249449069
1	0	0	1	0	0	1	17937,4181	-0,100000001	3,11409259	-0,00027773351726101507	-0,099984067424491866	0,000311359647	0,009953817185402775	-0,00037139030223691866	0,0008318260107347273
1	0	0	1	0	0	1	18057,4181	-0,100000001	1,43980551	-0,00027773370881875354	-0,099984136385278566	0,000143957717	0,0066210090550983398	-0,00024703874988707126	0,0041646341410391597
1	0	0	1	0	0	1	18177,4181	-0,100000001	1,33592927	-0,00027773352320616445	-0,099984069564745664	0,000133571652	0,0032882012429995123	-0,0001226872094099029	0,0074974419531379878
1	0	0	1	0	0	1	18297,4181	-0,100000001	1,28742814	-0,00027773388761944243	-0,099984200753381837	0,000128722473	-4,4606202050601389E-005	1,6643173721844448E-006	0,010830249398188101
1	0	0	1	0	0	1	18417,4181	-0,100000001	1,21039927	-0,00027773369801706739	-0,099984132496671501	0,000121020719	-0,0033774116113446368	0,00012601576819747541	0,014163054807482134
1	0	0	1	0	0	1	18537,4181	-0,100000001	1,12158895	-0,0002777338682603505	-0,099984193784254157	0,00011214117	-0,0067102159025370778	0,00025036717730489261	0,017495859098674582
1	0	0	1	0	0	1	18657,4181	-0,100000001	1,0109148	-0,00027773372746838464	-0,099984143099145843	0,000101075449	-0,010043021602749381	0,00037471863898473523	0,020828664798886883
1	0	0	1	0	0	1	18777,4181	-0,100000001	0,945782065	-0,00027773504357371066	-0,099984616897068941	9,45636566E-005	-0,013375841625810053	0,0004990706350693079	0,024161484821947558
1	0	0	1	0	0	1	18897,4181	-0,100000001	0,923631966	-0,00027773557840618822	-0,099984809436763187	9,2349168E-005	-0,016708670577120832	0,00062342296427889613	0,027494313773258342
1	0	0	1	0	0	1	19017,4181	-0,100000001	0,899171412	-0,00027773595191455546	-0,099984943899777024	8,99036022E-005	-0,02004150167007865	0,00074777537339621478	0,03082714486621616
1	0	0	1	0	0	1	19137,4181	-0,100000001	0,871235549	-0,00027773574384591648	-0,099984868995066074	8,71103693E-005	-0,023374329928420032	0,00087212767675018317	0,034159973124557536
1	0	0	1	0	0	1	19257,4181	-0,100000001	0,841695726	-0,00027773548984858723	-0,099984777556026458	8,41567598E-005	-0,026707156465054349	0,00099647991586494618	0,037492799661191846
1	0	0	1	0	0	1	19377,4181	-0,100000001	0,811143875	-0,00027773573322014675	-0,099984865169788928	8,11021091E-005	-0,030039981751467994	0,0011208321083322949	0,040825624947605491
1	1	0	0	0	0	2	19479,1459	0,100000001	0,858110905	0,00027780900078184074	0,10001124149231811	8,5820735E-005	-0,029532037429400173	0,0011018800227375398	0,001666857563300679
1	1	0	0	0	0	2	19599,1459	0,100000001	0,902582943	0,0002778083215943641	0,10001099698482358	9,02682223E-005	-0,026198338059679472	0,00097749521704678758	0,0050005569330213798
1	1	0	0	0	0	2	19719,1459	0,100000001	0,941784799	0,00027780798329371542	0,10001087519658858	9,41887192E-005	-0,022864636736056019	0,00085311033845329638	0,0083342582566448358
1	1	0	0	0	0	2	19839,1459	0,100000001	0,977339506	0,0002778079829191168	0,10001087506173306	9,77445816E-005	-0,019530938259162813	0,00072872556607513818	0,01166795673353804
1	1	0	0	0	0	2	19959,1459	0,100000001	1,07552552	0,00027780809541005226	0,10001091555847032	0,000107564294	-0,016197238077195962	0,00060434073007838976	0,015001656915504893
1	1	0	0	0	0	2	20079,1459	0,100000001	1,1730051	0,00027780878191275725	0,10001116269944712	0,000117313604	-0,012863534529990602	0,00047995576852006803	0,018335360462710262
1	1	0	0	0	0	2	20199,1459	0,100000001	1,2590276	0,00027780873329647715	0,10001114519758605	0,000125916791	-0,009529830520994528	0,00035557078973171386	0,021669064471706333
1	1	0	0	0	0	2	20319,1459	0,100000001	1,34953749	0,00027780889893281789	0,10001120482666946	0,000134968868	-0,0061961224832588416	0,00023118566062566803	0,025002772509442026
1	1	0	0	0	0	2	20439,1459	0,100000001	1,37695777	0,0002778097753458553	0,10001152033536674	0,000137711642	-0,0028624099935172973	0,0001068003654092979	0,028336484999183571
1	1	0	0	0	0	2	20559,1459	0,100000001	1,49185181	0,00027780918414269882	0,10001130750222784	0,000149202053	0,0004713029961921465	-1,7584948461546803E-005	0,031670197988893011
1	1	0	0	0	0	2	20679,1459	0,100000001	3,10602713	0,0002778097910620272	0,10001152599318869	0,000310638512	0,0038050218425149082	-0,00014197048085050869	0,03500391683521577
1	1	0	0	0	0	2	20799,1459	0,100000001	3,62181878	0,00027780867040819597	0,10001112255780454	0,00036222217	0,0071387336761459059	-0,00026635575158651222	0,038337628668846771
1	1	0	0	0	0	2	20919,1459	0,100000001	3,94360614	0,00027781007401769357	0,10001162785722982	0,000394406467	0,010472447241588202	-0,00039074108693872371	0,041671342234289069
1	1	0	0	0	0	2	21031,4429	0,100000001	4,20000076	6,3812649764948416E-005	0,10001111969281706	0,000420046767	0,013592159418707939	-0,00050714174276469382	0,044791054411408794
1	0	0	1	0	0	1	21141,4935	-0,100000001	1,5342871	-0,00027773411653687555	-0,09998428316380425	0,000153404602	0,010538459548658086	-0,00039320409486999187	0,0030536998700498509
1	0	0	1	0	0	1	21261,4935	-0,100000001	1,3652972	-0,00027773379906349712	-0,099984168873386637	0,000136508112	0,0072056534599460186	-0,00026885261869470064	0,0063865059587619174
1	0	0	1	0	0	1	21381,4935	-0,100000001	1,30535829	-0,00027773412059495846	-0,099984284624714125	0,000130515313	0,0038728434407381062	-0,00014450099586732483	0,0097193159779698291
1	0	0	1	0	0	1	21501,4935	-0,100000001	1,23591006	-0,00027773363572069344	-0,099984110069976614	0,000123571372	0,00054003747097497248	-2,0149524130178256E-005	0,013052121947732958
1	0	0	1	0	0	1	21621,4935	-0,100000001	1,15135789	-0,00027773422447592019	-0,099984322021860787	0,000115117735	-0,0027927721207128291	0,00010420208274584742	0,016384931539420755
1	0	0	1	0	0	1	21741,4935	-0,100000001	1,0456866	-0,00027773393105011846	-0,099984216388570893	0,000104552157	-0,0061255782553746957	0,00022855356063558742	0,019717737674082618
1	0	0	1	0	0	1	21861,4935	-0,100000001	0,957162619	-0,00027773541796579955	-0,099984751678222566	9,57016673E-005	-0,0094583959457384717	0,00035290546968410253	0,023050555364446394
1	0	0	1	0	0	1	21981,4935	-0,100000001	0,929895103	-0,00027773558566512333	-0,099984812049979866	9,29753878E-005	-0,012791222682716003	0,00047725771627394016	0,026383382101423923
1	0	0	1	0	0	1	22101,4935	-0,100000001	0,90709579	-0,00027773554053902627	-0,09998479580458473	9,06957866E-005	-0,016124052955879821	0,00060161009480364237	0,029716212374587744
1	0	0	1	0	0	1	22221,4935	-0,100000001	0,879732788	-0,00027773556971011891	-0,099984806306178202	8,79599102E-005	-0,01945687883855391	0,00072596230951826995	0,033049038257261837
1	0	0	1	0	0	1	22341,4935	-0,100000001	0,850422084	-0,00027773569902032614	-0,099984852857853376	8,50293291E-005	-0,022789709582009139	0,00085031470559517722	0,036381869000717056
1	0	0	1	0	0	1	22461,4935	-0,100000001	0,819870234	-0,00027773632870490352	-0,099985079544303962	8,19747875E-005	-0,02612254394625903	0,00097466723676880154	0,039714703364966938
1	1	0	0	0	0	2	22567,3591	0,100000001	0,844572663	0,00027780895969395837	0,10001122670068029	8,44667447E-005	-0,027396159866289853	0,0010221875591399682	0,00083343065453031002
1	1	0	0	0	0	2	22687,3591	0,100000001	0,891813457	0,00027780873258163533	0,10001114494024299	8,9191286E-005	-0,024062454399490826	0,00089780252595902579	0,0041671361213293344
1	1	0	0	0	0	2	22807,3591	0,100000001	0,931950927	0,00027780817471072077	0,10001094410671133	9,32052935E-005	-0,020728751828350426	0,00077341760081900006	0,0075008386924697306
1	1	0	0	0	0	2	22927,3591	0,100000001	0,967849374	0,00027780897997568051	0,10001123400210034	9,67958113E-005	-0,017395050155687549	0,00064903270920237862	0,010834540365132608
1	1	0	0	0	0	2	23047,3591	0,100000001	1,0431788	0,0002778085430169271	0,10001107669694722	0,000104329432	-0,014061347379618104	0,00052464777641617466	0,014168243141202051
1	1	0	0	0	0	2	23167,3591	0,100000001	1,1493274	0,00027780858408990838	0,10001109148322064	0,000114945491	-0,010727645588103981	0,00040026288036505357	0,017501944932716176
1	1	0	0	0	0	2	23287,3591	0,100000001	1,23565543	0,00027780871691554787	0,10001113930045144	0,000123579302	-0,0073939445690027213	0,00027587801313369485	0,020835645951817437
1	1	0	0	0	0	2	23407,3591	0,100000001	1,32479048	0,0002778092097921504	0,1000113167360305	0,000132494039	-0,0040602398966119187	0,00015149300959319139	0,024169350624208237
1	1	0	0	0	0	2	23527,3591	0,100000001	1,36979723	0,00027780846178573043	0,10001104745371605	0,000136994859	-0,00072653667383215526	2,7108060139624848E-005	0,027503053846988
1	1	0	0	0	0	2	23647,3591	0,100000001	1,44356084	0,00027780857207046614	0,10001108715622138	0,000144372083	0,0026071652798008086	-9,727684196036823E-005	0,03083675580062096
1	1	0	0	0	0	2	23767,3591	0,100000001	2,804003	0,00027780881554178064	0,10001117480589568	0,000280431646	0,0059408697852212032	-0,00022166183927098125	0,03417046030604135
1	1	0	0	0	0	2	23887,3591	0,100000001	3,55015564	0,00027780847279023795	0,1000110514153388	0,000355054799	0,0092745729755669325	-0,0003460467875143904	0,037504163496387078
1	1	0	0	0	0	2	24007,3591	0,100000001	3,90323949	0,00027780834325154621	0,10001100478140922	0,000390366913	0,012608275849952581	-0,00047043172396890406	0,040837866370772742
1	1	0	0	0	0	2	24127,3591	0,100000001	4,19310045	0,00027780873031293354	0,10001114412351034	0,000419356773	0,015941980188345859	-0,00059481671504751078	0,044171570709166016
1	0	0	1	0	0	1	24231,1527	-0,100000001	1,60742056	-0,00027773389288493325	-0,099984202649104051	0,000160716663	0,013269995325099323	-0,0004951213672779257	0,0027759685378563642
1	0	0	1	0	0	1	24351,1527	-0,100000001	1,37240052	-0,00027773443097083104	-0,099984396360029606	0,000137218638	0,0099371878003900838	-0,00037076983752364922	0,0061087760625656026
1	0	0	1	0	0	1	24471,1526	-0,100000001	1,30826068	-0,00027773466582886048	-0,099984480908921229	0,000130805769	0,0066043756804748288	-0,00024641813631605805	0,0094415881824808576
1	0	0	1	0	0	1	24591,1526	-0,100000001	1,24104667	-0,00027773335920398432	-0,099984010523960115	0,000124084821	0,0032715699738802752	-0,00012206667439808502	0,01277439388907541
1	0	0	1	0	0	1	24711,1526	-0,100000001	1,15679991	-0,00027773347078139581	-0,099984050691828736	0,00011566154	-6,123325996840265E-005	2,2846952584147402E-006	0,016107197122924086
1	0	0	1	0	0	1	24831,1526	-0,100000001	1,05170155	-0,0002777333589974377	-0,099984010449603328	0,00010515334	-0,0033940312902156941	0,00012663587076155045	0,019439995153171373
1	0	0	1	0	0	1	24951,1526	-0,100000001	0,959186673	-0,00027773525359854102	-0,099984692506008794	9,59039826E-005	-0,0067268440363439706	0,00025098759533399146	0,022772807899299648
1	0	0	1	0	0	1	25071,1526	-0,100000001	0,930830717	-0,0002777361639601489	-0,09998502023619159	9,30691313E-005	-0,010059675496244539	0,00037534001814243757	0,026105639359200218
1	0	0	1	0	0	1	25191,1526	-0,100000001	0,908413291	-0,00027773670728049344	-0,099985215831517978	9,08278962E-005	-0,01339251197692415	0,00049969262828290022	0,029438475839879827
1	0	0	1	0	0	1	25311,1526	-0,100000001	0,880954862	-0,00027773615313279958	-0,099985016338345779	8,80822845E-005	-0,016725347724268778	0,00062404521106164877	0,032771311587224448
1	0	0	1	0	0	1	25431,1526	-0,100000001	0,851758718	-0,00027773637694699894	-0,099985096911458547	8,51631776E-005	-0,020058182398851075	0,00074839775381419238	0,036104146261806752
1	0	0	1	0	0	1	25551,1526	-0,100000001	0,821206868	-0,00027773646963718861	-0,099985130279927206	8,21084759E-005	-0,023391017353691517	0,00087275030702354419	0,039436981216647213
1	1	0	0	0	0	2	25651,4000	0,100000001	0,839302421	0,0002778079949191047	0,10001087938172877	8,39393761E-005	-0,025064143758630118	0,00093517690273417984	0,00055562094147420595
1	1	0	0	0	0	2	25771,4000	0,100000001	0,888109028	0,00027780819140167699	0,10001095011545563	8,88206268E-005	-0,021730448337634352	0,00081079224437566387	0,003889316362469975
1	1	0	0	0	0	2	25891,4000	0,100000001	0,928552032	0,00027780792722809642	0,10001085501296549	9,28652807E-005	-0,018396753595809498	0,00068640761135792768	0,0072230111042948237
1	1	0	0	0	0	2	26011,4000	0,100000001	0,964927852	0,00027780807708452144	0,10001090896127914	9,65033105E-005	-0,015063061473512339	0,00056202307607829203	0,010556703226591978
1	1	0	0	0	0	2	26131,4000	0,100000001	1,0306716	0,00027780714682199891	0,10001057406676699	0,000103078055	-0,011729367979115438	0,00043763848960376998	0,013890396720988882
1	1	0	0	0	0	2	26251,4000	0,100000001	1,14039099	0,00027780713325904477	0,10001056918410342	0,000114051152	-0,0083956793293563315	0,00031325408388919776	0,017224085370747987
1	1	0	0	0	0	2	26371,4000	0,100000001	1,22721553	0,00027780701967204614	0,10001052829278342	0,000122734476	-0,0050619943242825843	0,00018886981416273661	0,020557770375821738
1	1	0	0	0	0	2	26491,4000	0,100000001	1,31587315	0,00027780763439296019	0,10001074959231517	0,000131601453	-0,0017283062216473395	6,4485428862091302E-005	0,023891458478456979
1	1	0	0	0	0	2	26611,4000	0,100000001	1,36912882	0,00027780714350110957	0,10001057287124678	0,000136927352	0,0016053819767974045	-5,9898960013335245E-005	0,027225146676901722
1	1	0	0	0	0	2	26731,4000	0,100000001	1,43113005	0,00027780663144257338	0,10001038853017154	0,00014312788	0,0049390648522348589	-0,00018428315028020294	0,030558829552339168
1	1	0	0	0	0	2	26851,4000	0,100000001	2,66170764	0,00027780597734575469	0,10001015305531395	0,000266197778	0,008272737286930336	-0,00030866695098894976	0,03389250198703465
1	1	0	0	0	0	2	26971,4000	0,100000001	3,52546597	0,00027780669234941405	0,10001041045663445	0,000352583302	0,011606415899084314	-0,00043305098218697888	0,037226180599188614
1	1	0	0	0	0	2	27091,4000	0,100000001	3,9042325	0,00027780652476598822	0,10001035012660042	0,000390463654	0,014940098922419517	-0,00055743517797211046	0,040559863622523827
1	1	0	0	0	0	2	27211,0508	0,100000001	4,20005798	0,00026810546967635552	0,10001033101100093	0,000420049182	0,018264074498334739	-0,0006814571758422007	0,043883839198439059
1	0	0	1	0	0	1	27321,1014	-0,100000001	1,52754664	-0,00027773777255415917	-0,099985599330042291	0,000152732668	0,015210334942067024	-0,00056751804720135162	0,0030537395562677203
1	0	0	1	0	0	1	27441,1014	-0,100000001	1,3643806	-0,00027773778311080403	-0,099985603130434509	0,000136418414	0,011877481256022827	-0,00044316479510560339	0,0063865932423119194
1	0	0	1	0	0	1	27561,1014	-0,100000001	1,30503368	-0,00027773760677708518	-0,099985539650294938	0,000130484492	0,0085446315235580275	-0,00031881169052321805	0,0097194429747767181
1	0	0	1	0	0	1	27681,1014	-0,100000001	1,23415339	-0,00027773807372152803	-0,099985707750296397	0,000123397695	0,0052117801179564909	-0,00019445852351385152	0,013052294380378253
1	0	0	1	0	0	1	27801,1014	-0,100000001	1,14839816	-0,0002777377307539185	-0,099985584281955482	0,000114823262	0,001878924567526191	-7,0105201855351053E-005	0,016385149930808557
1	0	0	1	0	0	1	27921,1014	-0,100000001	1,04053104	-0,0002777378819266127	-0,099985638704126042	0,000104038161	-0,0014539297127051222	5,4248072410317434E-005	0,019718004211039869
1	0	0	1	0	0	1	28041,1014	-0,100000001	0,955176771	-0,00027773958087588352	-0,09998625032587095	9,55045471E-005	-0,004786798121078784	0,00017860187381597242	0,02305087261941353
1	0	0	1	0	0	1	28161,1014	-0,100000001	0,929551363	-0,0002777402496085399	-0,099986491069630157	9,29425805E-005	-0,0081196751813696256	0,00030295599803628998	0,026383749679704371
1	0	0	1	0	0	1	28281,1014	-0,100000001	0,906331956	-0,0002777403677105904	-0,099986533586368845	9,06209898E-005	-0,011452556992167624	0,00042731029950441677	0,029716631490502374
1	0	0	1	0	0	1	28401,1014	-0,100000001	0,878587067	-0,00027774048314574694	-0,099986575143025715	8,78469145E-005	-0,014785445802420189	0,00055166486213160416	0,033049520300754938
1	0	0	1	0	0	1	28521,1014	-0,100000001	0,849123657	-0,00027774002455009357	-0,099986410048588506	8,49008284E-005	-0,018118329248115638	0,00067601922459995302	0,0363824037464504
1	0	0	1	0	0	1	28641,1014	-0,100000001	0,818132579	-0,00027774025855751504	-0,099986494291261235	8,1802209E-005	-0,021451207536033267	0,00080037339462467661	0,039715282034368026
1	1	0	0	0	0	2	28749,6934	0,100000001	0,848487079	0,00027780678366579942	0,10001044333053358	8,48575655E-005	-0,022245031943537933	0,00082999205057694298	0,0011112319852155117
1	1	0	0	0	0	2	28869,6934	0,100000001	0,894353092	0,00027780564995068643	0,10001003519308795	8,94442855E-005	-0,01891135820647103	0,00070560820127496717	0,0044449057222824128
1	1	0	0	0	0	2	28989,6934	0,100000001	0,933936834	0,0002778064048551023	0,10001030695868096	9,34033087E-005	-0,015577684569361536	0,0005812243557025367	0,0077785793593919104
1	1	0	0	0	0	2	29109,6934	0,100000001	0,969548821	0,00027780667316416902	0,10001040354994614	9,696497E-005	-0,012244007349764534	0,00045684037646268064	0,011112256578988912
1	1	0	0	0	0	2	29229,6934	0,100000001	1,04827714	0,00027780634654478893	0,1000102859669679	0,000104838495	-0,0089103291833816922	0,0003324563618969719	0,014445934745371757
1	1	0	0	0	0	2	29349,6934	0,100000001	1,15316546	0,00027780682982049056	0,10001045994622258	0,000115328607	-0,0055766492565073696	0,00020807228164495907	0,017779614672246083
1	1	0	0	0	0	2	29469,6934	0,100000001	1,23945534	0,00027780644429185328	0,10001032115591147	0,000123958322	-0,0022429714738240467	8,368828139559529E-005	0,021113292454929408
1	1	0	0	0	0	2	29589,6934	0,100000001	1,32897222	0,00027780645337659446	0,10001032442641835	0,000132910936	0,0010907089358586608	-4,0695816870647578E-005	0,024446972864612115
1	1	0	0	0	0	2	29709,6934	0,100000001	1,37103832	0,00027780657931789754	0,10001036976528802	0,000137118055	0,004424386020406025	-0,00016507979107162006	0,027780649949159485
1	1	0	0	0	0	2	29829,6934	0,100000001	1,44972849	0,00027780639125199779	0,10001030206156328	0,000144987789	0,007758063486654912	-0,00028946377951438963	0,031114327415408378
1	1	0	0	0	0	2	29949,6934	0,100000001	2,86787534	0,00027780695137174595	0,10001050370467507	0,000286817667	0,011091742372533285	-0,00041384782092544403	0,034448006301286739
1	1	0	0	0	0	2	30069,6934	0,100000001	3,59888577	0,00027780669077485802	0,10001040988979427	0,000359926053	0,014425424429012029	-0,00053823198063586118	0,037781688357765485
1	1	0	0	0	0	2	30189,6934	0,100000001	3,97927547	0,00027780631530864368	0,10001027472195549	0,000397968426	0,017759101324428474	-0,0006626159477801047	0,041115365253181933
1	0	0	1	0	0	1	30298,9794	-0,100000001	3,4508884	-0,00027773796239909197	-0,099985667674218931	0,000345039385	0,019684012500937626	-0,00073443697184626342	0,00055410254939663475
1	0	0	1	0	0	1	30418,9794	-0,100000001	1,44984949	-0,00027773838612271677	-0,099985820214725709	0,00014496439	0,016351152668969514	-0,00061008349043783053	0,0038869623813647494
1	0	0	1	0	0	1	30538,9794	-0,100000001	1,34112298	-0,00027773814721612467	-0,099985734208351526	0,000134093163	0,013018294402089395	-0,0004857300674249351	0,0072198206482448627
1	0	0	1	0	0	1	30658,9794	-0,100000001	1,29065514	-0,00027773842891760995	-0,099985835620887437	0,000129047228	0,0096854336194379584	-0,00036137655054522912	0,010552681430896302
1	0	0	1	0	0	1	30778,9794	-0,100000001	1,21284342	-0,00027773822863979472	-0,099985763520873088	0,000121267076	0,0063525748936587853	-0,00023702311041019296	0,013885540156675474
1	0	0	1	0	0	1	30898,9794	-0,100000001	1,12263906	-0,00027773767469161085	-0,099985564099524467	0,000112247697	0,0030197170128151891	-0,00011266970180083914	0,017218398037519075
1	0	0	1	0	0	1	31018,9794	-0,100000001	1,00873804	-0,00027773788652941581	-0,099985640361135181	0,000100859317	-0,00031313703537110266	1,1683563806917624E-005	0,020551252085705363
1	0	0	1	0	0	1	31138,9794	-0,100000001	0,945724785	-0,00027774000139906998	-0,099986401714219904	9,45596184E-005	-0,0036460089446819373	0,0001360374958372456	0,023884123995016198
1	0	0	1	0	0	1	31258,9794	-0,100000001	0,924032927	-0,00027773991765206061	-0,099986371565296166	9,23906991E-005	-0,0069788823290719629	0,00026039148290476144	0,027216997379406221
1	0	0	1	0	0	1	31378,9794	-0,100000001	0,898884952	-0,00027773948683506915	-0,09998621647117737	8,98761064E-005	-0,010311758762808299	0,00038474558374748806	0,030549873813142554
1	0	0	1	0	0	1	31498,9794	-0,100000001	0,870548129	-0,00027773923758955469	-0,099986126742791078	8,7042732E-005	-0,013644632875234294	0,00050909959797900467	0,033882747925568544
1	0	0	1	0	0	1	31618,9794	-0,100000001	0,840435445	-0,00027773946543741558	-0,099986208768022003	8,40319553E-005	-0,016977506895776829	0,00063345360878222605	0,037215621946111085
1	0	0	1	0	0	1	31738,9794	-0,100000001	0,809253454	-0,00027774035877072147	-0,099986530368016	8,09144476E-005	-0,020310385619207373	0,00075780779505652198	0,040548500669541632
1	1	0	0	0	0	2	31843,4154	0,100000001	0,860975146	0,00027780600844240851	0,10001016425010947	8,61062654E-005	-0,019322150751361398	0,00072093542344127757	0,0019446442629877062
1	1	0	0	0	0	2	31963,4154	0,100000001	0,904416084	0,0002778061930918031	0,10001023072389232	9,04508634E-005	-0,015988473938415443	0,00059655145937411878	0,0052783210759336762
1	1	0	0	0	0	2	32083,4154	0,100000001	0,94315964	0,00027780600002946125	0,10001016122144843	9,43255509E-005	-0,012654796188880994	0,00047216746036158406	0,0086119988254681242
1	1	0	0	0	0	2	32203,4154	0,100000001	0,978294253	0,00027780687424250778	0,10001047593814898	9,78396711E-005	-0,0093211205973629274	0,00034778354186754208	0,011945674416986192
1	1	0	0	0	0	2	32323,4154	0,100000001	1,07709134	0,00027780621426428352	0,10001023834598538	0,00010772016	-0,0059874432234730931	0,00022339955687081296	0,015279351790876026
1	1	0	0	0	0	2	32443,4154	0,100000001	1,17426538	0,00027780646077626282	0,10001032709029899	0,000117438663	-0,0026537668121775763	9,9015607789772083E-005	0,018613028202171546
1	1	0	0	0	0	2	32563,4154	0,100000001	1,26040244	0,00027780599160202678	0,10001015818757197	0,000126053041	0,00067990805256118989	-2,5368283587157062E-005	0,021946703066910307
1	1	0	0	0	0	2	32683,4154	0,100000001	1,35121787	0,00027780628575301837	0,10001026408193022	0,000135135662	0,0040135823483765184	-0,00014975215373678784	0,025280377362725635
1	1	0	0	0	0	2	32803,4153	0,100000001	1,37856174	0,00027780612674231334	0,10001020544094928	0,000137870244	0,0073472576898419264	-0,00027413606290102893	0,02861405270419104
1	1	0	0	0	0	2	32923,4153	0,100000001	1,4947542	0,00027780595829875936	0,10001014480126995	0,000149490588	0,010680929939801501	-0,00039851985671703085	0,031947724954150611
1	1	0	0	0	0	2	33043,4153	0,100000001	3,1419065	0,00027780692674219606	0,10001049344090653	0,000314223609	0,014014608252866819	-0,00052290387675565997	0,03528140326721593
1	1	0	0	0	0	2	33163,4154	0,100000001	3,72191429	0,00027780624351484909	0,10001024747906208	0,000372229581	0,017348288915293917	-0,00064728798445213594	0,038615083929643021
1	1	0	0	0	0	2	33283,4154	0,100000001	4,0867033	0,00027780646872147917	0,10001032855344875	0,000408712542	0,020681964712862342	-0,00077167191063419379	0,041948759727211462
1	0	0	1	0	0	1	33390,8188	-0,100000001	2,25518441	-0,00027773832625150678	-0,099985797264304384	0,000225486408	0,020332403206080656	-0,00075862930082572454	0,0016650540242592086
1	0	0	1	0	0	1	33510,8188	-0,100000001	1,40514827	-0,00027773765040023459	-0,099985553957846848	0,000140494521	0,016999545252130723	-0,00063427588948867507	0,0049979119782091443
1	0	0	1	0	0	1	33630,8188	-0,100000001	1,31775081	-0,00027773823524349264	-0,099985764501419341	0,000131756329	0,013666688261607091	-0,00050992251409835622	0,0083307689687327821
1	0	0	1	0	0	1	33750,8188	-0,100000001	1,2652781	-0,000277738099001348	-0,099985715454247373	0,000126509738	0,010333831270372754	-0,00038556913868151987	0,01166362595996712
1	0	0	1	0	0	1	33870,8188	-0,100000001	1,18341815	-0,00027773800092935565	-0,099985680148330189	0,000118324868	0,0070009730777960371	-0,00026121571844098419	0,014996484152543837
1	0	0	1	0	0	1	33990,8188	-0,100000001	1,08456385	-0,00027773788452438182	-0,099985638242539699	0,000108440807	0,0036681190683407603	-0,0001368624542783337	0,01832933816199911
1	0	0	1	0	0	1	34110,8188	-0,100000001	0,975321889	-0,00027774007491932976	-0,099986426784719475	9,75189541E-005	0,00033525664131886547	-1,2508876044955154E-005	0,021662200589021005
1	0	0	1	0	0	1	34230,8188	-0,100000001	0,936998367	-0,00027774006327241661	-0,099986422591830758	9,36871147E-005	-0,0029976226503037235	0,00011184533142935002	0,0249950798806436
1	0	0	1	0	0	1	34350,8188	-0,100000001	0,915497541	-0,0002777398120690551	-0,099986332158620774	9,15372439E-005	-0,006330499431715607	0,00023619944524431869	0,028327956662055482
1	0	0	1	0	0	1	34470,8188	-0,100000001	0,888802826	-0,00027773983967180058	-0,099986342095609139	8,88681461E-005	-0,0096633766496392077	0,00036055357534612653	0,031660833879979085
1	0	0	1	0	0	1	34590,8188	-0,100000001	0,859644949	-0,0002777399565676848	-0,099986384178127373	8,59527936E-005	-0,012996254623528517	0,0004849077336540313	0,03499371185386839
1	0	0	1	0	0	1	34710,8188	-0,100000001	0,828997612	-0,00027774019113845296	-0,099986468623603763	8,28885459E-005	-0,016329134591420438	0,0006092619663608544	0,038326591821760301
1	1	0	0	1	0	2	34820,4934	0,100000001	0,811722279	5,4884246653980678E-009	0,032930549622955008	2,67304604E-005	-0,019375215366017437	0,00072291533556022758	5,4884246653980678E-009
1	1	0	0	0	0	2	34940,4934	0,100000001	0,879802763	0,00027780731113006669	0,1000106318205397	8,79896324E-005	-0,01604153184312039	0,00059853112113577203	0,0033336890113217133
1	1	0	0	0	0	2	35060,4934	0,100000001	0,921009541	0,00027780663367071085	0,10001038793517205	9,21105238E-005	-0,012707850735475984	0,00047414699682763968	0,0066673701189661184
1	1	0	0	0	0	2	35180,4934	0,100000001	0,958072782	0,00027780650187283757	0,10001034048793776	9,58171877E-005	-0,0093741733340910234	0,00034976301080503046	0,010001047520351077
1	1	0	0	0	0	2	35300,4934	0,100000001	1,00542819	0,00027780671235298118	0,10001041626078931	0,00010055329	-0,006040489836423296	0,00022537879732191472	0,0133347310180188
1	1	0	0	0	0	2	35420,4934	0,100000001	1,12089503	0,00027780715021491046	0,10001057389108355	0,000112101356	-0,002706806900067825	0,00010099460478211389	0,016668413954374275
1	1	0	0	0	0	2	35540,4934	0,100000001	1,2095145	0,00027780653956615264	0,10001035405753114	0,000120963974	0,00062687221598588877	-2,338944521709191E-005	0,02000209307042799
1	1	0	0	0	0	2	35660,4934	0,100000001	1,2973702	0,00027780593426980909	0,10001013615084787	0,000129750173	0,0039605437845737248	-0,00014777321361019814	0,023335764639015827
1	1	0	0	0	0	2	35780,4934	0,100000001	1,37239408	0,00027780643591533107	0,10001031674323544	0,000137253563	0,007294215798032832	-0,0002721569986020496	0,026669436652474934
1	1	0	0	0	0	2	35900,4934	0,100000001	1,4085598	0,00027780655574219094	0,10001035988090493	0,000140870572	0,010627892570610725	-0,00039654096116302176	0,030003113425052832
1	1	0	0	0	0	2	36020,4934	0,100000001	2,28878427	0,00027780699778555168	0,1000105190165145	0,0002289025	0,013961571900904643	-0,00052092501915581754	0,033336792755346758
1	1	0	0	0	0	2	36140,4934	0,100000001	3,46228075	0,00027780649298512275	0,10001033728836042	0,000346263871	0,017295253426628861	-0,0006453091590630697	0,036670474281070982
1	1	0	0	0	0	2	36260,4934	0,100000001	3,9147346	0,00027780747429943747	0,10001069056151307	0,000391515321	0,020628937862225757	-0,00076969340754158387	0,040004158716667878
1	0	0	1	1	0	1	36367,2780	-0,100000001	4,18844843	0	0	0	0,023594084628162333	-0,00088032702006090458	0
1	0	0	1	0	0	1	36487,2780	-0,100000001	1,48473585	-0,0002777378964614537	-0,099985642539885555	0,000148452265	0,02026260663081911	-0,00075602509676022285	0,003331477997343216
1	0	0	1	0	0	1	36607,2780	-0,100000001	1,35508144	-0,0002777372687438296	-0,099985416561541325	0,000135488386	0,016929756062564739	-0,0006316719609934048	0,0066643285655975898
1	0	0	1	0	0	1	36727,2780	-0,100000001	1,29959166	-0,00027773781179512538	-0,099985612060007411	0,000129940468	0,013596904672114787	-0,00050731879454936435	0,0099971799560475418
1	0	0	1	0	0	1	36847,2780	-0,100000001	1,22445309	-0,00027773822543025018	-0,09998576096865207	0,000122427868	0,010264049906971541	-0,00038296550219097971	0,013330034721190789
1	0	0	1	0	0	1	36967,2780	-0,100000001	1,1359483	-0,00027773797590368323	-0,099985671139088141	0,00011357855	0,0069311947919486157	-0,00025861219677811379	0,016662889836213715
1	0	0	1	0	0	1	37087,2780	-0,100000001	1,02296364	-0,00027773808833666973	-0,0999857116149632	0,000102281745	0,0035983392324277779	-0,00013425887478043312	0,01999574539573455
1	0	0	1	0	0	1	37207,2780	-0,100000001	0,949524641	-0,00027773996436761488	-0,099986386986102208	9,49395398E-005	0,00026546386498873632	-9,9048137226922509E-006	0,023328620763173594
1	0	0	1	0	0	1	37327,2780	-0,100000001	0,926687121	-0,0002777397852457232	-0,099986322502221312	9,26560388E-005	-0,0030674152680498995	0,00011444938783463238	0,026661499896212227
1	0	0	1	0	0	1	37447,2780	-0,100000001	0,902092934	-0,00027774032613717846	-0,099986517223144845	9,01971289E-005	-0,0064002998876439322	0,00023880379410271562	0,029994384515806266
1	0	0	1	0	0	1	37567,2780	-0,100000001	0,873756051	-0,00027774017314861216	-0,099986462147261082	8,73637764E-005	-0,0097331786742206374	0,00036315798273307981	0,033327263302382976
1	0	0	1	0	0	1	37687,2780	-0,100000001	0,843738854	-0,00027774003303133776	-0,099986411705042381	8,43624221E-005	-0,01306606083044287	0,00048751229708944915	0,036660145458605203
1	0	0	1	0	0	1	37807,2780	-0,100000001	0,812461436	-0,0002777398300870425	-0,09998633864509623	8,12350409E-005	-0,016398941305115837	0,0006118665487049545	0,039993025933278163
1	1	0	0	0	0	2	37913,6296	0,100000001	0,856583357	0,00027780681050361862	0,10001045159501872	8,5667285E-005	-0,016019447571991648	0,00059770712728734029	0,001666844858555744
1	1	0	0	0	0	2	38033,6296	0,100000001	0,900711656	0,00027780681348923178	0,10001045266983946	9,00805826E-005	-0,012685764822089442	0,00047332294170436141	0,0050005276084579526
1	1	0	0	0	0	2	38153,6296	0,100000001	0,939722538	0,00027780700195125408	0,10001052051616734	9,39821402E-005	-0,0093520781657484838	0,00034893861036690054	0,0083342142647989094
1	1	0	0	0	0	2	38273,6296	0,100000001	0,974513471	0,00027780689767789507	0,10001048297775821	9,74615614E-005	-0,0060183948922790758	0,0002245544052489255	0,011667897538268322
1	1	0	0	0	0	2	38393,6296	0,100000001	1,06563437	0,00027780751188389133	0,10001070409191642	0,000106574844	-0,0026847092465017574	0,0001001701116169527	0,015001583184045638
1	1	0	0	0	0	2	38513,6296	0,100000001	1,16580629	0,00027780700879833763	0,10001052298111744	0,000116592899	0,00064897558288605645	-2,4214151554430035E-005	0,01833526801343345
1	1	0	0	0	0	2	38633,6296	0,100000001	1,25200069	0,00027780681435101562	0,10001045298008163	0,000125213162	0,0039826590601201517	-0,00014859836427513952	0,021668951490667542
1	1	0	0	0	0	2	38753,6296	0,100000001	1,34220505	0,00027780656927658454	0,10001036475328661	0,000134234419	0,0073163374588332058	-0,00027298238750940083	0,025002629889380602
1	1	0	0	0	0	2	38873,6296	0,100000001	1,37512469	0,00027780632552463146	0,10001027700258366	0,0001375266	0,010650016990981565	-0,00039736645303365734	0,028336309421528957
1	1	0	0	0	0	2	38993,6296	0,100000001	1,47285235	0,00027780699273861117	0,1000105171996159	0,000147300729	0,013983698504573338	-0,00052175059248823162	0,031669990935120736
1	1	0	0	0	0	2	39113,6296	0,100000001	3,05366898	0,00027780726770601338	0,10001061618788053	0,000305399328	0,01731738496252272	-0,00064613491642343603	0,035003677393070131
1	1	0	0	0	0	2	39233,6296	0,100000001	3,71952748	0,00027780773357301952	0,10001078390000243	0,00037199285	0,020651075153527974	-0,00077051937964397427	0,038337367584075386
1	1	0	0	0	0	2	39353,6296	0,100000001	4,10944557	0,00027780813090254861	0,10001092693863262	0,000410989451	0,023984765150863251	-0,00089490383563842522	0,041671057581410662
1	0	0	1	0	0	1	39461,1550	-0,100000001	2,02808881	-0,00027773794504793152	-0,099985660031017536	0,000202779804	0,023083054566275709	-0,00086125980136468902	0,0019427887867515498
1	0	0	1	0	0	1	39581,1550	-0,100000001	1,39476061	-0,00027773783571935366	-0,099985620672729587	0,000139456009	0,019750199779498458	-0,00073690650819911053	0,0052756435735287974
1	0	0	1	0	0	1	39701,1550	-0,100000001	1,315364	-0,00027773827120413382	-0,099985777447250163	0,000131517692	0,016417341939583382	-0,00061255310111685491	0,0086085014134438707
1	0	0	1	0	0	1	39821,1550	-0,100000001	1,25695264	-0,00027773759336190093	-0,099985533424046758	0,000125677077	0,013084485003722171	-0,00048819972776606432	0,011941358349305083
1	0	0	1	0	0	1	39941,1550	-0,100000001	1,17341244	-0,00027773764830744931	-0,099985553204444147	0,000117324293	0,0097516305017317786	-0,00036384644522626643	0,015274212851295472
1	0	0	1	0	0	1	40061,1550	-0,100000001	1,07079649	-0,00027773811972637971	-0,09998572291525879	0,000107064363	0,0064187755959224	-0,00023949314761943923	0,018607067757104864
1	0	0	1	0	0	1	40181,1550	-0,100000001	0,966805518	-0,00027773976614574589	-0,099986315626229504	9,66673251E-005	0,0030859082061449318	-0,00011513938421897776	0,021939935146882333
1	0	0	1	0	0	1	40301,1550	-0,100000001	0,934649706	-0,00027773963442362019	-0,099986268206264333	9,34521377E-005	-0,00024696837902817779	9,2147222740584602E-006	0,025272811732055446
1	0	0	1	0	0	1	40421,1550	-0,100000001	0,91240418	-0,00027773998520730272	-0,099986394488389811	9,12280011E-005	-0,0035798465739050208	0,00013356888882730522	0,028605689926932294
1	0	0	1	0	0	1	40541,1550	-0,100000001	0,885060251	-0,00027773951627645226	-0,099986225673283942	8,84938345E-005	-0,006912723810128489	0,00025792301961190566	0,031938567163155763
1	0	0	1	0	0	1	40661,1550	-0,100000001	0,855558634	-0,0002777399133029911	-0,09998636860283767	8,55441976E-005	-0,01024560331368533	0,00038227723499376269	0,035271446666712595
1	0	0	1	0	0	1	40781,1550	-0,100000001	0,824586689	-0,00027773941697925325	-0,099986189926292378	8,24472809E-005	-0,013578478892991978	0,00050663130395656877	0,038604322246019251
1	1	0	0	0	0	2	40883,5686	0,100000001	0,832600117	0,00027780667398207718	0,1000104024472639	8,3268671E-005	-0,015867339429846691	0,00059203176799233971	0,00027781216265468134
1	1	0	0	0	0	2	41003,5686	0,100000001	0,883163452	0,00027780741211482218	0,1000106681750516	8,83257671E-005	-0,012533648368014267	0,00046764727228006893	0,0036115032244871059
1	1	0	0	0	0	2	41123,5686	0,100000001	0,923816502	0,0002778077633769976	0,10001079462943451	9,23916232E-005	-0,0091999556718084096	0,000343262715587128	0,0069451959206929638
1	1	0	0	0	0	2	41243,5686	0,100000001	0,960440516	0,00027780811062455171	0,10001091963855376	9,60545367E-005	-0,0058662622475326426	0,00021887813172891978	0,01027888934496873
1	1	0	0	0	0	2	41363,5686	0,100000001	1,01279879	0,0002778076897325615	0,1000107681174376	0,000101290781	-0,0025325674638380134	9,4493497148966054E-005	0,013612584128663357
1	1	0	0	0	0	2	41483,5686	0,100000001	1,12755919	0,00027780718035871779	0,10001058474285418	0,000112767855	0,00080112110180818163	-2,9890905427240333E-005	0,016946272694309552
1	1	0	0	0	0	2	41603,5686	0,100000001	1,21558666	0,00027780734911436835	0,10001064549488829	0,000121571604	0,0041348080929964435	-0,00015427524925830435	0,020279959685497814
1	1	0	0	0	0	2	41723,5686	0,100000001	1,30357599	0,00027780674574482768	0,10001042828185403	0,000130371191	0,0074684928000043302	-0,00027865950786352749	0,023613644392505702
1	1	0	0	0	0	2	41843,5686	0,100000001	1,37119114	0,0002778071014285088	0,10001055632797898	0,000137133582	0,010802178274926179	-0,00040304379512065293	0,026947329867427549
1	1	0	0	0	0	2	41963,5686	0,100000001	1,41581595	0,00027780583278752038	0,100010099617224	0,000141595898	0,014135856856988912	-0,00052742782519593734	0,030281008449490291
1	1	0	0	0	0	2	42083,5686	0,100000001	2,43533754	0,00027780673402009738	0,10001042406095112	0,000243559145	0,017469535134354362	-0,00065181184390255642	0,033614686726855744
1	1	0	0	0	0	2	42203,5686	0,100000001	3,52214336	0,00027780672217450208	0,1000104197965368	0,000352251023	0,020803218934610032	-0,0007761960686756352	0,036948370527111418
1	1	0	0	0	0	2	42323,5686	0,100000001	3,9861114	0,00027780717172225322	0,10001058163372693	0,000398653327	0,024136904881953741	-0,00090058037355945536	0,040282056474455123
1	0	0	1	0	0	1	42432,7362	-0,100000001	3,13406587	-0,00027773725345192685	-0,099985411056456307	0,000313360855	0,02550299697617343	-0,00095155110632514726	0,00083183674630865664
1	0	0	1	0	0	1	42552,7362	-0,100000001	1,43380976	-0,00027773709019190733	-0,099985352282849408	0,000143359968	0,022170147635637728	-0,00082719801636616358	0,0041646860868443571
1	0	0	1	0	0	1	42672,7362	-0,100000001	1,33107913	-0,00027773778839078214	-0,099985603634443866	0,000133088746	0,018837297197758582	-0,00070284488546382054	0,0074975365247235072
1	0	0	1	0	0	1	42792,7362	-0,100000001	1,28185248	-0,00027773796148391235	-0,099985665947970637	0,000128166881	0,015504442618920826	-0,00057849160005674419	0,010830391103561258
1	0	0	1	0	0	1	42912,7362	-0,100000001	1,20127189	-0,0002777379874429769	-0,099985675293233856	0,00012010998	0,012171588012724957	-0,00045413831362889984	0,014163245709757125
1	0	0	1	0	0	1	43032,7362	-0,100000001	1,10654211	-0,00027773813668100374	-0,099985729018923418	0,000110638422	0,0088387332966326106	-0,00032978502310067014	0,017496100425849475
1	0	0	1	0	0	1	43152,7362	-0,100000001	0,990521431	-0,00027773917107159894	-0,099986101399536998	9,90383778E-005	0,0055058777574737965	-0,000205431701862724	0,020828955965008291
1	0	0	1	0	0	1	43272,7362	-0,100000001	0,941141963	-0,00027774026269217331	-0,099986494382943027	9,41014878E-005	0,0021730030836370362	-8,1077666684216806E-005	0,02416183063884505
1	0	0	1	0	0	1	43392,7362	-0,100000001	0,919908464	-0,00027773971014718214	-0,099986295466746586	9,19782397E-005	-0,0011598751298215549	4,3276500562339981E-005	0,027494708852303638
1	0	0	1	0	0	1	43512,7362	-0,100000001	0,893652976	-0,00027773924549793203	-0,099986128193016858	8,93528995E-005	-0,0044927485244623386	0,00016763048801232541	0,030827582246944429
1	0	0	1	0	0	1	43632,7362	-0,100000001	0,864666879	-0,00027773960638667146	-0,099986258112962803	8,64548056E-005	-0,0078256198482829555	0,00029198439819722611	0,03416045357076503
1	0	0	1	0	0	1	43752,7362	-0,100000001	0,833981395	-0,00027773937020906141	-0,09998617308902336	8,3386607E-005	-0,01115849233969399	0,00041633835194649523	0,037493326062176083
1	0	0	1	0	0	1	43872,7362	-0,100000001	0,80232203	-0,00027773921999666426	-0,099986119012560474	8,02210634E-005	-0,014491365065422477	0,00054069231443846349	0,04082619878790457
1	1	0	0	0	0	2	43981,0288	0,100000001	0,872126579	0,00027780748657675251	0,10001069498134646	8,72219825E-005	-0,011943587506548552	0,00044563130819351731	0,002778078808375945
1	1	0	0	0	0	2	44101,0288	0,100000001	0,913963556	0,00027780751582193706	0,1000107055096129	9,14061384E-005	-0,0086098985620097024	0,00032124689148031648	0,006111767752914793
1	1	0	0	0	0	2	44221,0288	0,100000001	0,951771438	0,00027780685581266886	0,10001046790627677	9,51871043E-005	-0,0052762099559826035	0,00019686248739744432	0,0094454563589418918
1	1	0	0	0	0	2	44341,0288	0,100000001	0,989598453	0,00027780723193370637	0,10001060330985002	9,89703403E-005	-0,0019425242096783264	7,2478190014675546E-005	0,012779142105246166
1	1	0	0	0	0	2	44461,0288	0,100000001	1,10235393	0,00027780697295938928	0,10001051007909606	0,000110246976	0,0013911619634291485	-5,1906123292694387E-005	0,016112828278353642
1	1	0	0	0	0	2	44581,0288	0,100000001	1,19404769	0,00027780649936695898	0,10001033958582146	0,000119417113	0,0047248489118680474	-0,00017629046552872221	0,019446515226792538
1	1	0	0	0	0	2	44701,0288	0,100000001	1,28102493	0,0002778073596623209	0,10001064929215117	0,000128116139	0,0080585331191737728	-0,00030067470548938586	0,022780199434098266
1	1	0	0	0	0	2	44821,0288	0,100000001	1,37189758	0,00027780713746613926	0,10001056930152592	0,000137204261	0,01139222187695637	-0,00042505911523445971	0,026113888191880864
1	1	0	0	0	0	2	44941,0288	0,100000001	1,39248192	0,0002778080933321681	0,10001091341329568	0,000139263386	0,014725912239487232	-0,00054944358485484896	0,029447578554411725
1	1	0	0	0	0	2	45061,0288	0,100000001	1,8090564	0,00027780795045610931	0,10001086197791459	0,000180925286	0,018059606672163062	-0,00067382820633781939	0,032781272987087558
1	1	0	0	0	0	2	45181,0288	0,100000001	3,37400508	0,00027780787749505702	0,10001083571193584	0,000337437057	0,021393305642398118	-0,00079821299712322522	0,036114971957322611
1	1	0	0	0	0	2	45301,0288	0,100000001	3,9083569	0,0002778082619172831	0,10001097410393696	0,000390878587	0,024727002154845168	-0,00092259769620525619	0,039448668469769664
1	1	0	0	0	0	2	45402,0912	0,100000001	4,20005798	2,9514360639784077E-005	0,10001101101275267	0,000420052034	0,027534599263061091	-0,0010273529191672517	0,042256265577985574