File: Experimentelles/Rohdaten/Batteriemessungen/AlteZelle/Studenten_Batterietests/LLTO_LP30_Li CV/ECLab-Export/LLTO_LP30_Li_02_CV_C01_loop4.mpt
EC-Lab ASCII FILE
Nb header lines : 3
mode	ox/red	error	control changes	counter inc.	time/s	control/V	Ewe/V	<I>/mA	cycle number	(Q-Qo)/C	P/W
2	0	0	1	0	3420,49	2,11043262	2,11109281	-0,049960222095251085	5	0	0,000105470666
2	0	0	0	0	3421,72	2,09813118	2,09858155	-0,043315050522020781	5	-5,42402704E-005	9,09001683E-005
2	0	0	0	0	3422,97	2,08563018	2,08623123	-0,043875386443687603	5	-0,000108955413	9,15342025E-005
2	0	0	1	0	3424,22	2,07312918	2,07366061	-0,044467299604245005	5	-0,000164380079	9,2210088E-005
2	0	0	1	0	3425,47	2,06062818	2,0608592	-0,044818717355762317	5	-0,000220440532	9,23650659E-005
2	0	0	0	0	3426,72	2,04812741	2,04857922	-0,045299053424969274	5	-0,000277145766	9,27986985E-005
2	0	0	0	0	3427,97	2,03562641	2,03605866	-0,045837840841462138	5	-0,000334465032	9,33285337E-005
2	0	0	1	0	3429,22	2,02312541	2,02352786	-0,04640098806703463	5	-0,000392423884	9,38936937E-005
2	0	0	1	0	3430,47	2,01062441	2,01125765	-0,046932419160536365	5	-0,000451005268	9,43931882E-005
2	0	0	0	0	3431,72	1,99812353	1,998667	-0,047400601635066125	5	-0,000510244397	9,47380177E-005
2	0	0	0	0	3432,97	1,98562253	1,98614633	-0,047863633061448864	5	-0,000570121163	9,5064177E-005
2	0	0	1	0	3434,22	1,97312152	1,97359562	-0,048462276802941683	5	-0,00063067989	9,56449367E-005
2	0	0	1	0	3435,47	1,96062064	1,96105492	-0,049014002123537126	5	-0,000691906025	9,61191472E-005
2	0	0	0	0	3436,72	1,94811964	1,94873488	-0,049660521656430093	5	-0,000753836008	9,67751912E-005
2	0	0	0	0	3437,97	1,93561864	1,93592358	-0,050152393504201197	5	-0,000816452084	9,70912006E-005
2	0	0	1	0	3439,22	1,92311788	1,92392409	-0,05061653134180233	5	-0,000879779865	9,73823626E-005
2	0	0	1	0	3440,47	1,91061676	1,91103268	-0,051211194659117606	5	-0,000943819527	9,78662647E-005
2	0	0	1	0	3441,72	1,89811563	1,89853096	-0,051859841179905773	5	-0,00100859394	9,84575163E-005
2	0	0	0	0	3442,97	1,88561487	1,88603139	-0,052460703028676557	5	-0,00107412843	9,89425316E-005
2	0	0	0	0	3444,22	1,87311387	1,87356091	-0,053211045684293133	5	-0,00114043755	9,9694138E-005
2	0	0	1	0	3445,47	1,86061311	1,86097002	-0,053763163722275296	5	-0,0012076057	0,000100051635
2	0	0	1	0	3446,72	1,84811199	1,84848952	-0,054506039014086125	5	-0,00127563579	0,000100753845
2	0	0	0	0	3447,97	1,83561099	1,83614933	-0,055316650735524832	5	-0,00134462223	0,000101569633
2	0	0	0	0	3449,22	1,82311022	1,82355857	-0,056171877096251821	5	-0,00141457433	0,000102432707
2	0	0	1	0	3450,47	1,8106091	1,81095779	-0,05708693146395216	5	-0,00148559292	0,000103382023
2	0	0	1	0	3451,72	1,79810822	1,79852724	-0,057856372615788186	5	-0,00155769568	0,000104056264
2	0	0	0	0	3452,97	1,78560734	1,78610694	-0,058783122493575091	5	-0,00163100869	0,000104992941
2	0	0	0	0	3454,22	1,77310622	1,77351606	-0,05987016301757353	5	-0,00170554721	0,000106180698
2	0	0	1	0	3455,47	1,76060545	1,76117587	-0,061027856601867827	5	-0,00178149168	0,000107480788
2	0	0	1	0	3456,72	1,74810433	1,74856496	-0,062333696075560051	5	-0,00185889809	0,000108994514
2	0	0	0	0	3457,97	1,73560333	1,73622477	-0,06363417051034048	5	-0,00193794805	0,000110483226
2	0	0	0	0	3459,22	1,72310257	1,72356379	-0,065010124856295987	5	-0,00201873854	0,0001120491
2	0	0	1	0	3460,47	1,71060145	1,71108329	-0,066572986368555917	5	-0,00210144813	0,000113911927
2	0	0	1	0	3461,72	1,69810057	1,69848251	-0,06824117406116192	5	-0,002186117	0,000115906441
2	0	0	0	0	3462,97	1,68559968	1,68595183	-0,069951855150672038	5	-0,00227290089	0,000117935459
2	0	0	0	0	3464,22	1,67309856	1,67341113	-0,071711078053339955	5	-0,00236180099	0,000120002114
2	0	0	1	0	3465,47	1,6605978	1,66095066	-0,073289371212012838	5	-0,00245287316	0,000121730031
2	0	0	1	0	3466,72	1,64809692	1,64841986	-0,075043312661970842	5	-0,00254607829	0,000123702892
2	0	0	0	0	3467,97	1,63559568	1,63589931	-0,07691982667893193	5	-0,00264160288	0,000125833089
2	0	0	0	0	3469,22	1,62309492	1,62364924	-0,07903853340152023	5	-0,00273956847	0,000128330852
2	0	0	0	0	3470,47	1,6105938	1,611269	-0,081452614511363213	5	-0,00284034456	0,000131242079
2	0	0	1	0	3471,72	1,59809291	1,59864807	-0,084236653715682675	5	-0,00294430042	0,000134664762
2	0	0	1	0	3472,97	1,58559203	1,58615756	-0,087530096604799373	5	-0,00305196038	0,00013883652
2	0	0	0	0	3474,22	1,57309091	1,57355666	-0,09143246811193728	5	-0,00316402782	0,000143874175
2	0	0	0	0	3475,47	1,56059015	1,56115651	-0,096374769986141696	5	-0,0032815563	0,000150456093
2	0	0	1	0	3476,76	1,5476892	1,54811454	-0,10269026609603349	5	-0,00341006042	0,000158976298
2	0	0	1	0	3478,01	1,5351882	1,53564405	-0,11082690531232675	5	-0,00354356389	0,000170190673
2	0	0	0	0	3479,26	1,52268732	1,52314353	-0,12118925526738122	5	-0,00368855009	0,000184588629
2	0	0	0	0	3480,51	1,51018631	1,51072311	-0,13409768491207341	5	-0,00384811498	0,000202584473
2	0	0	1	0	3481,76	1,49768543	1,49813235	-0,15015416984291184	5	-0,00402587699	0,000224950825
2	0	0	1	0	3483,01	1,48518443	1,48565173	-0,16956470631218278	5	-0,00422576256	0,000251914113
2	0	0	0	0	3484,26	1,47268343	1,47318125	-0,19213116669561846	5	-0,00445185415	0,000283044035
2	0	0	0	0	3485,51	1,46018255	1,46081102	-0,21787362545728595	5	-0,00470808567	0,000318272185
2	0	0	1	0	3486,76	1,44768155	1,44815993	-0,24610660232914006	5	-0,00499821082	0,000356401724
2	0	0	1	0	3488,01	1,43518054	1,43581975	-0,27689308937017997	5	-0,00532532949	0,000397568569
2	0	0	0	0	3489,26	1,42267966	1,42303848	-0,30968110791097203	5	-0,00569226453	0,000440688134
2	0	0	0	0	3490,51	1,41017866	1,41055787	-0,34395345626398918	5	-0,00610100385	0,000485166267
2	0	0	1	0	3491,76	1,39767778	1,39801717	-0,37923335920398541	5	-0,00655333512	0,000530174759
2	0	0	1	0	3493,01	1,38517678	1,3857373	-0,41508083449055808	5	-0,00705006951	0,000575192971
2	0	0	0	0	3494,26	1,37267578	1,37291586	-0,45116251210371725	5	-0,00759209972	0,000619408151
2	0	0	0	0	3495,51	1,36017489	1,36043537	-0,48763341410085562	5	-0,00817938894	0,000663393759
2	0	0	1	0	3496,76	1,34767389	1,34829581	-0,52382444093624602	5	-0,00881221518	0,000706270279
2	0	0	1	0	3498,01	1,33517289	1,33548415	-0,55974402340750016	5	-0,00948994979	0,000747529266
2	0	0	1	0	3499,26	1,32267118	1,32290339	-0,59518425301903565	5	-0,0102123609	0,000787371246
2	0	0	0	0	3500,51	1,31017101	1,31055319	-0,6298208939842889	5	-0,0109785525	0,000825413794
2	0	0	0	0	3501,76	1,29767013	1,29802263	-0,6638910955128576	5	-0,0117877172	0,000861745677
2	0	0	1	0	3503,01	1,28516912	1,28579259	-0,69719660297657037	5	-0,0126391184	0,000896450249
2	0	0	1	0	3504,26	1,27266812	1,27300143	-0,73006354148189517	5	-0,0135316802	0,000929371919
2	0	0	0	0	3505,51	1,26016724	1,26069117	-0,76266163308173414	5	-0,014464953	0,000961480779
2	0	0	0	0	3506,76	1,24766624	1,24794006	-0,79747393758346701	5	-0,0154403225	0,000995199662
2	0	0	1	0	3508,01	1,23516524	1,23560977	-0,83437041565775872	5	-0,0164607726	0,00103095628
2	0	0	1	0	3509,26	1,22266436	1,22312939	-0,87240722744415322	5	-0,0175280739	0,00106706691
2	0	0	0	0	3510,51	1,21016335	1,21068895	-0,90984831346819917	5	-0,0186429136	0,00110154331
2	0	0	0	0	3511,76	1,19766247	1,19817829	-0,94568029977381235	5	-0,0198033955	0,00113309361
2	0	0	1	0	3513,01	1,18516147	1,18574798	-0,97883071905623181	5	-0,0210071448	0,00116064656
2	0	0	1	0	3514,30	1,17226052	1,17263579	-1,0105347819626349	5	-0,0222912151	0,00118498923
2	0	0	0	0	3515,55	1,1597594	1,16012514	-1,0387029207001142	5	-0,0235731304	0,00120502536
2	0	0	0	0	3516,80	1,14725864	1,14777493	-1,0646504412094746	5	-0,0248886589	0,00122197904
2	0	0	1	0	3518,05	1,13475764	1,13510394	-1,0876648559545438	5	-0,0262349267	0,00123461266
2	0	0	1	0	3519,30	1,12225664	1,1227237	-1,1082561394820587	5	-0,0276082214	0,00124426547
2	0	0	0	0	3520,55	1,10975575	1,11036336	-1,1262061974654643	5	-0,0290056095	0,00125049811
2	0	0	0	0	3521,80	1,09725475	1,09790301	-1,14150213015576	5	-0,0304237567	0,00125325867
2	0	0	1	0	3523,06	1,08475387	1,08529198	-1,1551364545400018	5	-0,031860292	0,0012536603
2	0	0	1	0	3524,31	1,07225287	1,07288182	-1,1667366766681262	5	-0,0333123319	0,00125177053
2	0	0	0	0	3525,56	1,05975175	1,06029081	-1,1759928849836214	5	-0,0347775705	0,00124689448
2	0	0	0	0	3526,81	1,04725099	1,04763997	-1,1836248238881453	5	-0,0362531878	0,0012400127
2	0	0	0	0	3528,06	1,03474975	1,03525019	-1,1889391978739906	5	-0,0377368554	0,00123084954
2	0	0	1	0	3529,31	1,02224898	1,02278924	-1,1921929869179984	5	-0,0392258465	0,00121936214
2	0	0	1	0	3530,56	1,00974822	1,01012814	-1,1931844012190976	5	-0,0407172814	0,00120526913
2	0	0	0	0	3531,81	0,997247219	0,997587442	-1,1916439629470288	5	-0,0422085412	0,00118876901
2	0	0	0	0	3533,06	0,984746277	0,984906375	-1,1876156463598218	5	-0,0436960869	0,00116969016
2	0	0	1	0	3534,31	0,972245336	0,97234571	-1,1809709463268554	5	-0,0451771691	0,001148312
2	0	0	1	0	3535,56	0,959744394	0,960065663	-1,1714565921574795	5	-0,0466481	0,00112467527
2	0	0	0	0	3536,81	0,947243392	0,947605133	-1,1597404200583696	5	-0,0481058955	0,001098976
2	0	0	0	0	3538,06	0,934742451	0,935224891	-1,1456537063543947	5	-0,0495473258	0,0010714439
2	0	0	1	0	3539,31	0,922241509	0,922724307	-1,1301285174364848	5	-0,0509703308	0,001042797
2	0	0	1	0	3540,56	0,909740567	0,910003185	-1,114229307509956	5	-0,0523734018	0,00101395219
2	1	0	0	0	3541,76	0,902339876	0,90258503	-1,0513039510697126	5	-0,0536966845	0,000948891218
2	1	0	1	0	3543,01	0,914840817	0,915115654	-0,82445820793509658	5	-0,0548618361	0,000754474604
2	1	0	1	0	3544,26	0,927341878	0,927816749	-0,64369766972959219	5	-0,0557747148	0,000597233477
2	1	0	0	0	3545,55	0,940242827	0,940527856	-0,48941825889051046	5	-0,0565014519	0,000460311509
2	1	0	0	0	3546,80	0,952743828	0,953098536	-0,36288214179997747	5	-0,0570312813	0,000345862441
2	1	0	1	0	3548,05	0,96524477	0,965769589	-0,25487672180558186	5	-0,0574149601	0,000246152194
2	1	0	1	0	3549,30	0,977745712	0,978189945	-0,16187220384987722	5	-0,0576733463	0,000158341762
2	1	0	0	0	3550,55	0,990246654	0,990580261	-0,081548673741053786	5	-0,0578237064	8,07805045E-005
2	1	0	0	0	3551,84	1,00314772	1,00345182	-0,0096836555167101389	5	-0,0578809753	9,71708141E-006
2	1	0	1	0	3553,09	1,01564848	1,01613271	0,0510981430998072	5	-0,0578538105	5,19224959E-005
2	1	0	1	0	3554,38	1,02854955	1,02894413	0,10653051427410309	5	-0,0577509701	0,000109613946
2	1	0	0	0	3555,63	1,04105043	1,04141474	0,15421673931026202	5	-0,0575868972	0,00016060358
2	1	0	0	0	3556,88	1,05355144	1,0538851	0,1974278287962079	5	-0,0573661327	0,000208066253
2	1	0	1	0	3558,13	1,06605244	1,0665561	0,23695272843663907	5	-0,0570937023	0,000252723374
2	1	0	1	0	3559,38	1,0785532	1,07905674	0,27347459783777683	5	-0,056773942	0,000295094622
2	1	0	0	0	3560,63	1,09105432	1,09142709	0,30777319435340544	5	-0,0564099289	0,000335911987
2	1	0	0	0	3561,88	1,1035552	1,10395765	0,33992624267314822	5	-0,0560045168	0,000375264179
2	1	0	1	0	3563,13	1,1160562	1,11652863	0,37074258147428371	5	-0,055559542	0,000413944712
2	1	0	1	0	3564,38	1,12855721	1,12903917	0,4005028499911223	5	-0,0550768226	0,000452183391
2	1	0	0	0	3565,63	1,14105809	1,14137936	0,42947011254727661	5	-0,0545573756	0,000490188308
2	1	0	0	0	3566,88	1,15355909	1,1538198	0,45771224672595603	5	-0,0540023148	0,000528117467
2	1	0	1	0	3568,13	1,16606009	1,16627014	0,4854222596623008	5	-0,0534121767	0,000566133473
2	1	0	1	0	3569,38	1,17856085	1,1790415	0,5127315010565017	5	-0,0527877435	0,000604531728
2	1	0	1	0	3570,63	1,19106174	1,19168246	0,53990830918647245	5	-0,0521291085	0,000643399253
2	1	0	0	0	3571,88	1,20356286	1,20409262	0,56670392164960461	5	-0,0514368601	0,000682363985
2	1	0	0	0	3573,13	1,21606374	1,21630251	0,59324937531103744	5	-0,0507113449	0,000721570686
2	1	0	1	0	3574,38	1,22856486	1,2288934	0,61925370075429555	5	-0,0499528982	0,000760996772
2	1	0	1	0	3575,63	1,24106574	1,2414341	0,64469351433217344	5	-0,0491622873	0,000800344511
2	1	0	0	0	3576,88	1,25356674	1,2540952	0,66953818981225139	5	-0,0483400486	0,000839664601
2	1	0	0	0	3578,13	1,26606774	1,26659572	0,69382058099533056	5	-0,0474871732	0,000878790161
2	1	0	1	0	3579,38	1,27856851	1,27896595	0,71703227640440128	5	-0,0466045812	0,000917059893
2	1	0	1	0	3580,63	1,29106963	1,29177737	0,73979662001753792	5	-0,0456933826	0,000955652562
2	1	0	0	0	3581,88	1,30357051	1,3039571	0,76145487030347162	5	-0,0447543934	0,000992904534
2	1	0	0	0	3583,13	1,31607139	1,31647766	0,78214968927204608	5	-0,0437890776	0,00102968258
2	1	0	1	0	3584,38	1,32857251	1,32893825	0,8018298524742313	5	-0,0427984484	0,00106558239
2	1	0	1	0	3585,63	1,34107339	1,34173954	0,82045155515273357	5	-0,0417841375	0,00110083225
2	1	0	0	0	3586,88	1,35357428	1,35397947	0,83811263150225203	5	-0,0407470167	0,00113478734
2	1	0	0	0	3588,13	1,3660754	1,36649013	0,85472870121399462	5	-0,0396886282	0,00116797828
2	1	0	1	0	3589,38	1,37857616	1,37889051	0,87018218295027699	5	-0,0386099033	0,00119988597
2	1	0	1	0	3590,63	1,39107728	1,39154148	0,88513265115519245	5	-0,0375123434	0,00123169878
2	1	0	0	0	3591,88	1,40357816	1,4039818	0,89911091513931802	5	-0,0363965817	0,00126233534
2	1	0	0	0	3593,13	1,41607904	1,41651261	0,91260434345652634	5	-0,035264045	0,00129271555
2	1	0	1	0	3594,38	1,42858016	1,42913342	0,92676809740562944	5	-0,0341142043	0,00132447528
2	1	0	1	0	3595,63	1,44108105	1,44143355	0,94589207135140544	5	-0,032944303	0,00136344053
2	1	0	0	0	3596,88	1,45358193	1,45441532	0,9727055936430889	5	-0,031745255	0,00141471787
2	1	0	0	0	3598,16	1,46638286	1,46673548	1,006697096241016	5	-0,0304788221	0,00147655839
2	1	0	0	0	3599,41	1,47888327	1,47923541	1,040508659741473	5	-0,0291987862	0,00153915724
2	1	0	1	0	3600,66	1,49138474	1,49181676	1,0729115034143133	5	-0,0278768819	0,00160058739
2	1	0	1	0	3601,91	1,50388575	1,50430751	1,1003798463692221	5	-0,0265177116	0,00165530969
2	1	0	0	0	3603,16	1,51638687	1,51674783	1,1217110541959592	5	-0,0251276493	0,00170135277
2	1	0	0	0	3604,41	1,52888763	1,52922833	1,1355152223259174	5	-0,0237157363	0,001736462
2	1	0	1	0	3605,66	1,54138863	1,54194951	1,1406796375910418	5	-0,0222912356	0,00175887044
2	1	0	1	0	3606,91	1,55388963	1,55429971	1,134998222813012	5	-0,020867046	0,0017641274
2	1	0	0	0	3608,16	1,5663904	1,56673002	1,1151680126786232	5	-0,0194586348	0,0017471672
2	1	0	0	0	3609,41	1,5788914	1,57929075	1,0786128174513587	5	-0,0180854313	0,00170344324
2	1	0	1	0	3610,66	1,5913924	1,59191167	1,0254128780215907	5	-0,0167680867	0,00163236668
2	1	0	1	0	3611,91	1,60389328	1,60437226	0,95550289098173376	5	-0,0155279385	0,00153298234
2	1	0	0	0	3613,16	1,61639452	1,61690283	0,86984461297591603	5	-0,0143850809	0,00140645425
2	1	0	0	0	3614,41	1,62889528	1,62903249	0,77073456083113894	5	-0,013358443	0,00125555159
2	1	0	1	0	3615,66	1,64139616	1,6418941	0,66408174096917082	5	-0,0124611622	0,00109035184
2	1	0	1	0	3616,91	1,65389717	1,65407395	0,54874803358688954	5	-0,011701636	0,000907669833
2	1	0	0	0	3618,20	1,66679823	1,667256	0,40789039308826067	5	-0,0110814068	0,000680057681
2	1	0	0	0	3619,45	1,67929912	1,6795963	0,25930478028021843	5	-0,010665697	0,000435527356
2	1	0	1	0	3620,70	1,69180012	1,6922071	0,1514833577675751	5	-0,0104147829	0,000256341213
2	1	0	1	0	3621,95	1,70430112	1,70466745	0,098784879315644608	5	-0,0102628879	0,000168395374
2	1	0	0	0	3623,20	1,716802	1,71723843	0,077509713475592218	5	-0,0101542566	0,000133102658
2	1	0	0	0	3624,45	1,729303	1,72972894	0,067224376737916429	5	-0,0100641027	0,000116279953
2	1	0	1	0	3625,70	1,74180388	1,74237001	0,060835452866740518	5	-0,00998390373	0,000105997868
2	1	0	1	0	3626,95	1,75430489	1,75471008	0,056477804668247808	5	-0,00991024263	9,91021734E-005
2	1	0	0	0	3628,20	1,76680529	1,76739883	0,053148119152497843	5	-0,00984138064	9,39339225E-005
2	1	0	0	0	3629,45	1,77930677	1,77975142	0,050568298999375206	5	-0,00977620762	8,99990046E-005
2	1	0	0	0	3630,74	1,79220784	1,79256272	0,048381468902031322	5	-0,00971207116	8,67268172E-005
2	1	0	1	0	3631,99	1,8047086	1,80494297	0,046674831430815635	5	-0,00965238363	8,42454101E-005
2	1	0	1	0	3633,24	1,8172096	1,81771421	0,045057564905922131	5	-0,00959473662	8,19017732E-005
2	1	0	0	0	3634,49	1,82971072	1,8300544	0,043729151181954195	5	-0,00953876134	8,00267226E-005
2	1	0	0	0	3635,74	1,84221148	1,84282565	0,042664192160979469	5	-0,00948426314	7,86226665E-005
2	1	0	1	0	3636,99	1,85471261	1,85538638	0,041766076882292166	5	-0,0094309831	7,74922082E-005
2	1	0	1	0	3638,24	1,86721361	1,86775661	0,040984357794513926	5	-0,00937878154	7,65488076E-005
2	1	0	0	0	3639,49	1,87971437	1,88019717	0,040339372576757568	5	-0,00932747498	7,58459719E-005
2	1	0	0	0	3640,74	1,89221549	1,89275789	0,039819442599158042	5	-0,00927698333	7,53685672E-005
2	1	0	1	0	3641,99	1,90471625	1,90539873	0,039374625843871968	5	-0,00922714267	7,50243635E-005
2	1	0	1	0	3643,24	1,91721725	1,91775894	0,038982923259027194	5	-0,00917789899	7,4759846E-005
2	1	0	0	0	3644,49	1,92971838	1,93029988	0,038657045603031181	5	-0,00912912469	7,46196893E-005
2	1	0	0	0	3645,74	1,94221914	1,94296062	0,038373921697105517	5	-0,00908079743	7,45590223E-005
2	1	0	1	0	3647,00	1,95472014	1,95523071	0,037999395533309555	5	-0,00903278403	7,42975826E-005
2	1	0	1	0	3648,25	1,96722126	1,96769118	0,037801166462789638	5	-0,0089850584	7,43810233E-005
2	1	0	0	0	3649,50	1,97972202	1,98005152	0,03770257073726224	5	-0,00893751718	7,4653035E-005
2	1	0	0	0	3650,75	1,99222314	1,99280262	0,037609315128065645	5	-0,00889015757	7,49479441E-005
2	1	0	1	0	3652,00	2,00472403	2,00530314	0,037592979865924691	5	-0,00884289388	7,53853237E-005
2	1	0	1	0	3653,25	2,01722503	2,01775384	0,03743920971949888	5	-0,00879574288	7,55431101E-005
2	1	0	0	0	3654,50	2,02972603	2,02997351	0,037324766162782797	5	-0,00874867197	7,57682865E-005
2	1	0	0	0	3655,75	2,04222679	2,04285502	0,037275877984938918	5	-0,00870170724	7,6149212E-005
2	1	0	1	0	3657,00	2,05472708	2,05513501	0,037288579454495654	5	-0,00865480024	7,66330631E-005
2	1	0	1	0	3658,25	2,06722879	2,06775594	0,037295159456940896	5	-0,00860794075	7,71172854E-005
2	1	0	1	0	3659,50	2,0797286	2,08043599	0,037267663801068717	5	-0,00856111478	7,753299E-005
2	1	0	0	0	3660,75	2,0922308	2,09287739	0,037011552737870515	5	-0,00851431675	7,74606451E-005
2	1	0	0	0	3662,00	2,10473156	2,10531783	0,03719745988685952	5	-0,00846750382	7,83124779E-005
2	1	0	1	0	3663,25	2,11723256	2,1174376	0,037217058076445613	5	-0,00842062198	7,88047982E-005
2	1	0	1	0	3664,50	2,12973356	2,13007832	0,037362610038447539	5	-0,00837369263	7,95852829E-005
2	1	0	0	0	3665,75	2,14223456	2,14259934	0,037391022914865293	5	-0,00832667947	8,01139831E-005
2	1	0	0	0	3667,00	2,15473533	2,15509987	0,037435357439487059	5	-0,00827959925	8,06769312E-005
2	1	0	1	0	3668,25	2,16723633	2,16793108	0,03751488473305159	5	-0,00823238678	8,13296865E-005
2	1	0	1	0	3669,50	2,17973733	2,18017101	0,0376549846647928	5	-0,0081850728	8,20943096E-005
2	1	0	0	0	3670,75	2,19223833	2,19283199	0,037808194087119885	5	-0,00813760515	8,29070195E-005
2	1	0	0	0	3672,00	2,20473909	2,20506191	0,037964977663553638	5	-0,00809002109	8,37151238E-005
2	1	0	1	0	3673,25	2,21724033	2,21780324	0,038002815747555872	5	-0,00804224238	8,42827649E-005
2	1	0	1	0	3674,50	2,2297411	2,23023367	0,03809788011130871	5	-0,00799430534	8,49671778E-005
2	1	0	0	0	3675,75	2,2422421	2,24271417	0,038279269026437107	5	-0,00794614479	8,58494604E-005
2	1	0	0	0	3677,00	2,2547431	2,25534511	0,038520123120785286	5	-0,00789780263	8,68761708E-005
2	1	0	1	0	3678,25	2,2672441	2,26787567	0,038702196567707238	5	-0,00784922764	8,77717684E-005
2	1	0	1	0	3679,50	2,27974486	2,28031611	0,038894419936695955	5	-0,00780042587	8,86915732E-005
2	1	0	0	0	3680,75	2,2922461	2,29248595	0,039013773707362419	5	-0,00775133586	8,94385303E-005
2	1	0	0	0	3682,00	2,30474687	2,30514693	0,039271001325687558	5	-0,00770197622	9,05254274E-005
2	1	0	1	0	3683,25	2,31724787	2,3176775	0,039555746712721798	5	-0,00765228318	9,16774661E-005
2	1	0	1	0	3684,50	2,32974887	2,33018827	0,039864924910943846	5	-0,00760229211	9,28927839E-005
2	1	0	1	0	3685,75	2,34224916	2,3425777	0,040129218802694157	5	-0,00755194761	9,40058162E-005
2	1	0	0	0	3687,00	2,35475063	2,35512924	0,040262310911202861	5	-0,00750129297	9,48229426E-005
2	1	0	1	0	3688,25	2,36725283	2,36761093	0,040467228613046803	5	-0,00745029841	9,58106539E-005
2	1	0	1	0	3689,50	2,37975264	2,38021064	0,04074250174259479	5	-0,00739901746	9,69757384E-005
2	1	0	1	0	3690,75	2,39225364	2,39280128	0,041050014221885478	5	-0,00734737981	9,82245256E-005
2	1	0	0	0	3692,00	2,4047544	2,40522194	0,041336391645017901	5	-0,00729540503	9,94231959E-005
2	1	0	0	0	3693,25	2,41725564	2,41772246	0,041739453571305261	5	-0,00724300649	0,000100914418
2	1	0	1	0	3694,50	2,4297564	2,43044353	0,04216134932357815	5	-0,0071901707	0,000102470782
2	1	0	1	0	3695,75	2,4422574	2,44297409	0,042616898853641952	5	-0,00713683199	0,000104111983
2	1	0	0	0	3697,00	2,45475841	2,45520401	0,04311123027582647	5	-0,00708296802	0,000105846862
2	1	0	0	0	3698,25	2,46725917	2,46794534	0,043613516647989402	5	-0,00702852709	0,000107635773
2	1	0	1	0	3699,50	2,47976017	2,48017502	0,044034027426581248	5	-0,00697352737	0,000109212095
2	1	0	1	0	3700,75	2,49226141	2,4927659	0,044340991444187014	5	-0,00691796932	0,000110531713
2	1	0	0	0	3702,00	2,50476217	2,50507617	0,044700794193583251	5	-0,00686195167	0,000111978894
2	1	0	0	0	3703,25	2,51726317	2,51793766	0,045189126210364973	5	-0,00680541573	0,000113783404
2	1	0	1	0	3704,50	2,52976418	2,53017735	0,045568631438072659	5	-0,00674839551	0,000115296716
2	1	0	1	0	3705,75	2,54226518	2,54275823	0,046032930248959936	5	-0,00669087842	0,000117050615
2	1	0	0	0	3707,00	2,55476594	2,55522895	0,046355619269888851	5	-0,00663284166	0,000118449221
2	1	0	0	0	3708,25	2,56726694	2,56780982	0,04683491299510928	5	-0,00657425774	0,000120263147
2	1	0	1	0	3709,50	2,57976794	2,58016992	0,047297082065294093	5	-0,00651510293	0,000122034508
2	1	0	1	0	3710,75	2,59226894	2,59280086	0,047825090616243104	5	-0,00645538652	0,00012400093
2	1	0	0	0	3712,00	2,60476971	2,60537171	0,04827147618440608	5	-0,00639508944	0,000125765146
2	1	0	0	0	3713,25	2,61727095	2,61751127	0,048731304899168672	5	-0,00633420423	0,00012755474
2	1	0	1	0	3714,50	2,62977219	2,63020492	0,049111208323531661	5	-0,0062726927	0,000129172535
2	1	0	1	0	3715,75	2,64227271	2,64290333	0,049688408733345568	5	-0,00621056883	0,000131321664
2	1	0	1	0	3717,00	2,65477324	2,65502262	0,050188830884770771	5	-0,00614780188	0,000133252484
2	1	0	0	0	3718,25	2,66727448	2,66775417	0,05083536168482761	5	-0,00608437369	0,000135616254
2	1	0	0	0	3719,50	2,67977548	2,68024492	0,051291537645738464	5	-0,00602026097	0,000137473879
2	1	0	1	0	3720,75	2,69227672	2,69273543	0,051783807633910355	5	-0,00595546886	0,00013944009
2	1	0	1	0	3722,00	2,70477724	2,705266	0,052410043213361011	5	-0,00588996662	0,000141783108
2	1	0	0	0	3723,25	2,71727848	2,71758604	0,052985189890023098	5	-0,00582377659	0,000143991812
2	1	0	0	0	3724,50	2,72977948	2,73029733	0,053610576801778054	5	-0,00575686991	0,000146372811
2	1	0	1	0	3725,75	2,74228024	2,74295831	0,054188975734481005	5	-0,00568927918	0,000148638108
2	1	0	1	0	3727,00	2,75478125	2,75531864	0,054623260938872864	5	-0,00562096573	0,000150504493
2	1	0	0	0	3728,25	2,76728225	2,7677989	0,055164868729965069	5	-0,0055519552	0,000152685257
2	1	0	0	0	3729,50	2,77978301	2,78004909	0,055751369781015917	5	-0,00548222801	0,000154991547
2	1	0	1	0	3730,75	2,79228425	2,79282999	0,056390352139715136	5	-0,00541178184	0,00015748867
2	1	0	1	0	3732,00	2,80478501	2,80526066	0,056983931319943168	5	-0,00534060504	0,000159854782
2	1	0	0	0	3733,25	2,81728625	2,818012	0,057500730831331334	5	-0,00526872557	0,000162037744
2	1	0	0	0	3734,50	2,82978702	2,82998133	0,058040001623642867	5	-0,00519609312	0,000164252124
2	1	0	1	0	3735,75	2,84228802	2,84269238	0,058665044586329344	5	-0,005122717	0,00016676668
2	1	0	1	0	3737,00	2,85478902	2,85501242	0,059312802351390298	5	-0,00504858093	0,000169338789
2	1	0	0	0	3738,25	2,86728978	2,86777353	0,059962140279821824	5	-0,00497369375	0,000171957843
2	1	0	0	0	3739,50	2,87979054	2,88028431	0,060532881858913485	5	-0,00489803543	0,00017435191
2	1	0	1	0	3740,75	2,89229202	2,89276481	0,061012549849692736	5	-0,00482160598	0,000176494956
2	1	0	1	0	3742,00	2,90479255	2,90523529	0,061640124515785485	5	-0,00474439608	0,00017907907
2	1	0	0	0	3743,25	2,91729307	2,91785574	0,062262765068948006	5	-0,0046664835	0,000181673764
2	1	0	0	0	3744,50	2,92979479	2,9302063	0,062847717800953779	5	-0,00458776252	0,000184156772
2	1	0	0	0	3745,75	2,9422946	2,94281507	0,063474752199228762	5	-0,00450828066	0,000186794452
2	1	0	1	0	3747,00	2,95479655	2,95513749	0,064224877045489792	5	-0,00442800066	0,00018979334
2	1	0	1	0	3748,25	2,96729755	2,96795893	0,064897491208588237	5	-0,00434696395	0,000192613094
2	1	0	0	0	3749,50	2,97979832	2,9802587	0,065594493915947763	5	-0,00426507788	0,000195488567
2	1	0	0	0	3750,75	2,99229956	2,99267936	0,0663145509315648	5	-0,00418236153	0,00019845819
2	1	0	1	0	3752,00	3,00480032	3,0051198	0,067106419689177293	5	-0,00409876136	0,000201662828
2	1	0	1	0	3753,25	3,01730132	3,01778078	0,067697061807848512	5	-0,00401430391	0,000204294891
2	1	0	0	0	3754,50	3,02980232	3,03032136	0,068403960826496358	5	-0,00392888905	0,000207285979
2	1	0	0	0	3755,75	3,04230332	3,04269171	0,069166856080604019	5	-0,00384254218	0,000210453421
2	1	0	1	0	3757,00	3,05480409	3,05508208	0,070033638990328883	5	-0,00375520391	0,000213958512
2	1	0	1	0	3758,25	3,06730509	3,06773281	0,070845535277233472	5	-0,00366688799	0,000217335168
2	1	0	0	0	3759,50	3,07980585	3,08035398	0,071669102161346611	5	-0,00357753644	0,000220766204
2	1	0	0	0	3760,75	3,09230733	3,09271407	0,072401224266892774	5	-0,00348716159	0,000223916286
2	1	0	1	0	3762,00	3,10480785	3,10522485	0,073277069915396621	5	-0,00339573296	0,000227541779
2	1	0	1	0	3763,25	3,11730909	3,1176753	0,074124500834538086	5	-0,00330327475	0,000231096128
2	1	0	0	0	3764,50	3,12980962	3,13046646	0,075067720453565414	5	-0,00320974085	0,000234996987
2	1	0	0	0	3765,75	3,14231062	3,14268613	0,075935759096561894	5	-0,00311512104	0,000238642257
2	1	0	1	0	3767,00	3,15481162	3,1553669	0,076771919518553894	5	-0,00301936734	0,000242243579
2	1	0	1	0	3768,25	3,16731238	3,16780758	0,07765147635169911	5	-0,00292247673	0,000245984935
2	1	0	0	0	3769,50	3,17981339	3,1802783	0,078711933184725248	5	-0,00282437238	0,000250325858
2	1	0	0	0	3770,75	3,19231439	3,19277859	0,079714370988464678	5	-0,00272501865	0,000254510349
2	1	0	0	0	3772,00	3,20481491	3,20518851	0,080906426387486579	5	-0,00262435852	0,000259320339
2	1	0	1	0	3773,25	3,21731639	3,21768951	0,081898061907850202	5	-0,00252231024	0,000263522525
2	1	0	1	0	3774,50	3,22981763	3,23042083	0,083055516741185498	5	-0,00241884775	0,000268304284
2	1	0	0	0	3775,75	3,24231815	3,24302197	0,084363773892012659	5	-0,0023138239	0,000273593585
2	1	0	0	0	3777,00	3,25481915	3,25539184	0,085738951941796595	5	-0,00220721937	0,000279113883
2	1	0	1	0	3778,26	3,26732016	3,2679832	0,087172327233323136	5	-0,00209887861	0,000284877693
2	1	0	1	0	3779,51	3,27982116	3,28053331	0,088645517399224026	5	-0,00198875694	0,000290804572
2	1	0	0	0	3780,76	3,29232216	3,29266334	0,090086589412142976	5	-0,00187666947	0,000296624814
2	1	0	0	0	3782,01	3,30482292	3,30516386	0,091824245833170611	5	-0,00176255871	0,000303494191
2	1	0	1	0	3783,26	3,31732392	3,31796503	0,093639952712692326	5	-0,00164623489	0,0003106941
2	1	0	1	0	3784,51	3,32982492	3,33026528	0,095588768696567514	5	-0,00152760767	0,000318335951
2	1	0	0	0	3785,76	3,34232593	3,34291625	0,097606881618654886	5	-0,00140652829	0,000326291629
2	1	0	0	0	3787,05	3,35522699	3,3557775	0,099799890924865856	5	-0,00127890334	0,000334906217
2	1	0	1	0	3788,30	3,36772799	3,36820817	0,1019555527018383	5	-0,00115241006	0,000343407533
2	1	0	1	0	3789,55	3,38022876	3,38075852	0,10427694651298248	5	-0,00102308136	0,000352535164
2	1	0	0	0	3790,80	3,39272976	3,39336991	0,10677817766554653	5	-0,000890692289	0,000362337858
2	1	0	0	0	3792,05	3,40523076	3,40597057	0,10937512169281627	5	-0,000755189278	0,000372528448
2	1	0	1	0	3793,30	3,41773176	3,41833067	0,11213463502159934	5	-0,000616327976	0,00038331325
2	1	0	1	0	3794,55	3,43023276	3,4309113	0,11486960559462499	5	-0,000474082248	0,000394107425
2	1	0	0	0	3795,80	3,44273353	3,44311142	0,11758049457178765	5	-0,000328249327	0,000404842751
2	1	0	0	0	3797,05	3,45523453	3,45577216	0,12051877212555418	5	-0,000178830407	0,000416485418
2	1	0	1	0	3798,30	3,46773553	3,46806216	0,12355439217450714	5	-2,56698058E-005	0,000428494299
2	1	0	1	0	3799,55	3,48023653	3,48072338	0,12666184288294336	5	0,000131261229	0,000440874835
2	1	0	0	0	3800,80	3,49273753	3,4933846	0,12989086440453957	5	0,000292160432	0,000453758752
2	1	0	0	0	3802,05	3,50523829	3,50568461	0,1332753919608276	5	0,000457108166	0,000467221485
2	1	0	1	0	3803,30	3,5177393	3,51810479	0,13682575518108419	5	0,00062635506	0,000481367344
2	1	0	1	0	3804,55	3,5302403	3,53082585	0,1404970841249451	5	0,000800036825	0,000496070716
2	1	0	1	0	3805,80	3,54274058	3,54324603	0,14437448029912493	5	0,000978365191	0,000511554303
2	1	0	0	0	3807,05	3,5552423	3,55573702	0,14834402889634202	5	0,00116152922	0,000527472352
2	1	0	0	0	3808,30	3,5677433	3,56828737	0,1523524969040105	5	0,00134974252	0,000543637492
2	1	0	1	0	3809,55	3,58024406	3,58093858	0,15655784755169088	5	0,00154322491	0,000560624059
2	1	0	1	0	3810,80	3,59274507	3,5935595	0,16099848074372835	5	0,00174211501	0,000578557607
2	1	0	0	0	3812,05	3,60524607	3,60583949	0,16546557901892717	5	0,00194654358	0,00059664232
2	1	0	0	0	3813,30	3,61774707	3,61811948	0,16987769414360333	5	0,00215646648	0,0006146378
2	1	0	1	0	3814,55	3,63024807	3,63072062	0,1740673461851352	5	0,0023718006	0,000631989911
2	1	0	1	0	3815,80	3,64274883	3,6432209	0,17801022642136922	5	0,00259226328	0,000648530549
2	1	0	0	0	3817,05	3,65524983	3,65585184	0,18170985261288685	5	0,00281757582	0,000664304302
2	1	0	0	0	3818,30	3,66775084	3,66817212	0,18515407980885274	5	0,00304725254	0,000679177057
2	1	0	1	0	3819,55	3,68025184	3,68082285	0,18824773499121238	5	0,00328098563	0,000692906557
2	1	0	1	0	3820,80	3,69275284	3,69322324	0,19124451368891926	5	0,00351846078	0,000706308696
2	1	0	0	0	3822,05	3,7052536	3,70554352	0,19387106345190387	5	0,00375955505	0,00071839767
2	1	0	0	0	3823,30	3,7177546	3,71821475	0,19655774168980566	5	0,00400401093	0,000730843924
2	1	0	1	0	3824,55	3,7302556	3,73078537	0,19898145591529648	5	0,00425181398	0,000742357108
2	1	0	1	0	3825,80	3,74275661	3,7433157	0,2017504041238376	5	0,00450272486	0,000755215471
2	1	0	0	0	3827,05	3,75525761	3,75572658	0,20436607363323328	5	0,00475693354	0,000767543097
2	1	0	0	0	3828,30	3,76775861	3,76825738	0,20689809454294528	5	0,00501431711	0,000779645285
2	1	0	1	0	3829,55	3,78025937	3,78074741	0,20953177986666515	5	0,00527504692	0,000792186707
2	1	0	1	0	3830,80	3,79276037	3,79315782	0,21225405717268541	5	0,00553902984	0,000805113115
2	1	0	1	0	3832,05	3,8052609	3,80589843	0,21503015238364797	5	0,00580648612	0,00081838289
2	1	0	0	0	3833,30	3,81776237	3,81855011	0,21803966940691088	5	0,00607746979	0,000832595397
2	1	0	0	0	3834,55	3,83026361	3,83075047	0,22106289392684266	5	0,0063522188	0,000846836774
2	1	0	1	0	3835,80	3,84276414	3,84328103	0,22408119697744589	5	0,00663083	0,000861207023
2	1	0	1	0	3837,05	3,85526514	3,85561085	0,22744102659635213	5	0,00691351295	0,000876924081
2	1	0	0	0	3838,30	3,86776614	3,86811113	0,23090155003592461	5	0,0072004674	0,000893152843
2	1	0	0	0	3839,55	3,88026714	3,88094282	0,23455239972099597	5	0,00749177439	0,000910284463
2	1	0	1	0	3840,80	3,89276814	3,89342332	0,23821589513681808	5	0,00778763089	0,000927475339
2	1	0	1	0	3842,05	3,90526891	3,90571356	0,24187640411158285	5	0,00808811001	0,000944699976
2	1	0	0	0	3843,30	3,91776991	3,91826391	0,24569540726952211	5	0,0083933631	0,000962699472
2	1	0	0	0	3844,55	3,93027091	3,93087506	0,24971172686976707	5	0,00870347489	0,000981585588
2	1	0	1	0	3845,80	3,94277191	3,94335556	0,25383624100747104	5	0,00901866052	0,00100096653
2	1	0	1	0	3847,05	3,95527291	3,95573592	0,25801599180946765	5	0,00933895819	0,00102064316
2	1	0	0	0	3848,30	3,96777391	3,96799588	0,26204339011261802	5	0,00966448244	0,00103978708
2	1	0	0	0	3849,55	3,98027468	3,98107767	0,26601654733531178	5	0,00999508426	0,00105903251
2	1	0	1	0	3850,80	3,99277568	3,99316764	0,26992324530147059	5	0,0103307283	0,00107784872
2	1	0	1	0	3852,05	4,00527668	4,00568771	0,27388044144026934	5	0,0106712347	0,00109707948
2	1	0	0	0	3853,30	4,01777744	4,01831865	0,27767587251340496	5	0,0110165821	0,0011157901
2	1	0	0	0	3854,55	4,03027868	4,03093004	0,28151955812548656	5	0,0113666225	0,00113478559
2	1	0	1	0	3855,80	4,04277945	4,04340029	0,28518372417117142	5	0,0117213055	0,00115311192
2	1	0	1	0	3857,05	4,05528021	4,05583048	0,28874104314794022	5	0,0120804086	0,0011710847
2	1	0	0	0	3858,30	4,06778145	4,06850147	0,29192653818366355	5	0,0124437362	0,00118770357
2	1	0	0	0	3859,55	4,08028221	4,08093214	0,2947730516704432	5	0,012810736	0,00120294886
2	1	0	1	0	3860,80	4,09278393	4,09322309	0,29711024054373427	5	0,0131809842	0,00121613848
2	1	0	1	0	3862,05	4,10528421	4,10568285	0,29883189111327014	5	0,0135538187	0,00122690899
2	1	0	0	0	3863,30	4,11778498	4,11819315	0,30044852592982349	5	0,0139288679	0,00123730511
2	1	0	0	0	3864,55	4,13028622	4,13093472	0,30204114581768614	5	0,0143057797	0,00124771229
2	1	0	1	0	3865,80	4,14278698	4,14331484	0,30369699645476979	5	0,014684746	0,00125831226
2	1	0	1	0	3867,05	4,15528822	4,15575504	0,30572400048064762	5	0,0150659084	0,0012705141
2	1	0	0	0	3868,30	4,16778851	4,16851616	0,30797781834068518	5	0,0154497921	0,00128381047
2	1	0	0	0	3869,55	4,18028975	4,18088675	0,31072457646951168	5	0,0158367716	0,0012991043
2	1	0	1	0	3870,80	4,19279099	4,19339705	0,31395931006409139	5	0,0162276067	0,00131655601
2	0	0	1	1	3872,00	4,19519091	4,19562292	0,26606144693990518	5	0,0165920425	0,00111629348
2	0	0	0	1	3873,25	4,18269014	4,18356323	0,20683138553673962	5	0,0168834794	0,000865292153
2	0	0	0	1	3874,50	4,17018938	4,17080212	0,1681285549808913	5	0,0171157569	0,000701230951
2	0	0	1	1	3875,75	4,15768814	4,1584115	0,13988672623721232	5	0,0173068307	0,000581706583
2	0	0	1	1	3877,00	4,14518738	4,14578056	0,1182062498604255	5	0,0174669679	0,000490057166
2	0	0	0	1	3878,25	4,13268614	4,13349056	0,10109277061807603	5	0,0176031068	0,000417866017
2	0	0	0	1	3879,50	4,12018538	4,12072945	0,087246286255928448	5	0,0177200679	0,000359518337
2	0	0	1	1	3880,75	4,10768461	4,10810852	0,07584043355503401	5	0,0178214181	0,000311560725
2	0	0	1	1	3882,00	4,09518337	4,09585905	0,066225662206610189	5	0,0179096796	0,000271250989
2	0	0	0	1	3883,25	4,08268261	4,08310747	0,05793911135212215	5	0,0179868843	0,000236571621
2	0	0	0	1	3884,50	4,07018137	4,07059669	0,050837016761457798	5	0,0180544965	0,000206936995
2	0	0	1	1	3885,79	4,05728054	4,05793571	0,044281979469815155	5	0,0181155279	0,000179693423
2	0	0	1	1	3887,04	4,0447793	4,04516459	0,03897263390050887	5	0,0181671847	0,00015765072
2	0	0	0	1	3888,29	4,03227949	4,03277493	0,034037652620841517	5	0,0182124209	0,000137266194
2	0	0	0	1	3889,54	4,01977777	4,02025318	0,029503403735967936	5	0,0182516854	0,000118611155
2	0	0	0	1	3890,79	4,00727797	4,00773382	0,025488260860996314	5	0,018285688	0,000102150167
2	0	0	1	1	3892,04	3,99477577	3,99535298	0,021795589821219123	5	0,018314939	8,70810763E-005
2	0	0	0	1	3893,29	3,98227477	3,98266149	0,018593161160242678	5	0,0183398798	7,40502655E-005
2	0	0	0	1	3894,54	3,96977401	3,97025156	0,015630583865762048	5	0,0183608811	6,20573483E-005
2	0	0	0	1	3895,79	3,95727396	3,95758104	0,012872118805256738	5	0,018378308	5,09424535E-005
2	0	0	1	1	3897,04	3,94477201	3,94525027	0,010296691141168893	5	0,018392453	4,06230247E-005
2	0	0	1	1	3898,29	3,9322722	3,93254113	0,0079921732952251136	5	0,0184036028	3,14295503E-005
2	0	0	0	1	3899,54	3,91977	3,92038918	0,0058686636099688704	5	0,0184120014	2,30074456E-005
2	0	0	0	1	3900,83	3,90686893	3,90734744	0,0035917564540189491	5	0,0184180234	1,40342399E-005
2	0	0	1	1	3902,09	3,89436817	3,89490676	0,0019439671517223616	5	0,0184214842	7,57157068E-006
2	0	0	1	1	3903,34	3,88186717	3,88231635	0,00035854307452609645	5	0,0184227917	1,39197766E-006
2	0	0	0	1	3904,59	3,86936617	3,86988592	-0,001238752666419412	5	0,0184221715	4,79383152E-006
2	0	0	0	1	3905,84	3,85686517	3,85740542	-0,0026017295391890586	5	0,0184197165	1,00359257E-005
2	0	0	1	1	3907,09	3,84436417	3,84497476	-0,0039839850566446912	5	0,0184156094	1,53183228E-005
2	0	0	1	1	3908,34	3,8318634	3,83222342	-0,0050211944459685242	5	0,0184099488	1,92423395E-005
2	0	0	0	1	3909,59	3,8193624	3,81963277	-0,0061168487688216256	5	0,0184029136	2,33641167E-005
2	0	0	0	1	3910,84	3,8068614	3,80736279	-0,0071432839977206003	5	0,0183945205	2,7197073E-005
2	0	0	1	1	3912,09	3,7943604	3,7947917	-0,0081602555073914394	5	0,0183849372	3,09664683E-005
2	0	0	1	1	3913,34	3,7818594	3,78225136	-0,0090676024556160179	5	0,0183741897	3,42959502E-005
2	0	0	0	1	3914,61	3,76915884	3,7696352	-0,0095979079414974106	5	0,0183622204	3,61806124E-005
2	0	0	0	1	3915,88	3,75645757	3,75718021	-0,01046539396581167	5	0,0183492135	3,932037E-005
2	0	0	1	1	3917,13	3,74395657	3,74445915	-0,011048516423519075	5	0,0183354467	4,13707166E-005
2	0	0	1	1	3918,38	3,73145556	3,73200846	-0,011752490810370824	5	0,0183207635	4,38603965E-005
2	0	0	0	1	3919,63	3,71895504	3,71933746	-0,0124588982531956	5	0,0183052924	4,6338846E-005
2	0	0	0	1	3920,88	3,70645356	3,70691657	-0,013149430650325146	5	0,0182889029	4,8743841E-005
2	0	0	1	1	3922,13	3,69395256	3,69445634	-0,01384725582708296	5	0,0182717033	5,11580838E-005
2	0	0	1	1	3923,38	3,6814518	3,68204594	-0,014421557396417539	5	0,0182536822	5,31008372E-005
2	0	0	0	1	3924,63	3,66895032	3,66923451	-0,014953298205387322	5	0,0182348993	5,48671596E-005
2	0	0	0	1	3925,88	3,65644979	3,65712476	-0,015619088992631738	5	0,0182153359	5,71209566E-005
2	0	0	0	1	3927,13	3,64394999	3,64442611	-0,016211298734997382	5	0,0181950405	5,90808813E-005
2	0	0	1	1	3928,38	3,63144779	3,63190341	-0,016837955190567357	5	0,0181740131	6,11538271E-005
2	0	0	1	1	3929,63	3,61894774	3,61945271	-0,017327509920932771	5	0,0181523096	6,27161062E-005
2	0	0	0	1	3930,88	3,60644603	3,60689235	-0,017737310025646963	5	0,0181299001	6,39765713E-005
2	0	0	0	1	3932,13	3,59394503	3,59456229	-0,018232396318732525	5	0,0181068592	6,55374824E-005
2	0	0	1	1	3933,38	3,5814445	3,5820713	-0,018729697355108099	5	0,0180831924	6,70911104E-005
2	0	0	1	1	3934,63	3,5689435	3,56967092	-0,019177401937971184	5	0,0180589873	6,84570114E-005
2	0	0	0	1	3935,88	3,55644226	3,55699992	-0,019577539293095526	5	0,0180342495	6,96373027E-005
2	0	0	0	1	3937,13	3,54394126	3,54440904	-0,020023033309068211	5	0,0180090163	7,09698215E-005
2	0	0	1	1	3938,38	3,53144026	3,53189874	-0,02048432111526688	5	0,0179832932	7,234855E-005
2	0	0	1	1	3939,63	3,51893973	3,51946831	-0,020851667892808707	5	0,0179571509	7,33867855E-005
2	0	0	0	1	3940,88	3,50643873	3,50700784	-0,021230787591775824	5	0,0179305673	7,44565405E-005
2	0	0	0	1	3942,13	3,49393725	3,49439716	-0,021600032715165696	5	0,0179036036	7,54790963E-005
2	0	0	1	1	3943,38	3,48143649	3,48186636	-0,021798144594261798	5	0,0178762339	7,58982278E-005
2	0	0	1	1	3944,63	3,46893549	3,46950626	-0,022000743609775443	5	0,017848514	7,63317148E-005
2	0	0	0	1	3945,88	3,45643449	3,45691514	-0,022333587806012134	5	0,0178204104	7,72053172E-005
2	0	0	0	1	3947,13	3,44393396	3,44449449	-0,022653151284127184	5	0,017791979	7,80286573E-005
2	0	0	1	1	3948,38	3,43143249	3,43190384	-0,022960316433454976	5	0,0177631956	7,87975951E-005
2	0	0	1	1	3949,63	3,41893172	3,41954398	-0,023178776624263187	5	0,0177341029	7,9260848E-005
2	0	0	0	1	3950,88	3,40643072	3,40687251	-0,023378376431840874	5	0,0177046619	7,96471504E-005
2	0	0	0	1	3952,13	3,39392972	3,39459276	-0,023651754905586131	5	0,0176749006	8,0288075E-005
2	0	0	0	1	3953,38	3,38142967	3,38175201	-0,023978603929507181	5	0,0176448151	8,1089689E-005
2	0	0	1	1	3954,63	3,36892819	3,36944103	-0,024248859151460579	5	0,0176144131	8,17051041E-005
2	0	0	1	1	3955,88	3,35642672	3,35685945	-0,024527834255111734	5	0,0175836906	8,23364899E-005
2	0	0	0	1	3957,13	3,34392595	3,34426928	-0,024666785737887664	5	0,0175526533	8,24923773E-005
2	0	0	0	1	3958,38	3,33142424	3,3318584	-0,024903332089015296	5	0,0175212976	8,29743731E-005
2	0	0	1	1	3959,63	3,31892443	3,31945896	-0,025241687350596064	5	0,017489614	8,37887419E-005
2	0	0	1	1	3960,88	3,30642343	3,3067379	-0,02549619977556481	5	0,0174576137	8,43092494E-005
2	0	0	0	1	3962,13	3,29392242	3,29426694	-0,025743053673068173	5	0,0174253061	8,48044874E-005
2	0	0	0	1	3963,38	3,28142118	3,28173661	-0,025967377131261517	5	0,0173926987	8,52180892E-005
2	0	0	1	1	3964,63	3,26892018	3,2693665	-0,026144675153773222	5	0,0173597652	8,5476524E-005
2	0	0	1	1	3965,88	3,25641918	3,25707626	-0,026434853352839184	5	0,0173265506	8,61003355E-005
2	0	0	0	1	3967,13	3,24391866	3,24439502	-0,026702626976960797	5	0,0172930155	8,66338669E-005
2	0	0	0	1	3968,38	3,23141766	3,23180437	-0,026980026227344522	5	0,0172592085	8,71941666E-005
2	0	0	1	1	3969,63	3,21891642	3,21933389	-0,027160190540598762	5	0,0172251053	8,7437722E-005
2	0	0	1	1	3970,88	3,20641541	3,20700359	-0,027266796232045866	5	0,01719076	8,74447142E-005
2	0	0	0	1	3972,13	3,19391489	3,19433284	-0,02750592224765569	5	0,0171561074	8,78630672E-005
2	0	0	0	1	3973,38	3,18141389	3,18182206	-0,027734781431111798	5	0,0171212256	8,82471359E-005
2	0	0	1	1	3974,63	3,16891289	3,16933155	-0,02796779630201257	5	0,0170860589	8,86392227E-005
2	0	0	1	1	3975,88	3,15641165	3,156811	-0,02815987854652735	5	0,0170506854	8,88954164E-005
2	0	0	0	1	3977,13	3,14391065	3,1442101	-0,028264309677372979	5	0,0170150474	8,88689246E-005
2	0	0	0	1	3978,38	3,13140965	3,13175941	-0,02840991083454969	5	0,0169792119	8,89730072E-005
2	0	0	1	1	3979,63	3,11890912	3,11930919	-0,028604791781011494	5	0,0169431437	8,92271928E-005
2	0	0	1	1	3980,88	3,10640812	3,10692883	-0,028789476986276096	5	0,0169068966	8,9446854E-005
2	0	0	0	1	3982,13	3,09390736	3,09436822	-0,028995801626782227	5	0,0168704297	8,97236896E-005
2	0	0	0	1	3983,38	3,08140612	3,08180737	-0,029049741075141344	5	0,016833799	8,95257035E-005
2	0	0	1	1	3984,63	3,06890416	3,06961656	-0,029055456130571034	5	0,0167969652	8,91891104E-005
2	0	0	1	1	3985,88	3,05640435	3,0568862	-0,029204193298937811	5	0,0167600028	8,92738972E-005
2	0	0	1	1	3987,13	3,04390359	3,0443058	-0,029347200654835149	5	0,0167228729	8,93418546E-005
2	0	0	0	1	3988,38	3,03140235	3,03178501	-0,029454453848302419	5	0,01668562	8,9299574E-005
2	0	0	0	1	3989,63	3,01890159	3,01938462	-0,029587853040235814	5	0,0166482236	8,93371107E-005
2	0	0	1	1	3990,88	3,00640035	3,006814	-0,029730066928702112	5	0,0166107398	8,9392779E-005
2	0	0	1	1	3992,13	2,99389958	2,9942832	-0,029853822702231437	5	0,0165731311	8,93908E-005
2	0	0	0	1	3993,38	2,98139858	2,98173237	-0,029973539368559898	5	0,0165354349	8,93730758E-005
2	0	0	0	1	3994,63	2,96889782	2,96916175	-0,03009554467280384	5	0,0164976325	8,93585384E-005
2	0	0	1	1	3995,88	2,95639658	2,95678139	-0,030198493176916083	5	0,0164597593	8,92903408E-005
2	0	0	1	1	3997,13	2,94389558	2,94437122	-0,030108798518388838	5	0,0164217893	8,86514827E-005
2	0	0	0	1	3998,38	2,93139458	2,93197083	-0,030144452757667859	5	0,0163837578	8,83826579E-005
2	0	0	0	1	3999,63	2,91889381	2,91942024	-0,030231976949532198	5	0,0163456462	8,8259847E-005
2	0	0	1	1	4000,88	2,90639281	2,90688944	-0,030270467347387808	5	0,0163075309	8,79928994E-005
2	0	0	1	1	4002,13	2,89389205	2,89430857	-0,030408208714410189	5	0,0162693337	8,801074E-005
2	0	0	0	1	4003,38	2,88139081	2,88187814	-0,030368130411564717	5	0,0162310805	8,75172482E-005
2	0	0	0	1	4004,63	2,86888981	2,8693676	-0,030369986304625062	5	0,0161927845	8,71426528E-005
2	0	0	1	1	4005,88	2,85638905	2,85684705	-0,030408921292594982	5	0,016154455	8,68736388E-005
2	0	0	1	1	4007,13	2,84388828	2,84456682	-0,030517394615647622	5	0,0161160957	8,68087664E-005
2	0	0	0	1	4008,38	2,83138704	2,83177567	-0,03052025206852704	5	0,0160777178	8,64265094E-005
2	0	0	0	1	4009,63	2,81888628	2,81928515	-0,030569367576390618	5	0,0160393324	8,61837616E-005
2	0	0	1	1	4010,88	2,8063848	2,80671382	-0,030363459372588634	5	0,0160009265	8,5221538E-005
2	0	0	1	1	4012,13	2,79388428	2,79426384	-0,030433565271475123	5	0,015962515	8,50394135E-005
2	0	0	0	1	4013,38	2,78138375	2,78195262	-0,03045707990300944	5	0,0159240831	8,47301562E-005
2	0	0	0	1	4014,63	2,76888251	2,7694931	-0,03054753740434535	5	0,0158856492	8,46011972E-005
2	0	0	0	1	4015,88	2,75638247	2,7568419	-0,030519532459109658	5	0,0158471875	8,41375222E-005
2	0	0	1	1	4017,13	2,74388051	2,74433136	-0,030494307565580467	5	0,0158087369	8,36864856E-005
2	0	0	1	1	4018,38	2,73137927	2,73175097	-0,030485720053548051	5	0,0157702677	8,32793958E-005
2	0	0	0	1	4019,63	2,71887851	2,71936059	-0,030534127465216499	5	0,0157318003	8,30333011E-005
2	0	0	0	1	4020,88	2,70637751	2,70675969	-0,030582663758347507	5	0,0156932995	8,27799231E-005
2	0	0	1	1	4022,13	2,69387674	2,6945498	-0,030662246727539808	5	0,0156548005	8,26209507E-005
2	0	0	1	1	4023,38	2,6813755	2,68189883	-0,030572670919355117	5	0,015616253	8,199281E-005
2	0	0	0	1	4024,63	2,6688745	2,66931796	-0,030560934993748704	5	0,015577686	8,15768508E-005
2	0	0	0	1	4025,88	2,65637374	2,65663695	-0,030675833268712038	5	0,0155390324	8,14945524E-005
2	0	0	1	1	4027,13	2,64387298	2,64424682	-0,030721455220676378	5	0,0155003453	8,12351136E-005
2	0	0	1	1	4028,38	2,63137174	2,63185644	-0,03082383148527401	5	0,0154615548	8,11239006E-005
2	0	0	0	1	4029,63	2,61887097	2,61949611	-0,030899362143827603	5	0,0154226832	8,09407575E-005
2	0	0	0	1	4030,88	2,60636973	2,60691547	-0,030862084201847603	5	0,0153836859	8,04548472E-005
2	0	0	1	1	4032,14	2,59386897	2,59447479	-0,031032796240955008	5	0,015344576	8,05138043E-005
2	0	0	1	1	4033,39	2,58136797	2,58200431	-0,0312241198747264	5	0,0153052919	8,06208118E-005
2	0	0	0	1	4034,64	2,56886721	2,56938338	-0,031369816065610566	5	0,015265841	8,06010867E-005
2	0	0	0	1	4035,89	2,55636621	2,55683279	-0,031566899813090854	5	0,0152261909	8,0711281E-005
2	0	0	1	1	4037,14	2,5438652	2,54407167	-0,031567007759197933	5	0,0151863201	8,03087314E-005
2	0	0	1	1	4038,39	2,53136396	2,53192186	-0,031749539407125357	5	0,0151462071	8,03873554E-005
2	0	0	0	1	4039,64	2,5188632	2,51933098	-0,031964264625761005	5	0,0151058426	8,05285599E-005
2	0	0	0	1	4040,89	2,5063622	2,50677037	-0,032224916086609658	5	0,0150651978	8,07804681E-005
2	0	0	0	1	4042,14	2,49386168	2,49441981	-0,032430163357350163	5	0,0150243305	8,08944387E-005
2	0	0	1	1	4043,39	2,4813602	2,48174906	-0,032768107834272198	5	0,0149830971	8,13222214E-005
2	0	0	1	1	4044,64	2,46885872	2,46902752	-0,033071487531433574	5	0,0149415582	8,16544125E-005
2	0	0	0	1	4045,89	2,45635843	2,45664763	-0,033415422435306707	5	0,0148996459	8,20899149E-005
2	0	0	0	1	4047,14	2,44385767	2,44441772	-0,033710757910739629	5	0,0148574132	8,2403174E-005
2	0	0	1	1	4048,39	2,43135643	2,43166685	-0,034060801311473818	5	0,0148148136	8,28245247E-005
2	0	0	1	1	4049,64	2,41885567	2,41942644	-0,034338249611512992	5	0,0147718396	8,30788704E-005
2	0	0	0	1	4050,89	2,40635443	2,40663528	-0,034514423420963226	5	0,0147284763	8,30636272E-005
2	0	0	0	1	4052,14	2,39385366	2,39446545	-0,034832377035248486	5	0,0146847516	8,34049206E-005
2	0	0	1	1	4053,39	2,38135266	2,38160396	-0,035230770775039398	5	0,0146406032	8,39057466E-005
2	0	0	1	1	4054,64	2,3688519	2,36933398	-0,035557371767936166	5	0,0145960664	8,42472873E-005
2	0	0	0	1	4055,89	2,3563509	2,35666299	-0,035927615759040518	5	0,0145511162	8,46692856E-005
2	0	0	0	1	4057,14	2,3438499	2,34440303	-0,03615217658807529	5	0,0145057552	8,47552728E-005
2	0	0	1	1	4058,39	2,33134866	2,3317821	-0,036526027106447034	5	0,0144599611	8,51707373E-005
2	0	0	1	1	4059,64	2,31884789	2,31948185	-0,036902592478630426	5	0,0144137498	8,55948965E-005
2	0	0	0	1	4060,89	2,30634689	2,30657029	-0,037298305561610733	5	0,0143670943	8,60311629E-005
2	0	0	0	1	4062,14	2,29384613	2,29431033	-0,037694880195582867	5	0,0143200178	8,64837566E-005
2	0	0	1	1	4063,39	2,28134513	2,28191018	-0,037967257327788256	5	0,0142724812	8,66378687E-005
2	0	0	1	1	4064,64	2,26884413	2,2695899	-0,03825011584558535	5	0,0142244939	8,68120769E-005
2	0	0	0	1	4065,89	2,25634313	2,25695896	-0,038728660855364749	5	0,0141760483	8,74089965E-005
2	0	0	0	1	4067,14	2,24384236	2,24436808	-0,039016761914050899	5	0,0141271474	8,75679762E-005
2	0	0	1	1	4068,39	2,23134112	2,23175716	-0,039483868749812358	5	0,0140777808	8,81184096E-005
2	0	0	1	1	4069,64	2,2188406	2,21940684	-0,0398089180816896	5	0,0140279401	8,83521861E-005
2	0	0	0	1	4070,89	2,20633841	2,20675468	-0,04011927786641367	5	0,0139776282	8,85334011E-005
2	0	0	0	1	4072,14	2,19383836	2,19430566	-0,040545102140943898	5	0,0139268301	8,89683506E-005
2	0	0	1	1	4073,39	2,18133688	2,18172359	-0,040972565602574342	5	0,0138755729	8,93908145E-005
2	0	0	1	1	4074,64	2,16883659	2,16935444	-0,041427178958353242	5	0,0138237989	8,98702347E-005
2	0	0	1	1	4075,89	2,15633559	2,15683389	-0,041841916051149952	5	0,0137715414	9,02460597E-005
2	0	0	0	1	4077,14	2,14383459	2,14424324	-0,042113903822610285	5	0,0137187475	9,03024556E-005
2	0	0	0	1	4078,39	2,13133335	2,13192296	-0,04249029225320553	5	0,0136654517	9,05860288E-005
2	0	0	1	1	4079,64	2,11883259	2,1190815	-0,042979973145217395	5	0,0136116128	9,10780655E-005
2	0	0	1	1	4080,45	2,11073279	2,11125302	-0,043320577777922157	5	0,0135764685	9,14607008E-005