File: Experimentelles/Rohdaten/Batteriemessungen/AlteZelle/Studenten_Batterietests/LLTO_LP30_Li CV/ECLab-Export/LLTO_LP30_Li_02_CV_C01_loop3.mpt
EC-Lab ASCII FILE
Nb header lines : 3
mode	ox/red	error	control changes	counter inc.	time/s	control/V	Ewe/V	<I>/mA	cycle number	(Q-Qo)/C	P/W
2	0	0	1	0	2760,39	2,11003256	2,11085224	-0,047632526606321338	4	0	0,000100545229
2	0	0	0	0	2761,62	2,09773111	2,0982604	-0,043161331249090496	4	-5,36725092E-005	9,05637135E-005
2	0	0	0	0	2762,87	2,08523011	2,08558941	-0,043747797540466419	4	-0,000108277236	9,1239941E-005
2	0	0	1	0	2764,12	2,07272911	2,07312918	-0,044384215657676973	4	-0,000163638906	9,2014212E-005
2	0	0	1	0	2765,37	2,06022835	2,06076908	-0,044954638705045613	4	-0,000219662776	9,26411303E-005
2	0	0	0	0	2766,62	2,04772735	2,04819822	-0,045362028021675885	4	-0,000276366278	9,29104281E-005
2	0	0	0	0	2767,87	2,03522635	2,03568745	-0,045808613183908275	4	-0,000333701173	9,32520197E-005
2	0	0	1	0	2769,12	2,02272534	2,02325726	-0,046397765574511142	4	-0,000391700538	9,38746161E-005
2	0	0	1	0	2770,37	2,01022434	2,01072645	-0,046921522599101651	4	-0,000450338237	9,43463456E-005
2	0	0	0	0	2771,62	1,99772358	1,99808562	-0,047517767641693357	4	-0,000509649399	9,49445675E-005
2	0	0	0	0	2772,87	1,98522258	1,98545468	-0,048013459134381318	4	-0,000569607073	9,53285489E-005
2	0	0	1	0	2774,13	1,97272146	1,97306442	-0,048497107636649158	4	-0,00063026842	9,56879157E-005
2	0	0	1	0	2775,38	1,96022069	1,96082437	-0,049066511758913632	4	-0,00069161196	9,62108097E-005
2	0	0	0	0	2776,63	1,94771957	1,94827366	-0,049689298359832378	4	-0,000753680535	9,68083477E-005
2	0	0	0	0	2777,88	1,93521881	1,93573308	-0,050324386431990778	4	-0,000816450629	9,74145805E-005
2	0	0	0	0	2779,13	1,92271698	1,92328167	-0,050944024012909318	4	-0,00087995443	9,79797042E-005
2	0	0	1	0	2780,38	1,91021669	1,91064179	-0,051351355175332512	4	-0,000944195956	9,81140474E-005
2	0	0	1	0	2781,63	1,89771593	1,89825141	-0,052032383042387667	4	-0,00100918452	9,87705425E-005
2	0	0	0	0	2782,88	1,88521492	1,88559031	-0,052623540997350118	4	-0,00107495929	9,92264395E-005
2	0	0	0	0	2784,13	1,8727138	1,87334025	-0,053393686170845056	4	-0,00114153326	0,000100024539
2	0	0	1	0	2785,38	1,86021304	1,860569	-0,05408268198758992	4	-0,00120899372	0,000100624558
2	0	0	1	0	2786,63	1,84771204	1,84828913	-0,054810342922185786	4	-0,00127733976	0,000101305362
2	0	0	0	0	2787,88	1,83521116	1,83569825	-0,055533725069835891	4	-0,00134666043	0,000101943158
2	0	0	0	0	2789,13	1,82271016	1,82308733	-0,05641694838413991	4	-0,0014169747	0,000102853024
2	0	0	1	0	2790,38	1,81020904	1,81056666	-0,057324300481317094	4	-0,00148837548	0,000103789469
2	0	0	1	0	2791,63	1,79770827	1,79815638	-0,058287205232772979	4	-0,00156088034	0,000104809507
2	0	0	0	0	2792,88	1,78520727	1,7856257	-0,059251185758815411	4	-0,00163460709	0,000105800442
2	0	0	0	0	2794,13	1,77270615	1,77340579	-0,060183821265430541	4	-0,00170957414	0,000106730338
2	0	0	1	0	2795,38	1,76020539	1,76080501	-0,061350525279218586	4	-0,0017859654	0,00010802631
2	0	0	1	0	2796,63	1,74770439	1,74817419	-0,06264244811609399	4	-0,0018638192	0,000109509914
2	0	0	0	0	2797,88	1,7352035	1,73571348	-0,064033970915867379	4	-0,00194333144	0,000111144625
2	0	0	0	0	2799,13	1,7227025	1,72317278	-0,065514101685645978	4	-0,00202458515	0,000112892114
2	0	0	1	0	2800,38	1,7102015	1,71074247	-0,066958313206366029	4	-0,00210776459	0,000114548428
2	0	0	1	0	2801,63	1,69770062	1,69820166	-0,068582595617044826	4	-0,00219289935	0,000116467076
2	0	0	0	0	2802,88	1,68519962	1,68544054	-0,070356392806085299	4	-0,00228017289	0,00011858152
2	0	0	0	0	2804,13	1,67269874	1,67325079	-0,072101623790028045	4	-0,00236958195	0,000120644101
2	0	0	1	0	2805,38	1,66019773	1,66055965	-0,073874287928144269	4	-0,00246117427	0,00012267266
2	0	0	1	0	2806,63	1,64769673	1,64818943	-0,075534100663692928	4	-0,00255492795	0,000124494502
2	0	0	0	0	2807,88	1,63519621	1,63544834	-0,077369645212826714	4	-0,00265101739	0,000126534054
2	0	0	0	0	2809,13	1,62269485	1,62337863	-0,07949280507940215	4	-0,0027495774	0,000129046923
2	0	0	0	0	2810,38	1,61019385	1,61083806	-0,081923498325825907	4	-0,00285095396	0,000131965484
2	0	0	1	0	2811,63	1,59769297	1,59829736	-0,084625349845737331	4	-0,0029555019	0,000135256472
2	0	0	1	0	2812,88	1,58519197	1,58551586	-0,087885344905468621	4	-0,00306372973	0,00013934361
2	0	0	0	0	2814,13	1,57269108	1,57308578	-0,091811867256183181	4	-0,00317633012	0,000144427948
2	0	0	0	0	2815,38	1,5601902	1,56065524	-0,096691069639443405	4	-0,00329434616	0,000150901426
2	0	0	1	0	2816,67	1,54728925	1,547804	-0,10293682129122362	4	-0,00342325564	0,000159326024
2	0	0	1	0	2817,92	1,53478813	1,53531325	-0,1109785042159881	4	-0,00355706201	0,000170386775
2	0	0	0	0	2819,17	1,52228725	1,52285278	-0,12115775266041328	4	-0,0037021751	0,000184505421
2	0	0	0	0	2820,42	1,50978637	1,51036227	-0,13412033467708851	4	-0,00386165292	0,0002025703
2	0	0	1	0	2821,67	1,49728525	1,49785161	-0,14990957352953683	4	-0,00403911853	0,000224542295
2	0	0	1	0	2822,92	1,48478436	1,48501015	-0,16891752598652054	4	-0,00423842948	0,000250844227
2	0	0	0	0	2824,17	1,47228336	1,47267997	-0,19126622755235712	4	-0,00446367776	0,000281673943
2	0	0	0	0	2825,42	1,45978236	1,46000898	-0,21672483805256614	4	-0,00471876329	0,000316420221
2	0	0	1	0	2826,67	1,4472816	1,44779909	-0,24493774344834218	4	-0,00500741182	0,000354620628
2	0	0	1	0	2827,92	1,43478048	1,43497765	-0,2755553623816631	4	-0,0053328108	0,000395415787
2	0	0	0	0	2829,17	1,4222796	1,42265761	-0,3079444163789351	4	-0,00569781521	0,000438099465
2	0	0	0	0	2830,42	1,40977871	1,41036761	-0,34214430845653056	4	-0,00610441994	0,000482549251
2	0	0	1	0	2831,67	1,39727759	1,39759636	-0,37736990869355802	4	-0,00655450206	0,000527410826
2	0	0	1	0	2832,92	1,38477671	1,38528609	-0,41325808937351027	4	-0,00704895984	0,000572480669
2	0	0	0	0	2834,17	1,37227583	1,3725549	-0,44939691014587846	4	-0,00758863008	0,000616821926
2	0	0	0	0	2835,42	1,35977471	1,36017466	-0,48563974443823053	4	-0,0081735272	0,000660554855
2	0	0	1	0	2836,67	1,34727371	1,3475641	-0,52191827560414336	4	-0,00880390685	0,000703318336
2	0	0	1	0	2837,92	1,33477283	1,33515346	-0,55787004514907859	4	-0,00947934948	0,000744842109
2	0	0	1	0	2839,17	1,32227111	1,32254159	-0,59336216373946906	4	-0,0101994816	0,000784746138
2	0	0	0	0	2840,42	1,30977106	1,31001198	-0,62815600804363802	4	-0,0109634371	0,000822891889
2	0	0	0	0	2841,67	1,29726994	1,29763162	-0,66236745690306176	4	-0,0117704831	0,000859508931
2	0	0	1	0	2842,92	1,28476906	1,28535151	-0,69563008425757376	4	-0,0126198782	0,00089412916
2	0	0	1	0	2844,17	1,27226818	1,27291119	-0,72837917196254054	4	-0,013510501	0,000927162007
2	0	0	0	0	2845,42	1,25976706	1,26022005	-0,76111699795971072	4	-0,0144418729	0,000959174882
2	0	0	0	0	2846,67	1,24726629	1,24768949	-0,79582784014443674	4	-0,0154151069	0,000992945977
2	0	0	1	0	2847,92	1,23476529	1,23544943	-0,83266592367241741	4	-0,01643328	0,00102871668
2	0	0	1	0	2849,17	1,22226429	1,22268832	-0,87039565357069299	4	-0,0174982343	0,00106422254
2	0	0	0	0	2850,42	1,20976341	1,21023786	-0,90807187557220736	4	-0,0186106469	0,00109898299
2	0	0	0	0	2851,67	1,19726229	1,1977272	-0,94404311602314906	4	-0,019768998	0,00113070616
2	0	0	1	0	2852,92	1,18476152	1,1852566	-0,97729463657985075	4	-0,0209708791	0,00115834491
2	0	0	1	0	2854,21	1,17186046	1,17212451	-1,0094430521130589	4	-0,0222532004	0,00118319294
2	0	0	0	0	2855,46	1,15935946	1,15980434	-1,0379282481347546	4	-0,0235337429	0,00120379368
2	0	0	0	0	2856,71	1,14685845	1,14737391	-1,0640569869428874	4	-0,0248483457	0,00122087123
2	0	0	1	0	2857,96	1,13435757	1,13476312	-1,0872238613665104	4	-0,026194036	0,00123374152
2	0	0	1	0	2859,21	1,12185669	1,12228262	-1,1081823029865818	4	-0,0275670458	0,00124369375
2	0	0	0	0	2860,46	1,10935569	1,11003256	-1,1262433802088072	4	-0,0289646387	0,0012501668
2	0	0	0	0	2861,71	1,09685469	1,09727132	-1,142296649826065	4	-0,0303831212	0,00125340931
2	0	0	1	0	2862,96	1,0843538	1,08490109	-1,1559751421834008	4	-0,0318204723	0,00125411875
2	0	0	1	0	2864,21	1,0718528	1,07229018	-1,1674034940078854	4	-0,0332734883	0,00125179533
2	0	0	0	0	2865,46	1,05935085	1,05981898	-1,1771065854353538	4	-0,0347400419	0,00124751986
2	0	0	0	0	2866,71	1,0468508	1,04731917	-1,1847202790280213	4	-0,0362171456	0,00124078023
2	0	0	0	0	2867,96	1,0343504	1,0345571	-1,1903715929394458	4	-0,0377024673	0,0012315074
2	0	0	1	0	2869,21	1,02184904	1,02199721	-1,1937424720575435	4	-0,0391935743	0,00122000149
2	0	0	1	0	2870,46	1,00934803	1,00971711	-1,1947017790128794	4	-0,0406869799	0,00120631082
2	0	0	0	0	2871,71	0,996847153	0,997226536	-1,1933736021940859	4	-0,0421803705	0,00119006378
2	0	0	0	0	2872,96	0,984346211	0,984826207	-1,1894298819825075	4	-0,0436701402	0,00117138168
2	0	0	1	0	2874,21	0,97184521	0,971994817	-1,1828404578069867	4	-0,0451535173	0,00114971481
2	0	0	1	0	2875,46	0,959344268	0,959825099	-1,1735056852921861	4	-0,0466267765	0,00112636026
2	0	0	0	0	2876,71	0,946843326	0,947545052	-1,1616941438987816	4	-0,0480869859	0,00110075751
2	0	0	0	0	2877,96	0,934342384	0,93479377	-1,1473519004260595	4	-0,0495307371	0,00107253739
2	0	0	1	0	2879,21	0,921841383	0,9223333	-1,131584502756601	4	-0,0509558246	0,00104369805
2	0	0	1	0	2880,46	0,909340441	0,909802675	-1,1152690487603394	4	-0,0523604676	0,00101467478
2	1	0	0	0	2881,67	0,902840018	0,903296709	-1,0417866660282006	4	-0,0536927879	0,000941042439
2	1	0	1	0	2882,92	0,91534096	0,915737152	-0,81723130525400294	4	-0,0548477285	0,000748369086
2	1	0	1	0	2884,17	0,927841902	0,928247809	-0,63730077988778342	4	-0,0557523631	0,000591573073
2	1	0	0	0	2885,45	0,940642834	0,940898657	-0,48507348091031187	4	-0,05646706	0,000456404989
2	1	0	0	0	2886,70	0,953143895	0,953690052	-0,3591707676338647	4	-0,0569920205	0,000342537591
2	1	0	1	0	2887,95	0,965644836	0,966130435	-0,25171294862714854	4	-0,0573714189	0,000243187547
2	1	0	1	0	2889,20	0,978145719	0,97846067	-0,15898102956513549	4	-0,0576259568	0,000155556685
2	1	0	0	0	2890,45	0,99064666	0,99112165	-0,078933873776501632	4	-0,0577728227	7,82330681E-005
2	1	0	0	0	2891,74	1,00354755	1,00415349	-0,0073173081521721024	4	-0,0578268096	7,34770038E-006
2	1	0	1	0	2892,99	1,01604855	1,01649368	0,053303874641036	4	-0,0577967614	5,41830523E-005
2	1	0	1	0	2894,28	1,0289495	1,02939522	0,10850303806364515	4	-0,0576911867	0,000111692512
2	1	0	0	0	2895,53	1,04145062	1,04175544	0,15620794337398048	4	-0,0575246587	0,000162730474
2	1	0	0	0	2896,78	1,0539515	1,05445659	0,19921477961664368	4	-0,0573016331	0,000210063343
2	1	0	1	0	2898,04	1,06645238	1,06714761	0,23856404462518848	4	-0,0570270382	0,00025458305
2	1	0	1	0	2899,29	1,07895339	1,0792774	0,27503826717535683	4	-0,056705229	0,000296842598
2	1	0	0	0	2900,54	1,09145427	1,09197843	0,30921698547899725	4	-0,0563392676	0,000337658275
2	1	0	0	0	2901,79	1,10395527	1,10458934	0,34154556039720774	4	-0,0559319742	0,000377267599
2	1	0	1	0	2903,04	1,11645627	1,11693943	0,3723741450812663	4	-0,0554850735	0,000415919378
2	1	0	1	0	2904,29	1,12895703	1,12936985	0,40195239909614067	4	-0,055000443	0,000453952933
2	1	0	0	0	2905,54	1,14145815	1,14191067	0,43093032358834906	4	-0,0544790179	0,000492083956
2	1	0	0	0	2906,79	1,15395904	1,15440106	0,45928887541716358	4	-0,0539219491	0,000530203572
2	1	0	1	0	2908,04	1,16646004	1,16689157	0,48723538483803354	4	-0,0533296764	0,000568550837
2	1	0	1	0	2909,29	1,17896104	1,17945242	0,51462859132637376	4	-0,0527030379	0,000606979942
2	1	0	0	0	2910,54	1,19146192	1,19197309	0,54172737306604992	4	-0,0520420857	0,000645724474
2	1	0	0	0	2911,79	1,20396292	1,20434332	0,56869583235432762	4	-0,0513474382	0,000684905041
2	1	0	0	0	2913,04	1,21646249	1,2169224	0,59521586044070003	4	-0,0506193787	0,000724331534
2	1	0	1	0	2914,29	1,22896469	1,22948492	0,62123044611265318	4	-0,0498583764	0,000763793476
2	1	0	1	0	2915,54	1,24146581	1,24189532	0,64690685396393024	4	-0,0490652323	0,000803390576
2	1	0	0	0	2916,79	1,25396669	1,2544359	0,6716961219596343	4	-0,0482403524	0,000842599722
2	1	0	0	0	2918,04	1,26646757	1,26704681	0,69592399926234803	4	-0,0473848246	0,000881768297
2	1	0	1	0	2919,29	1,27896869	1,27953732	0,71895993625124531	4	-0,0464995913	0,00091993605
2	1	0	1	0	2920,54	1,29146957	1,29196775	0,74163543262208269	4	-0,0455859303	0,000958169054
2	1	0	0	0	2921,79	1,30397058	1,30450845	0,76325983926653594	4	-0,0446445197	0,000995678944
2	1	0	0	0	2923,04	1,31647158	1,31685865	0,78384964074939494	4	-0,04367695	0,00103221915
2	1	0	1	0	2924,29	1,32897234	1,32925904	0,80349161041279514	4	-0,0426841453	0,00106804853
2	1	0	1	0	2925,54	1,34147346	1,3421005	0,82209698390215642	4	-0,0416676775	0,00110333681
2	1	0	0	0	2926,79	1,35397434	1,3543905	0,83964949784179584	4	-0,0406284779	0,00113721332
2	1	0	0	0	2928,04	1,36647522	1,36686099	0,85628959319243238	4	-0,0395681411	0,00117042882
2	1	0	1	0	2929,29	1,37897635	1,37937164	0,87169889360666278	4	-0,0384875871	0,0012023967
2	1	0	1	0	2930,54	1,39147723	1,39177203	0,88639654405414707	4	-0,0373883396	0,0012336619
2	1	0	0	0	2931,79	1,40397811	1,40410233	0,90040138115485568	4	-0,0362709984	0,00126425573
2	1	0	0	0	2933,04	1,41647923	1,41700375	0,91379870691647194	4	-0,0351367667	0,00129485619
2	1	0	1	0	2934,29	1,42897999	1,42945421	0,92798406723886464	4	-0,0339853615	0,00132651068
2	1	0	1	0	2935,54	1,44148111	1,44211519	0,94805185807247654	4	-0,0328133591	0,00136719993
2	1	0	0	0	2936,79	1,453982	1,45454562	0,97528159835686413	4	-0,0316114128	0,00141859159
2	1	0	0	0	2938,07	1,46678293	1,4672066	1,0092028199384586	4	-0,0303415358	0,00148070906
2	1	0	1	0	2939,32	1,47928393	1,479617	1,042779009789225	4	-0,0290583149	0,00154291349
2	1	0	1	0	2940,57	1,49178493	1,49218774	1,0745023619383555	4	-0,0277340207	0,00160335924
2	1	0	0	0	2941,82	1,50428522	1,50481904	1,1015054834284186	4	-0,026372809	0,0016575664
2	1	0	0	0	2943,07	1,51678681	1,51733923	1,1222820114344358	4	-0,0249817204	0,00170288247
2	1	0	0	0	2944,32	1,52928782	1,52967942	1,1354050614560616	4	-0,0235695206	0,00173680577
2	1	0	1	0	2945,57	1,5417887	1,54220021	1,1399636200318741	4	-0,0221457332	0,00175805215
2	1	0	1	0	2946,82	1,55428958	1,55492127	1,1327492327739784	4	-0,0207234882	0,00176133588
2	1	0	0	0	2948,07	1,56679058	1,56702077	1,1113901923721059	4	-0,019318698	0,00174157147
2	1	0	0	0	2949,32	1,57929146	1,57972181	1,0735557197282706	4	-0,0179511048	0,00169591943
2	1	0	1	0	2950,57	1,59179246	1,59230268	1,0189090203493798	4	-0,0166410375	0,00162241154
2	1	0	1	0	2951,82	1,60429347	1,60500383	0,94719038748492326	4	-0,0154103804	0,00152024417
2	1	0	0	0	2953,07	1,61679435	1,61718345	0,85990949223439014	4	-0,014279007	0,00139063143
2	1	0	0	0	2954,32	1,62929535	1,62968409	0,7595521914772663	4	-0,0132655874	0,00123783015
2	1	0	1	0	2955,57	1,64179623	1,64215446	0,65230131723607603	4	-0,012382444	0,00107117952
2	1	0	1	0	2956,82	1,65429723	1,65462506	0,53572226486479123	4	-0,0116383368	0,000886419497
2	1	0	0	0	2958,11	1,6671983	1,66766691	0,39179665742752512	4	-0,0110372426	0,000653386349
2	1	0	0	0	2959,36	1,67969906	1,68027794	0,24456751835532531	4	-0,0106417667	0,0004109414
2	1	0	1	0	2960,61	1,69220018	1,69272828	0,14271632395684718	4	-0,0104056858	0,000241579954
2	1	0	1	0	2961,86	1,70470095	1,70507848	0,09465515656241513	4	-0,0102614844	0,000161394477
2	1	0	0	0	2963,11	1,71720207	1,71773946	0,075204909061236634	4	-0,0101566128	0,000129182445
2	1	0	0	0	2964,36	1,72970307	1,72989917	0,065656152534453888	4	-0,010068777	0,000113578521
2	1	0	1	0	2965,61	1,74220383	1,7426306	0,059655789324703296	4	-0,00999034382	0,000103958002
2	1	0	1	0	2966,86	1,75470495	1,75524139	0,055340372782666182	4	-0,00991818216	9,71357149E-005
2	1	0	0	0	2968,11	1,76720595	1,76779211	0,052130258234683424	4	-0,00985064916	9,21554602E-005
2	1	0	0	0	2969,36	1,77970672	1,78039289	0,049604923367344787	4	-0,00978669617	8,83162502E-005
2	1	0	0	0	2970,65	1,79260778	1,79307461	0,047429239882177734	4	-0,00972373597	8,50441647E-005
2	1	0	1	0	2971,90	1,80510879	1,80556452	0,045767052613276179	4	-0,00966512598	8,26353644E-005
2	1	0	1	0	2973,15	1,81760967	1,8181051	0,04436657719391712	4	-0,00960848574	8,06630997E-005
2	1	0	0	0	2974,40	1,83011067	1,83064592	0,043117509630974381	4	-0,00955349673	7,89328915E-005
2	1	0	0	0	2975,65	1,84261155	1,84321654	0,041934578301151994	4	-0,00949992239	7,72945059E-005
2	1	0	1	0	2976,90	1,85511255	1,85566711	0,04104425140152057	4	-0,00944753177	7,61644696E-005
2	1	0	1	0	2978,15	1,86761355	1,868258	0,04030136651514704	4	-0,00939619262	7,52933483E-005
2	1	0	0	0	2979,40	1,88011444	1,88062823	0,039653905618858234	4	-0,00934571773	7,45742509E-005
2	1	0	0	0	2980,65	1,89261544	1,8931489	0,039107373653678221	4	-0,00929603726	7,40360847E-005
2	1	0	1	0	2981,90	1,90511644	1,90573967	0,038699435535818227	4	-0,00924698357	7,37510491E-005
2	1	0	1	0	2983,15	1,91761732	1,91805971	0,038308234419673459	4	-0,00919850171	7,34774803E-005
2	1	0	0	0	2984,40	1,93011832	1,93069065	0,03801582842910023	4	-0,00915047526	7,33968045E-005
2	1	0	0	0	2985,65	1,9426192	1,94330156	0,037746854068245702	4	-0,00910286512	7,33535198E-005
2	1	0	1	0	2986,90	1,95512021	1,95563185	0,037612178256192006	4	-0,00905555394	7,35555732E-005
2	1	0	1	0	2988,15	1,96762121	1,96819246	0,037333929309776634	4	-0,00900850166	7,34803616E-005
2	1	0	0	0	2989,40	1,98012209	1,98043239	0,037179904533938266	4	-0,00896160398	7,36322836E-005
2	1	0	0	0	2990,65	1,99262309	1,99308348	0,037075553875183686	4	-0,00891485997	7,38946765E-005
2	1	0	1	0	2991,90	2,00512409	2,00566411	0,037074389731666432	4	-0,00886818208	7,43587734E-005
2	1	0	1	0	2993,15	2,01762509	2,01788402	0,037027206388302202	4	-0,00882161222	7,4716605E-005
2	1	0	0	0	2994,40	2,03012586	2,03050494	0,036944493699896512	4	-0,00877510943	7,50159743E-005
2	1	0	0	0	2995,65	2,04262686	2,04320598	0,036816253375339558	4	-0,00872870069	7,52231863E-005
2	1	0	1	0	2996,90	2,05512786	2,05556631	0,036803674243856192	4	-0,00868233573	7,5652395E-005
2	1	0	1	0	2998,15	2,06762886	2,06801677	0,036819243076024467	4	-0,0086360313	7,61428091E-005
2	1	0	0	0	2999,40	2,08013034	2,08078766	0,036859794755516154	4	-0,00858973339	7,66974044E-005
2	1	0	0	0	3000,65	2,09263062	2,09301782	0,036771633671984992	4	-0,00854348112	7,69636827E-005
2	1	0	1	0	3001,90	2,10513282	2,10563993	0,036764636394446272	4	-0,00849718321	7,74130895E-005
2	1	0	1	0	3003,15	2,11763263	2,11816931	0,036773211972710272	4	-0,00845082849	7,78918911E-005
2	1	0	1	0	3004,40	2,13013339	2,13039923	0,036911376509427219	4	-0,00840441324	7,86359669E-005
2	1	0	0	0	3005,65	2,14263463	2,14288998	0,036964825218698483	4	-0,00835790299	7,92115534E-005
2	1	0	0	0	3006,90	2,15513539	2,15532017	0,037165078916587072	4	-0,00831130985	8,01026472E-005
2	1	0	1	0	3008,15	2,16763639	2,16813159	0,037137590523343533	4	-0,00826459657	8,05191812E-005
2	1	0	1	0	3009,40	2,1801374	2,18070221	0,037223256775178074	4	-0,00821776595	8,11728387E-005
2	1	0	0	0	3010,65	2,1926384	2,19296241	0,037385269863686387	4	-0,008170777	8,19844936E-005
2	1	0	0	0	3011,90	2,2051394	2,20569348	0,037534986690540339	4	-0,00812366419	8,2790677E-005
2	1	0	1	0	3013,15	2,2176404	2,21816397	0,037739798077382118	4	-0,00807635486	8,37130574E-005
2	1	0	1	0	3014,40	2,23014092	2,23069477	0,037834617716725805	4	-0,00802888535	8,43974849E-005
2	1	0	0	0	3015,65	2,24264216	2,24308515	0,037887289673866317	4	-0,0079812007	8,49844146E-005
2	1	0	0	0	3016,90	2,25514317	2,25600672	0,038070504864056723	4	-0,00793332327	8,58873173E-005
2	1	0	1	0	3018,15	2,26764417	2,2680161	0,038291341275908051	4	-0,00788519811	8,6845379E-005
2	1	0	1	0	3019,40	2,28014493	2,28072739	0,03854214521318999	4	-0,00783685036	8,79041254E-005
2	1	0	0	0	3020,65	2,29264593	2,2930572	0,038791965295483066	4	-0,00778821111	8,8952198E-005
2	1	0	0	0	3021,90	2,30514669	2,30567837	0,038947683448592672	4	-0,00773929665	8,98008293E-005
2	1	0	1	0	3023,15	2,31764793	2,31785798	0,039203242408499814	4	-0,00769002922	9,08675502E-005
2	1	0	1	0	3024,40	2,3301487	2,33044863	0,03951215003811129	4	-0,00764044374	9,20810344E-005
2	1	0	0	0	3025,65	2,3426497	2,34327006	0,039809673471609075	4	-0,00759049458	9,32848125E-005
2	1	0	0	0	3026,90	2,3551507	2,35551	0,040123164479155123	4	-0,00754023762	9,4510513E-005
2	1	0	1	0	3028,16	2,3676517	2,36820126	0,0402431476954368	4	-0,00748963282	9,53038762E-005
2	1	0	1	0	3029,41	2,3801527	2,3806417	0,040447630667282963	4	-0,0074387202	9,62913182E-005
2	1	0	1	0	3030,66	2,39265251	2,39307117	0,040743381602476979	4	-0,00738744531	9,7501812E-005
2	1	0	0	0	3031,91	2,40515447	2,40559292	0,041065843019168602	4	-0,00733581744	9,87876992E-005
2	1	0	0	0	3033,16	2,41765571	2,41822362	0,04140533416648384	4	-0,00728376117	0,000100127356
2	1	0	1	0	3034,41	2,43015623	2,43075442	0,04184391483431671	4	-0,00723124482	0,000101712278
2	1	0	1	0	3035,66	2,44265747	2,44308448	0,042345286356673338	4	-0,00717821857	0,000103453109
2	1	0	0	0	3036,91	2,45515847	2,45556498	0,04283712659768457	4	-0,00712463679	0,000105189349
2	1	0	0	0	3038,16	2,46765947	2,46821618	0,043350637162802893	4	-0,00707045849	0,000106998741
2	1	0	1	0	3039,41	2,48016024	2,480546	0,043882838450372109	4	-0,00701568881	0,000108853397
2	1	0	1	0	3040,66	2,49266124	2,49322724	0,044340093135057715	4	-0,00696035009	0,000110549925
2	1	0	0	0	3041,91	2,505162	2,50566769	0,044574208819540051	4	-0,00690454757	0,000111688154
2	1	0	0	0	3043,16	2,51766324	2,51829863	0,044987004861468397	4	-0,00684819464	0,000113290713
2	1	0	1	0	3044,41	2,530164	2,53064871	0,045409253429776531	4	-0,00679134531	0,000114914867
2	1	0	1	0	3045,66	2,542665	2,54302907	0,045861426944611482	4	-0,00673396979	0,000116626943
2	1	0	0	0	3046,91	2,55516601	2,55548954	0,046342797713199008	4	-0,00667606387	0,000118428536
2	1	0	0	0	3048,16	2,56766701	2,56806016	0,046808819257421306	4	-0,0066175838	0,000120207864
2	1	0	1	0	3049,41	2,58016777	2,58096194	0,047166109696263334	4	-0,00655852165	0,000121733938
2	1	0	1	0	3050,66	2,59266877	2,59298134	0,047714964535164883	4	-0,00649886345	0,000123724007
2	1	0	0	0	3051,91	2,60516977	2,60562205	0,048188649651516755	4	-0,00643860642	0,000125561404
2	1	0	0	0	3053,16	2,61767077	2,61787224	0,048847437525788742	4	-0,00637772912	0,000127876352
2	1	0	1	0	3054,41	2,63017154	2,6304729	0,049232092744204928	4	-0,00631619478	0,000129503693
2	1	0	1	0	3055,66	2,64267278	2,64305377	0,049683679768349754	4	-0,00625402946	0,000131316643
2	1	0	1	0	3056,91	2,65517282	2,65562391	0,050200662756237523	4	-0,00619118055	0,000133314083
2	1	0	0	0	3058,16	2,66767454	2,66823554	0,050869213281354406	4	-0,00612764759	0,000135731039
2	1	0	0	0	3059,41	2,68017602	2,68064642	0,051405815376248442	4	-0,00606340589	0,000137800816
2	1	0	1	0	3060,66	2,69267654	2,69310617	0,05209704942535609	4	-0,00599846244	0,000140302887
2	1	0	1	0	3061,91	2,70517707	2,70563626	0,052536861345347187	4	-0,00593276788	0,00014214564
2	1	0	0	0	3063,16	2,71767831	2,7180171	0,05312186634788896	4	-0,00586636644	0,00014438614
2	1	0	0	0	3064,41	2,73017931	2,73074841	0,05374426059036841	4	-0,00579922553	0,00014676206
2	1	0	1	0	3065,66	2,74268031	2,74330926	0,054363978192365267	4	-0,00573135912	0,00014913721
2	1	0	1	0	3066,91	2,75518131	2,75572944	0,055008766493604864	4	-0,00566274533	0,00015158928
2	1	0	0	0	3068,16	2,76768231	2,76814985	0,055505731569913229	4	-0,0055934065	0,000153648187
2	1	0	0	0	3069,41	2,78018308	2,7805903	0,056040590085710054	4	-0,00552330678	0,000155825925
2	1	0	1	0	3070,66	2,79268408	2,79317117	0,056658884083541581	4	-0,00545246713	0,000158257957
2	1	0	1	0	3071,91	2,80518508	2,80546117	0,057304851380952979	4	-0,0053808596	0,000160766533
2	1	0	0	0	3073,16	2,81768608	2,81830263	0,05793504556640983	4	-0,00530851725	0,000163278484
2	1	0	0	0	3074,41	2,83018684	2,83058286	0,058560884150210547	4	-0,00523538329	0,000165761434
2	1	0	1	0	3075,66	2,84268808	2,8430934	0,059066026490957709	4	-0,00516147725	0,000167930237
2	1	0	1	0	3076,91	2,85518885	2,85545349	0,059750100423116122	4	-0,00508676702	0,000170613639
2	1	0	0	0	3078,16	2,86768985	2,8681345	0,060423967215077261	4	-0,0050112633	0,00017330407
2	1	0	0	0	3079,41	2,88019085	2,88047481	0,061130272515583782	4	-0,00493493304	0,000176084213
2	1	0	1	0	3080,66	2,89269185	2,89301538	0,061806079427090624	4	-0,00485779112	0,000178805945
2	1	0	1	0	3081,91	2,90519261	2,90596724	0,062275806247877427	4	-0,00477983057	0,000180971459
2	1	0	0	0	3083,16	2,91769361	2,91828752	0,062890371831599731	4	-0,00470111007	0,000183532189
2	1	0	0	0	3084,41	2,93019462	2,93059754	0,063557556364684966	4	-0,00462152157	0,000186261619
2	1	0	1	0	3085,66	2,94269609	2,94289756	0,064198831077935117	4	-0,00454112422	0,000188930586
2	1	0	1	0	3086,91	2,95519638	2,95543838	0,064920744975097421	4	-0,00445989892	0,000191869258
2	1	0	0	0	3088,16	2,96769857	2,96798849	0,065662757368256269	4	-0,00437781308	0,000194886306
2	1	0	0	0	3089,41	2,98019838	2,98055983	0,066459177197733094	4	-0,00429485086	0,00019808556
2	1	0	0	0	3090,66	2,99269938	2,99306011	0,06721043117189129	4	-0,0042109848	0,000201164861
2	1	0	1	0	3091,91	3,00520039	3,0057013	0,068022089913332365	4	-0,00412615715	0,000204454089
2	1	0	1	0	3093,16	3,01770139	3,01805139	0,068849277604992486	4	-0,00404039258	0,000207790654
2	1	0	0	0	3094,41	3,03020215	3,03056192	0,069626659562345626	4	-0,00395360729	0,000211007908
2	1	0	0	0	3095,66	3,04270339	3,04309273	0,07035280750521161	4	-0,00386581407	0,00021409012
2	1	0	1	0	3096,91	3,05520415	3,0556736	0,07125428941799305	4	-0,00377692608	0,000217729845
2	1	0	1	0	3098,16	3,06770515	3,06841469	0,07213905356669193	4	-0,00368696381	0,000221352529
2	1	0	0	0	3099,41	3,08020616	3,08078504	0,07311132590984928	4	-0,00359587651	0,000225240277
2	1	0	0	0	3100,66	3,09270716	3,09321547	0,074049533558233626	4	-0,00350367581	0,000229051162
2	1	0	1	0	3101,91	3,10520792	3,10553551	0,074857199486965901	4	-0,00341032795	0,000232471692
2	1	0	1	0	3103,16	3,11770892	3,11812615	0,075779887265525978	4	-0,00331583899	0,000236291249
2	1	0	0	0	3104,41	3,13020968	3,13074732	0,076792120176833293	4	-0,00322015304	0,000240416717
2	1	0	0	0	3105,66	3,14271069	3,14319754	0,077777033865762074	4	-0,00312327454	0,000244468567
2	1	0	1	0	3106,91	3,15521169	3,15559793	0,078874288262643981	4	-0,0030251448	0,000248895551
2	1	0	1	0	3108,16	3,16771269	3,16827893	0,079783557467938854	4	-0,00292573567	0,000252776576
2	1	0	0	0	3109,41	3,18021345	3,18074918	0,080873605678789312	4	-0,00282495958	0,000257238658
2	1	0	0	0	3110,66	3,19271445	3,19332027	0,081996597155618176	4	-0,00272279349	0,0002618414
2	1	0	1	0	3111,91	3,20521545	3,20567036	0,083276276437876045	4	-0,00261913403	0,000266956282
2	1	0	1	0	3113,16	3,21771646	3,21837139	0,084478309436235469	4	-0,00251394557	0,000271882571
2	1	0	0	0	3114,41	3,23021746	3,23066139	0,085881891109359514	4	-0,00240714313	0,000277455314
2	1	0	0	0	3115,66	3,24271822	3,24338245	0,087216666822011123	4	-0,00229861401	0,000282877008
2	1	0	0	0	3116,91	3,25521851	3,25598407	0,088752508507940109	4	-0,00218826556	0,000288976764
2	1	0	1	0	3118,16	3,26772022	3,2681632	0,090407548879738893	4	-0,00207594666	0,000295466627
2	1	0	1	0	3119,41	3,28022122	3,28075385	0,092141697222056346	4	-0,00196159258	0,00030229424
2	1	0	0	0	3120,66	3,29272223	3,29311442	0,093996935252410368	4	-0,00184500788	0,000309542665
2	1	0	0	0	3121,91	3,30522299	3,30545449	0,095759569240423616	4	-0,00172610418	0,000316528894
2	1	0	1	0	3123,16	3,31772399	3,31824589	0,097837553049127168	4	-0,0016046582	0,000324649067
2	1	0	1	0	3124,45	3,33062506	3,33121753	0,10008663590997435	4	-0,00147651299	0,000333410368
2	1	0	0	0	3125,70	3,34312606	3,34357762	0,10244513570796675	4	-0,00134945591	0,000342533254
2	1	0	0	0	3126,95	3,35562706	3,35618854	0,1049194668885316	4	-0,00121946144	0,000352129515
2	1	0	1	0	3128,20	3,36812806	3,36852884	0,10755202550596232	4	-0,00108628208	0,000362292107
2	1	0	1	0	3129,45	3,38062882	3,38107944	0,1102530367594831	4	-0,000949836278	0,000372774288
2	1	0	0	0	3130,70	3,39312983	3,39366031	0,11304706047909986	4	-0,000809815188	0,000383643317
2	1	0	0	0	3131,95	3,40563083	3,40616107	0,11612057550034205	4	-0,000666136504	0,000395525392
2	1	0	1	0	3133,20	3,41813183	3,41847086	0,11931933338443413	4	-0,000518535264	0,00040788966
2	1	0	1	0	3134,45	3,43063283	3,43102169	0,12256969084652792	4	-0,000366966036	0,000420539262
2	1	0	0	0	3135,70	3,44313383	3,44362283	0,12593375297728938	4	-0,000211232225	0,000433668349
2	1	0	0	0	3136,95	3,45563459	3,4561131	0,12914870601768298	4	-5,1331248E-005	0,000446352526
2	1	0	1	0	3138,20	3,4681356	3,46869397	0,13267008797265622	4	0,000112935064	0,000460191921
2	1	0	1	0	3139,45	3,4806366	3,48123479	0,13632179393122622	4	0,000281624292	0,000474568165
2	1	0	0	0	3140,70	3,4931376	3,49381566	0,1401240410050375	4	0,000454991619	0,000489567581
2	1	0	0	0	3141,95	3,5056386	3,5062058	0,14406223090675984	4	0,000633133226	0,000505111821
2	1	0	1	0	3143,20	3,51813936	3,51873636	0,14814809981423104	4	0,000816296728	0,000521294132
2	1	0	1	0	3144,45	3,53064036	3,53128719	0,15250314834217222	4	0,00100462954	0,000538532389
2	1	0	0	0	3145,70	3,54314256	3,54378819	0,15702133989983837	4	0,00119847653	0,000556450395
2	1	0	0	0	3146,95	3,55564237	3,55624795	0,16174368319722522	4	0,00139798166	0,000575200655
2	1	0	1	0	3148,20	3,56814384	3,56884027	0,16663387515305738	4	0,00160348439	0,000594689685
2	1	0	1	0	3149,45	3,58064413	3,5811491	0,17166393056201379	4	0,00181516551	0,000614754157
2	1	0	1	0	3150,70	3,59314513	3,59385037	0,17669371053731696	4	0,00203325576	0,000635010772
2	1	0	0	0	3151,95	3,60564613	3,60596013	0,18201044551096835	4	0,0022579073	0,000656322401
2	1	0	0	0	3153,20	3,61814666	3,61857104	0,1872160627196231	4	0,00248907926	0,000677454635
2	1	0	1	0	3154,45	3,63064814	3,63101125	0,19231513196912886	4	0,00272670249	0,00069829839
2	1	0	1	0	3155,70	3,64314914	3,64369226	0,19717093518314234	4	0,00297046429	0,000718430209
2	1	0	0	0	3156,95	3,6556499	3,65620279	0,20137334265746086	4	0,00322000007	0,000736261776
2	1	0	0	0	3158,20	3,6681509	3,66867328	0,2054081743893521	4	0,00347471144	0,00075357547
2	1	0	1	0	3159,46	3,68065143	3,6810739	0,2090394182596359	4	0,00373415044	0,000769489561
2	1	0	1	0	3160,71	3,6931529	3,69395518	0,21232719991045635	4	0,00399781624	0,00078432716
2	1	0	0	0	3161,96	3,70565391	3,70597482	0,21541965682990803	4	0,0042654993	0,000798339839
2	1	0	0	0	3163,21	3,71815467	3,71860552	0,21826757490634918	4	0,00453686109	0,000811651
2	1	0	1	0	3164,46	3,73065567	3,73124647	0,22076009260490525	4	0,00481181545	0,000823710288
2	1	0	1	0	3165,71	3,74315667	3,7438674	0,2236767755045239	4	0,00509009324	0,000837416213
2	1	0	0	0	3166,96	3,7556572	3,75626779	0,22634247628351024	4	0,00537182251	0,000850202923
2	1	0	0	0	3168,21	3,76815867	3,76832724	0,22920831463610102	4	0,00565688731	0,000863731955
2	1	0	1	0	3169,46	3,78065944	3,78110838	0,23188458895310758	4	0,00594540872	0,000876780774
2	1	0	1	0	3170,71	3,79316044	3,79356909	0,23460550000891002	4	0,00623733923	0,000889992167
2	1	0	0	0	3171,96	3,80566144	3,80620003	0,23751573800109328	4	0,00653289026	0,000904032437
2	1	0	0	0	3173,21	3,81816196	3,81877065	0,24055521283298675	4	0,00683205202	0,000918625214
2	1	0	1	0	3174,46	3,83066297	3,8313899	0,24379423825376458	4	0,00713511137	0,000934070791
2	1	0	1	0	3175,71	3,84316444	3,84357142	0,24707980857541133	4	0,00744214095	0,000949668873
2	1	0	1	0	3176,96	3,85566425	3,85600209	0,25025466511430893	4	0,00775337406	0,000964982493
2	1	0	0	0	3178,21	3,86816621	3,8685925	0,25383201924463261	4	0,00806896482	0,000981972669
2	1	0	0	0	3179,46	3,88066673	3,88113332	0,25752037220324154	4	0,00838904548	0,00099947094
2	1	0	1	0	3180,71	3,89316773	3,89371395	0,26128416663656707	4	0,00871377811	0,00101736584
2	1	0	1	0	3181,96	3,90566921	3,90608406	0,26521720822590077	4	0,0090432195	0,00103596074
2	1	0	0	0	3183,21	3,91816998	3,91873527	0,26904088895146838	4	0,00937757269	0,0010543
2	1	0	0	0	3184,46	3,93067098	3,93106556	0,2731162356212744	4	0,00971690472	0,00107363786
2	1	0	1	0	3185,71	3,94317198	3,94377661	0,27734306136456598	4	0,0100614559	0,00109377911
2	1	0	1	0	3186,96	3,9556725	3,95593643	0,28171133149104755	4	0,0104112718	0,00111443212
2	1	0	0	0	3188,21	3,96817398	3,96875763	0,28600982716306957	4	0,010766509	0,00113510364
2	1	0	0	0	3189,46	3,98067474	3,98111773	0,29021815094165459	4	0,0111270603	0,00115539262
2	1	0	1	0	3190,71	3,99317575	3,99369884	0,29416827407355053	4	0,0114928884	0,00117481954
2	1	0	1	0	3191,96	4,00567675	4,00616932	0,29831236717291219	4	0,0118638091	0,00119508989
2	1	0	0	0	3193,21	4,01817751	4,01870012	0,30228706899409485	4	0,0122398324	0,0012148011
2	1	0	0	0	3194,46	4,03067875	4,03130054	0,30638676524783162	4	0,0126208309	0,00123513711
2	1	0	1	0	3195,71	4,04317951	4,0435605	0,31017160555347802	4	0,0130068064	0,00125419768
2	1	0	1	0	3196,96	4,05568027	4,05636215	0,31412571226246656	4	0,0133975288	0,00127420761
2	1	0	0	0	3198,21	4,06818151	4,0688324	0,31762388239925069	4	0,0137928575	0,00129235839
2	1	0	0	0	3199,46	4,08068228	4,08135319	0,32072724968505376	4	0,0141922282	0,00130900124
2	1	0	1	0	3200,71	4,09318352	4,09370327	0,32332891132682509	4	0,0145951724	0,00132361264
2	1	0	1	0	3201,96	4,10568428	4,10623407	0,32558383427870829	4	0,0150010018	0,00133692345
2	1	0	0	0	3203,21	4,11818504	4,11849403	0,32719462543415469	4	0,0154093113	0,00134754914
2	1	0	0	0	3204,46	4,13068628	4,13119507	0,32874253236999085	4	0,0158196203	0,00135809951
2	1	0	1	0	3205,71	4,14318705	4,14371586	0,33044971160901062	4	0,0162320845	0,0013692897
2	1	0	1	0	3206,96	4,15568829	4,15659761	0,33249511988833568	4	0,016646767	0,00138204847
2	1	0	0	0	3208,21	4,16818905	4,16867685	0,33482301142066803	4	0,0170641709	0,00139576895
2	1	0	0	0	3209,46	4,18068981	4,18122768	0,33757335506379603	4	0,0174846612	0,00141147105
2	1	0	1	0	3210,71	4,19319057	4,19375801	0,34068330020333274	4	0,0179089643	0,00142874336
2	0	0	1	1	3211,92	4,19469118	4,19527197	0,28872089809738099	4	0,018306097	0,00121126266
2	0	0	0	1	3213,17	4,18218994	4,18271112	0,22813140926882624	4	0,0186254364	0,00095420779
2	0	0	0	1	3214,42	4,1696887	4,17036057	0,18755005490190003	4	0,0188832339	0,000782151357
2	0	0	1	1	3215,67	4,15718842	4,15787029	0,15745272673666477	4	0,019097358	0,000654668023
2	0	0	1	1	3216,92	4,14468718	4,14505863	0,13417598089047989	4	0,0192783717	0,000556167332
2	0	0	0	1	3218,17	4,13218641	4,13274908	0,1156453081639479	4	0,0194334835	0,000477933034
2	0	0	0	1	3219,42	4,11968565	4,12010765	0,10059841039280086	4	0,0195677318	0,000414476293
2	0	0	1	1	3220,67	4,10718441	4,10763741	0,088044007502806605	4	0,0196849089	0,00036165287
2	0	0	1	1	3221,92	4,09468365	4,09503651	0,077450752665754355	4	0,0197877306	0,000317163649
2	0	0	0	1	3223,17	4,08218241	4,08242559	0,068362170791563814	4	0,0198783595	0,00027908347
2	0	0	0	1	3224,42	4,06968164	4,07036638	0,06043192136955145	4	0,0199584309	0,000245980074
2	0	0	0	1	3225,67	4,05718136	4,0577755	0,053476850548809466	4	0,0200292896	0,000216997054
2	0	0	1	1	3226,96	4,04427958	4,04492426	0,047017973614856326	4	0,0200938415	0,000190184146
2	0	0	0	1	3228,21	4,03177834	4,03218269	0,04163057625649369	4	0,0201490074	0,00016786209
2	0	0	0	1	3229,46	4,01927757	4,01986265	0,036864049082699635	4	0,0201976784	0,00014818841
2	0	0	1	1	3230,71	4,00677586	4,00720119	0,03238616948538464	4	0,0202405248	0,000129777894
2	0	0	1	1	3231,96	3,99427581	3,99490166	0,028342456896401357	4	0,0202780906	0,000113225331
2	0	0	0	1	3233,21	3,98177505	3,98211026	0,024645802467906262	4	0,0203108676	9,81423E-005
2	0	0	0	1	3234,46	3,96927357	3,96975017	0,021270129165107677	4	0,0203392841	8,44370952E-005
2	0	0	1	1	3235,71	3,95677233	3,95726848	0,018363077766374304	4	0,0203637294	7,26676299E-005
2	0	0	1	1	3236,96	3,94427204	3,94486928	0,015553473679271235	4	0,0203845315	6,13564189E-005
2	0	0	1	1	3238,21	3,93177104	3,93228865	0,012968495832562099	4	0,0204019994	5,099587E-005
2	0	0	0	1	3239,46	3,91927004	3,91963744	0,010554635645045579	4	0,0204164218	4,13703456E-005
2	0	0	0	1	3240,71	3,90676928	3,90729713	0,0083625616049781965	4	0,0204280112	3,26750123E-005
2	0	0	1	1	3241,96	3,8942678	3,89474654	0,0064944410963410739	4	0,0204370376	2,52942027E-005
2	0	0	1	1	3243,25	3,88136721	3,88203549	0,0043679179252649056	4	0,0204438679	1,69564119E-005
2	0	0	0	1	3244,50	3,86886621	3,86907363	0,0027925606797604522	4	0,0204482656	1,08046224E-005
2	0	0	0	1	3245,75	3,8563652	3,85677361	0,0012311238148565008	4	0,0204506256	4,74816579E-006
2	0	0	1	1	3247,00	3,8438642	3,84432316	-0,00022949602100178931	4	0,0204511564	8,8225687E-007
2	0	0	1	1	3248,25	3,83136344	3,83177233	-0,0015225441014384451	4	0,0204499662	5,83404244E-006
2	0	0	0	1	3249,50	3,81886244	3,81933188	-0,0028716102248532973	4	0,0204472132	1,09676321E-005
2	0	0	0	1	3250,75	3,80636144	3,80666089	-0,0038637430928550566	4	0,0204429682	1,470796E-005
2	0	0	1	1	3252,00	3,79386044	3,79419065	-0,0048935757719542912	4	0,0204373896	1,85671597E-005
2	0	0	1	1	3253,25	3,78135943	3,78180027	-0,0059469892888349414	4	0,0204305165	2,24903251E-005
2	0	0	0	1	3254,50	3,76885867	3,76922965	-0,006912382057635127	4	0,0204224791	2,60543547E-005
2	0	0	0	1	3255,75	3,75635767	3,75678897	-0,0078336413280340467	4	0,0204132982	2,94293368E-005
2	0	0	1	1	3257,00	3,74385667	3,74425817	-0,0085423786974085363	4	0,0204030722	3,19848696E-005
2	0	0	1	1	3258,25	3,73135567	3,73186827	-0,0092737411129443507	4	0,0203917995	3,46083798E-005
2	0	0	0	1	3259,54	3,7184546	3,71887636	-0,0097967386876310554	4	0,0203792583	3,64328589E-005
2	0	0	0	1	3260,79	3,7059536	3,70650625	-0,01061396581159595	4	0,0203660335	3,93407317E-005
2	0	0	1	1	3262,04	3,69345284	3,69407558	-0,011381254740020622	4	0,0203518942	4,20432152E-005
2	0	0	1	1	3263,29	3,68095183	3,68150473	-0,012142798237619018	4	0,0203368254	4,47037673E-005
2	0	0	1	1	3264,54	3,66845155	3,66909575	-0,012870707804805482	4	0,0203208718	4,72238607E-005
2	0	0	0	1	3265,79	3,65594983	3,65656376	-0,013466729234399565	4	0,0203040224	4,92419531E-005
2	0	0	1	1	3267,04	3,64344811	3,64386082	-0,01415167211594831	4	0,0202863254	5,15667234E-005
2	0	0	1	1	3268,29	3,63094807	3,63130188	-0,014845047621444509	4	0,020267779	5,39068496E-005
2	0	0	1	1	3269,54	3,61844707	3,6187911	-0,015493567431500794	4	0,0202484448	5,60679837E-005
2	0	0	0	1	3270,79	3,60594606	3,60632086	-0,016182027344863571	4	0,0202283077	5,8357582E-005
2	0	0	0	1	3272,04	3,59344506	3,59422112	-0,016626706371122723	4	0,0202074405	5,97600592E-005
2	0	0	1	1	3273,29	3,58094406	3,58138967	-0,017087133489743168	4	0,020185845	6,11956857E-005
2	0	0	1	1	3274,54	3,56844306	3,56914997	-0,017631817837051699	4	0,0201635938	6,29306014E-005
2	0	0	0	1	3275,79	3,5559423	3,55661917	-0,01811173743044489	4	0,0201407019	6,44165557E-005
2	0	0	0	1	3277,04	3,5434413	3,54387784	-0,018583256503916346	4	0,0201172438	6,58567878E-005
2	0	0	1	1	3278,29	3,53094029	3,53151774	-0,019054892763961107	4	0,0200932138	6,72926908E-005
2	0	0	1	1	3279,54	3,51843929	3,51901722	-0,019519725843565555	4	0,0200686958	6,86902495E-005
2	0	0	0	1	3280,79	3,50593829	3,50629592	-0,019958562474736595	4	0,0200436804	6,9980626E-005
2	0	0	0	1	3282,04	3,49343753	3,4940362	-0,020316656470337603	4	0,0200182181	7,0987131E-005
2	0	0	1	1	3283,30	3,48093653	3,48138499	-0,020730739498200566	4	0,0199922975	7,2171686E-005
2	0	0	1	1	3284,55	3,46843553	3,46903491	-0,02107420120349457	4	0,019965969	7,31071414E-005
2	0	0	0	1	3285,80	3,45593452	3,45622373	-0,021280027397248656	4	0,0199392121	7,35485373E-005
2	0	0	0	1	3287,05	3,44343352	3,44393325	-0,02157266413754161	4	0,0199120771	7,42948178E-005
2	0	0	1	1	3288,30	3,43093276	3,43138266	-0,021916940851951994	4	0,0198845323	7,52054111E-005
2	0	0	1	1	3289,55	3,41843176	3,41905236	-0,022217966999354106	4	0,0198566448	7,59643954E-005
2	0	0	0	1	3290,80	3,40593076	3,40644193	-0,022597214774577878	4	0,0198283624	7,69761027E-005
2	0	0	0	1	3292,05	3,39342976	3,39399123	-0,022796971369340781	4	0,0197997205	7,73727224E-005
2	0	0	1	1	3293,30	3,38092852	3,38114834	-0,023078454311933005	4	0,0197707079	7,80316768E-005
2	0	0	1	1	3294,55	3,36842775	3,36884952	-0,023356865873211146	4	0,0197413452	7,86857636E-005
2	0	0	1	1	3295,80	3,35592771	3,35619879	-0,023716908341199466	4	0,0197116267	7,95986562E-005
2	0	0	0	1	3297,05	3,34342599	3,34380865	-0,024031521199503968	4	0,019681545	8,03568109E-005
2	0	0	0	1	3298,30	3,33092499	3,33143806	-0,024302705981729914	4	0,0196511131	8,09629564E-005
2	0	0	1	1	3299,55	3,31842399	3,3190074	-0,02448441184242256	4	0,0196203291	8,1263941E-005
2	0	0	1	1	3300,80	3,30592299	3,30637693	-0,02476634841877967	4	0,0195891839	8,18868866E-005
2	0	0	0	1	3302,05	3,29342222	3,29388595	-0,025024835553874026	4	0,0195576958	8,24289527E-005
2	0	0	0	1	3303,30	3,28092122	3,28143573	-0,025392174274505462	4	0,0195258763	8,33227896E-005
2	0	0	1	1	3304,55	3,26842022	3,26859426	-0,025625468357854176	4	0,0194937009	8,37592597E-005
2	0	0	1	1	3305,80	3,25591922	3,25635433	-0,025835366114430768	4	0,0194612145	8,41291039E-005
2	0	0	0	1	3307,05	3,24341822	3,24394393	-0,026097373095884336	4	0,019428378	8,46584153E-005
2	0	0	0	1	3308,30	3,23091745	3,23146343	-0,026386603344387165	4	0,0193952434	8,52673402E-005
2	0	0	1	1	3309,55	3,21841645	3,21873236	-0,026676136486154746	4	0,0193617754	8,5863343E-005
2	0	0	1	1	3310,80	3,20591545	3,20652223	-0,026967050808404336	4	0,0193280429	8,64704489E-005
2	0	0	0	1	3312,05	3,19341445	3,19382167	-0,027095882532497258	4	0,0192939732	8,65394177E-005
2	0	0	0	1	3313,30	3,18091345	3,18150139	-0,027252954246553885	4	0,0192596372	8,67053095E-005
2	0	0	1	1	3314,55	3,16841292	3,16906118	-0,027487647312227526	4	0,0192250013	8,71100347E-005
2	0	0	1	1	3315,80	3,15591168	3,15642977	-0,027729740288729424	4	0,0191901214	8,75269761E-005
2	0	0	0	1	3317,05	3,14341068	3,1436286	-0,027972341466617533	4	0,0191549622	8,79346553E-005
2	0	0	0	1	3318,30	3,13090968	3,13127851	-0,028143592945222506	4	0,0191195775	8,81254309E-005
2	0	0	1	1	3319,55	3,11840892	3,11870766	-0,028245401704528771	4	0,0190839283	8,8089153E-005
2	0	0	1	1	3320,80	3,10590816	3,10614681	-0,028434192849090288	4	0,0190480836	8,83207758E-005
2	0	0	0	1	3322,05	3,09340763	3,09388781	-0,028637771372633347	4	0,0190119985	8,86020498E-005
2	0	0	0	1	3323,30	3,08090615	3,08143663	-0,028835040099996544	4	0,018975731	8,88533468E-005
2	0	0	0	1	3324,55	3,06840634	3,06891561	-0,028987787666366227	4	0,0189392455	8,89610747E-005
2	0	0	1	1	3325,80	3,05590439	3,05635524	-0,028978069128546394	4	0,0189025998	8,85672707E-005
2	0	0	1	1	3327,05	3,04340315	3,04388452	-0,029086460349693312	4	0,0188657735	8,8535824E-005
2	0	0	0	1	3328,30	3,03090239	3,03126383	-0,029237829624132019	4	0,0188288037	8,86275739E-005
2	0	0	0	1	3329,55	3,01840115	3,01892352	-0,029327191722889722	4	0,0187916718	8,85365516E-005
2	0	0	1	1	3330,80	3,00590038	3,00632286	-0,029446881730109453	4	0,0187544376	8,8526831E-005
2	0	0	1	1	3332,05	2,99339938	2,99376202	-0,02960118021777225	4	0,0187170487	8,86188864E-005
2	0	0	0	1	3333,30	2,98089862	2,98145175	-0,029740458878222739	4	0,0186795611	8,86697453E-005
2	0	0	0	1	3334,55	2,96839786	2,96868062	-0,029883235304926867	4	0,0186419524	8,87137794E-005
2	0	0	1	1	3335,80	2,95589662	2,95640039	-0,029993950059482246	4	0,0186042469	8,86741254E-005
2	0	0	1	1	3337,05	2,94339561	2,94393015	-0,030129157918660666	4	0,0185664333	8,86981361E-005
2	0	0	0	1	3338,30	2,93089485	2,93154955	-0,030142524221446419	4	0,018528536	8,83643006E-005
2	0	0	0	1	3339,55	2,91839361	2,91903901	-0,030092907962777357	4	0,0184905492	8,78423743E-005
2	0	0	1	1	3340,80	2,90589285	2,90652847	-0,030127366830129216	4	0,01845254	8,7566048E-005
2	0	0	1	1	3342,05	2,89339209	2,89370728	-0,030259016600515085	4	0,0184144303	8,75607366E-005
2	0	0	0	1	3343,30	2,88089085	2,88111639	-0,030334340777092934	4	0,0183762535	8,73967656E-005
2	0	0	0	1	3344,55	2,86838984	2,86881638	-0,030425991387649901	4	0,0183380283	8,72865858E-005
2	0	0	1	1	3345,80	2,85588908	2,85638571	-0,030305929676008755	4	0,018299751	8,6565422E-005
2	0	0	1	1	3347,05	2,84338784	2,84366488	-0,030404554204627341	4	0,0182614308	8,64603644E-005
2	0	0	0	1	3348,30	2,83088708	2,83152509	-0,030448761332081632	4	0,0182230733	8,62164306E-005
2	0	0	0	1	3349,55	2,81838608	2,81883383	-0,030515844545637606	4	0,0181846973	8,60190921E-005
2	0	0	0	1	3350,80	2,80588603	2,80635381	-0,030536681761871411	4	0,0181463063	8,56967308E-005
2	0	0	1	1	3352,05	2,79338431	2,79374266	-0,030513654074942221	4	0,0181078948	8,52472949E-005
2	0	0	1	1	3353,30	2,78088307	2,78141141	-0,030410443588785088	4	0,0180694535	8,45839531E-005
2	0	0	0	1	3354,55	2,76838255	2,7689116	-0,030502505610153734	4	0,0180310085	8,44587412E-005
2	0	0	1	1	3355,80	2,75588083	2,75642061	-0,03048397845845552	4	0,0179925393	8,40266657E-005
2	0	0	1	1	3357,05	2,74338031	2,7439909	-0,03060268958021575	4	0,0179540757	8,39735003E-005
2	0	0	1	1	3358,30	2,73087955	2,73135996	-0,030533347356443635	4	0,0179155804	8,33975646E-005
2	0	0	0	1	3359,55	2,71837831	2,71886921	-0,030504436445577651	4	0,017877087	8,29375713E-005
2	0	0	0	1	3360,80	2,70587754	2,70635867	-0,030554963731750374	4	0,0178385638	8,26926916E-005
2	0	0	1	1	3362,05	2,69337678	2,69376802	-0,030619428250550528	4	0,0178000405	8,24816379E-005
2	0	0	1	1	3363,30	2,68087554	2,68126726	-0,030660949414596019	4	0,0177614745	8,22102011E-005
2	0	0	0	1	3364,55	2,66837454	2,66887689	-0,030752633184116915	4	0,0177228786	8,2074992E-005
2	0	0	0	1	3365,80	2,65587378	2,65629601	-0,03063277538361337	4	0,0176842194	8,13697188E-005
2	0	0	1	1	3367,05	2,64337254	2,64375544	-0,030670681095216422	4	0,0176455174	8,10857819E-005
2	0	0	1	1	3368,30	2,63087177	2,63121486	-0,030770776589633843	4	0,0176067241	8,0964528E-005
2	0	0	0	1	3369,55	2,61837101	2,61863399	-0,030884061532560845	4	0,0175678488	8,08740515E-005
2	0	0	0	1	3370,80	2,60586977	2,60641408	-0,031040095103283731	4	0,017528858	8,09033445E-005
2	0	0	1	1	3372,05	2,59336901	2,5939436	-0,03105468454305088	4	0,0174897667	8,05540985E-005
2	0	0	1	1	3373,30	2,58086801	2,58123255	-0,031153319549048333	4	0,0174505077	8,04139636E-005
2	0	0	0	1	3374,55	2,56836724	2,56874204	-0,031291362810103974	4	0,0174110886	8,03794392E-005
2	0	0	0	1	3375,80	2,555866	2,55637169	-0,03148595738457527	4	0,0173714701	8,04898082E-005
2	0	0	1	1	3377,05	2,543365	2,54376101	-0,031682584483254035	4	0,0173316505	8,0592923E-005
2	0	0	1	1	3378,30	2,53086424	2,53127027	-0,031839031755225619	4	0,0172915924	8,05931923E-005
2	0	0	0	1	3379,55	2,51836252	2,5188489	-0,031910353691251616	4	0,0172512885	8,03773582E-005
2	0	0	0	1	3380,80	2,50586224	2,50630927	-0,032168410776648659	4	0,0172106996	8,06239841E-005
2	0	0	1	1	3382,05	2,49336171	2,49373865	-0,032388764220569133	4	0,0171698984	8,07691104E-005
2	0	0	1	1	3383,30	2,48086023	2,4812479	-0,032653662618637722	4	0,0171287265	8,10218335E-005
2	0	0	1	1	3384,55	2,46835995	2,46886992	-0,032935653571089965	4	0,0170872509	8,13138467E-005
2	0	0	0	1	3385,80	2,45585847	2,45614648	-0,033265259175095718	4	0,0170454159	8,17043474E-005
2	0	0	0	1	3387,05	2,44335723	2,44378614	-0,033600696750606061	4	0,0170032643	8,21129142E-005
2	0	0	1	1	3388,30	2,43085647	2,43132567	-0,03392130904830992	4	0,0169607308	8,24737508E-005
2	0	0	1	1	3389,55	2,4183557	2,41875482	-0,034253267086266304	4	0,0169178322	8,28502525E-005
2	0	0	0	1	3390,80	2,40585446	2,40618396	-0,03462286197463993	4	0,0168745499	8,33089725E-005
2	0	0	0	1	3392,05	2,3933537	2,39377356	-0,034847088293948531	4	0,0168309063	8,34160383E-005
2	0	0	1	1	3393,30	2,3808527	2,38126326	-0,035103340429486707	4	0,0167868417	8,35902974E-005
2	0	0	1	1	3394,55	2,36835194	2,36874247	-0,035460140526993133	4	0,0167423841	8,39959393E-005
2	0	0	0	1	3395,80	2,3558507	2,356282	-0,035834078628492192	4	0,0166975055	8,44351962E-005
2	0	0	0	1	3397,05	2,34334993	2,3439219	-0,036213740628833645	4	0,0166522227	8,48821801E-005
2	0	0	1	1	3398,30	2,33084893	2,33126092	-0,036525238897108179	4	0,016606506	8,51498626E-005
2	0	0	1	1	3399,55	2,31834793	2,31867003	-0,036768063349882195	4	0,0165603757	8,52530065E-005
2	0	0	0	1	3400,80	2,30584693	2,30616951	-0,037159800645895373	4	0,0165137928	8,56967963E-005
2	0	0	0	1	3402,05	2,29334617	2,29364872	-0,037528346457596115	4	0,0164667852	8,60768414E-005
2	0	0	1	1	3403,30	2,28084493	2,28130865	-0,037980494196138694	4	0,0164193138	8,66452319E-005
2	0	0	1	1	3404,55	2,26834416	2,26887798	-0,038342945335898496	4	0,0163714048	8,69954674E-005
2	0	0	0	1	3405,80	2,25584316	2,256217	-0,038602035065802566	4	0,0163230263	8,7094566E-005
2	0	0	0	1	3407,05	2,2433424	2,24402714	-0,038920078727339155	4	0,0162741914	8,73377139E-005
2	0	0	1	1	3408,30	2,23084211	2,23134875	-0,039376222329532141	4	0,0162248909	8,78620849E-005
2	0	0	1	1	3409,55	2,2183404	2,2186954	-0,039740120167455872	4	0,0161751136	8,81712185E-005
2	0	0	1	1	3410,80	2,20584035	2,20604563	-0,04021654696082297	4	0,0161248725	8,87195347E-005
2	0	0	0	1	3412,05	2,19333839	2,19379449	-0,040475682423372518	4	0,0160741284	8,87953283E-005
2	0	0	0	1	3413,30	2,18083739	2,18138433	-0,040872115787351366	4	0,0160229299	8,91577947E-005
2	0	0	1	1	3414,56	2,16833663	2,16902399	-0,041309784593371034	4	0,0159712005	8,96019119E-005
2	0	0	1	1	3415,81	2,15583539	2,15627265	-0,041744258468194573	4	0,0159189869	9,00119994E-005
2	0	0	0	1	3417,06	2,14333463	2,14369202	-0,042237546692680096	4	0,0158662368	9,05442939E-005
2	0	0	0	1	3418,31	2,13083363	2,1313014	-0,042603274273763757	4	0,0158129912	9,08004149E-005
2	0	0	1	1	3419,56	2,11833262	2,11873055	-0,042902067584994515	4	0,0157591905	9,089792E-005
2	0	0	1	1	3420,35	2,11033273	2,11069179	-0,04391399646798777	4	0,0157248434	9,26889115E-005