File: Experimentelles/Rohdaten/Batterietests/AlteZelle/Studenten_Batterietests/LiNiMnO_LATP_LTO-Spinell/CV2/ZView-Export/LiNiMnO-LATP-LTO_Spinell_01_CV_C01.txt
EC-Lab ASCII FILE
Nb header lines : 61

Cyclic Voltammetry

Run on channel : 1 (SN 6985)
Grouped channel(s) : 1
User :
CE vs. WE compliance from -10 V to 10 V
Electrode connection : standard
Ewe ctrl range : min = -5,00 V, max = 5,00 V
Acquisition started on : 02.10.2015 14:44:20
Saved on :
	File : LiNiMnO-LATP-LTO_Spinell_01_CV_C01.mpr
	Directory : C:\Hupfer\Studenten Batterietests\LiNiMnO_LATP_LTO-Spinell\CV2\
	Host : 192.168.0.2
Device : VMP3 (SN 0324)
Address : 192.168.0.1
EC-Lab for windows v10.33 (software)
Internet server v10.33 (firmware)
Command interpretor v10.32 (firmware)
Electrode material :
Initial state :
Electrolyte :
Comments :
Mass of active material : 0,001 mg
 at x = 0,000
Molecular weight of active material (at x = 0) : 0,001 g/mol
Atomic weight of intercalated ion : 0,001 g/mol
Acquisition started at : xo = 0,000
Number of e- transfered per intercalated ion : 1
for DX = 1, DQ = 26,801 mA.h
Battery capacity : 0,000 A.h
Electrode surface area : 0,001 cm²
Characteristic mass : 0,001 g
Ei (V)              0,000
vs.                 Eoc
dE/dt               20,000
dE/dt unit          mV/s
E1 (V)              1,000
vs.                 Ref
Step percent        50
N                   10
E range min (V)     -5,000
E range max (V)     5,000
I Range             Auto
Bandwidth           5
E2 (V)              -1,000
vs.                 Ref
nc cycles           0
Reverse Scan        1
Ef (V)              0,000
vs.                 Eoc

Number of loops : 4
Loop 0 from point number 0 to 2003
Loop 1 from point number 2004 to 4007
Loop 2 from point number 4008 to 6013
Loop 3 from point number 6014 to 6488

mode	ox/red	error	control changes	counter inc.	time/s	control/V	Ewe/V	<I>/mA	cycle number	(Q-Qo)/C	P/W
2	1	0	1	0	0,0000	0,353876591	0,354697287	-2,0969322577002458E-005	1	0	7,43776196E-009
2	1	0	0	0	1,3552	0,380978107	0,381455988	3,3435433069657562E-005	1	1,81198114E-008	1,27541462E-008
2	1	0	0	0	2,7552	0,408979833	0,409609288	7,3046076648905549E-005	1	9,3118004E-008	2,99203506E-008
2	1	0	1	0	4,1554	0,436981559	0,437677979	0,00011149534879627453	1	2,22719748E-007	4,8799059E-008
2	1	0	1	0	5,5554	0,464983255	0,465644151	0,00014916576133651254	1	4,05606642E-007	6,94581672E-008
2	1	0	0	0	6,9556	0,49298501	0,493552476	0,0001866593488557551	1	6,41064844E-007	9,21261858E-008
2	1	0	0	0	8,3556	0,520986676	0,521581054	0,00022368326167284022	1	9,2853395E-007	1,1666895E-007
2	1	0	0	0	9,7556	0,548988402	0,549658656	0,00026011544607037421	1	1,26748728E-006	1,42974713E-007
2	1	0	1	0	11,1558	0,576990187	0,577584743	0,00029606350832451622	1	1,65732661E-006	1,71001759E-007
2	1	0	1	0	12,5558	0,604991794	0,605475247	0,00033209155652810989	1	2,09737937E-006	2,0107322E-007
2	1	0	0	0	13,9560	0,632993579	0,633526087	0,00036768480846081613	1	2,58761997E-006	2,32937921E-007
2	1	0	0	0	15,3560	0,660995245	0,661599219	0,00040330218945638496	1	3,12768998E-006	2,66824401E-007
2	1	0	1	0	16,7562	0,68899703	0,689618886	0,00043856210713447142	1	3,71744068E-006	3,02440725E-007
2	1	0	1	0	18,1562	0,716998756	0,717585206	0,00047354905695505632	1	4,35626407E-006	3,39811805E-007
2	1	0	1	0	19,5563	0,74500221	0,745740116	0,00050826747830989318	1	5,043903E-006	3,79035441E-007
2	1	0	0	0	20,9564	0,773002148	0,773593307	0,0005428859913755111	1	5,78013123E-006	4,19972963E-007
2	1	0	0	0	22,3564	0,801003814	0,801421225	0,0005774314101506263	1	6,56462862E-006	4,62765797E-007
2	1	0	1	0	23,7566	0,829005599	0,82972604	0,0006116635072599081	1	7,39743609E-006	5,07513164E-007
2	1	0	1	0	25,1566	0,857007205	0,857496381	0,00064569699444055578	1	8,27793247E-006	5,5368281E-007
2	1	0	0	0	26,5568	0,88500905	0,885493755	0,00067951535553826496	1	9,20612092E-006	6,01706631E-007
2	1	0	0	0	27,9568	0,913010657	0,913704932	0,00071319679806981261	1	1,01812911E-005	6,51651419E-007
2	1	0	0	0	29,3569	0,941010714	0,941638052	0,00074678621785229107	1	1,12036923E-005	7,03202318E-007
2	1	0	1	0	30,7570	0,969014108	0,969534874	0,00078037634173395635	1	1,22731108E-005	7,56602105E-007
2	1	0	1	0	32,1570	0,997015834	0,997483253	0,00081377152498505331	1	1,33893218E-005	8,11723453E-007
2	0	0	0	0	33,4576	0,976814568	0,977229238	0,00077390910856020301	1	1,44254791E-005	7,56286624E-007
2	0	0	0	0	34,8576	0,948812902	0,949285388	0,00072734647100905843	1	1,54756781E-005	6,90459387E-007
2	0	0	1	0	36,2578	0,920811236	0,921412647	0,00068289711331696346	1	1,64624234E-005	6,29230044E-007
2	0	0	1	0	37,6578	0,892809451	0,893415272	0,00063957313149229709	1	1,73877506E-005	5,71404428E-007
2	0	0	0	0	39,0580	0,864807785	0,865417898	0,0005968751069034359	1	1,82530421E-005	5,16546379E-007
2	0	0	0	0	40,4580	0,836805999	0,837505221	0,00055482557655961178	1	1,90588635E-005	4,64669313E-007
2	0	0	1	0	41,8582	0,808804333	0,809191406	0,00051351743247694118	1	1,98064226E-005	4,1553389E-007
2	0	0	1	0	43,2582	0,780802548	0,781363368	0,00047249930530260563	1	2,04963198E-005	3,69193657E-007
2	0	0	1	0	44,6582	0,752800941	0,753548682	0,00043212951910660608	1	2,11292027E-005	3,25630623E-007
2	0	0	0	0	46,0584	0,724799216	0,725439847	0,00039182995849976634	1	2,17056622E-005	2,84249069E-007
2	0	0	0	0	47,4584	0,69679749	0,69732219	0,00035192942680253178	1	2,22259423E-005	2,45408188E-007
2	0	0	1	0	48,8586	0,668795764	0,669418335	0,00031260616614653683	1	2,26908815E-005	2,092643E-007
2	0	0	1	0	50,2586	0,640794039	0,641273975	0,00027368160287248067	1	2,31008762E-005	1,75504894E-007
2	0	0	0	0	51,6588	0,612792313	0,613445818	0,00023483321644932899	1	2,34565014E-005	1,44057452E-007
2	0	0	0	0	53,0588	0,584790647	0,585430622	0,00019620371720655462	1	2,37578934E-005	1,14863667E-007
2	0	0	0	0	54,4588	0,556788862	0,557326257	0,00015787193490689731	1	2,40054196E-005	8,7986173E-008
2	0	0	1	0	55,8590	0,528787136	0,529386818	0,00011979884409272341	1	2,41995713E-005	6,34199324E-008
2	0	0	1	0	57,2590	0,50078553	0,50124687	8,2178047545379661E-005	1	2,43406739E-005	4,11914876E-008
2	0	0	0	0	58,6592	0,472783715	0,473169237	4,4715237537376454E-005	1	2,44292169E-005	2,11578755E-008
2	0	0	0	0	60,0592	0,444782048	0,445274353	7,4651746673862234E-006	1	2,44654166E-005	3,32405081E-009
2	0	0	1	0	61,4594	0,416780323	0,417432904	-2,9707448127872557E-005	1	2,44495313E-005	1,24008661E-008
2	0	0	1	0	62,8594	0,388778627	0,389292926	-6,638890559534688E-005	1	2,43819559E-005	2,58447308E-008
2	0	0	1	0	64,2594	0,360776901	0,361161888	-0,00010285642548734818	1	2,4263054E-005	3,71478208E-008
2	0	0	0	0	65,6596	0,332775205	0,333342731	-0,0001395754334562627	1	2,40933241E-005	4,65264556E-008
2	0	0	0	0	67,0596	0,30477348	0,305394322	-0,00017544312068248826	1	2,38727516E-005	5,35793312E-008
2	0	0	1	0	68,4598	0,276771754	0,277392447	-0,00021148823021508845	1	2,36016713E-005	5,86652362E-008
2	0	0	1	0	69,8598	0,248770043	0,249412864	-0,00024707737524025664	1	2,32803886E-005	6,16242772E-008
2	0	0	0	0	71,2600	0,220768318	0,221290752	-0,00028272276476518218	1	2,29091129E-005	6,25639345E-008
2	0	0	0	0	72,6600	0,192766622	0,193369076	-0,00031801933959353914	1	2,24883443E-005	6,14951077E-008
2	0	0	0	0	74,0600	0,164764896	0,165304869	-0,0003531227384546247	1	2,20182537E-005	5,83729083E-008
2	0	0	1	0	75,4602	0,13676317	0,137155995	-0,00038824663203774342	1	2,14989068E-005	5,32503535E-008
2	0	0	1	0	76,8602	0,108761474	0,109403625	-0,00042316390634503642	1	2,09306036E-005	4,62956642E-008
2	0	0	0	0	78,2604	0,0807597637	0,0813394114	-0,00045781738986584461	1	2,0313455E-005	3,72385962E-008
2	0	0	0	0	79,6604	0,0527580418	0,0533019155	-0,00049226194567853363	1	1,96479577E-005	2,62385047E-008
2	0	0	1	0	81,0606	0,0247563291	0,0253178887	-0,00052655280308466086	1	1,89344137E-005	1,33312055E-008
2	0	0	1	0	82,4606	-0,00324538653	-0,00263495184	-0,00056071246439791392	1	1,81729774E-005	1,47745038E-009
2	0	0	1	0	83,8606	-0,031247111	-0,0306100845	-0,0005948719783730304	1	1,736378E-005	1,82090822E-008
2	0	0	0	0	85,2608	-0,0592488423	-0,0586876906	-0,00062891102115153434	1	1,65067286E-005	3,69093343E-008
2	0	0	0	0	86,6608	-0,087250568	-0,086662814	-0,00066261437657683456	1	1,56023816E-005	5,74240282E-008
2	0	0	1	0	88,0610	-0,115252294	-0,114642404	-0,00069629610772136704	1	1,46507073E-005	7,98250568E-008
2	0	0	1	0	89,4610	-0,143254027	-0,14268437	-0,00072977847035131379	1	1,36521567E-005	1,04127984E-007
2	0	0	0	0	90,8612	-0,171255738	-0,170695141	-0,00076323995886519795	1	1,26065888E-005	1,3028135E-007
2	0	0	0	0	92,2612	-0,199257493	-0,198630184	-0,00079657200600464525	1	1,15143639E-005	1,58223244E-007
2	0	0	0	0	93,6612	-0,227259219	-0,226427078	-0,00082978889420498752	1	1,03755283E-005	1,8788667E-007
2	0	0	1	0	95,0614	-0,255260944	-0,254665107	-0,00086297240570140173	1	9,1901511E-006	2,19768964E-007
2	0	0	1	0	96,4614	-0,28326267	-0,282782793	-0,00089561481878195482	1	7,95885717E-006	2,5326446E-007
2	0	0	0	0	97,8616	-0,311264396	-0,310740113	-0,00092844550966186125	1	6,68156372E-006	2,88505277E-007
2	0	0	0	0	99,2616	-0,339266121	-0,338706315	-0,00096142907043233677	1	5,35851814E-006	3,25642105E-007
2	0	0	1	0	100,6618	-0,367267847	-0,366841882	-0,00099400617815532685	1	3,9893348E-006	3,64643086E-007
2	0	0	1	0	102,0618	-0,395269573	-0,394473881	-0,001026750180581409	1	2,5744996E-006	4,05026128E-007
2	0	0	1	0	103,4619	-0,423271716	-0,42256096	-0,0010591364483105437	1	1,11399925E-006	4,47549724E-007
2	0	0	0	0	104,8620	-0,451273054	-0,450526625	-0,0010915060723804045	1	-3,91875801E-007	4,9175253E-007
2	0	0	0	0	106,2620	-0,47927475	-0,478550822	-0,0011238924050337197	1	-1,94302743E-006	5,37839639E-007
2	0	0	1	0	107,6622	-0,507276475	-0,506828845	-0,0011562584217312266	1	-3,53970199E-006	5,86025124E-007
2	0	0	1	0	109,0622	-0,535278141	-0,534714937	-0,0011886210598243459	1	-5,18140223E-006	6,35573429E-007
2	0	0	0	0	110,4624	-0,563279986	-0,562600911	-0,0012208515704346406	1	-6,86863132E-006	6,86852218E-007
2	0	0	0	0	111,8624	-0,591281712	-0,590571642	-0,001253017803483761	1	-8,60066029E-006	7,39996779E-007
2	0	0	1	0	113,2626	-0,619283438	-0,618782818	-0,0012848907063771221	1	-1,0377762E-005	7,95068274E-007
2	0	0	1	0	114,6626	-0,647285044	-0,646561921	-0,0013169529560804643	1	-1,21993144E-005	8,5149162E-007
2	0	0	1	0	116,0626	-0,675286829	-0,674915731	-0,0013489060576022064	1	-1,40656903E-005	9,10397944E-007
2	0	0	0	0	117,4628	-0,703288615	-0,702556789	-0,0013810932140148509	1	-1,59771989E-005	9,70296469E-007
2	0	0	0	0	118,8628	-0,731290281	-0,730411589	-0,0014129495453003259	1	-1,79333019E-005	1,03203467E-006
2	0	0	1	0	120,2630	-0,759292066	-0,758560538	-0,0014449046400302342	1	-1,99343995E-005	1,09604764E-006
2	0	0	1	0	121,6630	-0,787293732	-0,786709428	-0,0014766827914206269	1	-2,19798585E-005	1,16172032E-006
2	0	0	0	0	123,0632	-0,815295517	-0,81468904	-0,0015086312216428531	1	-2,40702338E-005	1,22906533E-006
2	0	0	0	0	124,4632	-0,843297184	-0,842597306	-0,001540418061874025	1	-2,62048143E-005	1,29795205E-006
2	0	0	0	0	125,8632	-0,871298969	-0,870665967	-0,0015724480386038739	1	-2,83841036E-005	1,36907704E-006
2	0	0	1	0	127,2634	-0,899300635	-0,898462951	-0,0016043047990361056	1	-3,06084294E-005	1,44140847E-006
2	0	0	1	0	128,6634	-0,92730242	-0,926593959	-0,0016362019307928634	1	-3,28770548E-005	1,51609481E-006
2	0	0	0	0	130,0636	-0,955304146	-0,954783022	-0,0016676026910621072	1	-3,51904055E-005	1,59219871E-006
2	0	0	0	0	131,4636	-0,983305871	-0,982642174	-0,001699462694685079	1	-3,75475465E-005	1,66996369E-006
2	1	0	1	1	132,7542	-0,990906358	-0,990265369	-0,0016999347895357981	1	-3,97528056E-005	1,68338659E-006
2	1	0	1	1	134,1542	-0,962904513	-0,962205529	-0,001649918407902415	1	-4,20962497E-005	1,58756063E-006
2	1	0	0	1	135,5544	-0,934902906	-0,934225976	-0,0016029003255189888	1	-4,43730132E-005	1,49747109E-006
2	1	0	0	1	136,9544	-0,906901121	-0,90620178	-0,0015568437992004512	1	-4,65843041E-005	1,41081466E-006
2	1	0	0	1	138,3545	-0,878898919	-0,878173947	-0,0015118016015913341	1	-4,87319667E-005	1,32762477E-006
2	1	0	1	1	139,7546	-0,85089767	-0,850447595	-0,0014674118162171651	1	-5,08171142E-005	1,2479569E-006
2	1	0	1	1	141,1546	-0,822895944	-0,822187364	-0,0014235371714608776	1	-5,28403798E-005	1,17041429E-006
2	1	0	0	1	142,5548	-0,794894218	-0,794234455	-0,001380301986770324	1	-5,48030548E-005	1,09628343E-006
2	1	0	0	1	143,9548	-0,766892493	-0,766370773	-0,0013371498834102474	1	-5,67047136E-005	1,02475258E-006
2	1	0	1	1	145,3550	-0,738890767	-0,738204002	-0,0012944523406514691	1	-5,8546746E-005	9,55569931E-007
2	1	0	1	1	146,7550	-0,710889041	-0,710268974	-0,001252491496011819	1	-6,03292683E-005	8,89605872E-007
2	1	0	1	1	148,1551	-0,682888627	-0,682348311	-0,0012104402063698155	1	-6,20531428E-005	8,25941811E-007
2	1	0	0	1	149,5552	-0,65488553	-0,654185057	-0,0011692683929814597	1	-6,37184785E-005	7,649179E-007
2	1	0	0	1	150,9552	-0,626883864	-0,626321316	-0,0011275499472739488	1	-6,53252428E-005	7,06208539E-007
2	1	0	1	1	152,3554	-0,598882079	-0,598167956	-0,0010863295369576733	1	-6,68747962E-005	6,49807532E-007
2	1	0	1	1	153,7554	-0,570880413	-0,570183933	-0,0010455094635728035	1	-6,83667022E-005	5,96132679E-007
2	1	0	0	1	155,1556	-0,542878628	-0,542199969	-0,0010048738029716509	1	-6,9801783E-005	5,44842521E-007
2	1	0	0	1	156,5556	-0,514876962	-0,514296055	-0,00096434770508763661	1	-7,11799294E-005	4,95960194E-007
2	1	0	1	1	157,9558	-0,486875206	-0,486160517	-0,00092411257813822349	1	-7,25016871E-005	4,49267048E-007
2	1	0	1	1	159,3558	-0,45887351	-0,458185375	-0,00088434564033242765	1	-7,37671944E-005	4,05194243E-007
2	1	0	1	1	160,7558	-0,430871755	-0,430152357	-0,00084469227160163456	1	-7,49772735E-005	3,63346373E-007
2	1	0	0	1	162,1560	-0,402870059	-0,402114809	-0,00080520660304938406	1	-7,61320698E-005	3,23785486E-007
2	1	0	0	1	163,5560	-0,374868304	-0,374019414	-0,00076566358701610214	1	-7,72314088E-005	2,86373051E-007
2	1	0	1	1	164,9562	-0,346866578	-0,34632051	-0,00072661192953765376	1	-7,8275807E-005	2,51640614E-007
2	1	0	1	1	166,3562	-0,318864852	-0,318278551	-0,00068776953432663808	1	-7,92655774E-005	2,18902287E-007
2	1	0	0	1	167,7564	-0,290863127	-0,290058374	-0,00064893420737159066	1	-8,02010036E-005	1,88228796E-007
2	1	0	0	1	169,1564	-0,262861401	-0,262221336	-0,00061035806707136934	1	-8,10821584E-005	1,60048913E-007
2	1	0	0	1	170,5564	-0,23485966	-0,234179407	-0,00057191129107431443	1	-8,19093839E-005	1,33929845E-007
2	1	0	1	1	171,9566	-0,206857964	-0,206373572	-0,00053373571400125613	1	-8,26827454E-005	1,10148946E-007
2	1	0	1	1	173,3566	-0,178856209	-0,178287074	-0,00049567171744355386	1	-8,34030507E-005	8,83718627E-008
2	1	0	0	1	174,7568	-0,150854498	-0,150066867	-0,00045795446782937504	1	-8,40704015E-005	6,87237929E-008
2	1	0	0	1	176,1568	-0,122852765	-0,122314513	-0,00042031835713445203	1	-8,4684958E-005	5,14110354E-008
2	1	0	1	1	177,5570	-0,0948510394	-0,0942057297	-0,00038260950926390611	1	-8,52467419E-005	3,60440069E-008
2	1	0	1	1	178,9570	-0,0668493137	-0,0660122782	-0,0003452438832701552	1	-8,57559426E-005	2,2790335E-008
2	1	0	1	1	180,3570	-0,0388475806	-0,0382955559	-0,00030812205174394496	1	-8,62130182E-005	1,17997052E-008
2	1	0	0	1	181,7572	-0,0108458549	-0,010409534	-0,00027116658970448509	1	-8,66182163E-005	2,82271784E-009
2	1	0	0	1	183,1572	0,0171558633	0,017717069	-0,00023448261227140659	1	-8,69717915E-005	4,15434442E-009
2	1	0	1	1	184,5574	0,0451575816	0,0456610024	-0,00019762640547721994	1	-8,72739256E-005	9,02381991E-009
2	1	0	1	1	185,9574	0,0731592923	0,0737920552	-0,0001608853237687279	1	-8,75245678E-005	1,18720589E-008
2	1	0	0	1	187,3576	0,101160996	0,101780534	-0,00012456179958327853	1	-8,77241328E-005	1,26779662E-008
2	1	0	0	1	188,7576	0,129162714	0,129809126	-8,852286329649175E-005	1	-8,78729188E-005	1,14910756E-008
2	1	0	0	1	190,1576	0,15716444	0,157775342	-5,2360108704171635E-005	1	-8,79711806E-005	8,261134E-009
2	1	0	1	1	191,5578	0,18516615	0,185795009	-1,6363436232483005E-005	1	-8,801902E-005	3,04024472E-009
2	1	0	1	1	192,9578	0,213167861	0,213792399	1,9614536859712115E-005	1	-8,80164516E-005	4,19343893E-009
2	1	0	0	1	194,3580	0,241169572	0,241816521	5,5269033198244486E-005	1	-8,79637155E-005	1,33649651E-008
2	1	0	0	1	195,7580	0,269171298	0,26975596	9,0749066051406093E-005	1	-8,78611172E-005	2,44801015E-008
2	1	0	1	1	197,1582	0,297173023	0,297445983	0,00012621082590124352	1	-8,7708846E-005	3,75409037E-008
2	1	0	1	1	198,5582	0,325174719	0,325706244	0,0001614945984463839	1	-8,750712E-005	5,25997983E-008
2	1	0	1	1	199,9482	0,352976412	0,353580147	0,00019651353609550019	1	-8,72580422E-005	6,94832849E-008
2	1	0	0	0	201,2582	0,377377898	0,378007561	0,00022734523988927152	2	2,48733187E-007	8,59382183E-008
2	1	0	0	0	202,6582	0,405379623	0,40584898	0,00026209483665432435	2	5,91632954E-007	1,06370919E-007
2	1	0	1	0	204,0584	0,433381349	0,433779567	0,00029662725932279622	2	9,83123073E-007	1,28670848E-007
2	1	0	1	0	205,4584	0,461383015	0,46195069	0,00033124761298326982	2	1,4229372E-006	1,53020068E-007
2	1	0	0	0	206,8586	0,48938477	0,489854544	0,00036587413001985466	2	1,91126651E-006	1,79225111E-007
2	1	0	0	0	208,2586	0,517386496	0,517972291	0,00040034164959689562	2	2,44789112E-006	2,07365886E-007
2	1	0	0	0	209,6586	0,545388222	0,546005189	0,00043480488851923085	2	3,03281581E-006	2,37405729E-007
2	1	0	1	0	211,0588	0,573389888	0,573949158	0,00046889459534011411	2	3,66577433E-006	2,69121671E-007
2	1	0	1	0	212,4588	0,601391673	0,602080286	0,00050296525356922394	2	4,34639196E-006	3,0282547E-007
2	1	0	0	0	213,8590	0,629393399	0,629841566	0,00053688803698740634	2	5,07473806E-006	3,38154393E-007
2	1	0	0	0	215,2590	0,657395065	0,658003807	0,00057077909473769638	2	5,85047337E-006	3,75574814E-007
2	1	0	1	0	216,6592	0,685396791	0,685947716	0,00060466445318996774	2	6,67375343E-006	4,14768209E-007
2	1	0	1	0	218,0592	0,713398457	0,714029729	0,00063842308487370048	2	7,54425582E-006	4,55853069E-007
2	1	0	1	0	219,4592	0,741400242	0,742067218	0,0006718741103584215	2	8,46178409E-006	4,9857573E-007
2	1	0	0	0	220,8594	0,769401908	0,770015597	0,00070512780540512781	2	9,42610586E-006	5,42959413E-007
2	1	0	0	0	222,2594	0,797403693	0,797932744	0,00073847036064425818	2	1,04369128E-005	5,8924968E-007
2	1	0	1	0	223,6596	0,8254053	0,825832188	0,00077169455013332941	2	1,14944633E-005	6,37290213E-007
2	1	0	1	0	225,0596	0,853407085	0,853989959	0,00080496288231828544	2	1,25983679E-005	6,87430202E-007
2	1	0	0	0	226,4598	0,881408751	0,882009685	0,00083789936104073165	2	1,37487959E-005	7,39035329E-007
2	1	0	0	0	227,8598	0,909410417	0,910127342	0,00087078733620863347	2	1,49451798E-005	7,92527374E-007
2	1	0	0	0	229,2598	0,937412202	0,938084543	0,00090347743173845594	2	1,61875141E-005	8,47538217E-007
2	1	0	1	0	230,6600	0,965413868	0,96581912	0,0009361760841986519	2	1,74758388E-005	9,04176773E-007
2	1	0	1	0	232,0600	0,993415713	0,993954718	0,00096881010338418112	2	1,88096328E-005	9,62953322E-007
2	0	0	0	0	233,3406	0,980814874	0,981301606	0,00093924147074209843	2	2,00400118E-005	9,21679145E-007
2	0	0	0	0	234,7406	0,952813208	0,95338428	0,00089117939677197184	2	2,13206367E-005	8,49636422E-007
2	0	0	1	0	236,1408	0,924811423	0,925315619	0,00084520826607735808	2	2,25357326E-005	7,82084385E-007
2	0	0	1	0	237,5408	0,896809697	0,897384942	0,00080031314023977139	2	2,36872056E-005	7,18188971E-007
2	0	0	0	0	238,9410	0,868807971	0,869463325	0,00075622807391347712	2	2,47765929E-005	6,57512601E-007
2	0	0	0	0	240,3410	0,840806246	0,841443777	0,00071288599044944678	2	2,5804602E-005	5,99853479E-007
2	0	0	0	0	241,7411	0,812802792	0,8133021	0,0006703766464818761	2	2,6772479E-005	5,45218711E-007
2	0	0	1	0	243,1412	0,784802794	0,785275161	0,00062802371198982054	2	2,76811188E-005	4,93171399E-007
2	0	0	1	0	244,5412	0,756801188	0,757402539	0,0005860498176507136	2	2,85306778E-005	4,43875621E-007
2	0	0	0	0	245,9414	0,728799403	0,729244769	0,00054447172193182304	2	2,93217981E-005	3,97053157E-007
2	0	0	0	0	247,3414	0,700797796	0,701430023	0,00050336132517259104	2	3,00549236E-005	3,5307275E-007
2	0	0	1	0	248,7416	0,672796011	0,67334795	0,00046255004653411763	2	3,07307928E-005	3,11457114E-007
2	0	0	1	0	250,1416	0,644794285	0,645221353	0,00042208087958257606	2	3,13496857E-005	2,72335598E-007
2	0	0	1	0	251,5417	0,616792083	0,617272735	0,00038179295856705702	2	3,19120954E-005	2,35670385E-007
2	0	0	0	0	252,9418	0,588790834	0,589418113	0,00034186472688209779	2	3,24182911E-005	2,01501265E-007
2	0	0	0	0	254,3418	0,560789168	0,56143856	0,00030223228036953133	2	3,28688257E-005	1,69684853E-007
2	0	0	1	0	255,7420	0,532787442	0,533365428	0,00026304801536348832	2	3,3264354E-005	1,40300713E-007
2	0	0	1	0	257,1420	0,504785717	0,505359173	0,00022406753760151322	2	3,36049925E-005	1,13234584E-007
2	0	0	0	0	258,5422	0,476783991	0,477339447	0,00018503420175909091	2	3,3891065E-005	8,83241214E-008
2	0	0	0	0	259,9422	0,448782295	0,449297547	0,00014648171288542861	2	3,41227969E-005	6,58138717E-008
2	0	0	0	0	261,3423	0,420782328	0,42128849	0,00010808343052703778	2	3,43006795E-005	4,5534307E-008
2	0	0	1	0	262,7424	0,392778844	0,393480927	7,0098035916156326E-005	2	3,44250802E-005	2,75822405E-008
2	0	0	1	0	264,1424	0,364777148	0,365412265	3,2192786942754566E-005	2	3,44962791E-005	1,1763639E-008
2	0	0	0	0	265,5426	0,336775422	0,337325782	-5,5391691671318298E-006	2	3,45146109E-005	1,86850446E-009
2	0	0	0	0	266,9426	0,308773726	0,309332818	-4,3081788989925197E-005	2	3,44802138E-005	1,33266109E-008
2	0	0	1	0	268,3428	0,280772001	0,281384408	-8,0268250055976448E-005	2	3,43935135E-005	2,25862333E-008
2	0	0	1	0	269,7428	0,252770275	0,253413767	-0,00011618924943629981	2	3,42550156E-005	2,94439548E-008
2	0	0	0	0	271,1430	0,224768564	0,225269362	-0,0001541252845358767	2	3,40651386E-005	3,47197044E-008
2	0	0	0	0	272,5430	0,196766838	0,197343245	-0,00019063961619597037	2	3,38234713E-005	3,76214402E-008
2	0	0	0	0	273,9430	0,168765143	0,169506252	-0,00022715395061822986	2	3,35307159E-005	3,8504016E-008
2	0	0	1	0	275,3432	0,140763432	0,141250461	-0,00026354127014740419	2	3,31872179E-005	3,72253268E-008
2	0	0	1	0	276,7432	0,112761714	0,113507003	-0,00029556633516794592	2	3,27939561E-005	3,35488473E-008
2	0	0	0	0	278,1434	0,0847600028	0,0853492394	-0,00033534701601133178	2	3,23509666E-005	2,86216135E-008
2	0	0	0	0	279,5434	0,056758292	0,0574008413	-0,0003709123095379447	2	3,18562743E-005	2,12906794E-008
2	0	0	1	0	280,9436	0,0287565738	0,0293143354	-0,00040646006312238662	2	3,13117089E-005	1,19151062E-008
2	0	0	1	0	282,3436	0,000742678356	0,00128575391	-0,00044195422365360045	2	3,07174378E-005	5,68244396E-010
2	0	0	1	0	283,7436	-0,0272468682	-0,0267383847	-0,00047709959795207059	2	3,00739266E-005	1,27568729E-008
2	0	0	0	0	285,1438	-0,0552485958	-0,0544640124	-0,00051181435716258874	2	2,93816283E-005	2,78754637E-008
2	0	0	0	0	286,5438	-0,0832503289	-0,0826129094	-0,00054664583459035053	2	2,8640221E-005	4,51600037E-008
2	0	0	1	0	287,9440	-0,111252047	-0,110521205	-0,00058143680123774131	2	2,78503121E-005	6,42610942E-008
2	0	0	1	0	289,3440	-0,139253765	-0,138638914	-0,00061628653458211699	2	2,70124019E-005	8,54412932E-008
2	0	0	0	0	290,7442	-0,167255506	-0,166734338	-0,00065042615299009536	2	2,612567E-005	1,08448376E-007
2	0	0	0	0	292,1442	-0,195257217	-0,194718376	-0,00068483185121429734	2	2,51908186E-005	1,33349346E-007
2	0	0	0	0	293,5442	-0,223258957	-0,222519755	-0,00071879004469708429	2	2,42081078E-005	1,59944989E-007
2	0	0	1	0	294,9444	-0,251260698	-0,250601828	-0,00075279040188265882	2	2,31776539E-005	1,88650645E-007
2	0	0	1	0	296,3444	-0,279262394	-0,278617054	-0,00078682340150677645	2	2,20996062E-005	2,19222414E-007
2	0	0	0	0	297,7446	-0,307264119	-0,306641161	-0,00082023512880334976	2	2,09739756E-005	2,51517861E-007
2	0	0	0	0	299,1446	-0,335265845	-0,33468312	-0,00085422735679053722	2	1,98014441E-005	2,85895482E-007
2	0	0	1	0	300,5448	-0,36326763	-0,362751842	-0,00088725596746102106	2	1,85816571E-005	3,21853747E-007
2	0	0	1	0	301,9448	-0,391269356	-0,390499711	-0,00092075877101806784	2	1,73156914E-005	3,59556026E-007
2	0	0	1	0	303,3448	-0,419271082	-0,418653071	-0,00095417195660519104	2	1,60030286E-005	3,99467012E-007
2	0	0	0	0	304,7450	-0,447272837	-0,446677238	-0,0009812586174154647	2	1,4644882E-005	4,38305875E-007
2	0	0	0	0	306,1450	-0,475274533	-0,474679053	-0,0010209575795872491	2	1,32389596E-005	4,84627151E-007
2	0	0	1	0	307,5452	-0,503276289	-0,502680957	-0,0010537605132278152	2	1,17862119E-005	5,29705346E-007
2	0	0	1	0	308,9452	-0,531277955	-0,530629337	-0,0010866015398749846	2	1,02876602E-005	5,76582636E-007
2	0	0	0	0	310,3454	-0,55927974	-0,55871141	-0,0011194888569729358	2	8,74283614E-006	6,25471216E-007
2	0	0	0	0	311,7454	-0,587281406	-0,586735547	-0,0011523147905892138	2	7,15227634E-006	6,76104037E-007
2	0	0	0	0	313,1454	-0,615283132	-0,614701748	-0,0011851912142312189	2	5,51571429E-006	7,28539135E-007
2	0	0	1	0	314,5456	-0,643284857	-0,642703593	-0,0012175614252488158	2	3,8329008E-006	7,82531117E-007
2	0	0	1	0	315,9456	-0,671286583	-0,670678794	-0,0012506100729633878	2	2,10491476E-006	8,38757671E-007
2	0	0	0	0	317,3458	-0,699288309	-0,698734045	-0,0012829338648535472	2	3,30956595E-007	8,96429583E-007
2	0	0	0	0	318,7458	-0,727290034	-0,726517677	-0,0013154382283607526	2	-1,4881482E-006	9,55689075E-007
2	0	0	1	0	320,1460	-0,75529182	-0,754577458	-0,0013479278052357171	2	-3,3529966E-006	1,01711589E-006
2	0	0	1	0	321,5460	-0,783293486	-0,782516897	-0,0013804256360109091	2	-5,26315398E-006	1,0802064E-006
2	0	0	1	0	322,9460	-0,811295271	-0,810652554	-0,0014129505131374349	2	-7,21888182E-006	1,14541194E-006
2	0	0	0	0	324,3462	-0,839296877	-0,838783443	-0,0014452957883703578	2	-9,22023901E-006	1,21229016E-006
2	0	0	0	0	325,7462	-0,867298722	-0,866460145	-0,0014777348566254925	2	-1,12666239E-005	1,28039835E-006
2	0	0	1	0	327,1464	-0,895300388	-0,894524395	-0,0015101112311876259	2	-1,33586391E-005	1,35083133E-006
2	0	0	1	0	328,5464	-0,923302174	-0,92271781	-0,0015426007160352083	2	-1,54958034E-005	1,42338513E-006
2	0	0	0	0	329,9466	-0,95130384	-0,950599313	-0,0015751159665308502	2	-1,76787726E-005	1,4973042E-006
2	0	0	0	0	331,3466	-0,979305625	-0,978574455	-0,0016077641094280269	2	-1,99070255E-005	1,57331692E-006
2	1	0	1	1	332,6372	-0,994906545	-0,994315267	-0,0016204166647555555	2	-2,19989815E-005	1,61120499E-006
2	1	0	1	1	334,0372	-0,966904819	-0,966161907	-0,0015702451933908256	2	-2,42314782E-005	1,51711106E-006
2	1	0	0	1	335,4374	-0,938903093	-0,938124478	-0,0015233956627424896	2	-2,63967759E-005	1,42913473E-006
2	1	0	0	1	336,8374	-0,910901368	-0,910175979	-0,0014779587383802448	2	-2,84973248E-005	1,34520258E-006
2	1	0	0	1	338,2374	-0,882899642	-0,882094026	-0,0014336390123827619	2	-3,0535095E-005	1,26460441E-006
2	1	0	1	1	339,6376	-0,854897916	-0,854457378	-0,0013898621527241006	2	-3,25114343E-005	1,18757794E-006
2	1	0	1	1	341,0376	-0,82689631	-0,82632184	-0,001346454916158653	2	-3,44264554E-005	1,1126051E-006
2	1	0	0	1	342,4378	-0,798894465	-0,798115134	-0,0013038115376494494	2	-3,62815226E-005	1,04059177E-006
2	1	0	0	1	343,8378	-0,77089268	-0,770073116	-0,0012615690644047842	2	-3,80767524E-005	9,71500413E-007
2	1	0	1	1	345,2380	-0,742891014	-0,742182612	-0,001219513220281368	2	-3,98134071E-005	9,05101501E-007
2	1	0	1	1	346,6380	-0,714889288	-0,714238703	-0,0011779619584289072	2	-4,14911483E-005	8,41346036E-007
2	1	0	1	1	348,0380	-0,686887562	-0,686312616	-0,0011360338891487701	2	-4,31091576E-005	7,79674394E-007
2	1	0	0	1	349,4382	-0,658885717	-0,658319592	-0,0010950258267122883	2	-4,46710437E-005	7,20876983E-007
2	1	0	0	1	350,8382	-0,630884111	-0,630148411	-0,0010542523042305317	2	-4,61753625E-005	6,64335403E-007
2	1	0	1	1	352,2384	-0,602882326	-0,602311432	-0,0010138860753041053	2	-4,76229434E-005	6,10675158E-007
2	1	0	1	1	353,6384	-0,57488066	-0,574198186	-0,00097337911332336538	2	-4,90136044E-005	5,58912518E-007
2	1	0	0	1	355,0386	-0,546878874	-0,546205282	-0,00093314094111620992	2	-5,03480405E-005	5,09686515E-007
2	1	0	0	1	356,4386	-0,518877208	-0,518256783	-0,00089331210849060736	2	-5,16262153E-005	4,62965062E-007
2	1	0	0	1	357,8386	-0,490875453	-0,490237176	-0,00085388648679967245	2	-5,28490054E-005	4,18606902E-007
2	1	0	1	1	359,2388	-0,462873787	-0,46221751	-0,00081445902685151757	2	-5,40166548E-005	3,76457223E-007
2	1	0	1	1	360,6388	-0,434872001	-0,43426016	-0,00077508985648616986	2	-5,51290468E-005	3,36590631E-007
2	1	0	0	1	362,0390	-0,406870335	-0,406022161	-0,00073598919031307264	2	-5,61866145E-005	2,98827928E-007
2	1	0	0	1	363,4390	-0,37886855	-0,378073752	-0,00069719951716251674	2	-5,71895216E-005	2,63592824E-007
2	1	0	1	1	364,8392	-0,350866824	-0,350343674	-0,00065848093577693107	2	-5,81383574E-005	2,30694624E-007
2	1	0	1	1	366,2392	-0,322865099	-0,32194531	-0,00062005262595818995	2	-5,90330783E-005	1,99623031E-007
2	1	0	1	1	367,6392	-0,294863343	-0,294157326	-0,00058174838159175514	2	-5,98739935E-005	1,71125549E-007
2	1	0	0	1	369,0394	-0,266861647	-0,266262352	-0,00054350595113377382	2	-6,06614049E-005	1,44715173E-007
2	1	0	0	1	370,4394	-0,238859922	-0,238198116	-0,00050564204522945446	2	-6,13954689E-005	1,20442976E-007
2	1	0	1	1	371,8396	-0,210858196	-0,210258633	-0,00046813592106681587	2	-6,20768769E-005	9,84296165E-008
2	1	0	1	1	373,2396	-0,18285647	-0,1823726	-0,00043047183060951866	2	-6,27055633E-005	7,85062682E-008
2	1	0	0	1	374,6398	-0,154854745	-0,154103428	-0,00039293319120285286	2	-6,3281761E-005	6,05523525E-008
2	1	0	0	1	376,0398	-0,126853019	-0,126359969	-0,00035562864899542528	2	-6,38054407E-005	4,49372237E-008
2	1	0	0	1	377,4399	-0,0988495201	-0,0983033627	-0,00031851631010152518	2	-6,42770829E-005	3,13112238E-008
2	1	0	1	1	378,8400	-0,0708495602	-0,0701468438	-0,0002815886155750143	2	-6,46969056E-005	1,97525534E-008
2	1	0	1	1	380,2400	-0,0428478308	-0,0420558676	-0,00024482605035532208	2	-6,506512E-005	1,02963718E-008
2	1	0	0	1	381,6402	-0,0148461033	-0,0142901437	-0,00020825073267958464	2	-6,53819807E-005	2,97593283E-009
2	1	0	0	1	383,0402	0,0131556187	0,013729536	-0,00017169031192073181	2	-6,56477205E-005	2,35722841E-009
2	1	0	1	1	384,4404	0,041157335	0,04174475	-0,00013539431138606586	2	-6,58624122E-005	5,65200153E-009
2	1	0	1	1	385,8404	0,0691590533	0,0697911531	-9,9369365873119757E-005	2	-6,60263831E-005	6,93510271E-009
2	1	0	1	1	387,2405	0,09715987	0,0979218185	-6,3315541065094195E-005	2	-6,61399827E-005	6,19997298E-009
2	1	0	0	1	388,6406	0,125162467	0,125679016	-2,7414147776080685E-005	2	-6,62032617E-005	3,44538309E-009
2	1	0	0	1	390,0406	0,153164193	0,153622955	8,3685952433148954E-006	2	-6,62162929E-005	1,28560829E-009
2	1	0	1	1	391,4408	0,181165904	0,181736171	4,400380806533527E-005	2	-6,61792801E-005	7,99708388E-009
2	1	0	1	1	392,8408	0,209167629	0,209706843	7,948280229660032E-005	2	-6,60925434E-005	1,66680874E-008
2	1	0	0	1	394,2410	0,237169325	0,23777996	0,0001147683404909641	2	-6,59562429E-005	2,72896106E-008
2	1	0	0	1	395,6410	0,265171051	0,266040206	0,00014997376855616464	2	-6,57706187E-005	3,9899053E-008
2	1	0	1	1	397,0412	0,293172777	0,293699026	0,00018507630139302486	2	-6,55357871E-005	5,43567289E-008
2	1	0	1	1	398,4412	0,321174473	0,321607322	0,00022000067966237818	2	-6,52519157E-005	7,07538277E-008
2	1	0	1	1	399,8412	0,349176168	0,34964928	0,00025486466273394848	2	-6,49191279E-005	8,9113243E-008
2	1	0	0	0	401,1580	0,373977721	0,374403149	0,00028617388529204998	3	2,65535846E-007	1,07144402E-007
2	1	0	0	0	402,5580	0,401979387	0,402618825	0,00032007690801778976	3	6,90107697E-007	1,2886899E-007
2	1	0	1	0	403,9582	0,429981112	0,430593967	0,00035433493128409626	3	1,1626222E-006	1,52574486E-007
2	1	0	1	0	405,3582	0,457982838	0,458524555	0,00038879741340578157	3	1,68315592E-006	1,78273154E-007
2	1	0	1	0	406,7582	0,485984534	0,486486286	0,0004231406719217945	3	2,25178155E-006	2,05852132E-007
2	1	0	0	0	408,1584	0,513986349	0,514652967	0,00045724861613254726	3	2,86839804E-006	2,3532435E-007
2	1	0	0	0	409,5584	0,541988015	0,542512298	0,00049122933375689984	3	3,53260498E-006	2,66497949E-007
2	1	0	1	0	410,9586	0,569989681	0,570661128	0,00052512013651183008	3	4,24442715E-006	2,99665658E-007
2	1	0	1	0	412,3586	0,597991407	0,598867953	0,00055894278294646176	3	5,00353917E-006	3,34732931E-007
2	1	0	0	0	413,7588	0,625993133	0,626682758	0,00059270870338810701	3	5,81010272E-006	3,71440336E-007
2	1	0	0	0	415,1588	0,653994977	0,654492974	0,00062632393807386317	3	6,66376718E-006	4,0992461E-007
2	1	0	0	0	416,5589	0,681997001	0,682455182	0,00065982817053505075	3	7,56448389E-006	4,50303162E-007
2	1	0	1	0	417,9590	0,70999831	0,710603595	0,0006930257534097303	3	8,51186724E-006	4,92466597E-007
2	1	0	1	0	419,3590	0,737999976	0,738569796	0,0007263798481155241	3	9,50574213E-006	5,36482219E-007
2	1	0	0	0	420,7592	0,766001761	0,76666522	0,00075954491708047846	3	1,05463405E-005	5,82316659E-007
2	1	0	0	0	422,1592	0,794003427	0,794635832	0,00079279351862000909	3	1,16332976E-005	6,29982139E-007
2	1	0	1	0	423,5594	0,822005093	0,822637737	0,00082593558397126874	3	1,27668354E-005	6,79445805E-007
2	1	0	1	0	424,9594	0,850006759	0,850474656	0,000858833474113552	3	1,39460244E-005	7,30416104E-007
2	1	0	0	0	426,3596	0,878008544	0,878485441	0,00089163300004589837	3	1,51717868E-005	7,83286623E-007
2	1	0	0	0	427,7596	0,90601033	0,90662092	0,00092424506699360576	3	1,64432404E-005	8,37939922E-007
2	1	0	0	0	429,1596	0,934011936	0,934662879	0,0009569933483564649	3	1,77604052E-005	8,94466154E-007
2	1	0	1	0	430,5598	0,962013781	0,962513387	0,00098970331897295027	3	1,91235758E-005	9,52602704E-007
2	1	0	1	0	431,9598	0,990015388	0,990497351	0,0010221149831421712	3	2,05322358E-005	1,01240221E-006
2	0	0	0	0	433,2104	0,984815121	0,985436082	0,0010037071519440818	3	2,18100522E-005	9,89089244E-007
2	0	0	0	0	434,6104	0,956813455	0,957425296	0,0009549902056783625	3	2,31803479E-005	9,14331793E-007
2	0	0	1	0	436,0106	0,928811669	0,929525912	0,00090850926938367514	3	2,4484425E-005	8,44482884E-007
2	0	0	1	0	437,4106	0,900810003	0,901341438	0,00086359879693460173	3	2,57244446E-005	7,78397407E-007
2	0	0	0	0	438,8108	0,872808218	0,873344004	0,00081939318692160742	3	2,69022603E-005	7,15612146E-007
2	0	0	0	0	440,2108	0,844806433	0,845422387	0,00077577251512492634	3	2,80185031E-005	6,55855445E-007
2	0	0	0	0	441,6108	0,816804826	0,817358077	0,00073280863054808051	3	2,90740445E-005	5,98967063E-007
2	0	0	1	0	443,0110	0,788803101	0,789302826	0,00069025569461734349	3	3,00700322E-005	5,4482075E-007
2	0	0	1	0	444,4110	0,760801494	0,761372268	0,00064850631544551872	3	3,10069117E-005	4,93754726E-007
2	0	0	0	0	445,8112	0,732799649	0,733370423	0,00060673134747183526	3	3,18854109E-005	4,44958829E-007
2	0	0	0	0	447,2112	0,704798043	0,705364048	0,00056532443731730074	3	3,27055932E-005	3,98759539E-007
2	0	0	1	0	448,6114	0,676796257	0,677393436	0,00052435703892789005	3	3,34681426E-005	3,55196022E-007
2	0	0	1	0	450,0114	0,648794591	0,649467349	0,00048374686499570374	3	3,41734521E-005	3,14177782E-007
2	0	0	1	0	451,4114	0,620792806	0,621305048	0,00044341522233379501	3	3,48221183E-005	2,7549612E-007
2	0	0	0	0	452,8116	0,59279108	0,593503714	0,00040338186483023821	3	3,54146032E-005	2,39408621E-007
2	0	0	0	0	454,2116	0,564789355	0,565243483	0,00036329211168238042	3	3,59509395E-005	2,05348499E-007
2	0	0	1	0	455,6118	0,536787689	0,537317336	0,00032386565783747853	3	3,6431742E-005	1,74018638E-007
2	0	0	1	0	457,0118	0,508785963	0,509386778	0,00028474483382591731	3	3,68572655E-005	1,45045249E-007
2	0	0	0	0	458,4120	0,480784237	0,481202245	0,00024569396130876518	3	3,72283503E-005	1,18228485E-007
2	0	0	0	0	459,8120	0,452782542	0,453365266	0,00020685395604771226	3	3,75449381E-005	9,37804003E-008
2	0	0	0	0	461,2120	0,424780786	0,425510436	0,0001682486170264183	3	3,78072E-005	7,15915434E-008
2	0	0	1	0	462,6122	0,39677909	0,397419482	0,00012994141336632907	3	3,80156562E-005	5,16412477E-008
2	0	0	1	0	464,0122	0,368777364	0,369386405	9,1921775231606144E-005	3	3,8170554E-005	3,39546524E-008
2	0	0	0	0	465,4124	0,340775698	0,341344506	5,3946587673568339E-005	3	3,8272301E-005	1,84143705E-008
2	0	0	0	0	466,8124	0,312773973	0,313208967	1,6497027894923091E-005	3	3,83212573E-005	5,16701704E-009
2	0	0	1	0	468,2126	0,284772247	0,285412073	-2,117530109697121E-005	3	3,83175466E-005	6,04368644E-009
2	0	0	1	0	469,6126	0,256770551	0,257379055	-5,8472483774325606E-005	3	3,82614235E-005	1,50495918E-008
2	0	0	1	0	471,0126	0,228768826	0,22927025	-9,5465186741757786E-005	3	3,81533318E-005	2,18873275E-008
2	0	0	0	0	472,4128	0,2007671	0,201357514	-0,00013215518604031088	3	3,79936901E-005	2,66104401E-008
2	0	0	0	0	473,8128	0,172765389	0,173409134	-0,00016878863809526762	3	3,77827091E-005	2,92694917E-008
2	0	0	1	0	475,2130	0,144763678	0,145327076	-0,00020528045762249584	3	3,75204727E-005	2,98328082E-008
2	0	0	1	0	476,6130	0,11676196	0,117338613	-0,00024168408051789686	3	3,72072391E-005	2,83588744E-008
2	0	0	0	0	478,0132	0,0887602493	0,0893723965	-0,0002776302827206319	3	3,68431974E-005	2,48124845E-008
2	0	0	0	0	479,4132	0,0607585348	0,0613705516	-0,00031354652913217171	3	3,64290354E-005	1,9242524E-008
2	0	0	0	0	480,8133	0,0327568166	0,0334445871	-0,00034922429405465606	3	3,59647238E-005	1,16796626E-008
2	0	0	1	0	482,2134	0,00475510489	0,0054069492	-0,00038483656128476474	3	3,54505391E-005	2,08079176E-009
2	0	0	1	0	483,6134	-0,023246618	-0,0227330271	-0,00042020100597626138	3	3,48867252E-005	9,55244062E-009
2	0	0	0	0	485,0136	-0,051248353	-0,0505700372	-0,00045530353445091821	3	3,42733947E-005	2,30247164E-008
2	0	0	0	0	486,4136	-0,0792500749	-0,0785496309	-0,00049029419170875872	3	3,36110425E-005	3,85124288E-008
2	0	0	1	0	487,8138	-0,107251801	-0,106578223	-0,00052510580711963686	3	3,28999013E-005	5,59648434E-008
2	0	0	1	0	489,2138	-0,135253534	-0,134553343	-0,00055974926410137357	3	3,21402003E-005	7,53161373E-008
2	0	0	0	0	490,6140	-0,163255244	-0,162608683	-0,00059445552506076634	3	3,13318305E-005	9,66636335E-008
2	0	0	0	0	492,0140	-0,191256985	-0,190713003	-0,00062902440785600602	3	3,04751629E-005	1,19963133E-007
2	0	0	0	0	493,4140	-0,219258726	-0,21853666	-0,00066312098311350874	3	2,95703958E-005	1,44916243E-007
2	0	0	1	0	494,8142	-0,247260451	-0,246636525	-0,00069715125613988019	3	2,86176182E-005	1,71942958E-007
2	0	0	1	0	496,2142	-0,275262177	-0,274763167	-0,00073123891316181568	3	2,76173687E-005	2,00917526E-007
2	0	0	0	0	497,6144	-0,303263903	-0,302658111	-0,00076517798084683482	3	2,65694307E-005	2,31587322E-007
2	0	0	0	0	499,0144	-0,331265628	-0,330659926	-0,00079897026201554765	3	2,54742372E-005	2,64187435E-007
2	0	0	1	0	500,4146	-0,359267324	-0,358675212	-0,00083266140939452326	3	2,43316026E-005	2,9865501E-007
2	0	0	1	0	501,8146	-0,38726905	-0,386400789	-0,00086619503565964211	3	2,314216E-005	3,34698456E-007
2	0	0	1	0	503,2146	-0,415270805	-0,414634377	-0,00089934202575628864	3	2,19060221E-005	3,72898114E-007
2	0	0	0	0	504,6148	-0,443272531	-0,442564934	-0,0009326091358498496	3	2,06232307E-005	4,12740093E-007
2	0	0	0	0	506,0148	-0,471274257	-0,470718235	-0,00096581587085556314	3	1,92940643E-005	4,54627155E-007
2	0	0	1	0	507,4150	-0,499275982	-0,49872008	-0,00099901904225892762	3	1,79182116E-005	4,98230861E-007
2	0	0	1	0	508,8150	-0,527277708	-0,526713073	-0,001031970105368936	3	1,64961912E-005	5,43552119E-007
2	0	0	0	0	510,2152	-0,555279493	-0,554581285	-0,0010649256545110334	3	1,50278229E-005	5,90587831E-007
2	0	0	0	0	511,6152	-0,583281159	-0,582641065	-0,0010977092615912944	3	1,35136652E-005	6,39570487E-007
2	0	0	0	0	513,0152	-0,611282885	-0,610758781	-0,0011305024400590606	3	1,1953588E-005	6,90464276E-007
2	0	0	1	0	514,4154	-0,639284611	-0,63870275	-0,0011633349119316918	3	1,03474504E-005	7,43025225E-007
2	0	0	1	0	515,8154	-0,667286336	-0,666535258	-0,0011960658385187715	3	8,69559517E-006	7,97220025E-007
2	0	0	0	0	517,2156	-0,695288062	-0,694670737	-0,0012286377834108771	3	6,99776592E-006	8,53498705E-007
2	0	0	0	0	518,6156	-0,723289847	-0,722525656	-0,0012612437975702864	3	5,25454061E-006	9,11281006E-007
2	0	0	1	0	520,0158	-0,751291513	-0,750781417	-0,0012935534286953078	3	3,46571119E-006	9,71175837E-007
2	0	0	1	0	521,4158	-0,779293239	-0,778738737	-0,0013260650522608054	3	1,63165589E-006	1,03265825E-006
2	0	0	1	0	522,8158	-0,807295084	-0,80673182	-0,0013585430777446306	3	-2,47852455E-007	1,09597988E-006
2	0	0	0	0	524,2160	-0,83529669	-0,83468467	-0,0013910707790206216	3	-2,17318461E-006	1,1611055E-006
2	0	0	0	0	525,6160	-0,863298416	-0,862713158	-0,0014234836656854613	3	-4,14376791E-006	1,22805807E-006
2	0	0	1	0	527,0162	-0,891300201	-0,890643716	-0,0014559965915126419	3	-6,1600781E-006	1,29677426E-006
2	0	0	1	0	528,4162	-0,919301987	-0,918636739	-0,0014884939415356589	3	-8,22155198E-006	1,36738527E-006
2	0	0	0	0	529,8164	-0,947303593	-0,946580589	-0,0015209629570933878	3	-1,0328783E-005	1,43971397E-006
2	0	0	0	0	531,2164	-0,975305319	-0,974515676	-0,0015535746974314371	3	-1,24812341E-005	1,51398285E-006
2	1	0	1	1	532,5070	-0,998906791	-0,998342872	-0,0015795964602687181	3	-1,45057456E-005	1,57697889E-006
2	1	0	1	1	533,9070	-0,970905006	-0,970247447	-0,0015279510189429856	3	-1,66794307E-005	1,48249057E-006
2	1	0	1	1	535,3070	-0,942903817	-0,94225961	-0,0014809858486941818	3	-1,87851547E-005	1,39547319E-006
2	1	0	0	1	536,7072	-0,914901674	-0,914297163	-0,0014356528771275883	3	-2,08267229E-005	1,31261334E-006
2	1	0	0	1	538,1072	-0,886899889	-0,886166155	-0,0013911408149632973	3	-2,28051285E-005	1,23278187E-006
2	1	0	1	1	539,5074	-0,858898103	-0,858306885	-0,0013473000494909834	3	-2,4722005E-005	1,15639693E-006
2	1	0	1	1	540,9074	-0,830896497	-0,830247045	-0,0013042069969944579	3	-2,6577658E-005	1,08281404E-006
2	1	0	0	1	542,3076	-0,802894652	-0,802240729	-0,0012616963599780523	3	-2,83736081E-005	1,01218416E-006
2	1	0	0	1	543,7076	-0,774892986	-0,774176478	-0,0012193756362345672	3	-3,01100081E-005	9,44011958E-007
2	1	0	0	1	545,1077	-0,746891677	-0,746206403	-0,0011773951022218642	3	-3,17875601E-005	8,78579783E-007
2	1	0	1	1	546,5078	-0,718889534	-0,718208492	-0,0011357201832719538	3	-3,34065262E-005	8,15683904E-007
2	1	0	1	1	547,9078	-0,690887809	-0,690357983	-0,0010944686287580771	3	-3,49673683E-005	7,55575172E-007
2	1	0	0	1	549,3080	-0,662886083	-0,662298203	-0,0010534771468815891	3	-3,64708503E-005	6,97716018E-007
2	1	0	0	1	550,7080	-0,634884357	-0,634296358	-0,0010128251625347837	3	-3,79169978E-005	6,42431303E-007
2	1	0	1	1	552,1082	-0,606882572	-0,606120765	-0,00097232023243257536	3	-3,93064984E-005	5,89343472E-007
2	1	0	1	1	553,5082	-0,578880966	-0,578132272	-0,00093208495484388941	3	-4,06392319E-005	5,38868392E-007
2	1	0	0	1	554,9084	-0,55087918	-0,550152659	-0,00089234781814782118	3	-4,19160497E-005	4,90927505E-007
2	1	0	0	1	556,3084	-0,522877455	-0,522275567	-0,00085263751747401574	3	-4,313713E-005	4,45311741E-007
2	1	0	0	1	557,7084	-0,494875729	-0,494220257	-0,00081315069514352819	3	-4,4302833E-005	4,01875553E-007
2	1	0	1	1	559,1086	-0,466874033	-0,4660981	-0,00077373689796163264	3	-4,54134533E-005	3,60637301E-007
2	1	0	1	1	560,5086	-0,438872278	-0,438252181	-0,00073460538354723494	3	-4,64689219E-005	3,21942423E-007
2	1	0	0	1	561,9088	-0,410870552	-0,410094321	-0,00069562528322556288	3	-4,74698718E-005	2,85271966E-007
2	1	0	0	1	563,3088	-0,382868767	-0,382079124	-0,00065685580469747661	3	-4,84163866E-005	2,50970885E-007
2	1	0	1	1	564,7090	-0,354867101	-0,354349077	-0,0006185012004641111	3	-4,93091029E-005	2,19165329E-007
2	1	0	1	1	566,1090	-0,326865315	-0,326315999	-0,00058010436859385126	3	-5,0147828E-005	1,89297339E-007
2	1	0	1	1	567,5090	-0,29886362	-0,298202753	-0,00054188207428119802	3	-5,09328784E-005	1,61590719E-007
2	1	0	0	1	568,9092	-0,270861894	-0,270165235	-0,00050397431577611955	3	-5,16647524E-005	1,36156345E-007
2	1	0	0	1	570,3092	-0,242860183	-0,242190123	-0,00046635024813844723	3	-5,23436756E-005	1,12945422E-007
2	1	0	1	1	571,7094	-0,214858457	-0,214125872	-0,00042873696461524672	3	-5,29699864E-005	9,18036775E-008
2	1	0	1	1	573,1094	-0,186856702	-0,186391339	-0,00039120128167269286	3	-5,35436593E-005	7,29165279E-008
2	1	0	0	1	574,5096	-0,158854976	-0,158371642	-0,0003538541964021383	3	-5,40649526E-005	5,604047E-008
2	1	0	0	1	575,9096	-0,130853251	-0,130271778	-0,00031677020201136083	3	-5,45340736E-005	4,12662189E-008
2	1	0	0	1	577,3096	-0,10285154	-0,102216437	-0,00027983949722612163	3	-5,49513607E-005	2,86041963E-008
2	1	0	1	1	578,7098	-0,0748498067	-0,0741566569	-0,00024301831355707462	3	-5,53171449E-005	1,80214261E-008
2	1	0	1	1	580,1098	-0,0468480736	-0,0461236052	-0,0002064187097453713	3	-5,56314735E-005	9,52077528E-009
2	1	0	0	1	581,5100	-0,0188463498	-0,0183044113	-0,00016975581055939363	3	-5,58945139E-005	3,10728021E-009
2	1	0	0	1	582,9100	0,00915537495	0,00992466975	-0,0001336254539873391	3	-5,61065754E-005	1,32618849E-009
2	1	0	1	1	584,3102	0,0371570922	0,0378418714	-9,7642467490340928E-005	3	-5,62680725E-005	3,69497366E-009
2	1	0	1	1	585,7102	0,0651587993	0,0655763969	-6,1655955926619789E-005	3	-5,63792491E-005	4,04317557E-009
2	1	0	1	1	587,1102	0,0931605175	0,0937742814	-2,573304336103184E-005	3	-5,64400943E-005	2,41309772E-009
2	1	0	0	1	588,5104	0,121162236	0,121633552	9,9322084895040218E-006	3	-5,64508118E-005	1,20808985E-009
2	1	0	0	1	589,9104	0,149163947	0,149742335	4,5643689190910554E-005	3	-5,64115217E-005	6,83479273E-009
2	1	0	1	1	591,3106	0,177165657	0,177717462	8,1029043771936563E-005	3	-5,63225622E-005	1,44002756E-008
2	1	0	1	1	592,7106	0,205167368	0,205710381	0,00011618118723735837	3	-5,61841298E-005	2,38996769E-008
2	1	0	0	1	594,1108	0,233169094	0,233801335	0,00015143579085580154	3	-5,5996421E-005	3,54058898E-008
2	1	0	0	1	595,5108	0,261170775	0,261807621	0,00018642437635207898	3	-5,57596068E-005	4,88073226E-008
2	1	0	0	1	596,9108	0,2891725	0,289564461	0,00022139511306536272	3	-5,54738508E-005	6,4108157E-008
2	1	0	1	1	598,3110	0,317174226	0,317757875	0,00025618268904913306	3	-5,51391677E-005	8,14040675E-008
2	1	0	1	1	599,7110	0,345175952	0,345871121	0,00029063813171551066	3	-5,47560303E-005	1,00523337E-007
2	1	0	0	0	600,8518	0,366977274	0,367524147	0,00032481266309871552	4	1,77033996E-007	1,19376494E-007
2	1	0	0	0	602,2518	0,394979	0,395530373	0,00035218709183903149	4	6,4661009E-007	1,39300695E-007
2	1	0	0	0	603,6519	0,422980726	0,423523366	0,00038631380501261312	4	1,16382887E-006	1,63612924E-007
2	1	0	1	0	605,0520	0,450982422	0,451560825	0,0004205343386813735	4	1,72894431E-006	1,89896838E-007
2	1	0	1	0	606,4520	0,478984177	0,479482502	0,00045450877210155386	4	2,34179606E-006	2,17928999E-007
2	1	0	0	0	607,8522	0,506985843	0,507582366	0,00048844329682685357	4	3,00228771E-006	2,47925215E-007
2	1	0	0	0	609,2522	0,534987628	0,535593152	0,00052230030969776877	4	3,71005353E-006	2,79740476E-007
2	1	0	1	0	610,6524	0,562989235	0,5636217	0,00055591627629096454	4	4,46524018E-006	3,13326467E-007
2	1	0	1	0	612,0524	0,59099102	0,591717064	0,00058969676501874176	4	5,26747272E-006	3,48933639E-007
2	1	0	1	0	613,4525	0,618990958	0,619481325	0,00062336273620346163	4	6,11692485E-006	3,86161588E-007
2	1	0	0	0	614,8526	0,646994412	0,647618294	0,00065672442987205811	4	7,01327826E-006	4,25306752E-007
2	1	0	0	0	616,2526	0,674996138	0,67553556	0,0006899375165192873	4	7,95621963E-006	4,66077324E-007
2	1	0	1	0	617,6528	0,702997804	0,703523993	0,00072302782299865638	4	8,94565073E-006	5,08667426E-007
2	1	0	1	0	619,0528	0,730999649	0,731615007	0,00075615768306576013	4	9,98144696E-006	5,53216296E-007
2	1	0	0	0	620,4530	0,759001255	0,759723723	0,0007892179518994144	4	1,10637848E-005	5,99587622E-007
2	1	0	0	0	621,8530	0,78700304	0,787404776	0,00082245930415983552	4	1,21924186E-005	6,47608374E-007
2	1	0	1	0	623,2532	0,815004587	0,815535843	0,00085535173450437082	4	1,33672565E-005	6,97569988E-007
2	1	0	1	0	624,6532	0,843006492	0,843497634	0,00088805491813453632	4	1,45877748E-005	7,49072228E-007
2	1	0	1	0	626,0532	0,871008158	0,87170893	0,00092052464309812518	4	1,58541679E-005	8,02429554E-007
2	1	0	0	0	627,4534	0,899009824	0,899528086	0,00095343946857071386	4	1,71661941E-005	8,57645603E-007
2	1	0	0	0	628,8534	0,92701149	0,927681386	0,0009860716371029536	4	1,85241515E-005	9,14760278E-007
2	1	0	1	0	630,2536	0,955013275	0,955447078	0,0010185167453460893	4	1,99278256E-005	9,73138867E-007
2	1	0	1	0	631,6536	0,98301506	0,983582616	0,0010510126524389254	4	2,13767507E-005	1,03375783E-006
2	0	0	0	0	632,9542	0,990815401	0,99128592	0,0010514942844532022	4	2,27561777E-005	1,04233152E-006
2	0	0	0	0	634,3542	0,962813795	0,963261724	0,0010018477587436757	4	2,41926573E-005	9,65041636E-007
2	0	0	1	0	635,7544	0,934812009	0,935300052	0,00095486187395484992	4	2,55620635E-005	8,93082358E-007
2	0	0	1	0	637,1544	0,906810343	0,907436252	0,00090960303350584755	4	2,686677E-005	8,25406744E-007
2	0	0	1	0	638,5544	0,878808558	0,879528046	0,00086517227531725427	4	2,81086432E-005	7,60943294E-007
2	0	0	0	0	639,9546	0,850806892	0,851365745	0,00082148730642209523	4	2,9289029E-005	6,99386135E-007
2	0	0	0	0	641,3546	0,822805107	0,823314905	0,00077813247534558669	4	3,04083824E-005	6,40648068E-007
2	0	0	1	0	642,7548	0,794803441	0,795415521	0,00073544544621081958	4	3,146772E-005	5,84984718E-007
2	0	0	1	0	644,1548	0,766801775	0,767409205	0,00069325527881489754	4	3,2467462E-005	5,32010461E-007
2	0	0	0	0	645,5550	0,738799989	0,739474177	0,00065170322132299251	4	3,34087017E-005	4,81917709E-007
2	0	0	0	0	646,9550	0,710798383	0,711325288	0,0006100686221341481	4	3,4291701E-005	4,3395724E-007
2	0	0	0	0	647,4576	0,700697958	0,700984716	0,00058633276300194394	4	3,45945627E-005	4,11010319E-007