File: Experimentelles/Rohdaten/Batterietests/AlteZelle/Studenten_Batterietests/LiCoO2 vs Li 300µm GCPL/ZView-Export/LiCoO2 vs Li 300µm GCPL_02_GCPL_C04.txt
EC-Lab ASCII FILE
Nb header lines : 83

Galvanostatic Cycling with Potential Limitation

Run on channel : 4 (SN 5435)
Grouped channel(s) : 4
User :
CE vs. WE compliance from -10 V to 10 V
Electrode connection : standard
Ewe ctrl range : min = 0,00 V, max = 5,00 V
Acquisition started on : 01.23.2015 15:04:13
Saved on :
	File : LiCoO2 vs Li 300µm GCPL_02_GCPL_C04.mpr
	Directory : C:\Hupfer\Studenten Batterietests\LiCoO2 vs Li 300µm GCPL\
	Host : 192.168.0.2
Device : VMP3 (SN 0324)
Address : 192.168.0.1
EC-Lab for windows v10.33 (software)
Internet server v10.33 (firmware)
Command interpretor v10.32 (firmware)
Electrode material : LiCoO2 vs Li
Initial state : charged
Electrolyte : LP30
Comments : 300µm
Mass of active material : 0,001 mg
 at x = 0,000
Molecular weight of active material (at x = 0) : 0,001 g/mol
Atomic weight of intercalated ion : 0,001 g/mol
Acquisition started at : xo = 0,000
Number of e- transfered per intercalated ion : 1
for DX = 1, DQ = 26,801 mA.h
Battery capacity : 0,000 A.h
Reference electrode : Li+/Li (-3,020 V)
Electrode surface area : 0,001 cm²
Characteristic mass : 0,001 g
Create one data file per loop
Ns                  0                   1                   2
Set I/C             I                   I                   I
Is                  0,000               -300,000            300,000
unit Is             mA                  µA                  µA
vs.                 <None>              <None>              <None>
N                   1                   1                   1
I sign              > 0                 > 0                 > 0
t1 (h:m:s)          0:00:0,0000         10:00:0,0000        10:00:0,0000
I Range             1 mA                1 mA                1 mA
Bandwidth           5                   5                   5
dE1 (mV)            0,00                0,00                0,00
dt1 (s)             0,0000              10,0000             10,0000
EM (V)              0,000               2,000               4,200
tM (h:m:s)          0:00:0,0000         0:00:0,0000         0:00:0,0000
Im                  0,000               0,000               0,000
unit Im             mA                  mA                  mA
E range min (V)     0,000               0,000               0,000
E range max (V)     5,000               5,000               5,000
dq                  0,000               1,000               1,000
unit dq             mA.h                mA.h                mA.h
dtq (s)             0,0000              120,0000            120,0000
dQM                 0,000               0,000               0,000
unit dQM            mA.h                mA.h                mA.h
dxM                 0,000               0,000               0,000
tR (h:m:s)          0:00:0,0000         0:00:0,0000         0:00:0,0000
dER/dt (mV/h)       0,0                 0,1                 0,1
dER (mV)            0,00                5,00                5,00
dtR (s)             1,0000              120,0000            120,0000
EL (V)              pass                4,200               4,200
goto Ns'            0                   0                   0
nc cycles           0                   0                   0

Number of loops : 11
Loop 0 from point number 0 to 771
Loop 1 from point number 772 to 2142
Loop 2 from point number 2143 to 3475
Loop 3 from point number 3476 to 4763
Loop 4 from point number 4764 to 5978
Loop 5 from point number 5979 to 7086
Loop 6 from point number 7087 to 8050
Loop 7 from point number 8051 to 8874
Loop 8 from point number 8875 to 9572
Loop 9 from point number 9573 to 10146
Loop 10 from point number 10147 to 10656

mode	ox/red	error	control changes	Ns changes	counter inc.	Ns	time/s	control/V/mA	Ewe/V	dq/mA.h	<I>/mA	P/W	(Q-Qo)/mA.h	x	Capacity/mA.h
1	0	0	1	1	0	1	3600,0009	-0,300000012	2,81476045	0	0	0	0	0	0
1	1	0	0	0	0	2	3943,6313	0,300000012	3,86843777	0,00083383320819669299	0,30017996253399315	0,00116122747	0,023052169202740656	-0,00086010742692538317	0,025849071886622237
1	1	0	0	0	0	2	4303,6313	0,300000012	3,8734169	0,00083382571137613709	0,30017725972971354	0,00116271165	0,053069966778317094	-0,0019801118138282224	0,055866869462198675
1	1	0	0	0	0	2	4663,6313	0,300000012	3,87135673	0,00083384144753052134	0,30018292474536038	0,00116211514	0,083087739123816934	-0,0031001152593629818	0,085884641807698509
1	1	0	0	0	0	2	5023,6313	0,300000012	3,87795734	0,00083383335333400307	0,30018001083457856	0,00116408523	0,11310595624035659	-0,0042201352999032365	0,11590285892423818
1	1	0	0	0	0	2	5383,6313	0,300000012	3,87864399	0,0008338501863645184	0,30018607072563744	0,00116431492	0,14312410437049038	-0,0053401527664679366	0,14592100705437197
1	1	0	0	0	0	2	5743,6313	0,300000012	3,88060904	0,00083385710712770611	0,30018856220041523	0,00116491446	0,17314242586718397	-0,0064601767015720768	0,17593932855106557
1	1	0	0	0	0	2	6103,6313	0,300000012	3,89312339	0,0008338535818441047	0,30018729309830336	0,00116866617	0,2031608808500673	-0,0075802056172254298	0,2059577835339489
1	1	0	0	0	0	2	6463,6313	0,300000012	3,8893652	0,0008338471335073312	0,3001849716970368	0,00116752903	0,23317921251554016	-0,0087002299317403955	0,23597611519942173
1	1	0	0	0	0	2	6823,6313	0,300000012	3,89098692	0,00083383452140953818	0,30018043134177632	0,00116799818	0,2631975647711129	-0,009820255014499671	0,26599446745499443
1	1	0	0	0	0	2	7183,6313	0,300000012	3,89854121	0,0008338481427729129	0,30018533503265062	0,00117028493	0,2932159765506441	-0,010940282318177866	0,29601287923452563
1	1	0	0	0	0	2	7543,6313	0,300000012	3,9052372	0,00083383754665321779	0,30018152042951411	0,00117228006	0,32323432741152448	-0,012060307348899298	0,32603123009540602
1	1	0	0	0	0	2	7903,6313	0,300000012	3,91557693	0,000833828846813904	0,30017838848732326	0,00117537158	0,35325247309521056	-0,013180324724183744	0,3560493757790921
1	1	0	0	0	0	2	8263,6312	0,300000012	3,92944598	0,00083383195207019648	0,30017950637960205	0,00117953913	0,38327055826183693	-0,014300339841495325	0,38606746094571846
1	1	0	0	0	0	2	8623,6312	0,300000012	3,93721032	0,00083384754505422374	0,30018511985391987	0,001181892	0,4132886248521991	-0,015420354265701514	0,41608552753608064
1	1	0	0	0	0	2	8983,6312	0,300000012	3,97126269	0,00083383945452504691	0,30018220726338099	0,00119210244	0,44330690067308339	-0,016540376496579798	0,44610380335696493
1	1	0	0	0	0	2	9343,6312	0,300000012	4,00548697	0,00083383549652331405	0,3001807823827399	0,00120237016	0,47332521271276006	-0,01766040007882992	0,4761221153966416
1	1	0	0	0	0	2	9703,6312	0,300000012	4,02515507	0,00083382920119994214	0,30017851606629856	0,00120826508	0,50334338456782566	-0,018780418430603725	0,50614028725170733
1	1	0	0	0	0	2	10063,6312	0,300000012	4,07032919	0,00083384165789352525	0,30018300047604275	0,00122184365	0,53336164102832992	-0,019900439939120202	0,53615854371221158
1	1	0	0	0	0	2	10423,6312	0,300000012	4,09478617	0,00083384671671026278	0,3001848216500903	0,00122919271	0,5633797830494777	-0,021020457177750416	0,56617668573335936
1	1	0	0	0	0	2	10783,6312	0,300000012	4,14366102	0,00083384119438959488	0,30018283361462586	0,00124385592	0,59339807740684224	-0,022140480100249702	0,59619498009072397
1	1	0	0	0	0	2	11143,6312	0,300000012	4,18355131	0,00083382873884174554	0,30017834961734579	0,00125581154	0,62341581493437862	-0,02326048224667943	0,62621271761826022
1	0	0	1	0	0	1	11485,4048	-0,300000012	4,09417057	-0,00083290947134130534	-0,29984741331318054	0,00122762646	0,61857901699973478	-0,023080014812593878	0,016654072561180586
1	0	0	1	0	0	1	11845,4048	-0,300000012	4,06532621	-0,0008329009063127968	-0,29984432990288019	0,00121896504	0,58859431342826611	-0,021961245207479664	0,046638776132649203
1	0	0	1	0	0	1	12205,4048	-0,300000012	4,0308733	-0,00083290580861601562	-0,29984609473206029	0,00120864157	0,55860990738348013	-0,02084248670348601	0,076623182177435366
1	0	0	1	0	0	1	12565,4048	-0,300000012	3,99932003	-0,0008329150410112407	-0,29984941839438157	0,00119919376	0,52862499058927616	-0,019723709142744854	0,10660809897163941
1	0	0	1	0	0	1	12925,4048	-0,300000012	3,91791868	-0,00083291584458616038	-0,29984970768135616	0,00117478683	0,4986400566112615	-0,018604930940852624	0,13659303294965394
1	0	0	1	0	0	1	13285,4048	-0,300000012	3,89061952	-0,00083291083074278298	-0,29984790269771846	0,0011665941	0,46865506115116998	-0,01748615044498144	0,16657802840974531
1	0	0	1	0	0	1	13645,4048	-0,300000012	3,89525533	-0,00083291363729867674	-0,29984891305785242	0,00116798806	0,43867007740070074	-0,016367370386012006	0,1965630121602144
1	0	0	1	0	0	1	14005,4048	-0,300000012	3,85879922	-0,00083290953281356224	-0,29984743544319328	0,00115705107	0,40868472794435731	-0,015248576682064714	0,22654836161655782
1	0	0	1	0	0	1	14365,4048	-0,300000012	3,83766198	-0,00083291451485951731	-0,29984922897975891	0,00115071994	0,37869967320574803	-0,01412979397443233	0,25653341635516707
1	0	0	1	0	0	1	14725,4048	-0,300000012	3,79807734	-0,00083291733522713178	-0,29985024431211238	0,00113885442	0,34871469886246477	-0,013011014266457654	0,28651839069845037
1	0	0	1	0	0	1	15085,4048	-0,300000012	3,77346802	-0,00083291443373428442	-0,29984919977467469	0,00113147136	0,31872982407607622	-0,011892238273084574	0,31650326548483898
1	0	0	1	0	0	1	15445,4048	-0,300000012	3,77756953	-0,00083290350245767168	-0,29984526451504646	0,00113268639	0,28874502081963405	-0,01077346494858997	0,34648806874128115
1	0	0	1	0	0	1	15805,4048	-0,300000012	3,76667666	-0,00083289804734786342	-0,29984330067549171	0,00112941279	0,25876026794374813	-0,0096546935038616563	0,37647282161716704
1	0	0	1	0	0	1	16165,4048	-0,300000012	3,75891232	-0,00083291317622529126	-0,29984874707143168	0,00112710521	0,22877551658559674	-0,0085359221157620557	0,40645757297531834
1	0	0	1	0	0	1	16525,4047	-0,300000012	3,75124335	-0,00083292204918795162	-0,29985194133802803	0,00112481765	0,19879068965102896	-0,0074171479078047488	0,43644239990988589
1	0	0	1	0	0	1	16885,4047	-0,300000012	3,73811841	-0,00083292340754469222	-0,29985243034646061	0,00112088386	0,16880586365311174	-0,0062983737347951334	0,46642722590780314
1	0	0	1	0	0	1	17245,4047	-0,300000012	3,71755338	-0,00083289717044101811	-0,29984298498902355	0,00111468229	0,13882116720928914	-0,0051796043956229747	0,49641192235162592
1	0	0	1	0	0	1	17605,4047	-0,300000012	3,66617918	-0,00083292013715869862	-0,29985125300748858	0,00109930837	0,1088362798574517	-0,0040608279334161043	0,52639680970346362
1	0	0	1	0	0	1	17965,4047	-0,300000012	3,20608139	-0,00083291162216828915	-0,29984818761090413	0,000961337704	0,078851306144661376	-0,002942048248965968	0,55638178341625389
1	1	0	0	0	0	2	18310,4399	0,300000012	3,82456088	0,00083383235898448371	0,30017965286874726	0,00114805531	0,07511429482391145	-0,0028026153321236298	0,012507535927376816
1	1	0	0	0	0	2	18670,4399	0,300000012	3,85878491	0,0008338378204753001	0,30018161900546496	0,00115833629	0,10513197789700162	-0,0039226154467847558	0,042525219000466982
1	1	0	0	0	0	2	19030,4399	0,300000012	3,86941075	0,00083382340411510746	0,3001764291157328	0,00116150593	0,13514974124913579	-0,0050426185567649498	0,072542982352601152
1	1	0	0	0	0	2	19390,4399	0,300000012	3,86345887	0,00083382796145313318	0,30017806975744186	0,00115972559	0,16516757974921664	-0,006162624470616073	0,102560820852682
1	1	0	0	0	0	2	19750,4399	0,300000012	3,86338258	0,00083382874938680064	0,30017835341356563	0,00115970382	0,19518537882878714	-0,007282628913634953	0,13257861993225253
1	1	0	0	0	0	2	20110,4399	0,300000012	3,87614489	0,00083382489055560691	0,3001769642343191	0,00116352935	0,22520333765652614	-0,0084026393170727834	0,16259657875999152
1	1	0	0	0	0	2	20470,4399	0,300000012	3,88640833	0,00083382232199774848	0,30017603955347885	0,00116660667	0,25522170781820026	-0,0095226650679327757	0,1926149489216657
1	1	0	0	0	0	2	20830,4399	0,300000012	3,90947247	0,00083382786120308762	0,30017803366742509	0,00117353781	0,28523955505919786	-0,010642671307919254	0,22263279616266342
1	1	0	0	0	0	2	21190,4399	0,300000012	3,89823604	0,00083384966360363686	0,30018588253171782	0,00117019541	0,3152576925003063	-0,01176268837566205	0,2526509336037721
1	1	0	0	0	0	2	21550,4399	0,300000012	3,90968227	0,00083382921956810688	0,30017852267883795	0,00117360265	0,3452758821098007	-0,012882707389877461	0,2826691232132665
1	1	0	0	0	0	2	21910,4399	0,300000012	3,92309332	0,0008338409437884887	0,3001827433982265	0,00117764494	0,37529412228434093	-0,01400272829074272	0,31268736338780672
1	1	0	0	0	0	2	22270,4399	0,300000012	3,95168972	0,00083383165282673318	0,30017939865195398	0,0011862159	0,4053123743998688	-0,015122749637142282	0,34270561550333453
1	1	0	0	0	0	2	22630,4399	0,300000012	3,97916055	0,00083384521346125338	0,30018428048044038	0,00119448139	0,43533066042676717	-0,016242772248820672	0,37272390153023296
1	1	0	0	0	0	2	22990,4399	0,300000012	4,00279713	0,00083381493639614861	0,30017338073687066	0,00120153313	0,46534880545793293	-0,017362789599758707	0,40274204656139872
1	1	0	0	0	0	2	23350,4399	0,300000012	4,02385807	0,00083383782260451059	0,30018161977198074	0,00120788824	0,49536689227678694	-0,018482804778717123	0,43276013338025274
1	1	0	0	0	0	2	23710,4399	0,300000012	4,06765842	0,0008338427261279689	0,3001833850404471	0,00122104352	0,52538490482450675	-0,019602817186519667	0,46277814592797242
1	1	0	0	0	0	2	24070,4399	0,300000012	4,08557177	0,00083382381836904422	0,30017657824715181	0,00122639292	0,55540289465739648	-0,020722828746801357	0,49279613576086221
1	1	0	0	0	0	2	24430,4399	0,300000012	4,13412285	0,00083382547481358054	0,30017717456719213	0,00124096929	0,58542055795702656	-0,021842828123688099	0,52281379906049216
1	1	0	0	0	0	2	24790,4398	0,300000012	4,18187237	0,00083382277552783488	0,30017620282431194	0,00125529862	0,61543827223178701	-0,022962829402525501	0,55283151333525274
1	0	0	1	0	0	1	25134,7528	-0,300000012	4,11517429	-0,00083290710953043571	-0,29984656306125722	0,00123392092	0,61581343646736051	-0,022976827284568422	0,01415519732399147
1	0	0	1	0	0	1	25494,7528	-0,300000012	4,0486722	-0,00083290974860886733	-0,29984751312950406	0,00121398433	0,58582876695570995	-0,021858058950271814	0,044139866835642483
1	0	0	1	0	0	1	25854,7528	-0,300000012	3,99580979	-0,00083292370663417715	-0,29985253801867648	0,00119815371	0,5558440292765513	-0,020739288072553827	0,074124604514801139
1	0	0	1	0	0	1	26214,7528	-0,300000012	3,95424128	-0,00083294050884577958	-0,29985858681492659	0,00118571322	0,52585892068323494	-0,019620503355529917	0,10410971310811766
1	0	0	1	0	0	1	26574,7528	-0,300000012	3,94359636	-0,00083289795558982426	-0,29984326764259718	0,00118246081	0,49587427992493574	-0,018501736094059504	0,13409435386641688
1	0	0	1	0	0	1	26934,7528	-0,300000012	3,92383265	-0,00083291091563469837	-0,29984793325880832	0,00117655308	0,46588985150383738	-0,017382976755175549	0,1640787822875152
1	0	0	1	0	0	1	27294,7528	-0,300000012	3,88730025	-0,00083290878294077184	-0,29984716548898547	0,00116559595	0,43590505275133235	-0,01626420359872889	0,19406358104002003
1	0	0	1	0	0	1	27654,7528	-0,300000012	3,86728859	-0,0008329102468490601	-0,29984769249597568	0,00115959754	0,4059201968409616	-0,015145428309645418	0,22404843695039082
1	0	0	1	0	0	1	28014,7528	-0,300000012	3,84416723	-0,00083291016551189952	-0,2998476632145975	0,00115266454	0,37593548784130464	-0,014026658501998198	0,25403314595004771
1	0	0	1	0	0	1	28374,7528	-0,300000012	3,82675004	-0,0008329086893118089	-0,29984713178255846	0,00114744005	0,3459506849699399	-0,01290788519187135	0,28401794882141245
1	0	0	1	0	0	1	28734,7528	-0,300000012	3,81307173	-0,00083292866332994573	-0,29985432242917478	0,00114336598	0,31596572763898298	-0,011789106118649442	0,31400290615236941
1	0	0	1	0	0	1	29094,7528	-0,300000012	3,82671189	-0,00083291518461869824	-0,29984947009306688	0,00114743749	0,28598081475168451	-0,010670328703680189	0,34398781903966784
1	0	0	1	0	0	1	29454,7528	-0,300000012	3,81696343	-0,00083291939620176947	-0,29985098626299098	0,00114452024	0,25599587842230144	-0,0095515504140552384	0,37397275536905094
1	0	0	1	0	0	1	29814,7528	-0,300000012	3,82154202	-0,00083291626664830566	-0,29984985962373037	0,00114588882	0,22601103286455053	-0,008432775511241929	0,40395760092680211
1	0	0	1	0	0	1	30174,7528	-0,300000012	3,82747483	-0,00083291584053470029	-0,29984970622283046	0,00114766718	0,19602621307872048	-0,0073140015700136371	0,43394242071263226
1	0	0	1	0	0	1	30534,7528	-0,300000012	3,76478791	-0,00083290136953857203	-0,29984449666416128	0,00112885097	0,16604149203219494	-0,0061952313128815552	0,46392714175915789
1	0	0	1	0	0	1	30894,7528	-0,300000012	3,71249819	-0,00083291188824342362	-0,29984828339795366	0,00111318624	0,13605653056530808	-0,0050764520853425408	0,49391210322604493
1	0	0	1	0	0	1	31254,7528	-0,300000012	3,52500987	-0,00083292967891858675	-0,29985468804108998	0,0010569907	0,10607156534789824	-0,0039576727178664723	0,52389706844345472
1	0	0	1	0	0	1	31614,7528	-0,300000012	2,09978962	-0,00083290714749197158	-0,2998465767274103	0,000629614748	0,076086730307817344	-0,0028388982074815722	0,55388190348353562
1	1	0	0	0	0	2	31964,7276	0,300000012	3,87376022	0,00083382524499959424	0,30017709183415603	0,00116281409	0,10193936837834278	-0,0038034948931344442	0,027516318096665872
1	1	0	0	0	0	2	32324,7276	0,300000012	3,88486314	0,00083383140614959936	0,30017930984818477	0,00116615556	0,13195718834596706	-0,0049235001155146944	0,057534138064290093
1	1	0	0	0	0	2	32684,7276	0,300000012	3,89505029	0,00083382945046656666	0,30017860580228448	0,00116921077	0,16197509911555546	-0,0060435087258383104	0,087552048833878528
1	1	0	0	0	0	2	33044,7275	0,300000012	3,91151357	0,0008338254097352425	0,30017714694556378	0,00117414701	0,19199294865641821	-0,0071635150516358502	0,1175698983747413
1	1	0	0	0	0	2	33404,7276	0,300000012	3,91645455	0,00083382029097278912	0,30017530419108403	0,00117562292	0,22201072798344819	-0,0082835187576608858	0,1475876777017713
1	1	0	0	0	0	2	33764,7276	0,300000012	3,914814	0,00083382224280138816	0,30017600684937837	0,00117513328	0,25202884159719613	-0,0094035349363728218	0,17760579131551917
1	1	0	0	0	0	2	34124,7276	0,300000012	3,92998004	0,00083383053635060787	0,3001789925270919	0,00117969746	0,28204673353163917	-0,01052354284393184	0,20762368324996198
1	1	0	0	0	0	2	34484,7276	0,300000012	3,9473784	0,00083381726480358182	0,30017421477017139	0,00118490122	0,31206439514178874	-0,011643542157781795	0,23764134486011165
1	1	0	0	0	0	2	34844,7276	0,300000012	3,96151423	0,00083382237279249562	0,30017605364617696	0,00118915166	0,34208211448487322	-0,012763543625725176	0,26765906420319613
1	1	0	0	0	0	2	35204,7276	0,300000012	3,97595549	0,0008338299370540512	0,3001787767803319	0,00119349745	0,37209999174314253	-0,013883550985696418	0,29767694146146541
1	1	0	0	0	0	2	35564,7276	0,300000012	3,99066401	0,00083383482775092122	0,30018053743120179	0,00119791972	0,40211793974294605	-0,015003560985129418	0,32769488946126893
1	1	0	0	0	0	2	35924,7276	0,300000012	4,00590658	0,00083383467662334451	0,3001804830252743	0,00120249495	0,4321357204487177	-0,016123564742597158	0,35771267016704058
1	1	0	0	0	0	2	36284,7276	0,300000012	4,02435398	0,00083382601617773376	0,30017736526486022	0,00120802002	0,46215343843634931	-0,017243566159966771	0,38773038815467213
1	1	0	0	0	0	2	36644,7276	0,300000012	4,04850531	0,00083382250944442227	0,3001761028408704	0,00121526455	0,49217106203691334	-0,018363564055627984	0,41774801175523616
1	1	0	0	0	0	2	37004,7276	0,300000012	4,06533146	0,00083384677985144986	0,30018484018738413	0,00122035085	0,52218890679384109	-0,019483570202930477	0,44776585651216397
1	1	0	0	0	0	2	37364,7276	0,300000012	4,08976889	0,00083382475283410816	0,30017691046115584	0,00122765417	0,55220690312423482	-0,020603582005642778	0,47778385284255757
1	1	0	0	0	0	2	37724,7276	0,300000012	4,1277318	0,00083384314161870208	0,30018353042359738	0,00123907707	0,58222474794221107	-0,021723588155223069	0,50780169766053363
1	1	0	0	0	0	2	38084,7276	0,300000012	4,17508078	0,00083381866242157094	0,30017471791264653	0,00125325366	0,61224262889897997	-0,022843595653190307	0,53781957861730259
1	0	0	1	0	0	1	38432,2228	-0,300000012	4,11088228	-0,00083288912096454029	-0,29984008298873888	0,00123260729	0,61455011400532403	-0,022929691024954726	0,013322242346525205
1	0	0	1	0	0	1	38792,2228	-0,300000012	4,05384207	-0,00083289539630711078	-0,29984234211206003	0,00121551345	0,5845659396751721	-0,02181094116654561	0,043306416676676954
1	0	0	1	0	0	1	39152,2228	-0,300000012	4,00971699	-0,00083289744560254938	-0,29984307985841651	0,00120228587	0,55458170591056819	-0,020692189090557184	0,073290650441280691
1	0	0	1	0	0	1	39512,2228	-0,300000012	3,98253226	-0,00083290183489355776	-0,29984466000317658	0,00119414099	0,52459694103627872	-0,019573417198152301	0,10327541531557013
1	0	0	1	0	0	1	39872,2228	-0,300000012	3,96463823	-0,000832917505024208	-0,29985030125020013	0,00118879799	0,49461241835873638	-0,018454654342433686	0,13325993799311256
1	0	0	1	0	0	1	40232,2228	-0,300000012	3,92566395	-0,0008329237466123369	-0,29985254822192237	0,00117712037	0,46462750580753523	-0,017335876940004675	0,1632448505443136
1	0	0	1	0	0	1	40592,2228	-0,300000012	3,90084481	-0,00083291695584191206	-0,29985010354457402	0,00116966874	0,43464240007726643	-0,016217092329804918	0,1932299562745823
1	0	0	1	0	0	1	40952,2228	-0,300000012	3,87890625	-0,00083291125644246746	-0,29984805176077773	0,00116308243	0,40465752321951853	-0,015098316259146637	0,22321483313232989
1	0	0	1	0	0	1	41312,2228	-0,300000012	3,86686873	-0,00083292601168983514	-0,29985336364982022	0,00115949358	0,37467234855244493	-0,013979529076822006	0,25320000779940349
1	0	0	1	0	0	1	41672,2228	-0,300000012	3,85055804	-0,00083291069027615923	-0,2998478479409072	0,00115458155	0,34468731136888371	-0,012860747024192069	0,2831850449829647
1	0	0	1	0	0	1	42032,2228	-0,300000012	3,84790635	-0,00083291087755064166	-0,29984791535972077	0,00115378667	0,31470242542269766	-0,011741970614431941	0,31316993092915072
1	0	0	1	0	0	1	42392,2228	-0,300000012	3,84206867	-0,00083291325428585203	-0,29984877098439488	0,00115203962	0,28471742886348	-0,010623190077550885	0,34315492748836838
1	0	0	1	0	0	1	42752,2228	-0,300000012	3,82198071	-0,00083292931433684301	-0,29985455260274086	0,0011460383	0,25473224324900013	-0,0095044024867638067	0,37314011310284826
1	0	0	1	0	0	1	43112,2228	-0,300000012	3,80305648	-0,00083290819562309312	-0,29984694986580506	0,00114033488	0,22474729291573267	-0,0083856236746351027	0,40312506343611578
1	0	0	1	0	0	1	43472,2228	-0,300000012	3,78390312	-0,00083292057046625344	-0,29985140480933446	0,00113460864	0,1947623644984192	-0,0072668456802201088	0,43310999185342918
1	0	0	1	0	0	1	43832,2228	-0,300000012	3,74191475	-0,00083292134617600179	-0,29985168406484339	0,00112201949	0,16477729240575859	-0,0061480623250847373	0,46309506394608986
1	0	0	1	0	0	1	44192,2228	-0,300000012	3,6070025	-0,00083291175525552704	-0,29984823133347885	0,00108155329	0,13479235010269714	-0,005029283812573817	0,49308000624915123
1	0	0	1	0	0	1	44552,2228	-0,300000012	2,99785638	-0,0008329233266694679	-0,29985239704248986	0,000898914412	0,10480760660600091	-0,00391051271779568	0,52306474974584774
1	1	0	0	0	0	2	44897,7810	0,300000012	3,89094877	0,00083382468552390733	0,30017688622948365	0,00116797292	0,099360195280418701	-0,003707262477115785	0,011673658268842432
1	1	0	0	0	0	2	45257,7810	0,300000012	3,9156723	0,00083381517021358016	0,30017346071777216	0,00117538089	0,12937792688716875	-0,0048272644026330157	0,041691389875592442
1	1	0	0	0	0	2	45617,7810	0,300000012	3,91738939	0,00083382960374984486	0,30017865679081779	0,00117591664	0,15939578825168237	-0,0059472711695868659	0,071709251240106086
1	1	0	0	0	0	2	45977,7810	0,300000012	3,93299437	0,0008338258294694953	0,30017729804989453	0,0011805956	0,18941371419977405	-0,0070672803462408474	0,10172717718819776
1	1	0	0	0	0	2	46337,7810	0,300000012	3,94264722	0,00083383596354888538	0,30018094631846816	0,00118350761	0,21943141353043338	-0,008187281067493737	0,1317448765188571
1	1	0	0	0	0	2	46697,7810	0,300000012	3,94997287	0,00083382286229398515	0,30017622986671283	0,00118568796	0,24944911677116074	-0,0093072819346365235	0,16176257975958448
1	1	0	0	0	0	2	47057,7810	0,300000012	3,95996904	0,00083385049791634074	0,3001861786907424	0,00118872803	0,27946721821210202	-0,010427297659164675	0,19178068120052576
1	1	0	0	0	0	2	47417,7810	0,300000012	3,96689391	0,00083382794234984448	0,30017805868681888	0,00119077449	0,30948537834548877	-0,011547315573586883	0,22179884133391242
1	1	0	0	0	0	2	47777,7810	0,300000012	3,97565031	0,00083382913038465715	0,30017848637935059	0,00119340466	0,33950319650003398	-0,012667320728318715	0,25181665948845766
1	1	0	0	0	0	2	48137,7810	0,300000012	3,99112177	0,00083383693468073997	0,30018129592593517	0,00119806011	0,3695210533962624	-0,013787327328554837	0,28183451638468608
1	1	0	0	0	0	2	48497,7810	0,300000012	4,00464725	0,00083383210157851379	0,30017955600913696	0,00120211323	0,39953898849147648	-0,014907336846500253	0,31185245147990016
1	1	0	0	0	0	2	48857,7810	0,300000012	4,00884438	0,00083382783581647616	0,30017802033480627	0,00120336702	0,42955693906199507	-0,01602734694185009	0,34187040205041882
1	1	0	0	0	0	2	49217,7810	0,300000012	4,02330446	0,00083382983213828672	0,3001787390106567	0,00120771048	0,45957480336172454	-0,01714735381832079	0,37188826635014829
1	1	0	0	0	0	2	49577,7810	0,300000012	4,04116058	0,00083383273521727974	0,30017978411909229	0,00121307466	0,48959272627759546	-0,018267362881838538	0,4019061892660192
1	1	0	0	0	0	2	49937,7810	0,300000012	4,06475878	0,00083383522317806886	0,30018067978497472	0,00122016203	0,5196106185789927	-0,01938737080308911	0,43192408156741638
1	1	0	0	0	0	2	50297,7810	0,300000012	4,0944047	0,00083383482281863693	0,30018053565557946	0,00122906058	0,54962867194625798	-0,020507384733923776	0,46194213493468166
1	1	0	0	0	0	2	50657,7810	0,300000012	4,14921236	0,00083381966302129946	0,30017507812854822	0,00124549016	0,57964649222830861	-0,021627389968035693	0,49195995521673203
1	1	0	0	0	0	2	51017,7810	0,300000012	4,18822479	0,00083382245576547251	0,30017608351644858	0,00125720492	0,60966413955280435	-0,022747388748868701	0,52197760254122784
1	0	0	1	0	0	1	51358,4846	-0,300000012	4,10378551	-0,00083289355927209062	-0,29984168077945395	0,00123048597	0,59807150758043418	-0,022314852063520109	0,019985404534332733
1	0	0	1	0	0	1	51718,4846	-0,300000012	4,05424261	-0,00083289468456142477	-0,2998420858836135	0,00121563254	0,56808694836496346	-0,021196087844522266	0,049969963749803866
1	0	0	1	0	0	1	52078,4846	-0,300000012	4,02761126	-0,0008329181775715616	-0,29985054336724698	0,00120768137	0,53810196900959354	-0,020077307949539898	0,079954943105173875
1	0	0	1	0	0	1	52438,4846	-0,300000012	3,9856801	-0,00083289161335097421	-0,29984098024785331	0,00119507022	0,50811739572025363	-0,018958543205427072	0,10993951639451358
1	0	0	1	0	0	1	52798,4846	-0,300000012	3,96038389	-0,00083290450719164467	-0,29984562203048608	0,0011875038	0,47813302804764781	-0,01783978613315105	0,13992388406711931
1	0	0	1	0	0	1	53158,4846	-0,300000012	3,93289423	-0,00083290853530499674	-0,29984707215129011	0,00117926684	0,44814831845936032	-0,016721016303541235	0,16990859365540691
1	0	0	1	0	0	1	53518,4846	-0,300000012	3,90881896	-0,00083290846959418726	-0,29984704849539872	0,00117204781	0,41816359138057325	-0,015602245821337363	0,19989332073419405
1	0	0	1	0	0	1	53878,4846	-0,300000012	3,88743377	-0,00083291125730507904	-0,29984805207131795	0,00116563949	0,38817880747634189	-0,01448347321889976	0,22987810463842528
1	0	0	1	0	0	1	54238,4846	-0,300000012	3,87041712	-0,00083291513704094618	-0,29984944877622752	0,00116054248	0,35819408072897146	-0,013364702749061488	0,25986283138579574
1	0	0	1	0	0	1	54598,4846	-0,300000012	3,85626197	-0,00083290640990601651	-0,29984630700765862	0,00115628587	0,32820944676879066	-0,012245935741238016	0,28984746534597658
1	0	0	1	0	0	1	54958,4846	-0,300000012	3,84008479	-0,00083290730541116659	-0,29984662938951213	0,00115143647	0,29822489997021043	-0,011127171985531053	0,31983201214455674
1	0	0	1	0	0	1	55318,4846	-0,300000012	3,81860399	-0,00083290052865280038	-0,29984418975650483	0,00114498625	0,268240368298448	-0,010008408794225995	0,34981654381631923
1	0	0	1	0	0	1	55678,4846	-0,300000012	3,78865337	-0,00083290799703035085	-0,29984687837241798	0,00113601587	0,23825567770336102	-0,0088896396732780288	0,37980123441140614
1	0	0	1	0	0	1	56038,4846	-0,300000012	3,74023604	-0,00083291007874243789	-0,29984762778876794	0,00112150086	0,20827092239433053	-0,0077708681377658176	0,40978598972043648
1	0	0	1	0	0	1	56398,4846	-0,300000012	3,65812874	-0,00083289944549070451	-0,29984379981815104	0,00109686726	0,17828625027308048	-0,0066520997061015437	0,43977066184168634
1	0	0	1	0	0	1	56758,4846	-0,300000012	3,4828496	-0,00083290838191078771	-0,29984701692937498	0,00104432204	0,14830156284195034	-0,0055333307032050579	0,46975534927281651
1	0	0	1	0	0	1	57118,4846	-0,300000012	2,73755121	-0,00083290881761742963	-0,29984717378376582	0,000820846995	0,1183169236166711	-0,0044145634989336832	0,49973998849809594
1	1	0	0	0	0	2	57468,3190	0,300000012	3,91798067	0,00083384343384206285	0,3001836356240071	0,00117611373	0,11918017108647211	-0,0044467724226805267	0,015008934763310685
1	1	0	0	0	0	2	57828,3190	0,300000012	3,94075871	0,00083383368674251763	0,30018012666817728	0,00118293741	0,14919802375061168	-0,0055667788650117222	0,045026787427450208
1	1	0	0	0	0	2	58188,3190	0,300000012	3,95296788	0,00083383340320984525	0,30018002459641542	0,00118660205	0,17921619920794195	-0,0066867973511908659	0,075044962884780378
1	1	0	0	0	0	2	58548,3190	0,300000012	3,964643	0,00083384266739090291	0,30018335970158995	0,00119011989	0,20923431828557974	-0,0078068137337678784	0,10506308196241821
1	1	0	0	0	0	2	58908,3190	0,300000012	3,97301769	0,0008338471739341815	0,30018498205716723	0,00119264028	0,23925260646926051	-0,0089268364259187187	0,13508137014609906
1	1	0	0	0	0	2	59268,3190	0,300000012	3,98492169	0,00083384384604295091	0,30018378401632646	0,00119620888	0,2692710243127448	-0,010046863955851158	0,16509978798958323
1	1	0	0	0	0	2	59628,3190	0,300000012	3,99621534	0,0008338518886036343	0,30018667933816704	0,00119961065	0,2992893247667289	-0,011166887105823517	0,1951180884435673
1	1	0	0	0	0	2	59988,3190	0,300000012	4,00729895	0,00083384458421336269	0,30018404975767424	0,0012029272	0,32930763101730784	-0,012286910472074616	0,22513639469414614
1	1	0	0	0	0	2	60348,3190	0,300000012	4,02109194	0,00083383653874529728	0,30018115338917606	0,00120705599	0,3593257988083184	-0,013406928672213066	0,25515456248515674
1	1	0	0	0	0	2	60708,3190	0,300000012	4,03889036	0,00083385621237258112	0,30018823589498502	0,00121242739	0,38934406746814355	-0,014526950635902602	0,28517283114498189
1	1	0	0	0	0	2	61068,3190	0,300000012	4,05405664	0,00083386253611246746	0,3001905124413399	0,00121698936	0,41936278985029011	-0,01564698952858199	0,31519155352712845
1	1	0	0	0	0	2	61428,3190	0,300000012	4,07321024	0,00083384465811318822	0,30018407636161139	0,0012227128	0,44938153289580576	-0,016767029192239456	0,3452102965726441
1	1	0	0	0	0	2	61788,3190	0,300000012	4,0889678	0,00083384284015496563	0,30018342189665242	0,00122744031	0,47939990371896058	-0,017887054967780186	0,37522866739579891
1	1	0	0	0	0	2	62148,3190	0,300000012	4,11191702	0,00083384629112316506	0,30018466424520192	0,00123433443	0,50941822202221312	-0,019007078783732746	0,40524698569905126
1	1	0	0	0	0	2	62508,3190	0,300000012	4,13793802	0,0008338268721666601	0,30017767342087315	0,00124211656	0,53943646523084634	-0,020127099797804093	0,43526522890768474
1	1	0	0	0	0	2	62868,3190	0,300000012	4,16489363	0,0008338546400931145	0,30018766987437818	0,00125024968	0,5694548326488871	-0,021247125446295437	0,46528359632572557
1	1	0	0	0	0	2	63228,3190	0,300000012	4,19752979	0,00083384901200731597	0,30018564376349446	0,00126003823	0,59947329822718669	-0,022367154757278016	0,49530206190402496
1	0	0	1	0	0	1	63577,1812	-0,300000012	4,05693245	-0,00083288462569481805	-0,29983846469164186	0,0012164244	0,57356105176649997	-0,021400334002443894	0,027480858861938733
1	0	0	1	0	0	1	63937,1812	-0,300000012	4,00586367	-0,00083287235288487539	-0,29983404648007072	0,00120109436	0,54357733101686342	-0,020281601067733654	0,057464579611575206
1	0	0	1	0	0	1	64297,1812	-0,300000012	3,96482897	-0,00083289655020005171	-0,29984275751351795	0,00118882523	0,51359318659431776	-0,019162852325217539	0,087448724034121254
1	0	0	1	0	0	1	64657,1812	-0,300000012	3,93005157	-0,00083288848130404954	-0,29983985271096256	0,00117838604	0,48360912664912384	-0,018044106734664995	0,11743278397931554
1	0	0	1	0	0	1	65017,1812	-0,300000012	3,9035728	-0,00083289599683880806	-0,29984255830347059	0,00117045722	0,45362493794671091	-0,016925356340007501	0,14741697268172826
1	0	0	1	0	0	1	65377,1812	-0,300000012	3,87701774	-0,0008329068819201655	-0,29984647693275194	0,00116251013	0,4236405603575911	-0,015806598897733008	0,1774013502708481
1	0	0	1	0	0	1	65737,1852	-0,300000012	3,85462141	-0,00083291408382356173	-0,29984314368798778	0,00115578179	0,39365606098868173	-0,014687836911690829	0,20738584963975744
1	0	0	1	0	0	1	66097,1923	-0,300000012	3,83556342	-0,00083292166616684864	-0,29984587417121261	0,00115007791	0,36367119890301331	-0,013569061392198698	0,23737071172542602
1	0	0	1	0	0	1	66457,1994	-0,300000012	3,81009579	-0,0008329153142952256	-0,29984358775903277	0,0011424328	0,33368597054264179	-0,01245027220650493	0,26735594008579744
1	0	0	1	0	0	1	66817,2065	-0,300000012	3,78073645	-0,0008329172147528992	-0,29984427174970874	0,00113363215	0,3037009497754217	-0,01133149076639075	0,2973409608530176
1	0	0	1	0	0	1	67177,2136	-0,300000012	3,73865247	-0,00083291027801732211	-0,29984177362482125	0,00112100423	0,27371588830265821	-0,010212707807498021	0,32732602232578106
1	0	0	1	0	0	1	67537,2207	-0,300000012	3,68262362	-0,00083293130646646016	-0,29984934371688582	0,00110423227	0,2437306572912857	-0,0090939185228918438	0,3573112533371536
1	0	0	1	0	0	1	67897,2279	-0,300000012	3,60145116	-0,00083291854688194061	-0,29984475087036358	0,00107987621	0,21374532896400243	-0,0079751256072981926	0,38729658166443686
1	0	0	1	0	0	1	68257,2350	-0,300000012	3,45261264	-0,00083292450094388595	-0,29984689489068691	0,00103525515	0,18376015905344237	-0,0068563386024454746	0,41728175157499706
1	0	0	1	0	0	1	68617,2421	-0,300000012	3,05625081	-0,00083291221622791552	-0,29984247248076774	0,000916393823	0,15377510134540902	-0,0057375557840198893	0,44726680928303027
1	1	0	0	0	0	2	68965,1880	0,300000012	2,57131958	0,00083385044133828749	0,30018022572814176	0,000771859311	0,12646170479183139	-0,004718456235353671	0,00083386658563382093
1	1	0	0	0	0	2	69325,1951	0,300000012	3,94260907	0,00083385657467775872	0,30018243407765926	0,00118350203	0,15648052289008506	-0,005838498699329705	0,030852684683887501
1	1	0	0	0	0	2	69685,2022	0,300000012	3,96086574	0,0008338621382829216	0,30018443766236045	0,00118899031	0,18649934313220858	-0,0069585412432964058	0,06087150492601097
1	1	0	0	0	0	2	70045,2093	0,300000012	3,976547	0,00083386690521405811	0,30018615372365747	0,00119370432	0,21651809651336323	-0,0080785812925904614	0,090890258307165581
1	1	0	0	0	0	2	70405,2165	0,300000012	3,99115992	0,00083386659156945011	0,30018604003454387	0,0011980905	0,2465370884769071	-0,0091986302437142374	0,12090925027070938
1	1	0	0	0	0	2	70765,2236	0,300000012	4,00623083	0,00083387127208378586	0,30018772465092378	0,00120262126	0,2765559815767384	-0,010318675506099974	0,15092814337054058
1	1	0	0	0	0	2	71125,2307	0,300000012	4,02206469	0,00083385436195300685	0,3001816371381431	0,00120734994	0,30657491754664077	-0,011438722368025702	0,18094707934044304
1	1	0	0	0	0	2	71485,2378	0,300000012	4,03740263	0,00083387149290574912	0,3001878052635239	0,00121197908	0,33659392814715802	-0,01255877201452001	0,21096608994096022
1	1	0	0	0	0	2	71845,2449	0,300000012	4,05337	0,00083386880397796621	0,30018683726865114	0,00121676829	0,36661346938410349	-0,013678841459772906	0,24098563117790544
1	1	0	0	0	0	2	72205,2520	0,300000012	4,07111168	0,0008338659429020352	0,3001858068963015	0,00122208998	0,39663281325651488	-0,014798903541089674	0,2710049750503168
1	1	0	0	0	0	2	72565,2591	0,300000012	4,08847141	0,00083386696783701581	0,30018617514921818	0,00122730259	0,4266520362348336	-0,015918961111685302	0,30102419802863552
1	1	0	0	0	0	2	72925,2663	0,300000012	4,1087122	0,00083388031007349491	0,30019097825941574	0,00123339833	0,45667117008871597	-0,017039015356928384	0,33104333188251789
1	1	0	0	0	0	2	73285,2734	0,300000012	4,12941074	0,00083386696765157914	0,30018617583772371	0,00123959198	0,48669067331125606	-0,018159083383812701	0,36106283510505792
1	1	0	0	0	0	2	73645,2805	0,300000012	4,14905977	0,00083386850998467866	0,30018673142966451	0,00124549272	0,51670975120016851	-0,019279135540927507	0,39108191299397069
1	1	0	0	0	0	2	74005,2876	0,300000012	4,17519522	0,00083385121882292954	0,30018050669251078	0,00125331222	0,54672837492052294	-0,020399170752402778	0,42110053671432506
1	0	0	1	0	0	1	74346,4401	-0,300000012	4,09844398	-0,00083291272995869325	-0,29984265658551309	0,00122888829	0,56684121373884832	-0,021149607810713891	0,0041604422928567904
1	0	0	1	0	0	1	74706,4472	-0,300000012	4,02362442	-0,00083289402276774246	-0,29983592296409792	0,00120642711	0,53685653465354419	-0,020030839119211398	0,034145121378161126
1	0	0	1	0	0	1	75066,4544	-0,300000012	3,95729351	-0,00083290458349552422	-0,29983972475096998	0,00118655385	0,5068719570783856	-0,018912074215188912	0,064129698953319885
1	0	0	1	0	0	1	75426,4615	-0,300000012	3,91017342	-0,00083290688470668262	-0,29984055250130618	0,0011724286	0,47688724932571578	-0,017793304454068464	0,094114406705989722
1	0	0	1	0	0	1	75786,4686	-0,300000012	3,8717525	-0,00083291447593602867	-0,29984328484263162	0,00116091897	0,44690245890445171	-0,01667453160847161	0,12409919712725373
1	0	0	1	0	0	1	76146,4757	-0,300000012	3,84126759	-0,00083291549037562483	-0,29984365003323174	0,00115177967	0,41691763392454547	-0,015555757473445347	0,15408402210716003
1	0	0	1	0	0	1	76506,4828	-0,300000012	3,81715417	-0,00083290616515941094	-0,29984029404098234	0,00114453665	0,38693264323837722	-0,014436977155695661	0,18406901279332829
1	0	0	1	0	0	1	76866,4899	-0,300000012	3,7853148	-0,00083290418833328627	-0,29983958249886605	0,00113498722	0,35694794878797741	-0,013318207890900787	0,21405370724372826
1	0	0	1	0	0	1	77226,4970	-0,300000012	3,74441385	-0,00083291344074904909	-0,29984291299554931	0,00112273591	0,32696296848328928	-0,012199427960498082	0,24403868754841645
1	0	0	1	0	0	1	77586,5042	-0,300000012	3,6922574	-0,0008329096837639808	-0,29984155969784672	0,00110709225	0,29697809424685786	-0,011080651987644642	0,27402356178484794
1	0	0	1	0	0	1	77946,5113	-0,300000012	3,62298894	-0,00083290838212105958	-0,2998410911156567	0,00108632096	0,26699307580215898	-0,0099618706341868557	0,30400858022954682
1	0	0	1	0	0	1	78306,5184	-0,300000012	3,52117538	-0,00083291200561655898	-0,29984239620447853	0,00105579768	0,23700821271906627	-0,0088430950774794816	0,33399344331263955
1	0	0	1	0	0	1	78666,5255	-0,300000012	3,33981061	-0,00083291664443082278	-0,29984406660187565	0,00100142241	0,20702348237429898	-0,007724324473417495	0,36397817365740698
1	0	0	1	0	0	1	79026,5326	-0,300000012	2,96956515	-0,00083293782855404749	-0,2998516927355321	0,000890429132	0,17703822657346403	-0,0066055342638831424	0,39396342945824192
1	0	0	1	0	0	1	79386,5397	-0,300000012	2,03819013	-0,00083291154549519219	-0,29984222997502906	0,000611135445	0,14705290228176784	-0,0054867414988626707	0,42394875374993792
1	1	0	0	0	0	2	79728,7857	0,300000012	3,96088481	0,00083386270171900595	0,30018464049883706	0,00118899683	0,17355105099544595	-0,0064754230545098598	0,027517515098495613
1	1	0	0	0	0	2	80088,7928	0,300000012	3,98471189	0,00083386012671722317	0,30018371351651386	0,00119614566	0,20357014512907309	-0,0075954758177368102	0,057536609232122682
1	1	0	0	0	0	2	80448,7999	0,300000012	3,99987817	0,00083384907472795904	0,3001797344456871	0,00120068237	0,23358881079927766	-0,0087155125944173901	0,087555274902327142
1	1	0	0	0	0	2	80808,8070	0,300000012	4,01880264	0,00083386731968820096	0,3001863018166359	0,00120638951	0,26360791664716778	-0,0098355657947192422	0,11757438075021731
1	1	0	0	0	0	2	81168,8141	0,300000012	4,04009247	0,00083387915545039706	0,3001905626033161	0,00121279759	0,29362706043308659	-0,010955620410539955	0,147593524536136
1	1	0	0	0	0	2	81528,8212	0,300000012	4,05907393	0,0008338640702350272	0,30018513281589818	0,00121847366	0,32364628120760787	-0,012075677898908938	0,17761274531065738
1	1	0	0	0	0	2	81888,8283	0,300000012	4,08049726	0,00083385477424164608	0,30018178666032614	0,00122489093	0,3536653662314416	-0,013195730322237251	0,2076318303344911
1	1	0	0	0	0	2	82248,8355	0,300000012	4,09951735	0,00083385103046231808	0,30018043885607469	0,00123059493	0,38368423551467251	-0,014315774695993603	0,23765069961772182
1	1	0	0	0	0	2	82608,8426	0,300000012	4,11502647	0,00083385355055332186	0,30018134502255738	0,00123525423	0,41370309028233792	-0,015435818528154694	0,26766955438538714
1	1	0	0	0	0	2	82968,8497	0,300000012	4,13517189	0,00083384997870524723	0,30018005918266554	0,00124129618	0,4437219518928416	-0,016555862615631277	0,29768841599589082
1	1	0	0	0	0	2	83328,8568	0,300000012	4,15730143	0,00083387005873521165	0,30018728827341894	0,00124796899	0,47374078042583366	-0,01767590546894143	0,32770724452888288
1	1	0	0	0	0	2	83688,8639	0,300000012	4,1862793	0,00083386225923233562	0,30018448120678362	0,00125665613	0,50375976023087264	-0,018795953966415043	0,35772622433392192
1	0	0	1	0	0	1	84030,8300	-0,300000012	4,02057171	-0,00083292034673359654	-0,29984539828754688	0,00120554992	0,51060633169725619	-0,019051408753139053	0,010823756676858771
1	0	0	1	0	0	1	84390,8372	-0,300000012	3,92850637	-0,00083290054232544371	-0,29983826884152749	0,00117791654	0,48062163976109434	-0,017932639582153776	0,040808448613020563
1	0	0	1	0	0	1	84750,8443	-0,300000012	3,86984468	-0,00083291335397130906	-0,29984288189318483	0,00116034539	0,45063669053127277	-0,016813860811196122	0,070793397842842125
1	0	0	1	0	0	1	85110,8514	-0,300000012	3,82035923	-0,00083290722255574336	-0,29984067479431085	0,00114549906	0,42065198503454918	-0,015695091134248054	0,10077810333956554
1	0	0	1	0	0	1	85470,8585	-0,300000012	3,7810607	-0,0008329132036930985	-0,29984282772341427	0,00113372388	0,39066721026982758	-0,014576318872817853	0,13076287810428717
1	0	0	1	0	0	1	85830,8656	-0,300000012	3,73601985	-0,00083291536580522854	-0,29984360518877549	0,00112022168	0,36068269687668378	-0,013457556363512632	0,16074739149743091
1	0	0	1	0	0	1	86190,8727	-0,300000012	3,68105936	-0,00083291086430019802	-0,29984198468248493	0,00110373611	0,33069820267129658	-0,012338794570128413	0,19073188570281789
1	0	0	1	0	0	1	86550,8798	-0,300000012	3,60953975	-0,00083290354303187789	-0,29983934966439066	0,00108228205	0,30071374368070611	-0,011220034090655605	0,22071634469340835
1	0	0	1	0	0	1	86910,8870	-0,300000012	3,51264787	-0,00083290418774551808	-0,29983958228727373	0,00105323084	0,27072931581739296	-0,010101274772583363	0,25070077255672141
1	0	0	1	0	0	1	87270,8941	-0,300000012	3,34206176	-0,00083291368188626227	-0,29984300011040006	0,00100209378	0,24074461220775581	-0,0089825051660450278	0,28068547616635853
1	0	0	1	0	0	1	87630,9012	-0,300000012	3,08099365	-0,00083290834685994522	-0,299841078561528	0,000923808431	0,21076015458440662	-0,0078637447375858317	0,31066993378970778
1	0	0	1	0	0	1	87990,9083	-0,300000012	2,48897862	-0,0008329265986018711	-0,29984764891564128	0,000746314414	0,18077543804799894	-0,0067449746487323098	0,34065465032611552
1	1	0	0	0	0	2	88335,8558	0,300000012	3,94982004	0,00083386428593595814	0,30018521080566976	0,0011856776	0,17871339080630621	-0,0066680368936927501	0,013341831643250253
1	1	0	0	0	0	2	88695,8629	0,300000012	3,98606634	0,0008338662360989385	0,30018591278057805	0,00119656092	0,20873260036686608	-0,0077880939636537549	0,043361041203810112
1	1	0	0	0	0	2	89055,8700	0,300000012	4,01231623	0,00083386712016496384	0,30018622998969024	0,00120444212	0,23875188735417747	-0,0089081539225109606	0,073380328191121434
1	1	0	0	0	0	2	89415,8772	0,300000012	4,04516697	0,00083387314535180723	0,30018839901408243	0,00121431216	0,26877105951757786	-0,010028209597133664	0,10339950035452182
1	1	0	0	0	0	2	89775,8843	0,300000012	4,07357264	0,00083386993625925645	0,3001872441794519	0,00122283457	0,2987905843698503	-0,011148278431052379	0,13341902520679434
1	1	0	0	0	0	2	90135,8914	0,300000012	4,09860134	0,00083387270055214566	0,30018824000414086	0,00123035198	0,32881012322510982	-0,01226834778744137	0,16343856406205392
1	1	0	0	0	0	2	90495,8985	0,300000012	4,12031078	0,00083387304512328576	0,30018836404773677	0,00123686937	0,35882925653413293	-0,013388402012355016	0,19345769737107718
1	1	0	0	0	0	2	90855,9056	0,300000012	4,14320326	0,00083387996809846835	0,30019085545836531	0,00124375173	0,38884850733145594	-0,014508460620915098	0,22347694816840013
1	1	0	0	0	0	2	91215,9127	0,300000012	4,15627098	0,00083387208741903309	0,30018801816231674	0,0012476627	0,41886792873673139	-0,015628525595087267	0,25349636957367584
1	1	0	0	0	0	2	91575,9199	0,300000012	4,17015886	0,00083386859784689216	0,30018676200058317	0,00125182653	0,44888710700853005	-0,016748581497622525	0,28351554784547443
1	1	0	0	0	0	2	91935,9270	0,300000012	4,19013262	0,00083386386524968666	0,3001850593616048	0,00125781517	0,47890635522053805	-0,017868640009721027	0,3135347960574825
1	0	0	1	0	0	1	92285,5127	-0,300000012	3,985394	-0,00083290711539818176	-0,29984063571876813	0,00119498302	0,47972170150546707	-0,01789906167585647	0,01415519617252573
1	0	0	1	0	0	1	92645,5198	-0,300000012	3,90132165	-0,00083292047387195942	-0,29984544405994342	0,00116979354	0,44973702841871123	-0,016780293208167872	0,044139869259281536
1	0	0	1	0	0	1	93005,5269	-0,300000012	3,83563972	-0,0008329135553240777	-0,29984295343193395	0,00115008955	0,41975212699886298	-0,015661516221064608	0,074124770679129754
1	0	0	1	0	0	1	93365,5340	-0,300000012	3,76396775	-0,00083290994598799283	-0,29984165494831872	0,00112859427	0,38976735024521069	-0,014542743885424723	0,10410954743278216
1	0	0	1	0	0	1	93725,5411	-0,300000012	3,70324564	-0,000832908028225104	-0,29984096482911283	0,00111038471	0,35978253292529754	-0,013423970036203107	0,13409436475269523
1	0	0	1	0	0	1	94085,5483	-0,300000012	3,62770104	-0,00083291017871267251	-0,29984173886367917	0,00108773622	0,32979766749505005	-0,012305194391920234	0,16407923018294269
1	0	0	1	0	0	1	94445,5554	-0,300000012	3,52680302	-0,00083293363975981875	-0,29985018368327462	0,00105751248	0,29981253807507622	-0,01118640889782573	0,19406435960291677
1	0	0	1	0	0	1	94805,5625	-0,300000012	3,36529756	-0,0008329306485917833	-0,29984910688362886	0,00100908149	0,2698275425142745	-0,010067628398196912	0,22404935516371843
1	0	0	1	0	0	1	95165,5696	-0,300000012	3,14658022	-0,0008329062163432439	-0,29984031192227514	0,000943471619	0,23984257979149123	-0,0089488491237987162	0,25403431788650166
1	0	0	1	0	0	1	95525,5767	-0,300000012	2,78255391	-0,00083292153976526528	-0,29984582888744934	0,000834337203	0,20985778309992621	-0,007830076044248503	0,28401911457806672
1	0	0	1	0	0	1	95885,5838	-0,300000012	2,01623273	-0,00083291263940268083	-0,29984262482372704	0,000604552508	0,1798725880260783	-0,0067112881005196851	0,31400430965191475
1	1	0	0	0	0	2	96231,9627	0,300000012	3,97895074	0,00083385318271650214	0,30018121260391955	0,0011944063	0,20769313793907744	-0,0077493102229008627	0,028351237964673178
1	1	0	0	0	0	2	96591,9699	0,300000012	4,01447201	0,00083384239098098547	0,3001773281748473	0,00120505353	0,23771236618494672	-0,0088693679900358848	0,058370466210542451
1	1	0	0	0	0	2	96951,9770	0,300000012	4,05127144	0,00083386009982228275	0,30018370383146899	0,00121612567	0,26773122562623053	-0,009989411996575959	0,088389325651826138
1	1	0	0	0	0	2	97311,9841	0,300000012	4,06863165	0,00083384731421868019	0,30017910110469235	0,00122131815	0,29775009857279578	-0,011109456507016242	0,11840819859839152
1	1	0	0	0	0	2	97671,9912	0,300000012	4,09430933	0,00083384834404455296	0,30017947092611558	0,00122902764	0,32776875361854029	-0,012229492887283934	0,14842685364413594
1	1	0	0	0	0	2	98031,9983	0,300000012	4,12508011	0,00083384764657914637	0,30017921963386317	0,00123826333	0,3577876715930768	-0,013349539077778363	0,17844577161867251
1	1	0	0	0	0	2	98392,0054	0,300000012	4,15556526	0,0008338503233657943	0,30018018341526202	0,00124741835	0,3878063934102937	-0,014469577949379466	0,20846449343588947
1	1	0	0	0	0	2	98752,0126	0,300000012	4,1792779	0,0008338396683832009	0,30017634866180698	0,00125452038	0,41782485737672128	-0,015589607200220934	0,23848295740231706
1	0	0	1	0	0	1	99095,0087	-0,300000012	4,03383017	-0,00083293770813445235	-0,29985164826832218	0,00120955065	0,4414246337195001	-0,016470146585806768	0,0024946919926592154
1	0	0	1	0	0	1	99455,0158	-0,300000012	3,87987924	-0,00083291842718919117	-0,29984470726565549	0,00116336124	0,41143940437397139	-0,015351357363355466	0,032479921338187827
1	0	0	1	0	0	1	99815,0229	-0,300000012	3,80153012	-0,00083291826503144371	-0,29984464946203936	0,00113986852	0,38145440732173075	-0,014232576808079056	0,062464918390428531
1	0	0	1	0	0	1	100175,0300	-0,300000012	3,73382616	-0,00083291458278232154	-0,29984332442308179	0,00111956289	0,35146925139649165	-0,013113790325037469	0,092450074315667674
1	0	0	1	0	0	1	100535,0371	-0,300000012	3,63909006	-0,00083291444043483994	-0,29984327317900109	0,00109115662	0,3214840414074439	-0,011995001824802491	0,12243528430471542
1	0	0	1	0	0	1	100895,0442	-0,300000012	3,49563122	-0,00083289734165204902	-0,29983711677895162	0,00104811997	0,29149917896702662	-0,0108762262920742	0,15242014674513254
1	0	0	1	0	0	1	101255,0514	-0,300000012	3,27412868	-0,00083291930167045862	-0,29984502207574374	0,000981731224	0,26151432041731747	-0,0097574509045134618	0,18240500529484163
1	0	0	1	0	0	1	101615,0585	-0,300000012	2,98112583	-0,00083291540873216256	-0,29984362085509107	0,000893871591	0,23152930462628061	-0,0086386696500673715	0,21239002108587856
1	0	0	1	0	0	1	101975,0656	-0,300000012	2,35299802	-0,00083293515002065242	-0,29985072848605568	0,000705548155	0,20154430266016512	-0,0075198889114476864	0,24237502305199405
1	1	0	0	0	0	2	102318,7939	0,300000012	3,97208285	0,0008338698856482903	0,30018722554401037	0,00119236857	0,20458408982051699	-0,007633307457437719	0,015843495384663344
1	1	0	0	0	0	2	102678,8010	0,300000012	4,01510143	0,00083386139833099302	0,3001841701701737	0,00120526995	0,23460315488189082	-0,0087533591359398118	0,045862560446037171
1	1	0	0	0	0	2	103038,8081	0,300000012	4,05369425	0,00083385420073403251	0,30018157963162413	0,00121684431	0,26462232768773149	-0,0098734148345328256	0,075881733251877952
1	1	0	0	0	0	2	103398,8153	0,300000012	4,08845234	0,00083386972398559245	0,30018716846485165	0,00122730096	0,29464181412563187	-0,01099348223515967	0,10590121968977811
1	1	0	0	0	0	2	103758,8224	0,300000012	4,12065458	0,00083386782852477491	0,30018648610894707	0,00123696483	0,32466096870533901	-0,012113537253711138	0,1359203742694855
1	1	0	0	0	0	2	104118,8295	0,300000012	4,14970875	0,0008338539599759712	0,30018149259351206	0,00124566571	0,3546800487042809	-0,013233589489553979	0,16593945426842736
1	1	0	0	0	0	2	104478,8366	0,300000012	4,17643547	0,00083386452324026163	0,30018529511265459	0,00125370454	0,38469921923877408	-0,014353645103399965	0,19595862480292051
1	0	0	1	0	0	1	104820,7365	-0,300000012	4,00139952	-0,00083291114247838643	-0,29984208593813958	0,00119978795	0,40487438587099725	-0,015106407696248243	0,0041604292932419629
1	0	0	1	0	0	1	105180,7436	-0,300000012	3,83029819	-0,00083291549574169843	-0,29984365269450938	0,00114849058	0,37488962634973286	-0,013987636003571925	0,034145188814506138
1	0	0	1	0	0	1	105540,7507	-0,300000012	3,73214746	-0,00083291981566117862	-0,29984520710525517	0,0011190665	0,34490464927461306	-0,012868856193668754	0,064130165889625933
1	0	0	1	0	0	1	105900,7579	-0,300000012	3,62495399	-0,00083290964953435802	-0,29984154737237178	0,00108691177	0,31491976565026317	-0,011750079870539456	0,094115049513975962
1	0	0	1	0	0	1	106260,7650	-0,300000012	3,46255183	-0,0008329187969598505	-0,29984484110606701	0,00103822828	0,28493484626833178	-0,010631302213246714	0,12409996889590738
1	0	0	1	0	0	1	106620,7721	-0,300000012	3,20381117	-0,00083293378074632755	-0,29985023555354906	0,000960663543	0,25494994107107728	-0,0095125250852033395	0,15408487409316189
1	0	0	1	0	0	1	106980,7792	-0,300000012	2,80096316	-0,00083290972234639859	-0,29984157470421741	0,000839845219	0,22496503760783283	-0,0083937480218582131	0,1840697775564063
1	0	0	1	0	0	1	107340,7863	-0,300000012	2,0212307	-0,00083291698583132685	-0,2998441883901344	0,000606054266	0,19497986859088877	-0,0072749610503475098	0,2140549465733504
1	1	0	0	0	0	2	107690,7516	0,300000012	4,00863457	0,00083386279397706189	0,30018467295276563	0,0012033307	0,22250175542387603	-0,0083018396516566643	0,028351280904905664
1	1	0	0	0	0	2	108050,7588	0,300000012	4,05291224	0,00083385377443995738	0,30018142673839398	0,00121660903	0,25252063515214867	-0,0094218844151315686	0,05837016063317824
1	1	0	0	0	0	2	108410,7659	0,300000012	4,08938742	0,00083387247290379469	0,30018815805279078	0,00122758572	0,28253981251368832	-0,010541940283703837	0,088389337994717914
1	1	0	0	0	0	2	108770,7730	0,300000012	4,11996746	0,00083387150992287526	0,30018781063124506	0,00123676402	0,31255907827910195	-0,011661999450743504	0,11840860376013155
1	1	0	0	0	0	2	109130,7801	0,300000012	4,15283728	0,00083384647932648653	0,30017879943121107	0,00124659366	0,34257810765047789	-0,012782049797603786	0,14842763313150736
1	1	0	0	0	0	2	109490,7872	0,300000012	4,17954493	0,00083383955233130189	0,3001763057622327	0,00125460036	0,37259643808954374	-0,013902074066359862	0,17844596357057325
1	1	0	0	0	0	2	109850,6629	0,300000012	4,1999526	0,00082290848093397094	0,30018555829618234	0,00126076513	0,40260411174840486	-0,015021700716318301	0,20845363722943424