File: Experimentelles/Rohdaten/Batterietests/AlteZelle/Studenten_Batterietests/LiCoO2 vs Li 300µm GCPL/ZView-Export/LiCoO2 vs Li 300µm GCPL_02_GCPL_C04_loop7.txt
EC-Lab ASCII FILE
Nb header lines : 3
mode	ox/red	error	control changes	Ns changes	counter inc.	Ns	time/s	control/V/mA	Ewe/V	dq/mA.h	<I>/mA	P/W	(Q-Qo)/mA.h	x	Capacity/mA.h
1	0	0	1	1	0	1	83900,83	-0,300000012	4,18333626	0	0	0	0	0	0
1	0	0	1	0	0	1	83930,83	-0,300000012	4,08722687	-0,00083289858690400909	-0,29983756494604691	0,00122550421	-0,0024945993219542272	9,3076854726572301E-005	0,0024945993219542272
1	0	0	1	0	0	1	83960,83	-0,300000012	4,06944704	-0,00083291975708140262	-0,29984518667405587	0,00122020405	-0,0049933453472482925	0,00018630842853005587	0,0049933453472482925
1	0	0	1	0	0	1	83990,83	-0,300000012	4,03663492	-0,00083291824545794061	-0,29984464268274701	0,00121036335	-0,0074921002115651405	0,00027954033212936371	0,0074921002115651405
1	0	0	1	0	0	1	84020,83	-0,300000012	4,02440643	-0,00083290894465479578	-0,29984129362030861	0,00120668323	-0,009990836330125175	0,0003727715362992809	0,009990836330125175
1	0	0	1	0	0	1	84050,83	-0,300000012	4,01385689	-0,00083291492681370842	-0,29984344827542419	0,00120352872	-0,012489597463343979	0,00046600367379974931	0,012489597463343979
1	0	0	1	0	0	1	84080,83	-0,300000012	4,00408936	-0,0008329112560451031	-0,29984212570786336	0,00120059471	-0,014988335734005878	0,00055923495826748058	0,014988335734005878
1	0	0	1	0	0	1	84110,83	-0,300000012	3,99558091	-0,00083291161926587418	-0,29984225758871501	0,00119804405	-0,017487087482532966	0,0006524667456124832	0,017487087482532966
1	0	0	1	0	0	1	84140,83	-0,300000012	3,98699641	-0,00083291532661351898	-0,29984359107654835	0,00119547534	-0,019985830658650506	0,00074569821310935987	0,019985830658650506
1	0	0	1	0	0	1	84170,83	-0,300000012	3,98018599	-0,00083291014413038886	-0,29984172623628506	0,00119342585	-0,022484570946432922	0,0008389295728385696	0,022484570946432922
1	0	0	1	0	0	1	84200,83	-0,300000012	3,97287941	-0,00083290496012237325	-0,29983985990462157	0,00119122758	-0,024983291486946512	0,00093216019577062912	0,024983291486946512
1	0	0	1	0	0	1	84230,83	-0,300000012	3,96507692	-0,00083290886130266714	-0,29984126362809754	0,00118889369	-0,027482019740021331	0,0010253911064687176	0,027482019740021331
1	0	0	1	0	0	1	84260,83	-0,300000012	3,95719814	-0,00083290150907470131	-0,29983861798134528	0,00118652079	-0,029980732587658138	0,0011186214423692011	0,029980732587658138
1	0	0	1	0	0	1	84290,84	-0,300000012	3,94964361	-0,00083289169835216474	-0,2998350850740752	0,00118424173	-0,032479417138700122	0,0012118507224856866	0,032479417138700122
1	0	0	1	0	0	1	84320,84	-0,300000012	3,94304299	-0,00083290642060505024	-0,2998403860977664	0,00118228351	-0,034978128780332979	0,001305081013388541	0,034978128780332979
1	0	0	1	0	0	1	84350,84	-0,300000012	3,93665218	-0,00083290337385071642	-0,29983928817091462	0,001180363	-0,037476842109129939	0,0013983113672417566	0,037476842109129939
1	0	0	1	0	0	1	84380,84	-0,300000012	3,93043327	-0,00083290184604128205	-0,29983873913507981	0,00117849617	-0,039975548070695117	0,0014915414462136493	0,039975548070695117
1	0	0	1	0	0	1	84410,84	-0,300000012	3,9248817	-0,00083291818030012979	-0,29984461891748224	0,00117685471	-0,042474280986416128	0,0015847725308813363	0,042474280986416128
1	0	0	1	0	0	1	84440,84	-0,300000012	3,91896796	-0,0008329133844806089	-0,29984289209704781	0,00117507472	-0,044973027582216051	0,0016780041259711606	0,044973027582216051
1	0	0	1	0	0	1	84470,84	-0,300000012	3,91356921	-0,00083291311214864243	-0,29984279500891008	0,0011734555	-0,047471763523384384	0,0017712353235223549	0,047471763523384384
1	0	0	1	0	0	1	84500,84	-0,300000012	3,90862823	-0,0008329144529518153	-0,29984327657153261	0,00117197586	-0,049970511052011898	0,0018644669534172307	0,049970511052011898
1	0	0	1	0	0	1	84530,84	-0,300000012	3,90336299	-0,00083291399179895718	-0,2998431116767655	0,00117039646	-0,052469260271166221	0,0019576986463879344	0,052469260271166221
1	0	0	1	0	0	1	84560,84	-0,300000012	3,89884186	-0,00083292571940521395	-0,29984733241459117	0,00116905733	-0,054968023693205037	0,0020509308692873552	0,054968023693205037
1	0	0	1	0	0	1	84590,84	-0,300000012	3,89460659	-0,00083291355206569037	-0,2998429533759177	0,00116777036	-0,057466768205243136	0,002144162386629224	0,057466768205243136
1	0	0	1	0	0	1	84620,84	-0,300000012	3,8910203	-0,00083290299650033318	-0,29983915270749184	0,00116668025	-0,059965497144254822	0,0022373933229205392	0,059965497144254822
1	0	0	1	0	0	1	84650,84	-0,300000012	3,88642263	-0,00083292243639131392	-0,29984615085662912	0,0011653289	-0,062464241031131264	0,0023306248169367859	0,062464241031131264
1	0	0	1	0	0	1	84680,84	-0,300000012	3,88146257	-0,00083292130862673126	-0,29984574567922144	0,00116384006	-0,064963013262882266	0,0024238573685384131	0,064963013262882266
1	0	0	1	0	0	1	84710,84	-0,300000012	3,87612104	-0,00083291402040421952	-0,29984312085398528	0,00116222817	-0,067461752423638541	0,0025170886862167619	0,067461752423638541
1	0	0	1	0	0	1	84740,84	-0,300000012	3,87081766	-0,00083290941746201766	-0,29984146494451866	0,00116063165	-0,06996048448887081	0,0026103197391515706	0,06996048448887081
1	0	0	1	0	0	1	84770,84	-0,300000012	3,86654449	-0,00083291102800601062	-0,29984204361192205	0,0011593526	-0,072459223793116979	0,0027035510621837206	0,072459223793116979
1	0	0	1	0	0	1	84800,85	-0,300000012	3,8618896	-0,00083290404274894131	-0,29983953008604704	0,00115794712	-0,074957949134922138	0,002796781864258424	0,074957949134922138
1	0	0	1	0	0	1	84830,85	-0,300000012	3,85761642	-0,00083290289497044352	-0,29983911600038061	0,00115666434	-0,077456659125539443	0,0028900120935596685	0,077456659125539443
1	0	0	1	0	0	1	84860,85	-0,300000012	3,85370564	-0,00083290259004632627	-0,29983900648467571	0,00115549122	-0,079955366469684019	0,0029832422241174566	0,079955366469684019
1	0	0	1	0	0	1	84890,85	-0,300000012	3,84866929	-0,00083290409200390182	-0,29983954772323827	0,00115398329	-0,082454072590007821	0,0030764723090128474	0,082454072590007821
1	0	0	1	0	0	1	84920,85	-0,300000012	3,84468222	-0,00083292288935846746	-0,29984631361789926	0,00115281378	-0,08495282820680681	0,0031697042406882758	0,08495282820680681
1	0	0	1	0	0	1	84950,85	-0,300000012	3,840657	-0,00083291178123156224	-0,29984231588822938	0,00115159154	-0,087451574313673139	0,0032629358175353299	0,087451574313673139
1	0	0	1	0	0	1	84980,85	-0,300000012	3,83813882	-0,00083290642215311526	-0,29984038554114259	0,00115082902	-0,089950298761418534	0,0033561665862514618	0,089950298761418534
1	0	0	1	0	0	1	85010,85	-0,300000012	3,83336973	-0,00083290983496275213	-0,29984161524530349	0,00114940375	-0,092449018884315507	0,0034493971936016838	0,092449018884315507
1	0	0	1	0	0	1	85040,85	-0,300000012	3,82905817	-0,00083290261969963699	-0,29983901675126618	0,00114810106	-0,09494773359127616	0,0035426275988760397	0,09494773359127616
1	0	0	1	0	0	1	85070,85	-0,300000012	3,82497573	-0,00083291506921251622	-0,29984349904581184	0,00114689406	-0,097446453880773069	0,003635858212442329	0,097446453880773069
1	0	0	1	0	0	1	85100,85	-0,300000012	3,82175183	-0,00083290997612310784	-0,29984166582117952	0,00114592048	-0,099945196117009792	0,0037290896448709888	0,099945196117009792
1	0	0	1	0	0	1	85130,85	-0,300000012	3,81808901	-0,00083290780461496781	-0,29984088321451859	0,00114481919	-0,10244390536713211	0,0038223198465433696	0,10244390536713211
1	0	0	1	0	0	1	85160,85	-0,300000012	3,81518936	-0,00083291905213561318	-0,29984493335847174	0,00114396517	-0,10494266320524554	0,0039155518610990272	0,10494266320524554
1	0	0	1	0	0	1	85190,85	-0,300000012	3,81179357	-0,00083290395365324288	-0,29983949689526227	0,00114292628	-0,10744138128330749	0,0040087823921537043	0,10744138128330749
1	0	0	1	0	0	1	85220,85	-0,300000012	3,80856967	-0,0008329083136121431	-0,2998410675699072	0,00114196562	-0,10994009558440853	0,0041020127822848928	0,10994009558440853
1	0	0	1	0	0	1	85250,85	-0,300000012	3,80481148	-0,00083290139745506982	-0,29983857668559885	0,00114082929	-0,11243882084384336	0,0041952435812862477	0,11243882084384336
1	0	0	1	0	0	1	85280,85	-0,300000012	3,80177832	-0,00083290470802783962	-0,29983976925011776	0,00113992428	-0,11493754067109136	0,0042884741776054093	0,11493754067109136
1	0	0	1	0	0	1	85310,86	-0,300000012	3,79878306	-0,0008329026650703616	-0,29983903373014976	0,00113902346	-0,11743624902482603	0,0043817043458323622	0,11743624902482603
1	0	0	1	0	0	1	85340,86	-0,300000012	3,79592156	-0,00083291193350156147	-0,29984236958736806	0,00113817817	-0,1199349839125187	0,0044749355040769626	0,1199349839125187
1	0	0	1	0	0	1	85370,86	-0,300000012	3,79258323	-0,00083292381462785933	-0,29984664782529043	0,00113719341	-0,12243372351547853	0,004568166838254521	0,12243372351547853
1	0	0	1	0	0	1	85400,86	-0,300000012	3,7892828	-0,00083290956380963328	-0,2998415165151351	0,00113618432	-0,12493246583657902	0,0046613982738495616	0,12493246583657902
1	0	0	1	0	0	1	85430,86	-0,300000012	3,7860589	-0,00083291849832567898	-0,2998447339908352	0,00113522983	-0,12743122022574421	0,0047546301597203232	0,12743122022574421
1	0	0	1	0	0	1	85460,86	-0,300000012	3,78220534	-0,0008329151952796512	-0,29984354380078099	0,00113406987	-0,12992996490059405	0,0048478616831369171	0,12992996490059405
1	0	0	1	0	0	1	85490,86	-0,300000012	3,77886677	-0,0008329178438683351	-0,29984449819537472	0,00113307242	-0,13242870446996499	0,0049410930160612282	0,13242870446996499
1	0	0	1	0	0	1	85520,86	-0,300000012	3,77524209	-0,00083290045391023155	-0,29983823757159776	0,00113196194	-0,13492742000949822	0,0050343234523999866	0,13492742000949822
1	0	0	1	0	0	1	85550,86	-0,300000012	3,7719419	-0,00083290345398088294	-0,29983931714242682	0,00113097648	-0,13742612830385179	0,005127553618411351	0,13742612830385179
1	0	0	1	0	0	1	85580,86	-0,300000012	3,76787853	-0,00083291256659395162	-0,2998425986096119	0,00112977054	-0,13992484874548294	0,0052207842376539731	0,13992484874548294
1	0	0	1	0	0	1	85610,86	-0,300000012	3,76469254	-0,00083289703748457971	-0,29983700712375469	0,00112879416	-0,14242355460694872	0,0053140143128910227	0,14242355460694872
1	0	0	1	0	0	1	85640,86	-0,300000012	3,76062918	-0,00083290004360510246	-0,29983809042620557	0,00112757983	-0,14492225488111152	0,0054072441796582861	0,14492225488111152
1	0	0	1	0	0	1	85670,86	-0,300000012	3,7571764	-0,00083289892754786547	-0,29983768753657958	0,00112654304	-0,14742095161587107	0,005500473914365655	0,14742095161587107
1	0	0	1	0	0	1	85700,86	-0,300000012	3,75317025	-0,00083290119767685734	-0,29983850585590317	0,00112534501	-0,14991964454294186	0,0055937035070030362	0,14991964454294186
1	0	0	1	0	0	1	85730,86	-0,300000012	3,74939299	-0,00083290176142089907	-0,2998387081156071	0,0011242131	-0,15241834836037894	0,0056869335059746266	0,15241834836037894
1	0	0	1	0	0	1	85760,86	-0,300000012	3,74563479	-0,00083289217545092109	-0,29983525710896109	0,00112307339	-0,15491704017325843	0,0057801630570400333	0,15491704017325843
1	0	0	1	0	0	1	85790,86	-0,300000012	3,74250603	-0,00083290374696089152	-0,29983942360794394	0,0011221508	-0,15741574319501158	0,0058733930263235866	0,15741574319501158
1	0	0	1	0	0	1	85820,87	-0,300000012	3,73781323	-0,00083291747223999757	-0,29984436349030432	0,0011207622	-0,1599144761316257	0,0059666241117708224	0,1599144761316257
1	0	0	1	0	0	1	85850,87	-0,300000012	3,73306298	-0,00083290725789633062	-0,29984068751623456	0,00111932412	-0,16241320694464384	0,0060598551179838387	0,16241320694464384
1	0	0	1	0	0	1	85880,87	-0,300000012	3,72858	-0,00083290380806724237	-0,29983944448533798	0,00111797533	-0,16491191254374653	0,0061530851834317696	0,16491191254374653
1	0	0	1	0	0	1	85910,87	-0,300000012	3,72466922	-0,00083289487535258138	-0,29983622988901088	0,00111679081	-0,16741060758987171	0,0062463148551339187	0,16741060758987171
1	0	0	1	0	0	1	85940,87	-0,300000012	3,72009063	-0,00083290148562524045	-0,29983860867405926	0,00111542677	-0,16990929678282736	0,0063395443084464448	0,16990929678282736
1	0	0	1	0	0	1	85970,87	-0,300000012	3,71558857	-0,00083289533683823219	-0,29983639534995258	0,00111406867	-0,17240800154586563	0,0064327743426996864	0,17240800154586563
1	0	0	1	0	0	1	86000,87	-0,300000012	3,71127725	-0,00083289026598632346	-0,29983457049366547	0,00111276924	-0,17490668897137968	0,0065260037300665894	0,17490668897137968
1	0	0	1	0	0	1	86030,87	-0,300000012	3,70625997	-0,00083289519793291878	-0,29983634490173638	0,00111127144	-0,17740538796609734	0,0066192335490960346	0,17740538796609734
1	0	0	1	0	0	1	86060,87	-0,300000012	3,70135713	-0,00083290281699928973	-0,29983908882838298	0,00110981159	-0,17990408778290381	0,0067124633987987187	0,17990408778290381
1	0	0	1	0	0	1	86090,87	-0,300000012	3,69725561	-0,00083289937008089485	-0,29983784684532141	0,00110857713	-0,18240280183186064	0,0068056937795220659	0,18240280183186064
1	0	0	1	0	0	1	86120,87	-0,300000012	3,69210482	-0,00083289259759253926	-0,29983540991465395	0,0011070238	-0,18490149645263216	0,0068989234353536998	0,18490149645263216
1	0	0	1	0	0	1	86150,87	-0,300000012	3,68682051	-0,00083291744324896077	-0,29984435315496403	0,00110547233	-0,18740023375120189	0,0069921546835513651	0,18740023375120189
1	0	0	1	0	0	1	86180,87	-0,300000012	3,68201303	-0,00083290993627905843	-0,29984165118788979	0,00110402086	-0,18989897483851766	0,0070853860731122406	0,18989897483851766
1	0	0	1	0	0	1	86210,87	-0,300000012	3,67768264	-0,00083290631898575347	-0,29984034929171219	0,00110271759	-0,19239770320122694	0,0071786169879009382	0,19239770320122694
1	0	0	1	0	0	1	86240,87	-0,300000012	3,67260814	-0,00083290392130282202	-0,29983948524934099	0,0011011929	-0,19489642022034451	0,0072718474794449766	0,19489642022034451
1	0	0	1	0	0	1	86270,87	-0,300000012	3,66898346	-0,00083289694848159949	-0,29983697620027277	0,00110009685	-0,19739511625946819	0,0073650771881972352	0,19739511625946819
1	0	0	1	0	0	1	86300,87	-0,300000012	3,66608381	-0,00083290165740582682	-0,29983867026296749	0,00109923375	-0,19989381310763382	0,0074583069271359386	0,19989381310763382
1	0	0	1	0	0	1	86330,88	-0,300000012	3,65946412	-0,00083289218573603366	-0,29983526165360499	0,00109723641	-0,20239251032683341	0,0075515366799184166	0,20239251032683341
1	0	0	1	0	0	1	86360,88	-0,300000012	3,6522913	-0,00083290122860835661	-0,29983851590023821	0,00109509763	-0,2048912074340127	0,0076447664285212672	0,2048912074340127
1	0	0	1	0	0	1	86390,88	-0,300000012	3,64647269	-0,00083289772804081434	-0,29983725645907078	0,00109334837	-0,20738991664539037	0,007737996628748032	0,20738991664539037
1	0	0	1	0	0	1	86420,88	-0,300000012	3,6392808	-0,00083289981834755994	-0,29983800895811827	0,00109119469	-0,2098886186078895	0,0078312265585093952	0,2098886186078895
1	0	0	1	0	0	1	86450,88	-0,300000012	3,63279462	-0,00083290122554368448	-0,29983851479872333	0,00108925172	-0,21238732096100442	0,0079244565028451558	0,21238732096100442
1	0	0	1	0	0	1	86480,88	-0,300000012	3,62487769	-0,00083290676196416218	-0,29984050898767251	0,00108688523	-0,21488603890451382	0,0080176870288794982	0,21488603890451382
1	0	0	1	0	0	1	86510,88	-0,300000012	3,61839151	-0,00083289703484376256	-0,29983700616958886	0,0010849277	-0,21738475028607674	0,008110917310078793	0,21738475028607674
1	0	0	1	0	0	1	86540,88	-0,300000012	3,61320257	-0,00083290069851775974	-0,29983832619010317	0,00108337658	-0,21988344115037648	0,0082041468257514138	0,21988344115037648
1	0	0	1	0	0	1	86570,88	-0,300000012	3,60742211	-0,00083289711267252749	-0,29983703419437139	0,00108163874	-0,22238213686643965	0,0082973765224498509	0,22238213686643965
1	0	0	1	0	0	1	86600,88	-0,300000012	3,60288191	-0,00083289638940658829	-0,29983677473130714	0,00108027644	-0,2248808293676783	0,0083906060991988634	0,2248808293676783
1	0	0	1	0	0	1	86630,88	-0,300000012	3,5990665	-0,00083290024258030784	-0,2998381615357785	0,00107913744	-0,22737953253329059	0,0084838360738499955	0,22737953253329059
1	0	0	1	0	0	1	86660,88	-0,300000012	3,59397292	-0,00083289549538824294	-0,29983645207777965	0,00107760413	-0,22987822566912003	0,0085770656742764416	0,22987822566912003
1	0	0	1	0	0	1	86690,88	-0,300000012	3,58691454	-0,00083289571935435136	-0,29983653372364384	0,00107548805	-0,2323769144634465	0,0086702951127155763	0,2323769144634465
1	0	0	1	0	0	1	86720,88	-0,300000012	3,57321715	-0,0008328891883724265	-0,29983418149966515	0,00107137265	-0,23487558735248208	0,0087635239577069248	0,23487558735248208
1	0	0	1	0	0	1	86750,88	-0,300000012	3,56388855	-0,000832901506624288	-0,29983861710095917	0,00106859137	-0,23737429719535437	0,0088567541814956032	0,23737429719535437
1	0	0	1	0	0	1	86780,88	-0,300000012	3,55520868	-0,00083290565556122189	-0,29984010957002509	0,00106599415	-0,23987302121634378	0,0089499849342888934	0,23987302121634378
1	0	0	1	0	0	1	86810,88	-0,300000012	3,54538393	-0,0008329000081419945	-0,29983807760389094	0,00106304116	-0,24237172121813322	0,0090432147908935424	0,24237172121813322
1	0	0	1	0	0	1	86840,89	-0,300000012	3,53584552	-0,00083290625349846144	-0,29984032527345536	0,0010601891	-0,2448704269583135	0,0091364448616052672	0,2448704269583135
1	0	0	1	0	0	1	86870,89	-0,300000012	3,52708912	-0,00083290611260632678	-0,29984027436480064	0,00105756335	-0,24736915455489283	0,0092296757478086259	0,24736915455489283
1	0	0	1	0	0	1	86900,89	-0,300000012	3,51861906	-0,00083290308132436544	-0,2998391839765488	0,00105501991	-0,2498678683689759	0,0093229061197685184	0,2498678683689759
1	0	0	1	0	0	1	86930,89	-0,300000012	3,50652432	-0,0008329051110347113	-0,29983991354784627	0,0010513959	-0,25236658547261782	0,0094161366144662746	0,25236658547261782
1	0	0	1	0	0	1	86960,89	-0,300000012	3,49790144	-0,00083290232147276403	-0,29983891044235891	0,00104880694	-0,25486529730917114	0,0095093669126418739	0,25486529730917114
1	0	0	1	0	0	1	86990,89	-0,300000012	3,4864552	-0,00083292718427048794	-0,29984785975566669	0,0010454061	-0,25736403807869485	0,0096025982903454976	0,25736403807869485
1	0	0	1	0	0	1	87020,89	-0,300000012	3,47441769	-0,00083291428348918758	-0,29984321667968275	0,00104178058	-0,25986278706945408	0,0096958299747944755	0,25986278706945408
1	0	0	1	0	0	1	87050,89	-0,300000012	3,46363926	-0,00083290212193959296	-0,29983883777062278	0,00103853352	-0,26236149712281027	0,0097890602064365901	0,26236149712281027
1	0	0	1	0	0	1	87080,89	-0,300000012	3,45284176	-0,0008329074022852713	-0,29984073878315654	0,00103530264	-0,26486020650229779	0,0098822904129357619	0,26486020650229779
1	0	0	1	0	0	1	87110,89	-0,300000012	3,44164348	-0,00083291012848085824	-0,29984172086435648	0,00103194825	-0,26735892419115133	0,0099755209294685504	0,26735892419115133
1	0	0	1	0	0	1	87140,89	-0,300000012	3,42706871	-0,00083290311020943859	-0,29983919326149414	0,00102756952	-0,2698576508334073	0,010068751780064822	0,2698576508334073
1	0	0	1	0	0	1	87170,89	-0,300000012	3,40957522	-0,00083290210023522368	-0,29983883079492787	0,00102232303	-0,27235636492427616	0,010161982162351965	0,27235636492427616
1	0	0	1	0	0	1	87200,89	-0,300000012	3,39257765	-0,00083290971527165837	-0,29984157103689587	0,0010172358	-0,27485507008635264	0,010255212211493859	0,27485507008635264
1	0	0	1	0	0	1	87230,89	-0,300000012	3,37302375	-0,00083292003927628186	-0,29984528872558048	0,00101138523	-0,27735380184375008	0,010348443252942936	0,27735380184375008
1	0	0	1	0	0	1	87260,89	-0,300000012	3,35438561	-0,0008329198757956425	-0,2998452288893673	0,00100579648	-0,27985256248447226	0,010441675372067694	0,27985256248447226
1	0	0	1	0	0	1	87290,89	-0,300000012	3,3291657	-0,00083291627333892723	-0,29984393245643194	0,000998230185	-0,28235130735199744	0,010534906902673262	0,28235130735199744
1	0	0	1	0	0	1	87320,90	-0,300000012	3,30966902	-0,00083291016787125005	-0,29984173490848595	0,000992376939	-0,28485004735218906	0,010628138251672074	0,28485004735218906
1	0	0	1	0	0	1	87350,90	-0,300000012	3,29036331	-0,00083290197958714432	-0,29983878624900358	0,000986578525	-0,28734875380137322	0,010721368348837686	0,28734875380137322
1	0	0	1	0	0	1	87380,90	-0,300000012	3,27086663	-0,00083290088273419277	-0,29983839250670854	0,000980731449	-0,28984745883887597	0,010814598393331568	0,28984745883887597
1	0	0	1	0	0	1	87410,90	-0,300000012	3,25136995	-0,00083289954327377997	-0,29983790919003725	0,000974883966	-0,29234615362641965	0,010907828055385693	0,29234615362641965
1	0	0	1	0	0	1	87440,90	-0,300000012	3,23105311	-0,00083290139600634573	-0,29983857727754163	0,000968794397	-0,29484485263349862	0,011001057874876357	0,29484485263349862
1	0	0	1	0	0	1	87470,90	-0,300000012	3,21106029	-0,00083291320129401152	-0,29984282598013869	0,000962813385	-0,29734358424801056	0,011094288910994184	0,29734358424801056
1	0	0	1	0	0	1	87500,90	-0,300000012	3,19011378	-0,00083290149128768166	-0,29983861118764378	0,000956519274	-0,29984229155456941	0,011187519040149598	0,29984229155456941
1	0	0	1	0	0	1	87530,90	-0,300000012	3,16771746	-0,0008328993062575657	-0,2998378246477591	0,000949801528	-0,30234098794048122	0,011280748761840989	0,30234098794048122
1	0	0	1	0	0	1	87560,90	-0,300000012	3,14350891	-0,0008328831677718295	-0,29983201412585274	0,000942524581	-0,30483965801351853	0,011373977501763653	0,30483965801351853
1	0	0	1	0	0	1	87590,90	-0,300000012	3,11878514	-0,00083289207489954099	-0,29983522174889306	0,000935121614	-0,30733833050198445	0,011467206331809206	0,30733833050198445
1	0	0	1	0	0	1	87620,90	-0,300000012	3,0903604	-0,00083290343059268262	-0,2998393086006729	0,000926611538	-0,30983702544284781	0,011560435999583898	0,30983702544284781
1	0	0	1	0	0	1	87650,90	-0,300000012	3,0611155	-0,00083290122429198694	-0,29983851546508454	0,000917840342	-0,31233573434950829	0,011653666188441254	0,31233573434950829
1	0	0	1	0	0	1	87680,90	-0,300000012	3,03021073	-0,00083290363746550349	-0,29983938307341645	0,000908576534	-0,31483444752126195	0,011746896536434978	0,31483444752126195
1	0	0	1	0	0	1	87710,90	-0,300000012	2,99512839	-0,00083290825510521728	-0,29984104625651123	0,000898062426	-0,31733317004854906	0,011840127233496226	0,31733317004854906
1	0	0	1	0	0	1	87740,90	-0,300000012	2,95781374	-0,00083290628767510246	-0,29984033775831066	0,000886871887	-0,3198319022049367	0,011933358289832163	0,3198319022049367
1	0	0	1	0	0	1	87770,90	-0,300000012	2,917943	-0,00083291254655851264	-0,29984259035331942	0,0008749236	-0,32233064065569408	0,012026589581019499	0,32233064065569408
1	0	0	1	0	0	1	87800,90	-0,300000012	2,87381792	-0,00083290226274232064	-0,29983888929632666	0,000861682347	-0,32482935677812422	0,012119820039106926	0,32482935677812422
1	0	0	1	0	0	1	87830,91	-0,300000012	2,82520986	-0,00083289814286761818	-0,2998374050537833	0,000847103598	-0,32732806317226189	0,01221305013421868	0,32732806317226189
1	0	0	1	0	0	1	87860,91	-0,300000012	2,77244306	-0,000832901740440064	-0,29983870127122989	0,000831285724	-0,32982676625849728	0,012306280105908152	0,32982676625849728
1	0	0	1	0	0	1	87890,91	-0,300000012	2,71494508	-0,00083290262829098445	-0,29983901977471603	0,000814046478	-0,33232547656885709	0,012399510347139418	0,33232547656885709
1	0	0	1	0	0	1	87920,91	-0,300000012	2,65178132	-0,00083291124885280922	-0,29984212413531219	0,000795115717	-0,33482419530782029	0,012492740902853213	0,33482419530782029
1	0	0	1	0	0	1	87950,91	-0,300000012	2,58478308	-0,00083292557962238797	-0,29984728255103866	0,000775040186	-0,33732294359178278	0,01258597256093065	0,33732294359178278
1	0	0	1	0	0	1	87980,91	-0,300000012	2,51425552	-0,00083292068051464026	-0,29984551866974554	0,000753888278	-0,33982172372751366	0,012679205407440394	0,33982172372751366
1	0	0	1	0	0	1	88010,91	-0,300000012	2,43844366	-0,00083292588557468518	-0,29984739335141498	0,000731160981	-0,34232050089632902	0,01277243814325053	0,34232050089632902
1	0	0	1	0	0	1	88040,91	-0,300000012	2,36183071	-0,00083291368670927155	-0,29984300072966893	0,000708178384	-0,34481925229269037	0,012865669917455754	0,34481925229269037
1	0	0	1	0	0	1	88070,91	-0,300000012	2,2839396	-0,00083291359270446835	-0,29984296800558861	0,000684823201	-0,3473179952851561	0,012958901378100336	0,3473179952851561
1	0	0	1	0	0	1	88100,91	-0,300000012	2,20524716	-0,00083290457865761382	-0,2998397218958793	0,000661220693	-0,34981672622583744	0,013052132389076637	0,34981672622583744
1	0	0	1	0	0	1	88130,91	-0,300000012	2,12359762	-0,00083290440935393165	-0,29983966206472608	0,000636738783	-0,35231545007126131	0,013145363135319342	0,35231545007126131
1	0	0	1	0	0	1	88160,91	-0,300000012	2,0407846	-0,00083290118692815296	-0,29983850121853376	0,000611905823	-0,35481416397972173	0,013238593510800581	0,35481416397972173
1	1	0	0	1	0	2	88175,85	0,300000012	2,03363633	1,6135858164893258E-008	0,096815153783192563	0,000196886816	-0,35605851307520045	0,013285021848598045	1,6135858164893258E-008
1	1	0	0	0	0	2	88205,85	0,300000012	3,27069974	0,00083386645592086848	0,30018599086304768	0,000981818186	-0,35355690837867002	0,013191683613927206	0,0025016208323885994
1	1	0	0	0	0	2	88235,85	0,300000012	3,87278748	0,00083385407971176832	0,3001815366375687	0,00116253935	-0,3510553368851785	0,013098346618106394	0,0050031923258801299
1	1	0	0	0	0	2	88265,85	0,300000012	3,92280722	0,00083386902585791219	0,30018691624924416	0,00117757544	-0,34855374473444557	0,013005008851536131	0,0075047844766130048
1	1	0	0	0	0	2	88295,86	0,300000012	3,93501639	0,00083386577940152755	0,30018574778567418	0,00118123589	-0,34605215656119853	0,012911671233371216	0,010006372649860051
1	1	0	0	0	0	2	88325,86	0,300000012	3,94709206	0,00083386221033997005	0,30018446351502182	0,0011848557	-0,34355056185374426	0,012818333371406238	0,012507967357314296
1	1	0	0	0	0	2	88355,86	0,300000012	3,95426512	0,00083385676594244109	0,30018250254325613	0,00118700124	-0,34104898676454125	0,012724996241424597	0,01500954244651728
1	1	0	0	0	0	2	88385,86	0,300000012	3,95972109	0,00083385957079960243	0,30018351339012525	0,00118864304	-0,33854742384371923	0,01263165956546161	0,017511105367339322
1	1	0	0	0	0	2	88415,86	0,300000012	3,96157146	0,00083386772966384883	0,30018644940495206	0,0011892101	-0,33604581567092992	0,012538321201086878	0,020012713540128538
1	1	0	0	0	0	2	88445,86	0,300000012	3,96508169	0,00083386358596550093	0,30018495881779014	0,00119025784	-0,33354421656700403	0,012444983175083635	0,022514312644054496
1	1	0	0	0	0	2	88475,86	0,300000012	3,9669323	0,00083386648471156762	0,30018600131136384	0,00119081757	-0,33104261163899891	0,012351644931776166	0,025015917572059568
1	1	0	0	0	0	2	88505,86	0,300000012	3,96975565	0,00083387406047681971	0,30018872906456518	0,0011916759	-0,3285409911101072	0,012258306106378645	0,027517538100951251
1	1	0	0	0	0	2	88535,86	0,300000012	3,97248363	0,00083387508538696499	0,30018909829051462	0,00119249627	-0,32603936783233043	0,012164967178416525	0,030019161378728026
1	1	0	0	0	0	2	88565,86	0,300000012	3,97488737	0,0008338621745424137	0,30018444959901485	0,00119319942	-0,32353776214743251	0,012071628906868368	0,032520767063625984
1	1	0	0	0	0	2	88595,86	0,300000012	3,97729087	0,00083386947817769318	0,30018707997226202	0,00119393133	-0,3210361494357065	0,01197829037313981	0,035022379775351949
1	1	0	0	0	0	2	88625,86	0,300000012	3,97996163	0,00083386611416770355	0,30018586783783456	0,00119472819	-0,31853454880742656	0,011884952290260867	0,037523980403631923
1	1	0	0	0	0	2	88655,86	0,300000012	3,98223186	0,0008338688343415657	0,30018684819933101	0,00119541364	-0,31603293818711667	0,011791613834565853	0,040025591023941824
1	1	0	0	0	0	2	88685,86	0,300000012	3,9853034	0,00083385937729643443	0,30018344261211302	0,00119632215	-0,31353135424334733	0,011698276374208435	0,042527174967711168
1	1	0	0	0	0	2	88715,86	0,300000012	3,98751616	0,00083385797480245427	0,30018293847907571	0,00119698432	-0,31102976356240704	0,01160493866247811	0,045028765648651456
1	1	0	0	0	0	2	88745,86	0,300000012	3,98940492	0,00083386128596961498	0,30018413044774016	0,00119755603	-0,30852818445731795	0,011511601382658358	0,047530344753740563
1	1	0	0	0	0	2	88775,86	0,300000012	3,99127436	0,00083386846851640269	0,30018671538661421	0,00119812752	-0,3060265866921785	0,01141826340660704	0,050031942518879968
1	1	0	0	0	0	2	88805,87	0,300000012	3,99369717	0,00083386051493883136	0,30018385327353101	0,00119884335	-0,30352499614839354	0,011324925699994163	0,052533533062665005
1	1	0	0	0	0	2	88835,87	0,300000012	3,99524236	0,0008338683660940992	0,30018667851181914	0,00119931856	-0,30102340342973933	0,011231587912233994	0,055035125781319213
1	1	0	0	0	0	2	88865,87	0,300000012	3,99661589	0,0008338740169836416	0,30018871391011418	0,00119973894	-0,29852177540667616	0,011138248807218858	0,057536753804382355
1	1	0	0	0	0	2	88895,87	0,300000012	3,99905777	0,00083386864801744627	0,30018678000221811	0,00120046432	-0,29602015781883994	0,01104491009155607	0,060038371392218611
1	1	0	0	0	0	2	88925,87	0,300000012	4,00148058	0,0008338796976672279	0,30019075872009453	0,00120120752	-0,29351852569255501	0,010951570833444213	0,06254000351850359
1	1	0	0	0	0	2	88955,87	0,300000012	4,0040369	0,00083387569520539699	0,30018931751285056	0,00120196911	-0,29101689207937594	0,010858231519854334	0,065041637131682701
1	1	0	0	0	0	2	88985,87	0,300000012	4,00651693	0,00083387334064477018	0,30018846944047002	0,00120271021	-0,28851526376061082	0,010764892403806162	0,067543265450447808
1	1	0	0	0	0	2	89015,87	0,300000012	4,0089016	0,00083386388789945178	0,30018506751186445	0,00120341242	-0,28601366480021946	0,010671554383158387	0,070044864410839168
1	1	0	0	0	0	2	89045,87	0,300000012	4,01149607	0,00083387146682375014	0,30018779475592525	0,00120420218	-0,28351206814010214	0,01057821644833693	0,072546461070956467
1	1	0	0	0	0	2	89075,87	0,300000012	4,01422405	0,00083386707594328461	0,30018621518845907	0,00120501476	-0,28101047154457309	0,010484878515925346	0,075048057666485517
1	1	0	0	0	0	2	89105,87	0,300000012	4,0174098	0,00083386723301808038	0,30018627061600915	0,00120597123	-0,27850885873464848	0,010391539978532862	0,077549670476410138
1	1	0	0	0	0	2	89135,87	0,300000012	4,0209012	0,00083387067360017037	0,30018751027740922	0,00120702432	-0,27600726214195558	0,010298202046227101	0,080051267069103002
1	1	0	0	0	0	2	89165,87	0,300000012	4,02402973	0,00083386490958101222	0,30018543461454266	0,00120795507	-0,27350567015522154	0,010204864285775856	0,082552859055837005
1	1	0	0	0	0	2	89195,87	0,300000012	4,02649069	0,00083386474007533658	0,30018537345392346	0,0012086936	-0,27100406883185203	0,010111526176962187	0,08505446037920649
1	1	0	0	0	0	2	89225,87	0,300000012	4,02906609	0,00083387039416200589	0,30018740972009824	0,00120947487	-0,26850246195548205	0,010018187860958606	0,087556067255576461
1	1	0	0	0	0	2	89255,87	0,300000012	4,03183222	0,00083385988959504499	0,30018362703247309	0,00121029001	-0,26600086832681725	0,0099248500392447181	0,09005766088424128
1	1	0	0	0	0	2	89285,87	0,300000012	4,03530407	0,0008338776166405943	0,30019000976100915	0,001211358	-0,26349927190762851	0,0098315121134126272	0,09255925730342999
1	1	0	0	0	0	2	89315,88	0,300000012	4,03725004	0,00083385845227870669	0,30018310960925517	0,00121191423	-0,26099767777242195	0,009738174272798985	0,095060851438636595
1	1	0	0	0	0	2	89345,88	0,300000012	4,03923416	0,0008338628390828768	0,30018468994535878	0,00121251622	-0,25849609144513075	0,009644836723509161	0,097562437765927795
1	1	0	0	0	0	2	89375,88	0,300000012	4,04148483	0,0008338671441889472	0,30018623890024518	0,00121319818	-0,25599448023419507	0,0095514982457771059	0,10006404897686342
1	1	0	0	0	0	2	89405,88	0,300000012	4,04425097	0,00083385716315110528	0,30018264596886899	0,0012140139	-0,25349290200188851	0,0094581609985220429	0,10256562720917002
1	1	0	0	0	0	2	89435,88	0,300000012	4,04646397	0,00083386978678239718	0,30018719101534144	0,00121469668	-0,25099128603426374	0,0093648223433115238	0,10506724317679472
1	1	0	0	0	0	2	89465,88	0,300000012	4,05033684	0,0008338754663417737	0,30018923455395571	0,00121586747	-0,2484896664040743	0,0092714835514457907	0,10756886280698411
1	1	0	0	0	0	2	89495,88	0,300000012	4,05342722	0,00083386923093265958	0,30018699096930342	0,0012167861	-0,24598805074352445	0,0091781449076926477	0,11007047846753398
1	1	0	0	0	0	2	89525,88	0,300000012	4,05535412	0,00083388269826273126	0,30019183799404256	0,00121738424	-0,24348642357587901	0,0090848058345942976	0,11257210563517942
1	1	0	0	0	0	2	89555,88	0,300000012	4,05686092	0,00083387596328225408	0,3001894145672633	0,00121782674	-0,24098477731369523	0,0089914660490530483	0,11507375189736322
1	1	0	0	0	0	2	89585,88	0,300000012	4,05869246	0,00083387752364244723	0,30018997527938694	0,00121837878	-0,23848314207310566	0,0088981266747422976	0,1175753871379528
1	1	0	0	0	0	2	89615,88	0,300000012	4,06090546	0,0008338690464066135	0,30018692399259251	0,0012190307	-0,23598150534214995	0,0088047872448239834	0,1200770238689085
1	1	0	0	0	0	2	89645,88	0,300000012	4,062603	0,00083386994297140173	0,30018724708501632	0,00121954165	-0,23347989423197597	0,0087114487708514816	0,12257863497908246
1	1	0	0	0	0	2	89675,88	0,300000012	4,06458712	0,00083387931863466893	0,30019062134849286	0,00122015097	-0,23097826771174627	0,0086181097219090829	0,12508026149931218
1	1	0	0	0	0	2	89705,88	0,300000012	4,06689548	0,00083388441853390797	0,30019245839465005	0,00122085132	-0,22847661427749782	0,0085247696687684582	0,12758191493356061
1	1	0	0	0	0	2	89735,88	0,300000012	4,0695281	0,00083387772248188659	0,30019004674572211	0,00122163189	-0,22597497390708912	0,0084314301030572608	0,13008355530396931
1	1	0	0	0	0	2	89765,88	0,300000012	4,07315254	0,000833857959550288	0,30018293334833997	0,00122269092	-0,22347337394052336	0,0083380920448677645	0,13258515527053507
1	1	0	0	0	0	2	89795,88	0,300000012	4,07448816	0,00083387618015540966	0,30018949151829101	0,00122311851	-0,22097174834408288	0,0082447530303931827	0,13508678086697557
1	1	0	0	0	0	2	89825,89	0,300000012	4,07681561	0,0008338818245083095	0,3001915241895273	0,0012238255	-0,21847012074708698	0,0081514139412751898	0,13758840846397147
1	1	0	0	0	0	2	89855,89	0,300000012	4,07830334	0,00083387808270918003	0,30019017718942931	0,0012242666	-0,21596848935003834	0,0080580747103721203	0,1400900398610201
1	1	0	0	0	0	2	89885,89	0,300000012	4,07998228	0,00083388246674835686	0,3001917546505152	0,00122477708	-0,21346684512616122	0,0079647350008828326	0,14259168408489723
1	1	0	0	0	0	2	89915,89	0,300000012	4,08215714	0,00083388635897967552	0,30019315694437978	0,00122543564	-0,21096519275017005	0,0078713949872272115	0,14509333646088838
1	1	0	0	0	0	2	89945,89	0,300000012	4,08473253	0,00083386742051773606	0,3001863381145511	0,00122618093	-0,20846359510675824	0,0077780570157177126	0,14759493410430019
1	1	0	0	0	0	2	89975,89	0,300000012	4,08736515	0,00083387684942616346	0,30018973357276666	0,00122698501	-0,20596197291135216	0,0076847181281402982	0,15009655629970627
1	1	0	0	0	0	2	90005,89	0,300000012	4,08944464	0,00083388335856960883	0,30019207569632557	0,00122761889	-0,20346032845572886	0,0075913784100042496	0,15259820075532957
1	1	0	0	0	0	2	90035,89	0,300000012	4,09152365	0,00083387878554728307	0,30019043033544659	0,00122823624	-0,20095869092691699	0,0074980389503168486	0,15509983828414144
1	1	0	0	0	0	2	90065,89	0,300000012	4,09371758	0,00083388004752993587	0,30019088434667603	0,00122889667	-0,19845705968816669	0,0074046997253201011	0,15760146952289174
1	1	0	0	0	0	2	90095,89	0,300000012	4,0959115	0,00083386940702133709	0,30018705333650291	0,00122953963	-0,19595543039363216	0,0073113605728646605	0,16010309881742627
1	1	0	0	0	0	2	90125,89	0,300000012	4,09789562	0,00083386069825953907	0,30018391926418714	0,00123012241	-0,19345383784955667	0,0072180227916182566	0,16260469136150176
1	1	0	0	0	0	2	90155,89	0,300000012	4,09972715	0,0008338641699684992	0,30018516793820736	0,00123067724	-0,19095223456259658	0,007124684609540384	0,16510629464846186
1	1	0	0	0	0	2	90185,89	0,300000012	4,10142469	0,0008338580604924096	0,30018296968678573	0,00123117783	-0,18845064921131488	0,0070313470966667878	0,16760787999974355
1	1	0	0	0	0	2	90215,89	0,300000012	4,10331345	0,0008338691310418976	0,30018695389107827	0,00123176118	-0,18594905969193501	0,0069380094282758438	0,17010946951912342
1	1	0	0	0	0	2	90245,89	0,300000012	4,10524035	0,00083385303097135488	0,30018115901461267	0,00123231579	-0,18344748331872048	0,0068446722503860045	0,17261104589233795
1	1	0	0	0	0	2	90275,89	0,300000012	4,10703325	0,00083385528351366515	0,30018196932674195	0,00123285735	-0,18094591785228842	0,0067513354794428838	0,17511261135877002
1	1	0	0	0	0	2	90305,89	0,300000012	4,10842609	0,00083386951643559667	0,30018709286769837	0,00123329647	-0,17844433061505283	0,0066579978962018112	0,1776141985960056
1	1	0	0	0	0	2	90335,90	0,300000012	4,11018133	0,0008338486335608695	0,30017957606198912	0,00123379251	-0,17594275969184694	0,0065646609216591219	0,18011576951921149
1	1	0	0	0	0	2	90365,90	0,300000012	4,1121459	0,00083385501055585011	0,30018187061657357	0,0012343917	-0,17344120591594368	0,0064713245869053491	0,18261732329511475
1	1	0	0	0	0	2	90395,90	0,300000012	4,11424446	0,00083387306099798938	0,30018836976906957	0,00123504829	-0,17093959667798138	0,0063779861827875827	0,18511893253307706
1	1	0	0	0	0	2	90425,90	0,300000012	4,11601877	0,00083387263981666829	0,30018821702153491	0,0012355803	-0,16843798077114845	0,0062846475298452877	0,18762054843990998
1	1	0	0	0	0	2	90455,90	0,300000012	4,11781216	0,00083388334536883571	0,3001920720624217	0,00123613456	-0,16593634961528006	0,0061913083079409766	0,19012217959577837
1	1	0	0	0	0	2	90485,90	0,300000012	4,1195097	0,00083387639292081203	0,3001895684063049	0,00123663386	-0,16343470488510454	0,006097968579561015	0,19262382432595389
1	1	0	0	0	0	2	90515,90	0,300000012	4,12155104	0,00083386937518748979	0,30018704216965133	0,0012372362	-0,16093308619424128	0,0060046298227428058	0,19512544301681715
1	1	0	0	0	0	2	90545,90	0,300000012	4,12343979	0,00083386692552268506	0,30018616100840954	0,00123779953	-0,15843148030345565	0,0059112915435127014	0,19762704890760278
1	1	0	0	0	0	2	90575,90	0,300000012	4,12542343	0,00083386798102988147	0,30018653989144064	0,00123839662	-0,15592988143536874	0,005817953526308928	0,2001286477756897
1	1	0	0	0	0	2	90605,90	0,300000012	4,12700701	0,00083386137990487949	0,30018416465515494	0,00123886217	-0,15342828678168614	0,0057246156663502483	0,20263024242937229
1	1	0	0	0	0	2	90635,90	0,300000012	4,12880039	0,00083386039676600026	0,30018380961390278	0,00123939908	-0,15092670801929232	0,0056312783993169165	0,20513182119176611
1	1	0	0	0	0	2	90665,90	0,300000012	4,13066959	0,0008338601300766071	0,30018371472586816	0,00123995973	-0,14842513266672621	0,0055379412595088429	0,20763339654433222
1	1	0	0	0	0	2	90695,90	0,300000012	4,13250113	0,00083386550825834278	0,30018564986853626	0,00124051748	-0,14592354705020054	0,0054446037367386374	0,21013498216085789
1	1	0	0	0	0	2	90725,90	0,300000012	4,13450432	0,0008338692654950752	0,30018700285239629	0,00124112447	-0,14342193669272397	0,0053512652908502874	0,21263659251833446
1	1	0	0	0	0	2	90755,90	0,300000012	4,13643122	0,00083386478521260954	0,30018539037397395	0,00124169618	-0,14092034752190378	0,0052579276354645741	0,21513818168915466
1	1	0	0	0	0	2	90785,90	0,300000012	4,13858652	0,00083387424425118502	0,30018879461003936	0,00124235731	-0,13841872474422486	0,0051645887261617779	0,21763980446683357
1	1	0	0	0	0	2	90815,90	0,300000012	4,14049435	0,00083386799107823104	0,30018654462703494	0,00124292064	-0,1359170928922736	0,0050712494782856794	0,22014143631878483
1	1	0	0	0	0	2	90845,91	0,300000012	4,14253569	0,00083387889787720307	0,30019046987879898	0,00124354975	-0,13341546101075677	0,0049779102293064493	0,22264306820030166
1	1	0	0	0	0	2	90875,91	0,300000012	4,14421463	0,00083387828156186483	0,30019024912837312	0,00124405278	-0,13091382265660765	0,0048845707388246054	0,22514470655445078
1	1	0	0	0	0	2	90905,91	0,300000012	4,14614105	0,0008338789996041193	0,30019050650020186	0,00124463218	-0,12841219456419283	0,0047912316312218662	0,2276463346468656
1	1	0	0	0	0	2	90935,91	0,300000012	4,14820147	0,00083386620548533069	0,30018590142092525	0,0012452316	-0,12591058266664976	0,0046978931278715654	0,23014794654440867
1	1	0	0	0	0	2	90965,91	0,300000012	4,1499567	0,00083386611551708646	0,30018586910288838	0,00124575838	-0,12340899928354491	0,0046045556884332934	0,23264952992751354
1	1	0	0	0	0	2	90995,91	0,300000012	4,15167332	0,00083387937394115661	0,30019064125843494	0,00124629342	-0,12090737719227971	0,0045112168047415155	0,23515115201877872
1	1	0	0	0	0	2	91025,91	0,300000012	4,15304708	0,00083388177015715174	0,30019150500091622	0,00124670949	-0,11840571797278459	0,004417876535745559	0,23765281123827382
1	1	0	0	0	0	2	91055,91	0,300000012	4,1541152	0,00083387068270312422	0,30018751247807917	0,00124701345	-0,1159040887402389	0,0043245373856030035	0,24015444047081952
1	1	0	0	0	0	2	91085,91	0,300000012	4,15726328	0,00083387775469819712	0,30019005945726938	0,00124796911	-0,11340247037992643	0,0042311986411180883	0,24265605883113197
1	1	0	0	0	0	2	91115,91	0,300000012	4,15766382	0,00083386188794672486	0,30018434642835334	0,00124806562	-0,11090087888454662	0,0041378608989999309	0,24515765032651181
1	1	0	0	0	0	2	91145,91	0,300000012	4,15884638	0,00083386019999451098	0,300183739630232	0,001248418	-0,10839929072008131	0,0040445232811626714	0,24765923849097709
1	1	0	0	0	0	2	91175,91	0,300000012	4,15894175	0,00083387792347702707	0,30019011973419219	0,00124847319	-0,10589766125553283	0,0039511841223637798	0,2501608679555256
1	1	0	0	0	0	2	91205,91	0,300000012	4,15814066	0,00083387881910966502	0,30019044157895955	0,00124823407	-0,10339603172480166	0,0038578449610955232	0,2526624974862568
1	1	0	0	0	0	2	91235,91	0,300000012	4,15352392	0,00083388024496866611	0,30019095594041696	0,00124685036	-0,10089440829936928	0,0037645060276241741	0,25516412091168915
1	1	0	0	0	0	2	91265,91	0,300000012	4,15331411	0,00083386884831223232	0,30018685210691584	0,00124677026	-0,098392797961396646	0,0036711675824635437	0,25766573124966179
1	1	0	0	0	0	2	91295,91	0,300000012	4,15428686	0,00083387284666962099	0,30018829260539245	0,00124706829	-0,095891184231187904	0,003577829010734023	0,26016734497987059
1	1	0	0	0	0	2	91325,91	0,300000012	4,15583229	0,00083388380995558374	0,30019223819206477	0,00124754861	-0,093389540916248499	0,0034844893351584243	0,26266898829481002
1	1	0	0	0	0	2	91355,92	0,300000012	4,15753031	0,00083387435787253914	0,30018883652984378	0,00124804419	-0,090887923321499763	0,003391150619237721	0,26517060588955872
1	1	0	0	0	0	2	91385,92	0,300000012	4,159266	0,00083386321084863603	0,30018482315286438	0,00124854851	-0,088386327387997837	0,0032978127115272602	0,26767220182306067
1	1	0	0	0	0	2	91415,92	0,300000012	4,16163158	0,00083384686899516326	0,30017893992232493	0,00124923419	-0,085884762712115379	0,0032044759700806074	0,27017376649894314
1	1	0	0	0	0	2	91445,92	0,300000012	4,16319609	0,00083386077804532326	0,30018394798999635	0,00124972465	-0,083383182196063462	0,0031111386376159347	0,27267534701499501
1	1	0	0	0	0	2	91475,92	0,300000012	4,16504669	0,00083385790334310797	0,3001829119994032	0,00125027588	-0,080881618943332954	0,0030178019492689952	0,2751769102677255
1	1	0	0	0	0	2	91505,92	0,300000012	4,16611481	0,00083385704101125402	0,3001826026843168	0,0012505952	-0,078380041386799002	0,0029244647272279168	0,27767848782425946
1	1	0	0	0	0	2	91535,92	0,300000012	4,16760254	0,0008338670121249225	0,3001861910960441	0,00125105679	-0,075878441851904986	0,0028311266851446742	0,2801800873591535
1	1	0	0	0	0	2	91565,92	0,300000012	4,16992998	0,00083386508566637837	0,30018549870293165	0,00125175249	-0,073376849963430886	0,00273778892835964	0,28268167924762755
1	1	0	0	0	0	2	91595,92	0,300000012	4,17145634	0,00083386905579434496	0,30018692713447859	0,00125221664	-0,070875241787903168	0,002644450563882737	0,2851832874231553
1	1	0	0	0	0	2	91625,92	0,300000012	4,17397451	0,0008338644488785001	0,30018526871948704	0,00125296565	-0,068373635430421427	0,0025511122672395738	0,28768489378063706
1	1	0	0	0	0	2	91655,92	0,300000012	4,17372656	0,00083386887410117517	0,30018686250901293	0,0012528979	-0,065872025203224013	0,0024577738262121155	0,2901865040078345
1	1	0	0	0	0	2	91685,92	0,300000012	4,17534781	0,00083386530568367898	0,30018557678628064	0,00125337916	-0,063370419922869389	0,0023644355697580134	0,29268810928818912
1	1	0	0	0	0	2	91715,92	0,300000012	4,17708397	0,00083387614196207782	0,30018947888723411	0,00125391665	-0,060868805897553088	0,0022710969870176333	0,29518972331350541
1	1	0	0	0	0	2	91745,92	0,300000012	4,17889643	0,00083386563656561907	0,30018569590098784	0,00125444494	-0,058367212360085043	0,0021777591687064173	0,29769131685097344
1	1	0	0	0	0	2	91775,92	0,300000012	4,18110943	0,00083386921539571546	0,30018698537261952	0,00125511468	-0,05586561169290144	0,0020844210843759286	0,30019291751815699
1	1	0	0	0	0	2	91805,92	0,300000012	4,18288326	0,00083386366998983757	0,3001849881189321	0,00125563878	-0,053364006217323392	0,0019910828206377776	0,30269452299373504
1	1	0	0	0	0	2	91835,92	0,300000012	4,18440962	0,00083387044944034688	0,30018742902233581	0,00125610712	-0,050862400757827021	0,001897744557499656	0,30519612845323142
1	1	0	0	0	0	2	91865,93	0,300000012	4,18618393	0,00083387257324324723	0,30018819402357606	0,00125664298	-0,048360787330148282	0,0018044059970579363	0,30769774188091014
1	1	0	0	0	0	2	91895,93	0,300000012	4,18776703	0,00083386397425664794	0,30018509748508077	0,00125710526	-0,04585918454919689	0,001711067833859929	0,31019934466186157
1	1	0	0	0	0	2	91925,93	0,300000012	4,18948412	0,00083385904692113408	0,30018332479760352	0,0012576133	-0,04335759701882567	0,0016177302396815728	0,31270093219223277
1	1	0	0	0	0	2	91955,93	0,300000012	4,19097185	0,00083386886349320422	0,30018685757545235	0,00125807466	-0,040856000054708115	0,001524392293517457	0,31520252915635034
1	1	0	0	0	0	2	91985,93	0,300000012	4,19253635	0,0008338787579188745	0,30019042061307091	0,00125855929	-0,038354358931568915	0,0014310526997208709	0,31770417027948947
1	1	0	0	0	0	2	92015,93	0,300000012	4,19501638	0,00083388135432038054	0,30019135419484282	0,00125930761	-0,035852710731012282	0,0013377128418563246	0,32020581848004614
1	1	0	0	0	0	2	92045,93	0,300000012	4,19642782	0,00083388850686285235	0,30019392971623373	0,00125974219	-0,033351043442793338	0,0012443722718054341	0,32270748576826509
1	1	0	0	0	0	2	92075,93	0,300000012	4,19764423	0,00083387757269541427	0,30018999363746336	0,00126009085	-0,0308493973186208	0,0011510324914135702	0,32520913189243763
1	1	0	0	0	0	2	92105,93	0,300000012	4,1989603	0,00083388582633932429	0,30019296407586406	0,00126049831	-0,028347737095954669	0,0010576921849879549	0,32771079211510374
1	1	0	0	0	0	2	92115,46	0,300000012	4,2000289	0,00079454639983342758	0,30019391620699878	0,0012608231	-0,027553190696121242	0,0010280465905311734	0,32850533851493722