File: Experimentelles/Rohdaten/Batterietests/AlteZelle/150511_LLTO_LTO_Tests/ECLab-Export/LLTO_LP30_LTO_02_CV_C01_loop0.mpt
EC-Lab ASCII FILE
Nb header lines : 3
mode	ox/red	error	control changes	counter inc.	time/s	control/V	Ewe/V	<I>/mA	cycle number	(Q-Qo)/C	P/W
2	1	0	0	0	600,05	0,270491809	0,271069825	-0,0044001461938023565	1	0	1,19274682E-006
2	1	0	0	0	601,52	0,285192877	0,28554517	0,013794773956760763	1	1,92072184E-005	3,9390311E-006
2	1	0	1	0	602,97	0,299693942	0,300201029	0,013959253740419286	1	4,01478537E-005	4,19058233E-006
2	1	0	1	0	604,42	0,314195067	0,314445853	0,01417688084863279	1	6,13691082E-005	4,45786145E-006
2	1	0	0	0	605,87	0,328696191	0,328941345	0,014248845885352538	1	8,27568801E-005	4,68703456E-006
2	1	0	0	0	607,32	0,343197286	0,343426764	0,014384145625323683	1	0,000104316343	4,93990046E-006
2	1	0	1	0	608,77	0,357698411	0,358032525	0,014343013390316573	1	0,000125960651	5,13526538E-006
2	1	0	1	0	610,22	0,372199506	0,372678339	0,014569813104268746	1	0,000147793195	5,4298539E-006
2	1	0	0	0	611,67	0,38670063	0,387043506	0,014772561417582138	1	0,000169750856	5,71762394E-006
2	1	0	0	0	613,12	0,401201218	0,401527137	0,014887134817503117	1	0,000191869854	5,97758844E-006
2	1	0	1	0	614,57	0,41570279	0,416194826	0,015198711776368611	1	0,000214126878	6,32562524E-006
2	1	0	0	0	616,02	0,430203915	0,430529922	0,015209601934960349	1	0,000236544598	6,54818859E-006
2	1	0	0	0	617,47	0,444705039	0,445225865	0,015327340413932717	1	0,000259127992	6,82412838E-006
2	1	0	1	0	618,92	0,459206134	0,459450692	0,015070016272754118	1	0,00028182377	6,9239295E-006
2	1	0	1	0	620,37	0,473707259	0,473805815	0,015475992171559469	1	0,000304758345	7,33261504E-006
2	1	0	0	0	621,82	0,488208324	0,488762408	0,015548169278190445	1	0,000327883114	7,59936074E-006
2	1	0	0	0	623,27	0,502709448	0,50282681	0,015709800417729002	1	0,000351236493	7,89930891E-006
2	1	0	1	0	624,72	0,517210543	0,517612994	0,015808041493679981	1	0,000374787807	8,18244735E-006
2	1	0	0	0	626,17	0,531711459	0,532248318	0,015973240171717018	1	0,000398582109	8,50173001E-006
2	1	0	0	0	627,62	0,546212733	0,546664059	0,016089621955567616	1	0,000422622397	8,79561776E-006
2	1	0	1	0	629,07	0,560713887	0,561049342	0,016261916069197469	1	0,00044690122	9,12373707E-006
2	1	0	1	0	630,52	0,575215042	0,575544775	0,01632098038195784	1	0,000471437321	9,393455E-006
2	1	0	0	0	631,97	0,589716136	0,590110421	0,016610557475360054	1	0,000496265304	9,80206278E-006
2	1	0	0	0	633,42	0,604217172	0,604545712	0,016875166509028774	1	0,00052138872	1,02018093E-005
2	1	0	1	0	634,87	0,618718326	0,619161487	0,017184890699960883	1	0,000546802941	1,06402222E-005
2	1	0	1	0	636,32	0,633219421	0,633777261	0,017503131214956186	1	0,000572518387	1,10930869E-005
2	1	0	0	0	637,77	0,647720575	0,647851646	0,017748121346812778	1	0,000598551938	1,14981494E-005
2	1	0	1	0	639,22	0,662221432	0,66243726	0,018027175381879258	1	0,000624885492	1,19418728E-005
2	1	0	1	0	640,67	0,676722765	0,677183449	0,017767413048810938	1	0,000651543436	1,20317982E-005
2	1	0	0	0	642,12	0,69122386	0,691538572	0,018304832061403376	1	0,000678513548	1,26584973E-005
2	1	0	0	0	643,57	0,705724955	0,706014037	0,018476574283946944	1	0,000705850136	1,30447206E-005
2	1	0	1	0	645,02	0,720226109	0,720409274	0,018752543071362496	1	0,000733521068	1,35095061E-005
2	1	0	1	0	646,47	0,734727144	0,735035062	0,018900393294946582	1	0,000761539734	1,38924515E-005
2	1	0	0	0	647,92	0,749228299	0,749520421	0,019169575030294566	1	0,000789909333	1,43679881E-005
2	1	0	0	0	649,37	0,763729393	0,764096141	0,019341407547472045	1	0,000818607397	1,4778695E-005
2	1	0	1	0	650,82	0,778230548	0,778621614	0,019622715689668669	1	0,000847686024	1,52786706E-005
2	1	0	1	0	652,27	0,79273057	0,79320693	0,019730963403601254	1	0,000877065642	1,56507376E-005
2	1	0	0	0	653,72	0,807232678	0,807402074	0,020052505584317238	1	0,000906845497	1,61904354E-005
2	1	0	1	0	655,18	0,821733713	0,822047949	0,020280979738648342	1	0,000936962024	1,66719383E-005
2	1	0	1	0	656,63	0,836234868	0,836252689	0,020540608413284672	1	0,000967453292	1,71771389E-005
2	1	0	0	0	658,08	0,850736022	0,85119921	0,020970659184968141	1	0,000998288626	1,78502087E-005
2	1	0	0	0	659,53	0,865237117	0,865664661	0,021233474709636822	1	0,00102947932	1,8381068E-005
2	1	0	1	0	660,98	0,879738152	0,880039811	0,021587660017151622	1	0,00106102019	1,89980001E-005
2	1	0	1	0	662,43	0,894239247	0,894535303	0,021347763506734285	1	0,00109289528	1,90963274E-005
2	1	0	1	0	663,84	0,908340394	0,908659816	0,021867018581057635	1	0,00112423976	1,98696816E-005
2	1	0	1	0	665,29	0,92284143	0,923235476	0,022167296590244688	1	0,00115683163	2,04656353E-005
2	1	0	0	0	666,74	0,937342644	0,937841237	0,022619990175977904	1	0,00118981896	2,12139603E-005
2	1	0	1	0	668,19	0,951843679	0,952286601	0,022872470731575389	1	0,00122317916	2,17811466E-005
2	1	0	1	0	669,64	0,966344833	0,967062771	0,023050796356983498	1	0,00125691178	2,22915678E-005
2	1	0	0	0	671,09	0,980845928	0,981317639	0,023248962980384675	1	0,0012910529	2,28146182E-005
2	1	0	0	0	672,54	0,995347083	0,995873332	0,023528446933293366	1	0,0013255782	2,3431352E-005
2	1	0	1	0	673,99	1,00984824	1,01015818	0,023495243624590045	1	0,00136050489	2,37339118E-005
2	1	0	1	0	675,44	1,02434921	1,02488434	0,023998971300898118	1	0,00139584229	2,45961692E-005
2	1	0	0	0	676,89	1,03885031	1,03922939	0,024288053910519523	1	0,00143162988	2,5240859E-005
2	1	0	0	0	678,34	1,0533514	1,05362463	0,024607731475650013	1	0,00146783236	2,59273111E-005
2	1	0	1	0	679,79	1,0678525	1,06822026	0,024804380450708154	1	0,00150446547	2,6496542E-005
2	1	0	0	0	681,24	1,08235359	1,08274579	0,025154185665693773	1	0,00154154946	2,72355883E-005
2	1	0	0	0	682,69	1,09685481	1,09739172	0,025419260346097651	1	0,00157905626	2,78948864E-005
2	1	0	1	0	684,14	1,11135578	1,11187708	0,025744607545978653	1	0,00161703478	2,86248396E-005
2	1	0	1	0	685,59	1,125857	1,12636256	0,026025436847703462	1	0,00165540166	2,93140783E-005
2	1	0	0	0	687,04	1,14035809	1,14070773	0,026486731464198554	1	0,00169426796	3,02136195E-005
2	1	0	0	0	688,49	1,15485907	1,15527332	0,026998094409160899	1	0,00173364708	3,11901786E-005
2	1	0	1	0	689,94	1,16936028	1,16973865	0,027140194782987181	1	0,00177352154	3,17469348E-005
2	1	0	1	0	691,39	1,18386137	1,18437457	0,027808352858604278	1	0,00181389868	3,29355062E-005
2	1	0	0	0	692,84	1,19836235	1,19864941	0,027851104503497398	1	0,00185485464	3,33837088E-005
2	1	0	1	0	694,29	1,21286356	1,21329522	0,028116732796964538	1	0,00189602503	3,41138984E-005
2	1	0	1	0	695,74	1,22736478	1,22770059	0,028117981768445933	1	0,00193761138	3,45204644E-005
2	1	0	0	0	697,19	1,24186575	1,24206567	0,028687396309881709	1	0,00197968655	3,56316305E-005
2	1	0	0	0	698,64	1,25636697	1,25686181	0,028938432253198752	1	0,00202222262	3,63716099E-005
2	1	0	1	0	700,09	1,27086806	1,27106667	0,029285776002022144	1	0,00206525112	3,72241739E-005
2	1	0	1	0	701,54	1,28536904	1,28575265	0,029586321111613165	1	0,00210867287	3,80406891E-005
2	1	0	0	0	702,99	1,29987025	1,30011773	0,029903709393693133	1	0,00215261523	3,8878341E-005
2	1	0	0	0	704,44	1,31437135	1,31479371	0,030218743874380947	1	0,00219703745	3,97314143E-005
2	1	0	1	0	705,89	1,32887232	1,32904851	0,030566177243599558	1	0,00224192766	4,06239342E-005
2	1	0	0	0	707,34	1,34337354	1,34372449	0,030810245273945158	1	0,00228727493	4,14004826E-005
2	1	0	0	0	708,79	1,35787463	1,35846043	0,031216143775963987	1	0,00233312813	4,24058962E-005
2	1	0	1	0	710,24	1,37237573	1,37259507	0,03166979886979479	1	0,00237947959	4,34698086E-005
2	1	0	1	0	711,69	1,38687694	1,38721073	0,032104842500605843	1	0,00242630858	4,45361802E-005
2	1	0	0	0	713,14	1,40137792	1,4018265	0,032548998075071725	1	0,00247363676	4,56280468E-005
2	1	0	0	0	714,59	1,41587901	1,41630208	0,03280046329988784	1	0,00252146902	4,64553632E-005
2	1	0	1	0	716,04	1,43038023	1,43079758	0,03319189800337552	1	0,0025697907	4,74908884E-005
2	1	0	1	0	717,49	1,4448812	1,44524288	0,033142321558746803	1	0,00261861272	4,78987058E-005
2	1	0	0	0	718,94	1,45938241	1,45973825	0,03371401871360567	1	0,00266790739	4,92136423E-005
2	1	0	1	0	720,39	1,47388363	1,47420371	0,033944842027267219	1	0,00271771732	5,00416136E-005
2	1	0	1	0	721,84	1,4883846	1,48875916	0,034315624167599315	1	0,00276798964	5,10876998E-005
2	1	0	0	0	723,29	1,5028857	1,50345528	0,03460533148609088	1	0,00281876931	5,2027568E-005
2	1	0	0	0	724,74	1,51738691	1,51772022	0,035122488431322042	1	0,00287011801	5,33061102E-005
2	1	0	1	0	726,19	1,53188789	1,53216565	0,035238423695166829	1	0,00292198034	5,39911016E-005
2	1	0	1	0	727,64	1,54638898	1,54687166	0,035578224429627878	1	0,00297422498	5,50349469E-005
2	1	0	0	0	729,09	1,5608902	1,56116652	0,035811330502231674	1	0,00302691548	5,59074506E-005
2	1	0	0	0	730,54	1,57539117	1,57582235	0,036195598969546381	1	0,00308011496	5,70378324E-005
2	1	0	1	0	731,99	1,58989215	1,5902977	0,036571295369261402	1	0,00313379732	5,81592467E-005
2	1	0	0	0	733,44	1,60439348	1,60503387	0,036973904168310976	1	0,00318797119	5,93443692E-005
2	1	0	0	0	734,89	1,61889446	1,61936891	0,03752762543930055	1	0,00324260467	6,07710717E-005
2	1	0	1	0	736,34	1,63339555	1,63390446	0,037824763848523955	1	0,00329772173	6,18020495E-005
2	1	0	1	0	737,79	1,64789677	1,64816928	0,038278816869327104	1	0,00335333752	6,30899667E-005
2	1	0	0	0	739,24	1,66239786	1,66281533	0,038099461584351846	1	0,00340942014	6,33523669E-005
2	1	0	0	0	740,69	1,67689896	1,67743087	0,038786079307707693	1	0,0034659761	6,50609654E-005
2	1	0	1	0	742,14	1,69140005	1,69185638	0,039000703788284909	1	0,00352306105	6,59835932E-005
2	1	0	1	0	743,59	1,70590103	1,70632172	0,039314784604357498	1	0,00358056417	6,70836744E-005
2	1	0	0	0	745,04	1,72040236	1,72086728	0,03961932049908967	1	0,00363853294	6,81795937E-005
2	1	0	1	0	746,49	1,73490345	1,73518229	0,039948667254066093	1	0,00369700929	6,93182228E-005
2	1	0	1	0	747,94	1,74940443	1,74994838	0,040255520725622675	1	0,0037559804	7,04450867E-005
2	1	0	0	0	749,39	1,76390553	1,76432347	0,040617764054332045	1	0,00381546537	7,16628711E-005
2	1	0	0	0	750,84	1,77840674	1,77901936	0,040833294110295098	1	0,00387544162	7,2643219E-005
2	1	0	1	0	752,29	1,79290783	1,7932744	0,04129187327149936	1	0,00393596198	7,40476607E-005
2	1	0	1	0	753,74	1,80740893	1,80756927	0,041642728475077606	1	0,00399704836	7,52721171E-005
2	1	0	0	0	755,19	1,82191002	1,82218528	0,042123157434010259	1	0,0040586968	7,67561942E-005
2	1	0	0	0	756,64	1,83641124	1,83688116	0,042652628151699789	1	0,00412090961	7,83478099E-005
2	1	0	1	0	758,09	1,85091233	1,85135651	0,043106082302983738	1	0,00418372639	7,98047258E-005
2	1	0	0	0	759,54	1,86541331	1,86590207	0,043663367667856282	1	0,00424713129	8,14715677E-005
2	1	0	0	0	760,99	1,8799144	1,88016713	0,043615343621543846	1	0,00431116158	8,20041387E-005
2	1	0	1	0	762,44	1,8944155	1,89481282	0,044441352772991994	1	0,0043758112	8,42080481E-005
2	1	0	1	0	763,89	1,90891671	1,90930843	0,044831585168139981	1	0,00444114488	8,55973267E-005
2	1	0	0	0	765,34	1,92341781	1,92408442	0,045323477301280832	1	0,00450715469	8,72061937E-005
2	1	0	0	0	766,79	1,9379189	1,93829918	0,045670811921202925	1	0,00457385927	8,8523695E-005
2	1	0	1	0	768,24	1,95242012	1,95286489	0,046285127580631526	1	0,00464131916	9,0388603E-005
2	1	0	1	0	769,69	1,96692121	1,96726024	0,046721913133903034	1	0,00470946264	9,19141603E-005
2	1	0	0	0	771,14	1,98142231	1,98192608	0,047219742962624877	1	0,0047783847	9,35860371E-005
2	1	0	1	0	772,59	1,99592328	1,99618089	0,047608431370463104	1	0,0048480262	9,50350441E-005
2	1	0	1	0	774,04	2,01042438	2,01077652	0,048303288000170029	1	0,00491852313	9,71271147E-005
2	1	0	0	0	775,49	2,02492547	2,0255127	0,048851016404417581	1	0,00498984242	9,89483524E-005
2	1	0	0	0	776,94	2,03942657	2,03986764	0,0494526534263664	1	0,00506205158	0,000100876867
2	1	0	1	0	778,40	2,05392766	2,05429316	0,050157142065775814	1	0,00513513992	0,000103037477
2	1	0	1	0	779,85	2,06842875	2,0686183	0,050858587434049722	1	0,00520916143	0,000105207007
2	1	0	0	0	781,30	2,08293009	2,0834446	0,051706073572859277	1	0,00528415618	0,000107726737
2	1	0	0	0	782,75	2,09743118	2,09807038	0,051952634821645914	1	0,00536005804	0,000109000284
2	1	0	1	0	784,20	2,11193228	2,11246538	0,053118874959181997	1	0,00543700624	0,000112211783
2	1	0	0	0	785,65	2,12643337	2,12688088	0,05368931958219033	1	0,00551500544	0,000114190785
2	1	0	0	0	787,10	2,14093447	2,1412859	0,05447536022014304	1	0,00559406262	0,000116647323
2	1	0	1	0	788,55	2,15543556	2,15561104	0,055184670743377184	1	0,00567422528	0,000118956683
2	1	0	1	0	790,00	2,16993666	2,17039728	0,055951370469604858	1	0,00575550552	0,0001214367
2	1	0	0	0	791,45	2,18443775	2,18476248	0,056719203731821267	1	0,00583795412	0,000123917984
2	1	0	0	0	792,90	2,19893861	2,1992979	0,057528012878416576	1	0,00592153752	0,000126521234
2	1	0	1	0	794,35	2,2134397	2,21398377	0,058144395336663936	1	0,0060063093	0,000128730753
2	1	0	1	0	795,80	2,22794104	2,22833896	0,059130947124989005	1	0,00609228294	0,000131763794
2	1	0	0	0	797,25	2,24244213	2,24287462	0,059958796366117837	1	0,00617949944	0,000134480069
2	1	0	1	0	798,70	2,25694323	2,25732994	0,060766057957274189	1	0,00626793085	0,000137169045
2	1	0	1	0	800,15	2,27144432	2,27196574	0,061654674878809152	1	0,00635759765	0,000140077304
2	1	0	0	0	801,60	2,28594542	2,28627062	0,062563807587139034	1	0,00644853665	0,000143037789
2	1	0	0	0	803,05	2,30044651	2,30094647	0,063573948767346624	1	0,00654088054	0,000146280247
2	1	0	1	0	804,50	2,31494761	2,3154521	0,064200305981406246	1	0,00663437555	0,000148652733
2	1	0	1	0	805,95	2,3294487	2,33001781	0,065531955352829184	1	0,00672912272	0,000152690627
2	1	0	0	0	807,40	2,34395003	2,3444531	0,066414261450215002	1	0,00682528084	0,000155705115
2	1	0	0	0	808,85	2,35845089	2,35892844	0,067452272633090394	1	0,00692280522	0,000159115079
2	1	0	1	0	810,30	2,37295222	2,37314343	0,06824605174673097	1	0,00702178851	0,000161957665
2	1	0	0	0	811,75	2,38745332	2,3878293	0,069418015928628621	1	0,00712226378	0,000165758378
2	1	0	0	0	813,20	2,40195441	2,40214419	0,070342963153961818	1	0,00722422451	0,000168973944
2	1	0	1	0	814,65	2,41645551	2,41701078	0,071479357798428339	1	0,00732779317	0,000172766377
2	1	0	1	0	816,10	2,4309566	2,43138576	0,072344349639024589	1	0,00743291108	0,000175897017
2	1	0	0	0	817,55	2,44545746	2,44578099	0,073715947432598848	1	0,00753973192	0,000180293064
2	1	0	0	0	819,00	2,45995855	2,46037674	0,074837033598062822	1	0,00764824869	0,00018412729
2	1	0	1	0	820,45	2,47445965	2,47466159	0,076145184517372173	1	0,00775860483	0,000188433565
2	1	0	1	0	821,90	2,48896098	2,48947787	0,077517183322925005	1	0,00787079148	0,000192977313
2	1	0	0	0	823,35	2,50346208	2,50392342	0,078745425542971981	1	0,00798487663	0,000197172514
2	1	0	1	0	824,80	2,51796317	2,51843905	0,080269524168688717	1	0,0081010554	0,000202153911
2	1	0	1	0	826,25	2,53246427	2,53294444	0,081656960886903104	1	0,00821936037	0,000206832541
2	1	0	0	0	827,70	2,54696536	2,54745984	0,083480139592817306	1	0,0083398819	0,0002126623
2	1	0	0	0	829,15	2,56146646	2,56176496	0,08519864016367767	1	0,00846273825	0,000218258894
2	1	0	1	0	830,60	2,57596755	2,576581	0,087019557152719475	1	0,00858806726	0,000224212941
2	1	0	1	0	832,05	2,59046865	2,59090638	0,088780810552028019	1	0,00871593039	0,000230022764
2	1	0	0	0	833,50	2,60496974	2,60556197	0,090565048798452954	1	0,00884647574	0,000235972853
2	1	0	0	0	834,95	2,61947083	2,61986709	0,092455440627721485	1	0,00897982903	0,000242220965
2	1	0	1	0	836,40	2,63397217	2,6342423	0,094544408823518106	1	0,00911609549	0,000249052886
2	1	0	1	0	837,85	2,64847302	2,64899802	0,096390469885521139	1	0,00925538689	0,000255338178
2	1	0	0	0	839,34	2,66337442	2,66370416	0,098602872535896499	1	0,00940179918	0,000262648886
2	1	0	1	0	840,79	2,67787552	2,67820001	0,10097306497239789	1	0,00954768248	0,00027042607
2	1	0	1	0	842,24	2,69237661	2,69293594	0,10339873388875254	1	0,00969690643	0,000278446154
2	1	0	0	0	843,69	2,70687747	2,70740128	0,10592145891860083	1	0,0098496303	0,000286771887
2	1	0	0	0	845,14	2,72137856	2,72184682	0,10844126006122678	1	0,0100058829	0,000295160513
2	1	0	1	0	846,59	2,73587966	2,73636222	0,11120962025597669	1	0,0101658003	0,000304309797
2	1	0	1	0	848,04	2,75038075	2,7510581	0,11320356733631299	1	0,0103294272	0,000311429583
2	1	0	0	0	849,49	2,76488209	2,76541305	0,1163170297319689	1	0,0104968883	0,000321664644
2	1	0	1	0	850,94	2,77938318	2,77969837	0,11900016092850496	1	0,0106683336	0,000330784562
2	1	0	1	0	852,39	2,79388428	2,79432392	0,12188120007825387	1	0,0108438022	0,000340575556
2	1	0	0	0	853,84	2,80838537	2,80866933	0,12462346492490384	1	0,0110235028	0,000350026094
2	1	0	0	0	855,29	2,82288647	2,82340503	0,12798589638744739	1	0,0112076458	0,000361356011
2	1	0	1	0	856,74	2,83738756	2,8378706	0,13121634636384755	1	0,0113965143	0,000372375012
2	1	0	1	0	858,19	2,85188866	2,8523159	0,13412698796795075	1	0,0115899257	0,000382572529
2	1	0	0	0	859,64	2,86638975	2,86663079	0,13623370319449669	1	0,011787097	0,000390531728
2	1	0	0	0	861,09	2,88089085	2,88132668	0,1384003349812697	1	0,0119874859	0,000398776581
2	1	0	1	0	862,54	2,89539194	2,89589262	0,14044765216143152	1	0,0121908169	0,000406721316
2	1	0	1	0	863,99	2,90989256	2,91024637	0,14256288663102667	1	0,0123971505	0,000414893118
2	1	0	0	0	865,44	2,92439437	2,9247632	0,14502230329283818	1	0,0126066413	0,000424155907
2	1	0	1	0	866,89	2,93889546	2,93919849	0,14778901970324365	1	0,0128199197	0,000434381276
2	1	0	1	0	868,34	2,95339632	2,953794	0,15137040758660682	1	0,0130375605	0,000447116996
2	1	0	0	0	869,79	2,96789742	2,96829963	0,15473534120246752	1	0,0132604511	0,000459300849
2	1	0	0	0	871,24	2,98239851	2,98274493	0,15914672213451331	1	0,0134889912	0,000474694069
2	1	0	1	0	872,69	2,9968996	2,99729085	0,16313460795208835	1	0,0137234172	0,000488961872
2	1	0	1	0	874,14	3,0114007	3,01193643	0,16731194236005331	1	0,0139637906	0,000503932941
2	1	0	0	0	875,59	3,02590203	3,02634192	0,17168137997699251	1	0,0142103154	0,000519566529
2	1	0	1	0	877,04	3,04040432	3,04082918	0,17626989864060726	1	0,0144633921	0,000536006643
2	1	0	1	0	878,49	3,05490398	3,05539274	0,18111599465676864	1	0,0147233373	0,000553380523
2	1	0	0	0	879,94	3,06940532	3,06986809	0,1862891038569312	1	0,0149906194	0,000571882993
2	1	0	0	0	881,39	3,08390641	3,08437347	0,19145496364217251	1	0,0152655523	0,000590518583
2	1	0	1	0	882,84	3,09840751	3,09889913	0,19735404103994368	1	0,0155486371	0,000611580268
2	1	0	1	0	884,29	3,1129086	3,11327434	0,20335921226069331	1	0,0158402976	0,000633113028
2	1	0	0	0	885,74	3,12740946	3,12779975	0,20969709637574819	1	0,0161408857	0,000655890501
2	1	0	0	0	887,19	3,14191055	3,14216495	0,21614288538694294	1	0,0164507534	0,000679156627
2	1	0	1	0	888,64	3,15641189	3,15697098	0,22307016335738218	1	0,016770348	0,000704226026
2	1	0	1	0	890,09	3,17091179	3,17132545	0,23003255264874058	1	0,0170997567	0,000729508116
2	1	0	0	0	891,54	3,18541408	3,18592215	0,23686065152287395	1	0,0174393915	0,000754619599
2	1	0	1	0	892,99	3,19991517	3,20018697	0,24465917493216605	1	0,0177894756	0,000782955089
2	1	0	1	0	894,44	3,21441627	3,21472239	0,25221556882994899	1	0,0181504413	0,000810803031
2	1	0	0	0	895,89	3,22891712	3,22926807	0,26019459016000112	1	0,0185226463	0,000840238063
2	1	0	0	0	897,34	3,24341822	3,24399424	0,26828389420794883	1	0,0189065896	0,0008703114
2	1	0	1	0	898,79	3,25791979	3,25857997	0,27714467933401376	1	0,0193028823	0,000903098087
2	1	0	1	0	900,24	3,27242088	3,27278471	0,28630209993570954	1	0,0197121669	0,000937005156
2	1	0	0	0	901,69	3,28692198	3,28730035	0,29611371868910918	1	0,0201352388	0,000973414746
2	1	0	1	0	903,14	3,30142403	3,30195594	0,3058853701272839	1	0,0205727797	0,00101002003
2	1	0	1	0	904,59	3,31592393	3,31648159	0,31689787136080352	1	0,021025518	0,001050986
2	1	0	0	0	906,04	3,33042502	3,33098674	0,32833230448886707	1	0,0214944724	0,00109367061
2	1	0	0	0	907,49	3,34492612	3,34537244	0,34031116543337658	1	0,0219803173	0,00113846757
2	1	0	1	0	908,95	3,35942721	3,35987759	0,35273187234997658	1	0,0224838518	0,00118513592
2	1	0	1	0	910,40	3,37392831	3,37421298	0,36592333818164979	1	0,0230059233	0,00123470323
2	1	0	0	0	911,85	3,3884294	3,38908911	0,37978630730261286	1	0,0235476308	0,00128712959
2	1	0	0	0	913,30	3,4029305	3,40353465	0,3941369770715655	1	0,0241097994	0,00134145888
2	1	0	1	0	914,75	3,41743183	3,41819024	0,40974957480405741	1	0,0246935561	0,00140060205
2	1	0	0	0	916,20	3,43193293	3,43231511	0,4258532507965952	1	0,0253001377	0,00146166258
2	1	0	0	0	917,65	3,44643402	3,44685054	0,44291253713890912	1	0,0259306841	0,0015266533
2	1	0	1	0	919,10	3,46093512	3,46149635	0,46073588465030003	1	0,0265865382	0,00159483554
2	1	0	1	0	920,55	3,47543597	3,47588158	0,4793589784142864	1	0,0272687487	0,00166619499
2	1	0	0	0	922,00	3,48993707	3,49048734	0,49879372290646029	1	0,0279785935	0,00174103316
2	1	0	0	0	923,45	3,50443864	3,50479221	0,51905270464097165	1	0,0287171137	0,00181917183
2	1	0	1	0	924,90	3,51893973	3,51944804	0,53977652561540525	1	0,029485818	0,0018997154
2	1	0	1	0	926,35	3,53344083	3,53398347	0,56232853746041658	1	0,0302858334	0,00198725984
2	1	0	0	0	927,80	3,54794168	3,5485394	0,58602113509550694	1	0,031119246	0,00207951898
2	1	0	0	0	929,25	3,56244278	3,56307483	0,61064166858429299	1	0,0319876745	0,00217576185
2	1	0	1	0	930,70	3,57694387	3,57756042	0,6363034749714025	1	0,0328927524	0,00227641407
2	1	0	0	0	932,15	3,59144497	3,59194565	0,66298527938003366	1	0,0338359252	0,00238140719
2	1	0	0	0	933,60	3,60594606	3,60629058	0,68990837363526221	1	0,034817744	0,0024880101
2	1	0	1	0	935,05	3,62044716	3,62072611	0,71709490194916723	1	0,035838902	0,00259640417
2	1	0	1	0	936,50	3,63494825	3,63523173	0,74422706197946906	1	0,0368993729	0,00270543783
2	1	0	0	0	937,95	3,64944935	3,64987731	0,77235458465293222	1	0,038000159	0,00281899958
2	1	0	0	0	939,40	3,6639502	3,6644125	0,80205935177703718	1	0,0391423441	0,0029390764
2	1	0	1	0	940,85	3,67845178	3,67892814	0,83357942756265408	1	0,040328972	0,00306667876
2	1	0	0	0	942,30	3,69295382	3,6934557	0,86758353334652224	1	0,0415631756	0,00320438133
2	1	0	0	0	943,75	3,70745397	3,707829	0,90419025843342029	1	0,0428482443	0,00335258292
2	1	0	1	0	945,20	3,72195482	3,72256517	0,94294171035289856	1	0,044187963	0,003510162
2	1	0	1	0	946,65	3,73645592	3,73713112	0,98333826785286144	1	0,0455852672	0,00367486407
2	1	0	0	0	948,14	3,75135708	3,75187683	1,0295927089949437	1	0,0470861308	0,00386290508
2	1	0	0	0	949,59	3,76585865	3,76633215	1,0765074739853517	1	0,0486140028	0,00405448489
2	1	0	1	0	951,04	3,78035975	3,78080773	1,1268795961514115	1	0,0502125397	0,00426051486
2	1	0	1	0	952,49	3,79486084	3,79532313	1,1805722940092256	1	0,0518864915	0,00448065344
2	1	0	0	0	953,94	3,8093617	3,80988884	1,2375557761018427	1	0,053640727	0,00471494999
2	1	0	0	0	955,39	3,82386208	3,82441354	1,2984198779626688	1	0,0554799438	0,00496569462
2	1	0	1	0	956,84	3,83836389	3,83871961	1,3625685134902632	1	0,0574094281	0,00523051852
2	1	0	0	0	958,29	3,85286498	3,85342574	1,4322638666878155	1	0,0594364256	0,00551912235
2	1	0	0	0	959,74	3,86736608	3,86785078	1,5044437535107152	1	0,0615656376	0,00581896398
2	1	0	1	0	961,19	3,88186717	3,88248658	1,5810575801879168	1	0,0638037249	0,00613843463
2	1	0	1	0	962,64	3,89636827	3,89688182	1,6600855911771434	1	0,0661540404	0,00646915752
2	1	0	0	0	964,09	3,91086936	3,91130686	1,7400173520048448	1	0,0686205104	0,00680574169
2	1	0	0	0	965,54	3,92537022	3,9259932	1,8202426874389203	1	0,0712029189	0,00714626024
2	1	0	1	0	966,99	3,93987131	3,94032812	1,8981944962094205	1	0,0739009529	0,00747950934
2	1	0	0	0	968,44	3,95437384	3,95475459	1,9740026741502064	1	0,0767107457	0,007806696
2	1	0	0	0	969,89	3,96887398	3,96930909	2,0453426390886342	1	0,0796264708	0,00811859686
2	1	0	1	0	971,34	3,98337483	3,98411512	2,1098929209013661	1	0,0826416016	0,00840605609
2	1	0	1	0	972,79	3,99787593	3,99841022	2,1660117308298723	1	0,0857437551	0,00866060331
2	1	0	0	0	974,24	4,01237726	4,01286554	2,2167537572483306	1	0,0889245942	0,00889553502
2	1	0	0	0	975,69	4,02687836	4,02738094	2,2605109879126106	1	0,0921720713	0,00910393894
2	1	0	1	0	977,14	4,04137945	4,04171562	2,2993909387538877	1	0,0954798684	0,0092934845
2	1	0	1	0	978,59	4,05588102	4,05642414	2,3321689072414883	1	0,0988400802	0,00946026668
2	1	0	0	0	980,04	4,07038164	4,07092762	2,3634831408659523	1	0,10224656	0,00962156896
2	1	0	1	0	981,49	4,08488321	4,08532333	2,3916568132054579	1	0,105695687	0,00977069139
2	1	0	1	0	982,94	4,09938383	4,09991884	2,4167586155235766	1	0,109182157	0,0099085141
2	1	0	0	0	984,39	4,11388493	4,11431408	2,4394545716543946	1	0,112704158	0,0100366827
2	1	0	0	0	985,84	4,12838602	4,12885952	2,4614410251378941	1	0,116258353	0,010162944
2	1	0	1	0	987,29	4,14288712	4,14344501	2,4834691627571885	1	0,119844541	0,0102901179
2	1	0	1	0	988,74	4,15738821	4,15799046	2,5041226968169213	1	0,123460636	0,0104121184
2	1	0	0	0	990,19	4,17188883	4,17252588	2,5262756155182976	1	0,127107888	0,0105409501
2	1	0	0	0	991,64	4,18638992	4,18703175	2,5501232492092285	1	0,13078934	0,0106774466
2	0	0	1	1	993,03	4,1996913	4,20029402	2,5662574190646374	1	0,134355262	0,0107790353
2	0	0	1	1	994,48	4,18519068	4,18586922	2,2511107389720096	1	0,137832373	0,00942285545
2	0	0	0	1	995,93	4,17068911	4,17149353	1,9958699544270858	1	0,140905857	0,00832575839
2	0	0	1	1	997,38	4,15618801	4,15661716	1,7692762855440362	1	0,143630773	0,00735420408
2	0	0	1	1	998,83	4,14168692	4,14245272	1,5691667795181306	1	0,146047235	0,00650019897
2	0	0	0	1	1000,28	4,12718582	4,12796736	1,3922811476513779	1	0,148190632	0,00574729126
2	0	0	0	1	1001,73	4,11268473	4,11297083	1,235223306342955	1	0,150091782	0,00508043729
2	0	0	1	1	1003,18	4,09818363	4,09867573	1,0947477063164115	1	0,151778162	0,00448701577
2	0	0	0	1	1004,63	4,08368158	4,08417892	0,96999658958898394	1	0,153272569	0,00396163948
2	0	0	0	1	1006,08	4,06918144	4,06991529	0,85819473272810317	1	0,154595166	0,0034927798
2	0	0	1	1	1007,53	4,05468035	4,05527925	0,75868110513935872	1	0,155765399	0,00307666371
2	0	0	1	1	1008,98	4,04017925	4,04075384	0,67022188489014669	1	0,156798854	0,00270820176
2	0	0	0	1	1010,43	4,02567816	4,02650928	0,59109132690355098	1	0,157711118	0,00238003465
2	0	0	0	1	1011,88	4,01117706	4,01156235	0,51918644427011174	1	0,158514068	0,0020827488
2	0	0	1	1	1013,37	3,9962759	3,99677587	0,45254336856305421	1	0,159236506	0,00180871447
2	0	0	1	1	1014,82	3,98177576	3,98229122	0,39489472040515219	1	0,159849569	0,00157258578
2	0	0	0	1	1016,27	3,96727395	3,96781564	0,34266846712368128	1	0,160383239	0,00135964528
2	0	0	1	1	1017,72	3,95277238	3,95299888	0,29562910444413504	1	0,160844773	0,00116862147
2	0	0	1	1	1019,17	3,93827128	3,93868423	0,25170177019511674	1	0,161240146	0,000991373789
2	0	0	0	1	1020,62	3,92377019	3,92449927	0,21165647691426237	1	0,161574915	0,000830645673
2	0	0	0	1	1022,07	3,90926933	3,90959287	0,17443794943392234	1	0,161853656	0,000681981386
2	0	0	1	1	1023,52	3,89476824	3,89533782	0,14015945617575198	1	0,162080705	0,000545968418
2	0	0	1	1	1024,97	3,88026714	3,88064194	0,10837700578849763	1	0,162259758	0,000420572353
2	0	0	0	1	1026,42	3,86576557	3,86622691	0,079178168030921254	1	0,162394673	0,000306120754
2	0	0	0	1	1027,87	3,851264	3,85161018	0,052850972401290189	1	0,162489355	0,000203561343
2	0	0	1	1	1029,36	3,83636355	3,83672452	0,02840342158257647	1	0,162548915	0,000108976106
2	0	0	0	1	1030,81	3,82186246	3,82232904	0,0074866802654772326	1	0,162574053	2,86165559E-005
2	0	0	0	1	1032,34	3,80656147	3,80694151	-0,011767682330779904	1	0,162569821	4,47988787E-005
2	0	0	1	1	1033,80	3,79206038	3,79232597	-0,027679220472540234	1	0,162540272	0,000104968625
2	0	0	1	1	1035,25	3,77755928	3,77806115	-0,041712914661426906	1	0,162489012	0,000157593939
2	0	0	0	1	1036,70	3,76305795	3,76347518	-0,05394136663138249	1	0,162418917	0,000203006988
2	0	0	0	1	1038,15	3,74855685	3,74916029	-0,06444028718397033	1	0,162332267	0,000241596965
2	0	0	1	1	1039,60	3,73405576	3,73456478	-0,073976920626591782	1	0,162231103	0,000276271603
2	0	0	1	1	1041,05	3,71955466	3,72015953	-0,082113907558476864	1	0,162117422	0,000305476831
2	0	0	0	1	1042,50	3,70505357	3,70549321	-0,089858339090521318	1	0,161992133	0,000332969474
2	0	0	1	1	1043,95	3,69055271	3,69094777	-0,096538217253206989	1	0,161856517	0,000356317527
2	0	0	1	1	1045,44	3,67565155	3,67600131	-0,10258592428484325	1	0,16170755	0,000377105986
2	0	0	0	1	1046,89	3,66115046	3,66158581	-0,1082252834845956	1	0,161553979	0,000396276155
2	0	0	0	1	1048,34	3,64664936	3,6472106	-0,1134003003826365	1	0,161392614	0,000413594767
2	0	0	1	1	1049,79	3,63214779	3,63264513	-0,11773721408098936	1	0,161224097	0,000427697523
2	0	0	1	1	1051,24	3,61764669	3,61818957	-0,12225315584025075	1	0,161048964	0,000442335091
2	0	0	0	1	1052,69	3,60314584	3,60381436	-0,12654893084739643	1	0,160867497	0,000456058857
2	0	0	0	1	1054,14	3,5886457	3,58928084	-0,13056356142376302	1	0,160680339	0,000468629296
2	0	0	1	1	1055,59	3,57414365	3,57462335	-0,13397692427194397	1	0,160487831	0,000478917034
2	0	0	0	1	1057,04	3,55964255	3,56010747	-0,13757833869506939	1	0,160290375	0,00048979366
2	0	0	0	1	1058,49	3,54514146	3,54566216	-0,14070085715502501	1	0,160088211	0,000498877722
2	0	0	1	1	1059,94	3,53064036	3,53113699	-0,14318223868031054	1	0,159881681	0,000505596108
2	0	0	1	1	1061,39	3,51613927	3,51649094	-0,14613242804383254	1	0,159671038	0,000513873354
2	0	0	0	1	1062,84	3,50163817	3,5022862	-0,14893173259527702	1	0,159456253	0,000521601527
2	0	0	0	1	1064,29	3,48713684	3,48751974	-0,15137343015521805	1	0,159237877	0,000527917815
2	0	0	1	1	1065,74	3,47263575	3,47311497	-0,15377513765512595	1	0,159015894	0,000534078747
2	0	0	0	1	1067,19	3,45813394	3,45877838	-0,15632417964920752	1	0,15879041	0,000540690671
2	0	0	0	1	1068,64	3,44363356	3,44396377	-0,15867334996194902	1	0,158561423	0,000546465279
2	0	0	1	1	1070,09	3,4291327	3,42969894	-0,16103996344221136	1	0,15832898	0,000552318583
2	0	0	1	1	1071,54	3,41463161	3,41529346	-0,16283551432813238	1	0,158093348	0,000556131068
2	0	0	0	1	1072,99	3,40013051	3,40058756	-0,16527746633316099	1	0,157854334	0,000562040485
2	0	0	0	1	1074,44	3,38562942	3,38614202	-0,16743042028974832	1	0,157612205	0,000566943199
2	0	0	1	1	1075,89	3,37112784	3,37146616	-0,1698280581816407	1	0,157366738	0,000572569552
2	0	0	1	1	1077,34	3,35662699	3,35711122	-0,17220160415551267	1	0,157118112	0,00057809992
2	0	0	0	1	1078,79	3,34212589	3,34255528	-0,17434540596635405	1	0,156866238	0,000582759152
2	0	0	0	1	1080,24	3,32762551	3,32804132	-0,17673427131809882	1	0,156611264	0,000588178984
2	0	0	1	1	1081,69	3,3131237	3,31345439	-0,17856879349953158	1	0,156352937	0,000591679534
2	0	0	0	1	1083,14	3,29862261	3,29908895	-0,18086354426729206	1	0,156091526	0,000596684928
2	0	0	0	1	1084,59	3,28412151	3,28446317	-0,1828338408765071	1	0,155827224	0,000600511034
2	0	0	1	1	1086,04	3,26962042	3,26999784	-0,18492117985927824	1	0,155559883	0,000604691857
2	0	0	1	1	1087,49	3,25511909	3,25573254	-0,18695306576167581	1	0,155289724	0,000608669186
2	0	0	0	1	1088,94	3,24061799	3,24115753	-0,18902134740104314	1	0,155016422	0,000612647971
2	0	0	0	1	1090,39	3,2261169	3,22668195	-0,19099995912984058	1	0,154740274	0,000616296136
2	0	0	1	1	1091,84	3,2116158	3,21207595	-0,19284537970088467	1	0,154461414	0,000619433995
2	0	0	1	1	1093,29	3,19711399	3,19766045	-0,194318304672632	1	0,154179826	0,000621363928
2	0	0	0	1	1094,74	3,18261385	3,18289495	-0,19634366252770064	1	0,153895542	0,000624941255
2	0	0	1	1	1096,19	3,16811275	3,16850948	-0,19794982477712141	1	0,153608546	0,000627205882
2	0	0	1	1	1097,64	3,15361166	3,15421438	-0,19983751163817942	1	0,153319195	0,000630330353
2	0	0	0	1	1099,09	3,13911057	3,13924766	-0,20147893337222467	1	0,153027281	0,000632492243
2	0	0	0	1	1100,54	3,12460971	3,12487268	-0,20336069989328643	1	0,152732953	0,000635476317
2	0	0	1	1	1101,99	3,11010814	3,11046743	-0,20496089539180294	1	0,152436376	0,000637524179
2	0	0	1	1	1103,44	3,09560704	3,09584165	-0,20603191293776035	1	0,152137667	0,000637842168
2	0	0	0	1	1104,89	3,08110619	3,08166695	-0,20761590645027629	1	0,151836917	0,000639803067
2	0	0	0	1	1106,34	3,06660509	3,06718159	-0,20896704673456602	1	0,15153417	0,000640939863
2	0	0	1	1	1107,79	3,052104	3,05257607	-0,21024619935390909	1	0,15122965	0,000641792489
2	0	0	0	1	1109,24	3,0376029	3,03795004	-0,21118596118564342	1	0,150923356	0,000641572406
2	0	0	0	1	1110,69	3,02310157	3,02341461	-0,21244017415059123	1	0,150615618	0,000642294704
2	0	0	1	1	1112,14	3,00860047	3,00898933	-0,21316894477543702	1	0,150306329	0,000641423103
2	0	0	1	1	1113,59	2,99409962	2,99435329	-0,21419859887100755	1	0,149995953	0,000641386257
2	0	0	0	1	1115,04	2,97959852	2,98005843	-0,21442533687998909	1	0,149684444	0,000639000034
2	0	0	0	1	1116,49	2,96509743	2,96554303	-0,21528489491902291	1	0,149371922	0,000638436642
2	0	0	1	1	1117,94	2,95059633	2,95098734	-0,21584056519592765	1	0,149058402	0,000636942801
2	0	0	1	1	1119,39	2,93609524	2,93650198	-0,21635040431283459	1	0,148744047	0,000635313394
2	0	0	0	1	1120,84	2,92159414	2,92218685	-0,21660375928816755	1	0,14842926	0,000632956682
2	0	0	1	1	1122,29	2,90709305	2,90779185	-0,2166220486784969	1	0,148114175	0,000629891816
2	0	0	1	1	1123,74	2,89259195	2,89300537	-0,21702956004689168	1	0,14779909	0,000627867703
2	0	0	0	1	1125,19	2,87809086	2,87864017	-0,21675990289077229	1	0,147483781	0,000623973785
2	0	0	0	1	1126,64	2,86358976	2,86397433	-0,21676899003796192	1	0,147168666	0,000620820851
2	0	0	1	1	1128,09	2,84908819	2,84939861	-0,21640840064113376	1	0,146853939	0,000616633799
2	0	0	1	1	1129,54	2,83458734	2,83493328	-0,21618042102394064	1	0,146539658	0,000612857053
2	0	0	0	1	1130,99	2,82008624	2,82063818	-0,215529340862608	1	0,146226183	0,000607930298
2	0	0	0	1	1132,44	2,80558491	2,80579138	-0,21455816193415034	1	0,14591372	0,000602005457
2	0	0	1	1	1133,89	2,79108405	2,79142666	-0,2136559867455321	1	0,145602703	0,000596405007
2	0	0	0	1	1135,34	2,77658272	2,77699161	-0,21262935223057955	1	0,145293042	0,000590469921
2	0	0	0	1	1136,79	2,76208162	2,76246595	-0,21097486730043968	1	0,144985139	0,000582810899
2	0	0	1	1	1138,24	2,74758077	2,74809074	-0,20957545408358237	1	0,144679248	0,000575932383
2	0	0	1	1	1139,69	2,73307967	2,7335453	-0,2082183372694999	1	0,144375429	0,000569174241
2	0	0	0	1	1141,14	2,71857858	2,71895957	-0,20666643092408864	1	0,144073844	0,000561917666
2	0	0	0	1	1142,59	2,70407748	2,70440388	-0,20475138172817696	1	0,143774688	0,00055373041
2	0	0	1	1	1144,04	2,68957639	2,68974805	-0,20306716758447453	1	0,14347811	0,000546199502
2	0	0	1	1	1145,49	2,67507577	2,67536211	-0,20117577550959798	1	0,143184245	0,000538218068
2	0	0	0	1	1146,94	2,6605742	2,66101766	-0,19921799213625491	1	0,142893165	0,000530122605
2	0	0	1	1	1148,39	2,6460731	2,64640188	-0,19696246522168394	1	0,142605096	0,000521241862
2	0	0	1	1	1149,84	2,63157201	2,63181639	-0,19499417142166477	1	0,142320082	0,000513188832
2	0	0	0	1	1151,29	2,61707091	2,61756134	-0,19296389317605734	1	0,142038241	0,000505094824
2	0	0	0	1	1152,74	2,60256982	2,60303593	-0,19054015085566867	1	0,141759515	0,00049598288
2	0	0	1	1	1154,19	2,58806849	2,58831978	-0,18840672184402752	1	0,141484201	0,000487656856
2	0	0	1	1	1155,64	2,57356739	2,57386446	-0,18600095536870298	1	0,141212285	0,000478741247
2	0	0	0	1	1157,09	2,5590663	2,55939913	-0,18374281597789421	1	0,140943706	0,000470271189
2	0	0	0	1	1158,54	2,54456496	2,54511428	-0,1808120334753769	1	0,140678719	0,000460187293
2	0	0	1	1	1159,99	2,53006387	2,53038812	-0,17859383276663677	1	0,140417248	0,000451911706
2	0	0	0	1	1161,44	2,51556277	2,51578236	-0,17602853741496838	1	0,140159294	0,000442849501
2	0	0	0	1	1162,89	2,50106192	2,50155735	-0,17378300672862656	1	0,139904872	0,000434728165
2	0	0	1	1	1164,35	2,48656082	2,48710227	-0,17134878520543405	1	0,139654204	0,000426161947
2	0	0	1	1	1165,80	2,47205973	2,47265697	-0,16899585692832896	1	0,139406666	0,000417868781
2	0	0	0	1	1167,25	2,45755863	2,45790052	-0,16668644784173626	1	0,139162496	0,000409698696
2	0	0	0	1	1168,70	2,44305754	2,44353557	-0,16451392753515414	1	0,138921633	0,00040199564
2	0	0	1	1	1170,15	2,4285562	2,42906022	-0,16213439773612982	1	0,1386839	0,000393834227
2	0	0	1	1	1171,60	2,41405535	2,41462493	-0,1601768242350472	1	0,138449371	0,000386766944
2	0	0	0	1	1173,05	2,39955425	2,40000892	-0,15833496861159779	1	0,138217792	0,000380005338
2	0	0	0	1	1174,50	2,38505387	2,38542414	-0,15640832581967456	1	0,137989223	0,000373100193
2	0	0	1	1	1175,95	2,37055206	2,37075758	-0,15463233351086525	1	0,137763306	0,000366595777
2	0	0	0	1	1177,40	2,35605097	2,3564322	-0,15276454618045475	1	0,137540027	0,000359979284
2	0	0	0	1	1178,85	2,34154987	2,34199715	-0,15118999620123475	1	0,137319207	0,000354086544
2	0	0	1	1	1180,30	2,32704854	2,32751179	-0,14932273619342595	1	0,137100548	0,000347550435
2	0	0	1	1	1181,75	2,31254745	2,31289601	-0,14819678714654122	1	0,136884004	0,000342763757
2	0	0	0	1	1183,20	2,29804635	2,29835033	-0,14703594726355229	1	0,136669174	0,000337940117
2	0	0	0	1	1184,65	2,28354502	2,28380466	-0,14617190688538038	1	0,136455923	0,000333828095
2	0	0	1	1	1186,10	2,26904392	2,26937938	-0,14533238640675926	1	0,13624379	0,000329814327
2	0	0	0	1	1187,55	2,25454211	2,25510287	-0,14486616973961498	1	0,136032686	0,00032668811
2	0	0	0	1	1189,00	2,24004197	2,24039865	-0,1443775253525632	1	0,135822326	0,000323463202
2	0	0	1	1	1190,45	2,22554088	2,22594309	-0,14425331094147098	1	0,135612369	0,000321099651
2	0	0	1	1	1191,90	2,21103978	2,21154761	-0,1439084462278215	1	0,13540265	0,000318260369
2	0	0	0	1	1193,35	2,19653869	2,19678187	-0,14432714569072003	1	0,135192707	0,000317055266
2	0	0	0	1	1194,80	2,18203735	2,18219614	-0,14480001281481235	1	0,134982452	0,000315982033
2	0	0	1	1	1196,25	2,1675365	2,167871	-0,14538763579912474	1	0,134771436	0,000315181649
2	0	0	1	1	1197,70	2,1530354	2,15326524	-0,14633074270871814	1	0,134559542	0,000315088895
2	0	0	0	1	1199,15	2,13853431	2,13904047	-0,14717234232618192	1	0,134346366	0,000314807607
2	0	0	1	1	1200,60	2,12403345	2,12428474	-0,14835573625612851	1	0,13413167	0,000315149839
2	0	0	1	1	1202,05	2,10953212	2,11006951	-0,14917154373445808	1	0,133915246	0,000314762321
2	0	0	0	1	1203,50	2,09503102	2,09559417	-0,15093780638805309	1	0,13369678	0,000316304388
2	0	0	0	1	1204,95	2,08052993	2,08103848	-0,15256113826762928	1	0,133476213	0,000317485596
2	0	0	1	1	1206,40	2,06602883	2,06634259	-0,1544224904694904	1	0,133252919	0,00031908977
2	0	0	1	1	1207,85	2,05152774	2,05192733	-0,15648238337598781	1	0,133026913	0,000321090483
2	0	0	0	1	1209,30	2,03702641	2,0374217	-0,15858382304819907	1	0,132797807	0,000323102111
2	0	0	0	1	1210,75	2,02252531	2,02306676	-0,16092823546690259	1	0,132565483	0,000325568573
2	0	0	1	1	1212,20	2,00802422	2,00862122	-0,16326361335814	1	0,132329687	0,000327934744
2	0	0	0	1	1213,65	1,99352312	1,99387538	-0,16550741581401507	1	0,13209036	0,000330001174
2	0	0	0	1	1215,10	1,97902203	1,97966051	-0,1682496690967432	1	0,131847441	0,000333077216
2	0	0	1	1	1216,55	1,96452093	1,96485424	-0,17102329980116294	1	0,131600589	0,000336035853
2	0	0	1	1	1218,00	1,95001972	1,95046914	-0,17379841410244467	1	0,131349981	0,000338988437
2	0	0	0	1	1219,45	1,93551862	1,9360739	-0,1765568949437384	1	0,131095394	0,000341827195
2	0	0	0	1	1220,90	1,92101765	1,92147803	-0,17934112095584464	1	0,130836904	0,000344600034
2	0	0	1	1	1222,35	1,90651655	1,9070127	-0,18200355636266298	1	0,130574524	0,000347083085
2	0	0	1	1	1223,80	1,89201546	1,89257741	-0,18417590681929107	1	0,130308315	0,000348567148
2	0	0	0	1	1225,25	1,87751436	1,87786138	-0,1868813781766215	1	0,13003841	0,000350937335
2	0	0	1	1	1226,70	1,86301315	1,86332583	-0,18943699891679011	1	0,129764766	0,000352982868
2	0	0	1	1	1228,15	1,84851205	1,8489908	-0,19195597983586234	1	0,129487634	0,00035492485
2	0	0	0	1	1229,60	1,83401084	1,83435488	-0,19433404610026694	1	0,129206777	0,000356477598
2	0	0	0	1	1231,05	1,81950974	1,82012022	-0,19694941164925782	1	0,128922433	0,000358471618
2	0	0	1	1	1232,50	1,80500865	1,8051635	-0,1993527626618743	1	0,128634393	0,000359864323
2	0	0	1	1	1233,95	1,79050767	1,79090846	-0,20204669314747088	1	0,128342673	0,000361847138
2	0	0	0	1	1235,40	1,77600658	1,77640319	-0,20438358164392467	1	0,128047228	0,000363067636
2	0	0	0	1	1236,85	1,76150548	1,76195776	-0,20732138391273747	1	0,127747789	0,000365291518
2	0	0	1	1	1238,30	1,74700439	1,74726188	-0,21015289394805824	1	0,127444237	0,000367192144
2	0	0	0	1	1239,75	1,73250318	1,73285651	-0,21316451788879888	1	0,127136454	0,000369383517
2	0	0	0	1	1241,20	1,71800208	1,71831095	-0,2163697969323657	1	0,126824439	0,000371790578
2	0	0	1	1	1242,65	1,70350087	1,70381546	-0,21935920324176573	1	0,126507938	0,000373747607
2	0	0	1	1	1244,10	1,68899977	1,6893301	-0,22247958315225958	1	0,12618719	0,000375841453
2	0	0	0	1	1245,55	1,6744988	1,67494488	-0,22497198490115622	1	0,125862062	0,000376815675
2	0	0	0	1	1247,00	1,6599977	1,66042924	-0,22803978552110477	1	0,125532821	0,000378643919
2	0	0	1	1	1248,45	1,64549661	1,64591384	-0,2307896098742881	1	0,125199437	0,000379859819
2	0	0	1	1	1249,90	1,63099551	1,63135827	-0,23341559385880915	1	0,124862224	0,000380784448
2	0	0	0	1	1251,35	1,61649454	1,61691308	-0,23593156117325059	1	0,12452133	0,000381480815
2	0	0	1	1	1252,80	1,60199416	1,60256791	-0,23817775016495312	1	0,124176897	0,000381696009
2	0	0	1	1	1254,25	1,58749223	1,58810234	-0,24033720612836451	1	0,123829193	0,000381680089
2	0	0	0	1	1255,70	1,57299089	1,57344639	-0,24264160295327386	1	0,123478234	0,000381783553
2	0	0	0	1	1257,15	1,55848992	1,55888093	-0,24436165330310688	1	0,123124272	0,000380930724
2	0	0	1	1	1258,60	1,54398882	1,54442561	-0,24655117389435578	1	0,122767314	0,000380779937
2	0	0	1	1	1260,05	1,52948785	1,52981985	-0,24846599266553949	1	0,122407526	0,00038010822
2	0	0	0	1	1261,50	1,51498675	1,51545465	-0,25023535002643936	1	0,122045033	0,000379220321
2	0	0	0	1	1262,95	1,50048566	1,50100935	-0,25207241306392003	1	0,121680006	0,000378363038
2	0	0	1	1	1264,40	1,48598456	1,48649383	-0,25392348086461514	1	0,121312439	0,000377455697
2	0	0	0	1	1265,85	1,47148323	1,47173762	-0,25553208147175654	1	0,120942555	0,000376076176
2	0	0	0	1	1267,30	1,45698225	1,45729232	-0,25664139717506896	1	0,120570444	0,000374001538
2	0	0	1	1	1268,75	1,44248104	1,44315779	-0,25838323426432819	1	0,120196223	0,000372887764
2	0	0	1	1	1270,20	1,42797995	1,42834151	-0,25961826244990061	1	0,119820051	0,000370823545
2	0	0	0	1	1271,65	1,41347897	1,41387606	-0,2608737857857113	1	0,119442038	0,000368843204
2	0	0	0	1	1273,10	1,39897788	1,39937055	-0,2617517925488455	1	0,119062394	0,000366287743
2	0	0	1	1	1274,55	1,38447678	1,38500535	-0,26281646864178486	1	0,118681379	0,000364002219
2	0	0	1	1	1276,00	1,36997569	1,37040973	-0,26337796372051075	1	0,118299209	0,000360935723
2	0	0	0	1	1277,45	1,35547447	1,35588431	-0,26398462740083462	1	0,117916055	0,000357932615
2	0	0	0	1	1278,90	1,34097409	1,34156954	-0,26417706185893053	1	0,117532171	0,000354411895
2	0	0	1	1	1280,35	1,32647228	1,32658243	-0,26474768140663674	1	0,117147632	0,00035120963
2	0	0	0	1	1281,80	1,31197107	1,31222737	-0,26500163072099213	1	0,116762653	0,000347742403
2	0	0	0	1	1283,25	1,29746997	1,29787219	-0,26500642214280835	1	0,11637754	0,00034394447
2	0	0	1	1	1284,70	1,282969	1,28347695	-0,26478249261466224	1	0,115992568	0,000339842227
2	0	0	1	1	1286,15	1,2684679	1,26894152	-0,2642706653568896	1	0,1156082	0,000335344026
2	0	0	0	1	1287,60	1,25396669	1,25451612	-0,26387534337118358	1	0,115224548	0,000331035873
2	0	0	0	1	1289,05	1,23946571	1,23967981	-0,26282296422869056	1	0,114841871	0,000325816334
2	0	0	1	1	1290,50	1,22496438	1,22518444	-0,26235142404523936	1	0,114460275	0,000321428874
2	0	0	1	1	1291,95	1,21046364	1,2110002	-0,26137608561460989	1	0,114079952	0,000316526479
2	0	0	0	1	1293,40	1,19596231	1,19636381	-0,26063730552171904	1	0,113700837	0,000311817043
2	0	0	1	1	1294,86	1,1814611	1,18195856	-0,26004365901462733	1	0,113322727	0,000307360839
2	0	0	1	1	1296,31	1,16696012	1,16719246	-0,2597549355123192	1	0,112945333	0,000303184002
2	0	0	0	1	1297,76	1,15245903	1,15263677	-0,25972151375996554	1	0,112568095	0,000299364561
2	0	0	0	1	1299,21	1,13795781	1,13812125	-0,25997868614892106	1	0,112190731	0,000295887265
2	0	0	1	1	1300,66	1,12345684	1,12399673	-0,26005654991604477	1	0,111812972	0,00029230272
2	0	0	1	1	1302,11	1,10895562	1,10933089	-0,26061984322344454	1	0,111434624	0,000289113639
2	0	0	0	1	1303,56	1,09445453	1,09485555	-0,2611981697070105	1	0,111055344	0,000285974267
2	0	0	0	1	1305,01	1,07995272	1,08022749	-0,26210611734829837	1	0,110675029	0,000283134228
2	0	0	1	1	1306,46	1,06545234	1,06581438	-0,2626759704047183	1	0,110293612	0,000279963831
2	0	0	0	1	1307,91	1,05095112	1,05136895	-0,26370426228580435	1	0,109911047	0,000277250481
2	0	0	0	1	1309,36	1,03645015	1,03690362	-0,2647161825249591	1	0,109527186	0,000274485181
2	0	0	1	1	1310,81	1,02194905	1,0222578	-0,26567485951818438	1	0,10914173	0,000271588186
2	0	0	1	1	1312,26	1,00744784	1,00758195	-0,26740517055926371	1	0,108754426	0,00026943261
2	0	0	0	1	1313,71	0,992946863	0,993056357	-0,26944717438891642	1	0,108364478	0,000267576223
2	0	0	0	1	1315,16	0,978445709	0,978731334	-0,27180612405451686	1	0,107971542	0,000266025163
2	0	0	1	1	1316,61	0,963944614	0,964596748	-0,27423586486838758	1	0,10757494	0,000264527014
2	0	0	1	1	1318,06	0,949443758	0,949891329	-0,2774714287611393	1	0,10717424	0,000263567694
2	0	0	0	1	1319,51	0,934942484	0,9353953	-0,28059507394209414	1	0,106769077	0,000262467307
2	0	0	1	1	1320,96	0,920441329	0,920609057	-0,28399444200719382	1	0,106359117	0,000261447858
2	0	0	1	1	1322,41	0,905940175	0,90621388	-0,28716551822920701	1	0,105944224	0,000260233384
2	0	0	0	1	1323,86	0,89143914	0,891959012	-0,29116567883950912	1	0,105523981	0,000259707856
2	0	0	0	1	1325,31	0,876938045	0,87726301	-0,29510256950743565	1	0,105098113	0,000258882559
2	0	0	1	1	1326,76	0,862436891	0,862807631	-0,29932751491044928	1	0,104666173	0,000258262065
2	0	0	1	1	1328,21	0,847935736	0,84817183	-0,30358359434952288	1	0,104228079	0,000257491047
2	0	0	0	1	1329,66	0,833434701	0,833706439	-0,30779448904407578	1	0,103783838	0,000256610248
2	0	0	0	1	1331,11	0,818932831	0,819341242	-0,31176157676325997	1	0,103333794	0,00025543911
2	0	0	1	1	1332,56	0,804432571	0,804775655	-0,31547951791435501	1	0,102878198	0,000253890234
2	0	0	0	1	1334,01	0,789931417	0,790450573	-0,3190801401312169	1	0,102417253	0,000252217083
2	0	0	0	1	1335,46	0,775430262	0,775804818	-0,32291277451440691	1	0,101950973	0,000250517274
2	0	0	1	1	1336,91	0,760929167	0,761289239	-0,32679436518810778	1	0,101479292	0,000248785043
2	0	0	1	1	1338,36	0,746428072	0,746573269	-0,33035642203564454	1	0,101002343	0,00024663526
2	0	0	0	1	1339,81	0,731926978	0,732218146	-0,33399814072375398	1	0,100520007	0,000244559487
2	0	0	0	1	1341,26	0,717425823	0,718003333	-0,33759475398498528	1	0,100032546	0,000242394162
2	0	0	1	1	1342,71	0,702924728	0,703217208	-0,34106637894486534	1	0,0995399505	0,00023984375
2	0	0	1	1	1344,16	0,688423634	0,688912153	-0,34400848221654765	1	0,0990424752	0,000236991618
2	0	0	0	1	1345,61	0,673922539	0,674396694	-0,34765760251321075	1	0,0985399336	0,000234459134
2	0	0	1	1	1347,06	0,659421444	0,659650564	-0,35110679299881184	1	0,0980323479	0,000231607788
2	0	0	1	1	1348,51	0,64492029	0,64503479	-0,35455849285548083	1	0,0975199491	0,000228702556
2	0	0	0	1	1349,96	0,630419195	0,630840063	-0,35776743021172819	1	0,0970025063	0,000225694035
2	0	0	0	1	1351,41	0,6159181	0,61625433	-0,36137936590239405	1	0,0964802355	0,000222701594
2	0	0	1	1	1352,86	0,601417005	0,601969421	-0,36432298653138195	1	0,0959531888	0,000219311303
2	0	0	1	1	1354,31	0,586915851	0,587263465	-0,36764591070823283	1	0,0954216421	0,000215905005
2	0	0	0	1	1355,76	0,572414756	0,572657704	-0,37044604712476301	1	0,0948855877	0,000212138781
2	0	0	0	1	1357,21	0,557913721	0,558452904	-0,37352852034382701	1	0,0943452418	0,000208598081
2	0	0	1	1	1358,66	0,543412566	0,543897271	-0,37644174066372262	1	0,0938008279	0,000204745636
2	0	0	0	1	1360,11	0,528911412	0,529401839	-0,37876469215067578	1	0,0932525173	0,000200518727
2	0	0	0	1	1361,56	0,514410377	0,514806151	-0,38094586568574138	1	0,0927010477	0,00019611328
2	0	0	1	1	1363,01	0,499909222	0,500120223	-0,38255705630096416	1	0,0921467841	0,000191324521
2	0	0	1	1	1364,46	0,485408157	0,48559466	-0,38392064510844646	1	0,0915905088	0,00018642981
2	0	0	0	1	1365,91	0,470907032	0,471028984	-0,38425574529295226	1	0,0910327286	0,000180995587
2	0	0	0	1	1367,36	0,456405938	0,456744105	-0,38491109067884531	1	0,0904740319	0,000175805864
2	0	0	1	1	1368,81	0,441904813	0,442328811	-0,38534170327087302	1	0,0899146721	0,000170447733
2	0	0	1	1	1370,26	0,427404732	0,427956015	-0,38687643869820442	1	0,0893539339	0,000165566104
2	0	0	0	1	1371,71	0,412902594	0,413367927	-0,38886395438263885	1	0,0887906849	0,00016074389
2	0	0	1	1	1373,16	0,398401469	0,398631841	-0,39153906004503283	1	0,0882240012	0,000156079943
2	0	0	1	1	1374,61	0,383900404	0,384326905	-0,39458550605922938	1	0,0876534209	0,000151649831
2	0	0	0	1	1376,06	0,369399279	0,369771242	-0,39793656331797498	1	0,087078087	0,000147145503
2	0	0	0	1	1377,51	0,354898185	0,355285823	-0,4014545582855744	1	0,0864977464	0,000142631106
2	0	0	1	1	1378,96	0,34039709	0,340720147	-0,40597367581600883	1	0,0859113112	0,000138323405
2	0	0	1	1	1380,41	0,325895935	0,32612446	-0,41189109627157408	1	0,085317716	0,000134327754
2	0	0	0	1	1381,86	0,31139487	0,311719179	-0,41914611868560448	1	0,0847147703	0,000130655884
2	0	0	0	1	1383,31	0,296893507	0,297523528	-0,4287430224390585	1	0,0840997472	0,000127561143
2	0	0	1	1	1384,76	0,282392651	0,282938778	-0,44091980221370976	1	0,0834691003	0,000124753307
2	0	0	0	1	1385,94	0,270591825	0,270588636	-0,45434749440142982	1	0,082944192	0,000122941274