File: Experimentelles/Rohdaten/Batterietests/AlteZelle/150511_LLTO_LTO_Tests/ECLab-Export/LLTO_LP30_LTO_05_GCPL_C01_loop2.mpt
EC-Lab ASCII FILE
Nb header lines : 3
mode	ox/red	error	control changes	Ns changes	counter inc.	Ns	time/s	control/V/mA	Ewe/V	dq/mA.h	<I>/mA	P/W	(Q-Qo)/mA.h	x	Capacity/mA.h
1	0	0	1	1	0	1	87085,37	-0,0100000007	2,81095362	0	0	0	0	0	0
1	0	0	1	0	0	1	87225,37	-0,0100000007	2,51517344	-2,7757613229927501E-005	-0,0099925432946554752	2,51329802E-005	-0,00038846321339176582	1,4494084785992048E-005	0,00038846321339176582
1	0	0	1	0	0	1	87365,37	-0,0100000007	2,34140968	-2,7757555401470096E-005	-0,0099925224392489139	2,33965893E-005	-0,00077707273471082074	2,8993628517464352E-005	0,00077707273471082074
1	0	0	1	0	0	1	87505,38	-0,0100000007	2,19955373	-2,7757260396973123E-005	-0,0099924162471738509	2,19788562E-005	-0,001165674986216145	4,3492901002411994E-005	0,001165674986216145
1	0	0	1	0	0	1	87645,38	-0,0100000007	2,07503581	-2,7757888337597251E-005	-0,009992642331226807	2,07350913E-005	-0,0015542820143938778	5,7992351711429504E-005	0,0015542820143938778
1	0	0	1	0	0	1	87785,38	-0,0100000007	1,962605	-2,7757100828612845E-005	-0,0099923587962547558	1,96110541E-005	-0,0019428904940519162	7,2491856577128755E-005	0,0019428904940519162
1	0	0	1	0	0	1	87925,38	-0,0100000007	1,85807943	-2,7756522452200038E-005	-0,0099921506020771123	1,85662102E-005	-0,0023314878623000326	8,6990946861184384E-005	0,0023314878623000326
1	0	0	1	0	0	1	88065,39	-0,0100000007	1,75926328	-2,7756456299943645E-005	-0,0099921268078590618	1,75787809E-005	-0,0027200768828410746	0,00010148972568106542	0,0027200768828410746
1	0	0	1	0	0	1	88205,39	-0,0100000007	1,66373146	-2,7756137020989424E-005	-0,0099920118323681715	1,66240243E-005	-0,0031086648623530534	0,00011598846565875246	0,0031086648623530534
1	0	0	1	0	0	1	88345,39	-0,0100000007	1,57041466	-2,775630421688159E-005	-0,0099920720497329882	1,56916958E-005	-0,0034972547106321274	0,0001304872753626524	0,0034972547106321274
1	0	0	1	0	0	1	88485,40	-0,0100000007	1,47881639	-2,7757337343620342E-005	-0,0099924439773149069	1,47769897E-005	-0,0038858483894563674	0,00014498622798934272	0,0038858483894563674
1	0	0	1	0	0	1	88625,40	-0,0100000007	1,38901305	-2,775696356853263E-005	-0,0099923093836170765	1,38794485E-005	-0,0042744474533513894	0,00015948538154026416	0,0042744474533513894
1	0	0	1	0	0	1	88765,40	-0,0100000007	1,30205488	-2,7756100294904576E-005	-0,0099919986485776256	1,30101307E-005	-0,0046630379318077094	0,00017398421475692442	0,0046630379318077094
1	0	0	1	0	0	1	88905,40	-0,0100000007	1,21805632	-2,7757089243994819E-005	-0,0099923546539087834	1,2171251E-005	-0,0050516284911096582	0,00018848305099004378	0,0050516284911096582
1	0	0	1	0	0	1	89045,41	-0,0100000007	1,13633013	-2,775678278469584E-005	-0,0099922443027221747	1,13544884E-005	-0,005440221920431495	0,00020298199430746397	0,005440221920431495
1	0	0	1	0	0	1	89185,41	-0,0100000007	1,05666625	-2,7756968015339226E-005	-0,0099923110217611162	1,05585377E-005	-0,0058288173080449997	0,00021748101069137926	0,0058288173080449997
1	0	0	1	0	0	1	89325,41	-0,0100000007	0,979656398	-2,7758419559647642E-005	-0,009992833547726121	9,78954358E-006	-0,0062174179537778598	0,00023198022326279725	0,0062174179537778598
1	0	0	1	0	0	1	89465,41	-0,0100000007	0,906446517	-2,7758892936528557E-005	-0,0099930039423529011	9,0581234E-006	-0,006606040632066688	0,00024648025789850154	0,006606040632066688
1	1	0	0	0	0	2	89587,93	0,0100000007	1,14951837	2,7795663258371254E-005	0,01000624100823039	1,15023577E-005	-0,0063350183083959424	0,00023636805060895635	0,0003057491111512192
1	1	0	0	0	0	2	89727,93	0,0100000007	1,34694052	2,7796239407267424E-005	0,010006448406084931	1,34780912E-005	-0,0059458756010679923	0,00022184861299061597	0,00069489181847916915
1	1	0	0	0	0	2	89867,93	0,0100000007	1,50533283	2,7795739566338147E-005	0,010006268504298949	1,50627648E-005	-0,0055567303382543302	0,00020732908002366774	0,0010840370812928304
1	1	0	0	0	0	2	90007,94	0,0100000007	1,64428651	2,7795544797606352E-005	0,010006198352481232	1,64530575E-005	-0,0051675905385749075	0,00019280975089360326	0,0014731768809722528
1	1	0	0	0	0	2	90147,94	0,0100000007	1,7684797	2,7795843217159725E-005	0,010006305786522493	1,76959493E-005	-0,0047784576502058528	0,00017829067963382099	0,0018623097693413082
1	1	0	0	0	0	2	90287,94	0,0100000007	1,8811779	2,779607372239439E-005	0,010006388798102003	1,88237973E-005	-0,004389319748633497	0,00016377142132468323	0,002251447670913663
1	1	0	0	0	0	2	90427,94	0,0100000007	1,98291552	2,7795553913288234E-005	0,010006201633129966	1,98414527E-005	-0,0040001787612277882	0,00014925204787895411	0,0026405886583193722
1	1	0	0	0	0	2	90567,95	0,0100000007	2,07407475	2,7795941155610813E-005	0,010006341054035366	2,07538997E-005	-0,0036110406036350131	0,00013473278001735029	0,0030297268159121478
1	1	0	0	0	0	2	90707,95	0,0100000007	2,15532351	2,7794978824651075E-005	0,010005994642703539	2,15661548E-005	-0,0032219062265101907	0,00012021365321008866	0,0034188611930369702
1	1	0	0	0	0	2	90847,95	0,0100000007	2,22670674	2,7795787878748442E-005	0,010006285859045451	2,2281065E-005	-0,0028327677240155002	0,00010569437247973064	0,0038079996955316608
1	1	0	0	0	0	2	90987,96	0,0100000007	2,29029274	2,7796423899009824E-005	0,010006514848475416	2,29178477E-005	-0,0024436214921875533	9,1174803357556621E-005	0,004197145927359607
1	1	0	0	0	0	2	91127,96	0,0100000007	2,34608793	2,7795974981298461E-005	0,010006353252009914	2,34757845E-005	-0,0020544828595192675	7,6655517770246733E-005	0,0045862845600278925
1	1	0	0	0	0	2	91267,96	0,0100000007	2,39499021	2,7795472275310509E-005	0,01000617224405343	2,39646852E-005	-0,0016653426725999021	6,2136174191739366E-005	0,004975424746947257
1	1	0	0	0	0	2	91407,96	0,0100000007	2,43764806	2,7796148189188288E-005	0,01000641560491912	2,43921204E-005	-0,0012761983809050056	4,7616677458537984E-005	0,0053645690386421536
1	1	0	0	0	0	2	91547,97	0,0100000007	2,47484493	2,7795619400632048E-005	0,010006225236996176	2,47638563E-005	-0,00088705696842106342	3,3097288152568454E-005	0,0057537104511260954
1	1	0	0	0	0	2	91687,97	0,0100000007	2,50717258	2,7795362607731174E-005	0,010006132764490635	2,50871017E-005	-0,00049791992498045248	1,8578061861479866E-005	0,0061428474945667072
1	1	0	0	0	0	2	91827,97	0,0100000007	2,53539491	2,7795336123866339E-005	0,010006123267879198	2,53694743E-005	-0,00010878321405563162	4,0588479770024672E-006	0,0065319842054915277
1	1	0	0	0	0	2	91967,98	0,0100000007	2,56021833	2,7794850561043453E-005	0,010005948450429549	2,56174135E-005	0,0002803493216344479	-1,0460210123853067E-005	0,0069211167411816064
1	1	0	0	0	0	2	92107,98	0,0100000007	2,58227301	2,7795273423970986E-005	0,010006100658971542	2,58384844E-005	0,00066948107759555315	-2,4979239131972211E-005	0,007310248497142711
1	1	0	0	0	0	2	92247,98	0,0100000007	2,60163522	2,7794574819453472E-005	0,010005849203706504	2,60315701E-005	0,0010586128164386909	-3,9498267501396979E-005	0,0076993802359858496
1	1	0	0	0	0	2	92387,98	0,0100000007	2,61895418	2,779493475710559E-005	0,01000597874969649	2,62051999E-005	0,0014477400136643728	-5,4017126416968192E-005	0,008088507433211529
1	1	0	0	0	0	2	92527,99	0,0100000007	2,63421106	2,7794930789464464E-005	0,010005977312987165	2,63578568E-005	0,0018368719677609926	-6,8536162817789773E-005	0,0084776393873081446
1	1	0	0	0	0	2	92667,99	0,0100000007	2,64786386	2,7794798003250938E-005	0,010005929548285856	2,64943392E-005	0,0022260017415990755	-8,3055117870233971E-005	0,0088667691611462298
1	1	0	0	0	0	2	92807,99	0,0100000007	2,65974092	2,7795544219668954E-005	0,010006198143495998	2,66138941E-005	0,0026151308025883731	-9,7574046325331546E-005	0,0092558982221355277
1	1	0	0	0	0	2	92947,99	0,0100000007	2,67012858	2,779572101040847E-005	0,010006261795407765	2,67180058E-005	0,0030042681115760064	-0,00011209328252433658	0,0096450355311231629
1	1	0	0	0	0	2	93088,00	0,0100000007	2,67938972	2,7795320081265853E-005	0,010006117492890117	2,68102885E-005	0,0033934013192863104	-0,00012661236569917024	0,010034168738833469
1	1	0	0	0	0	2	93228,00	0,0100000007	2,68763852	2,7795148213290506E-005	0,01000605558403205	2,68926597E-005	0,0037825349326101549	-0,00014113146400799042	0,01042330235215731
1	1	0	0	0	0	2	93368,00	0,0100000007	2,69491386	2,7794857269411696E-005	0,01000595086551087	2,69651755E-005	0,0041716609473119706	-0,0001556502788020063	0,010812428366859126
1	1	0	0	0	0	2	93508,01	0,0100000007	2,70132971	2,7795696976284186E-005	0,010006253172182509	2,70301898E-005	0,0045607926939683872	-0,00017016930746295498	0,011201560113515542
1	1	0	0	0	0	2	93648,01	0,0100000007	2,70711541	2,7795913275848662E-005	0,010006331001123843	2,7088292E-005	0,0049499353561679622	-0,00018468874339749504	0,011590702775715115
1	1	0	0	0	0	2	93788,01	0,0100000007	2,71238565	2,7795568223266554E-005	0,010006206813625174	2,71406916E-005	0,005339075289097863	-0,00019920807749931398	0,011979842708645018
1	1	0	0	0	0	2	93928,01	0,0100000007	2,71700668	2,7795995936418576E-005	0,010006360794655696	2,71873487E-005	0,0057282151975973619	-0,00021372741068960179	0,012368982617144517
1	1	0	0	0	0	2	94068,02	0,0100000007	2,72111201	2,7795997308101504E-005	0,010006361252166067	2,72284306E-005	0,0061173531593638374	-0,00022824667124466314	0,012758120578910994
1	1	0	0	0	0	2	94208,02	0,0100000007	2,72466373	2,7795395963152666E-005	0,010006144809596574	2,72633806E-005	0,0065064905147653811	-0,00024276590917543357	0,013147257934312534
1	1	0	0	0	0	2	94348,02	0,0100000007	2,7282536	2,7795435411286435E-005	0,010006158999811019	2,72993402E-005	0,0068956252506897792	-0,00025728504936998976	0,013536392670236933
1	1	0	0	0	0	2	94488,02	0,0100000007	2,73132777	2,7795030916730566E-005	0,010006013358090518	2,73297028E-005	0,0072847569785779264	-0,00027180407733066912	0,013925524398125078
1	1	0	0	0	0	2	94628,03	0,0100000007	2,73405838	2,7794540572394096E-005	0,010005836875008765	2,7356542E-005	0,0076738835729585088	-0,00028632291375327907	0,014314650992505656
1	1	0	0	0	0	2	94768,03	0,0100000007	2,73657894	2,779442338981769E-005	0,010005794668682488	2,73816477E-005	0,008063009716241824	-0,00030084173334484358	0,014703777135788973
1	1	0	0	0	0	2	94908,03	0,0100000007	2,73902297	2,7794436811107312E-005	0,01000579948440991	2,74061149E-005	0,0084521357255178099	-0,00031536054793641446	0,01509290314506496
1	1	0	0	0	0	2	95048,04	0,0100000007	2,74119973	2,7795013874458768E-005	0,010006007260384963	2,74284648E-005	0,0088412634287992947	-0,00032987942573360806	0,015482030848346445
1	1	0	0	0	0	2	95188,04	0,0100000007	2,74309015	2,7794759810229558E-005	0,010005915767736238	2,74471295E-005	0,0092303877683894003	-0,00034439817802695379	0,015871155187936557
1	1	0	0	0	0	2	95328,04	0,0100000007	2,74494243	2,7794076769043587E-005	0,010005669872760632	2,74649883E-005	0,0096195078218043302	-0,00035891677039734086	0,016260275241351485
1	1	0	0	0	0	2	95468,04	0,0100000007	2,74660373	2,7793880415097293E-005	0,010005599223078288	2,74814156E-005	0,010008623174285157	-0,0003734351873695561	0,016649390593832314
1	1	0	0	0	0	2	95608,05	0,0100000007	2,74815035	2,7793171099852771E-005	0,010005343837262358	2,74961894E-005	0,010397732661518896	-0,00038795338550151661	0,017038500081066045
1	1	0	0	0	0	2	95748,05	0,0100000007	2,74954438	2,7794329058585894E-005	0,010005760705916907	2,75112834E-005	0,010786846003424538	-0,00040247172745646842	0,017427613422971693
1	1	0	0	0	0	2	95888,05	0,0100000007	2,75086188	2,779443949667944E-005	0,010005800488470541	2,75245748E-005	0,011175968223036637	-0,00041699040065058445	0,017816735642583792
1	1	0	0	0	0	2	96028,06	0,0100000007	2,75204563	2,779433983150456E-005	0,010005764572326483	2,753632E-005	0,011565091252739034	-0,00043150910407025856	0,018205858672286186
1	1	0	0	0	0	2	96168,06	0,0100000007	2,75336337	2,7794290529770982E-005	0,010005746845601981	2,75494567E-005	0,011954214656582938	-0,00044602782144965549	0,018594982076130093
1	1	0	0	0	0	2	96308,06	0,0100000007	2,75429893	2,7793616989161818E-005	0,010005504391499059	2,75581497E-005	0,012343328263206467	-0,00046054617328158752	0,018984095682753622
1	1	0	0	0	0	2	96448,06	0,0100000007	2,75534916	2,7793731910538758E-005	0,010005545725104379	2,75687726E-005	0,012732440598075494	-0,00047506447766264934	0,01937320801762265
1	1	0	0	0	0	2	96588,07	0,0100000007	2,75638032	2,7794443289490621E-005	0,01000580184873044	2,75797956E-005	0,013121560836574021	-0,00048958307693875437	0,019762328256121174
1	1	0	0	0	0	2	96728,07	0,0100000007	2,75720143	2,7794079716369098E-005	0,010005670966740413	2,758765E-005	0,01351068031239671	-0,00050410164775839834	0,020151447731943866
1	1	0	0	0	0	2	96868,07	0,0100000007	2,75821352	2,7793863418408566E-005	0,010005593067001782	2,75975617E-005	0,013899798098891568	-0,00051862015554694957	0,020540565518438726
1	1	0	0	0	0	2	97008,07	0,0100000007	2,75911093	2,779364376825591E-005	0,010005514031898904	2,76063238E-005	0,014288906910501637	-0,00053313832847048262	0,020929674330048787
1	1	0	0	0	0	2	97148,08	0,0100000007	2,75997019	2,7793748277653424E-005	0,01000555164091064	2,7615024E-005	0,014678020449535155	-0,00054765667778054054	0,021318787869082304
1	1	0	0	0	0	2	97288,08	0,0100000007	2,7607913	2,7794060953737549E-005	0,010005664178431158	2,76235514E-005	0,015067138092484957	-0,00056217518021323283	0,021707905512032102
1	1	0	0	0	0	2	97428,08	0,0100000007	2,76163149	2,7794502940805008E-005	0,010005823327904403	2,76323972E-005	0,015456253715581888	-0,00057669360728249882	0,022097021135129043
1	1	0	0	0	0	2	97568,09	0,0100000007	2,76229978	2,7793762798679786E-005	0,010005556858141341	2,76383471E-005	0,015845369709406211	-0,00059121204818410214	0,02248613712895337
1	1	0	0	0	0	2	97708,09	0,0100000007	2,76268172	2,779348914252801E-005	0,01000545833046437	2,76418978E-005	0,016234478334948221	-0,00060573021416518566	0,022875245754495379
1	1	0	0	0	0	2	97848,09	0,0100000007	2,76302528	2,7793915266585018E-005	0,010005611769365936	2,76457577E-005	0,016623588292748262	-0,00062024842985460749	0,023264355712295418
1	1	0	0	0	0	2	97988,09	0,0100000007	2,76313996	2,7793388072349542E-005	0,01000542194907869	2,76463816E-005	0,01701269428292057	-0,00063476649750650419	0,023653461702467728
1	1	0	0	0	0	2	98128,10	0,0100000007	2,76352167	2,7793609306112758E-005	0,010005501592460091	2,76504197E-005	0,017401801156223242	-0,00064928459810918208	0,024042568575770397
1	1	0	0	0	0	2	98268,10	0,0100000007	2,7640183	2,7793641993775965E-005	0,010005513392982269	2,76554219E-005	0,017790911366344486	-0,0006638028232130473	0,024431678785891642
1	1	0	0	0	0	2	98408,10	0,0100000007	2,76451468	2,7794554706145491E-005	0,010005841925668307	2,76612973E-005	0,018180031930249293	-0,00067832143463049805	0,024820799349796451
1	1	0	0	0	0	2	98548,11	0,0100000007	2,76518297	2,779452798825999E-005	0,010005832321513826	2,76679566E-005	0,018569154659713677	-0,00069284012684788838	0,025209922079260832
1	1	0	0	0	0	2	98688,11	0,0100000007	2,76575589	2,7794097591088051E-005	0,010005677404773488	2,76732608E-005	0,018958275541700432	-0,00070735875013340429	0,025599042961247587
1	1	0	0	0	0	2	98828,11	0,0100000007	2,76638603	2,7793756827142918E-005	0,010005554694904586	2,76792271E-005	0,019347392489232701	-0,00072187722661913344	0,025988159908779856
1	1	0	0	0	0	2	98968,11	0,0100000007	2,7669971	2,7793669250586794E-005	0,010005523192311278	2,76852534E-005	0,019736503623947664	-0,00073639548622083341	0,026377271043494819
1	1	0	0	0	0	2	99108,12	0,0100000007	2,76745534	2,7794272753875699E-005	0,01000574046213093	2,76904393E-005	0,020125622043776285	-0,00075091401763991898	0,02676638946332344
1	1	0	0	0	0	2	99248,12	0,0100000007	2,76787543	2,7794305336920339E-005	0,010005752154521605	2,76946757E-005	0,02051474067603441	-0,00076543255698503488	0,027155508095581565
1	1	0	0	0	0	2	99388,12	0,0100000007	2,76839089	2,7794670877771245E-005	0,010005883781221986	2,77001982E-005	0,020903863376708403	-0,00077995124812821696	0,027544630796255558
1	1	0	0	0	0	2	99528,12	0,0100000007	2,76881099	2,7794453670943363E-005	0,010005805584931248	2,77041836E-005	0,021292982194831552	-0,00079446979440820685	0,027933749614378707
1	1	0	0	0	0	2	99668,13	0,0100000007	2,76915479	2,7793454823239395E-005	0,010005445975764662	2,77066283E-005	0,021682093920140125	-0,00080898807604574848	0,02832286133968728
1	1	0	0	0	0	2	99808,13	0,0100000007	2,76944113	2,7794687355868518E-005	0,010005889716015333	2,77107229E-005	0,022071209433644707	-0,00082350649902597658	0,028711976853191866
1	1	0	0	0	0	2	99948,13	0,0100000007	2,76993775	2,7794456816123181E-005	0,01000580670693787	2,77154613E-005	0,022460331876870666	-0,0008380251805634263	0,029101099296417824
1	1	0	0	0	0	2	100088,14	0,0100000007	2,77054882	2,7794085366496195E-005	0,010005672966850565	2,77212057E-005	0,022849447961546182	-0,00085254362485480986	0,029490215381093338
1	1	0	0	0	0	2	100228,14	0,0100000007	2,77102613	2,7794309972061053E-005	0,010005753860529365	2,77262061E-005	0,02323857082028656	-0,00086706232189566118	0,029879338239833715
1	1	0	0	0	0	2	100368,14	0,0100000007	2,77135062	2,7793345298255901E-005	0,010005406558178346	2,77284889E-005	0,023627685260930461	-0,00088158070484601472	0,030268452680477619
1	1	0	0	0	0	2	100508,14	0,0100000007	2,77196169	2,7794000800905958E-005	0,010005642523839795	2,77352574E-005	0,024016801760326246	-0,00089609916461116928	0,030657569179873402
1	1	0	0	0	0	2	100648,15	0,0100000007	2,77226734	2,7794185246185712E-005	0,010005708959985064	2,77385006E-005	0,024405919180590298	-0,00091061765873515661	0,031046686600137459
1	1	0	0	0	0	2	100788,15	0,0100000007	2,77284002	2,779384457754592E-005	0,010005586285415354	2,77438903E-005	0,024795030877539373	-0,00092513593931456742	0,031435798297086534
1	1	0	0	0	0	2	100928,15	0,0100000007	2,77327919	2,7793309212714019E-005	0,010005393563534246	2,77477502E-005	0,025184140330704435	-0,00093965413617537971	0,031824907750251616
1	1	0	0	0	0	2	101068,16	0,0100000007	2,77352762	2,7793856656230576E-005	0,010005590669938814	2,77507825E-005	0,025573250397576061	-0,00095417235593440909	0,032214017817123245
1	1	0	0	0	0	2	101208,16	0,0100000007	2,77377582	2,7794110210301974E-005	0,010005681910327395	2,77535182E-005	0,025962364903962026	-0,00096869074133768742	0,032603132323509197
1	1	0	0	0	0	2	101348,16	0,0100000007	2,77421498	2,7794387054836586E-005	0,01000578158927965	2,77581894E-005	0,026351479727860227	-0,00098320913858777421	0,032992247147407392
1	1	0	0	0	0	2	101488,16	0,0100000007	2,77446318	2,7793926399873779E-005	0,010005615777154208	2,77602121E-005	0,026740591245478176	-0,00099772741247609958	0,033381358665025331
1	1	0	0	0	0	2	101628,17	0,0100000007	2,7748642	2,7794906608760355E-005	0,010005968608222224	2,77652034E-005	0,027129711307500336	-0,0010122460051676339	0,033770478727047494
1	1	0	0	0	0	2	101768,17	0,0100000007	2,77518868	2,7794072753905008E-005	0,010005668453430611	2,77676172E-005	0,027518831301225254	-0,0010267645953109064	0,034159598720772403
1	1	0	0	0	0	2	101908,17	0,0100000007	2,77553248	2,7794875658324192E-005	0,010005957503443306	2,77718609E-005	0,027907954385615014	-0,0010412833007710397	0,034548721805162163
1	1	0	0	0	0	2	102048,17	0,0100000007	2,77572346	2,7793974137347603E-005	0,010005632925148509	2,77728705E-005	0,028297082702889478	-0,001055802201477137	0,034937850122436614
1	1	0	0	0	0	2	102188,18	0,0100000007	2,77606726	2,7794378572350576E-005	0,01000577855614557	2,7776714E-005	0,028686195187268886	-0,0010703205114366318	0,035326962606816038
1	1	0	0	0	0	2	102328,18	0,0100000007	2,77642989	2,7794690250056902E-005	0,010005890749413966	2,77806539E-005	0,029075314062682963	-0,0010848390598542234	0,035716081482230118
1	1	0	0	0	0	2	102468,18	0,0100000007	2,77681184	2,7794000201237696E-005	0,010005642307963488	2,77837862E-005	0,02946443015113369	-0,001099357504286465	0,036105197570680864
1	1	0	0	0	0	2	102608,19	0,0100000007	2,77704096	2,7793577927837357E-005	0,010005490329816614	2,77856561E-005	0,02985354311215872	-0,0011138758320302493	0,036494310531705894
1	1	0	0	0	0	2	102748,19	0,0100000007	2,77738476	2,779352476525431E-005	0,010005471172446259	2,77890431E-005	0,030242655257087514	-0,0011283941293243856	0,036883422676634688
1	1	0	0	0	0	2	102888,19	0,0100000007	2,77740383	2,7793426586521997E-005	0,010005435810747315	2,77891359E-005	0,03063176892747513	-0,0011429124835354416	0,037272536347022298
1	1	0	0	0	0	2	103028,19	0,0100000007	2,7775948	2,7793635996679466E-005	0,010005511234070192	2,77912568E-005	0,031020877748230682	-0,0011574306568002048	0,03766164516777785
1	1	0	0	0	0	2	103168,20	0,0100000007	2,77786207	2,779415449215513E-005	0,010005697859865962	2,77944491E-005	0,031409993588839814	-0,0011719490919851434	0,038050761008386976
1	1	0	0	0	0	2	103308,20	0,0100000007	2,77795744	2,7794311278396182E-005	0,010005754293527114	2,77955587E-005	0,031799110794214643	-0,0011864675780913251	0,038439878213761805
1	1	0	0	0	0	2	103448,20	0,0100000007	2,77820587	2,7793372199611946E-005	0,010005416269002546	2,77971067E-005	0,032188228566767181	-0,0012009860853596698	0,038828995986314342
1	1	0	0	0	0	2	103588,20	0,0100000007	2,77837753	2,779346419110273E-005	0,010005449348012331	2,77989166E-005	0,03257733974155401	-0,0012155043464565048	0,039218107161101171
1	1	0	0	0	0	2	103728,21	0,0100000007	2,77830124	2,7794212000651491E-005	0,010005718563563792	2,77989002E-005	0,03296645659041369	-0,0012300228192606269	0,039607224009960851
1	1	0	0	0	0	2	103868,21	0,0100000007	2,77847314	2,7793722797650842E-005	0,010005542481802386	2,78001316E-005	0,033355570987189811	-0,0012445412005742147	0,039996338406736973
1	1	0	0	0	0	2	104008,21	0,0100000007	2,77847314	2,779410176879416E-005	0,010005678871561123	2,780051E-005	0,033744688245456045	-0,0012590596886538458	0,040385455665003206
1	1	0	0	0	0	2	104148,22	0,0100000007	2,77849221	2,7794289506920096E-005	0,010005746475053342	2,78008883E-005	0,034133808489385587	-0,0012735782881325893	0,040774575908932749
1	1	0	0	0	0	2	104288,22	0,0100000007	2,77830124	2,7794519471780707E-005	0,010005829278836134	2,77992076E-005	0,03452292890439945	-0,0012880968939947187	0,041163696323946611
1	1	0	0	0	0	2	104428,22	0,0100000007	2,77853036	2,7794226139369939E-005	0,010005723644083462	2,78012067E-005	0,034912047882788928	-0,001302615446254461	0,04155281530233609
1	1	0	0	0	0	2	104568,22	0,0100000007	2,77837753	2,7794795992008099E-005	0,010005928816797891	2,78002481E-005	0,035301173756967987	-0,0013171342558053837	0,041941941176515149
1	1	0	0	0	0	2	104708,23	0,0100000007	2,77849221	2,7794653536907085E-005	0,010005877540396034	2,78012521E-005	0,035690296010917478	-0,0013316529302806738	0,04233106343046464
1	1	0	0	0	0	2	104848,23	0,0100000007	2,77845407	2,7793765692040323E-005	0,010005557886321051	2,77999825E-005	0,036079415966310963	-0,0013461715189937493	0,042720183385858125
1	1	0	0	0	0	2	104988,23	0,0100000007	2,77835846	2,7794124177967507E-005	0,010005686975860952	2,77993859E-005	0,036468532856661005	-0,0013606899933459323	0,043109300276208166
1	1	0	0	0	0	2	105128,24	0,0100000007	2,77780485	2,7794202598536179E-005	0,010005715195059834	2,77939234E-005	0,036857651763303418	-0,0013752085429286954	0,043498419182850579
1	1	0	0	0	0	2	105268,24	0,0100000007	2,77778578	2,7794149511804186E-005	0,010005696058705022	2,77936797E-005	0,037246773294739078	-0,0013897271904460229	0,04388754071428624
1	1	0	0	0	0	2	105408,24	0,0100000007	2,7776711	2,7794336933073485E-005	0,010005763566185558	2,77927211E-005	0,037635896750006893	-0,0014042459097441149	0,044276664169554054
1	1	0	0	0	0	2	105548,24	0,0100000007	2,77780485	2,779498914660265E-005	0,010005998336983347	2,77947111E-005	0,038025022601539226	-0,0014187647184500579	0,044665790021086387
1	1	0	0	0	0	2	105688,25	0,0100000007	2,7775948	2,7794401997286413E-005	0,010005786951682101	2,77920226E-005	0,038414144921248838	-0,0014332833953789469	0,045054912340796
1	1	0	0	0	0	2	105828,25	0,0100000007	2,77772832	2,7794190618209539E-005	0,010005710893875427	2,77931467E-005	0,038803267436648006	-0,0014478020796092758	0,045444034856195162
1	1	0	0	0	0	2	105968,25	0,0100000007	2,77746105	2,7794190331103488E-005	0,010005710758487427	2,77904728E-005	0,039192386075356378	-0,0014623206191950595	0,045833153494903539
1	1	0	0	0	0	2	106108,25	0,0100000007	2,77757573	2,7794337319934531E-005	0,010005763670159307	2,77917661E-005	0,039581511274171738	-0,0014768394035472544	0,046222278693718899
1	1	0	0	0	0	2	106248,26	0,0100000007	2,77748013	2,7794289998399712E-005	0,010005746670036894	2,7790762E-005	0,039970628871512077	-0,0014913579042781965	0,046611396291059238
1	1	0	0	0	0	2	106388,26	0,0100000007	2,77637267	2,7793089525411942E-005	0,010005314471146006	2,7778482E-005	0,040359746995152026	-0,0015058764246460845	0,047000514414699187
1	1	0	0	0	0	2	106528,26	0,0100000007	2,77683091	2,7794387553766784E-005	0,010005781763765837	2,77843646E-005	0,040748865432374995	-0,0015203949567141766	0,04738963285192215
1	1	0	0	0	0	2	106668,27	0,0100000007	2,77713656	2,7793900701993453E-005	0,010005606526114667	2,77869349E-005	0,041137985451621242	-0,0015349135478096838	0,047778752871168403
1	1	0	0	0	0	2	106808,27	0,0100000007	2,7773273	2,7794978404210672E-005	0,010005994454073486	2,77899217E-005	0,041527107147097197	-0,0015494322014475757	0,048167874566644358
1	1	0	0	0	0	2	106948,27	0,0100000007	2,77774739	2,779502519328768E-005	0,010006011320173024	2,77941726E-005	0,041916235932514656	-0,0015639511196207174	0,048557003352061818
1	1	0	0	0	0	2	107088,27	0,0100000007	2,7777667	2,779507155933728E-005	0,010006028026443491	2,77944109E-005	0,042305361829982368	-0,0015784699300405715	0,04894612924952953
1	1	0	0	0	0	2	107228,28	0,0100000007	2,77793837	2,779475482398023E-005	0,010005913966781382	2,77958115E-005	0,042694491342829715	-0,0015929888753551005	0,049335258762376877
1	1	0	0	0	0	2	107368,28	0,0100000007	2,77809119	2,7794370896855574E-005	0,01000577578778036	2,77969575E-005	0,04308361905416119	-0,0016075077534526499	0,049724386473708352
1	1	0	0	0	0	2	107508,28	0,0100000007	2,77818656	2,7795252224896106E-005	0,010006093061061045	2,77987929E-005	0,043472748437756602	-0,001622026693944615	0,050113515857303763
1	1	0	0	0	0	2	107648,29	0,0100000007	2,77833939	2,779596869564719E-005	0,010006350951944347	2,78010393E-005	0,043861883291584058	-0,0016365458385382931	0,050502650711131219
1	1	0	0	0	0	2	107788,29	0,0100000007	2,77835846	2,779509378193567E-005	0,010006036026391701	2,78003554E-005	0,044251012830875642	-0,0016510647848394922	0,050891780250422797
1	1	0	0	0	0	2	107928,29	0,0100000007	2,77862597	2,7795175097624048E-005	0,010006065285482998	2,7803113E-005	0,044640141764258227	-0,0016655837085334115	0,051280909183805389
1	1	0	0	0	0	2	108068,29	0,0100000007	2,77853036	2,779446573384727E-005	0,010005809896390499	2,78014468E-005	0,045029263268619642	-0,0016801023550405629	0,051670030688166803
1	1	0	0	0	0	2	108208,30	0,0100000007	2,7788167	2,779417464675175E-005	0,010005705144264243	2,78040206E-005	0,045418386600121786	-0,0016946210697207914	0,052059154019668941
1	1	0	0	0	0	2	108348,30	0,0100000007	2,77879763	2,7794766562576922E-005	0,010005918205638642	2,78044226E-005	0,045807511468202272	-0,0017091398417328237	0,052448278887749434
1	1	0	0	0	0	2	108488,30	0,0100000007	2,77896953	2,7795153268768144E-005	0,010006057404069952	2,7806529E-005	0,046196639765458381	-0,0017236587416920093	0,052837407185005542
1	1	0	0	0	0	2	108628,30	0,0100000007	2,7788167	2,7794533645734189E-005	0,010005834381343992	2,7804379E-005	0,046585765942653485	-0,0017381775625488682	0,053226533362200646
1	1	0	0	0	0	2	108768,31	0,0100000007	2,77862597	2,7794758041699728E-005	0,010005915127933072	2,78026964E-005	0,04697488784084071	-0,0017526962237501901	0,053615655260387872
1	1	0	0	0	0	2	108908,31	0,0100000007	2,77879763	2,779403381091025E-005	0,010005654411399701	2,78036896E-005	0,047364011174358387	-0,0017672149385056208	0,054004778593905549
1	1	0	0	0	0	2	109048,31	0,0100000007	2,7788167	2,7794394578474262E-005	0,010005784318134307	2,78042407E-005	0,047753134696291661	-0,0017817336602910906	0,054393902115838816
1	1	0	0	0	0	2	109188,32	0,0100000007	2,77887416	2,7793938451239632E-005	0,010005620078403557	2,7804359E-005	0,048142252696106835	-0,0017962521760389101	0,054783020115653997
1	1	0	0	0	0	2	109328,32	0,0100000007	2,77887416	2,7794257802267869E-005	0,010005735056944918	2,78046791E-005	0,048531375716370598	-0,001810770879106416	0,055172143135917754
1	1	0	0	0	0	2	109468,32	0,0100000007	2,77874041	2,7793788281786774E-005	0,010005566055625462	2,7802871E-005	0,048920494809872064	-0,0018252894356611411	0,055561262229419226
1	1	0	0	0	0	2	109608,32	0,0100000007	2,77872133	2,779429098110025E-005	0,010005746986645002	2,78031821E-005	0,049309614809968826	-0,0018398080260421555	0,055950382229515981
1	1	0	0	0	0	2	109748,33	0,0100000007	2,77877855	2,7795045829688509E-005	0,010006018751343682	2,780451E-005	0,049698736826353504	-0,0018543266916535834	0,056339504245900666
1	1	0	0	0	0	2	109888,33	0,0100000007	2,77877855	2,7795099868801318E-005	0,010006038217620032	2,78045645E-005	0,050087867297468653	-0,0018688456727223725	0,056728634717015814
1	1	0	0	0	0	2	110028,33	0,0100000007	2,77866411	2,7794905028305949E-005	0,010005968039269883	2,78032239E-005	0,050476995294044781	-0,0018833645614627834	0,057117762713591936
1	1	0	0	0	0	2	110168,33	0,0100000007	2,77874041	2,779521222003839E-005	0,010006078660936432	2,78042953E-005	0,050866127356149715	-0,0018978836018935405	0,057506894775696877
1	1	0	0	0	0	2	110308,34	0,0100000007	2,77860665	2,7794696797668522E-005	0,010005893108356714	2,78024418E-005	0,051255257127555546	-0,0019124025568552339	0,057896024547102707
1	1	0	0	0	0	2	110448,34	0,0100000007	2,77870226	2,7794999212440518E-005	0,010006001944888173	2,78037005E-005	0,05164438153096167	-0,0019269213115296413	0,058285148950508838
1	1	0	0	0	0	2	110588,34	0,0100000007	2,77870226	2,779447250223408E-005	0,01000581237011893	2,7803173E-005	0,052033508930137824	-0,0019414401779802563	0,058674276349684992
1	1	0	0	0	0	2	110728,35	0,0100000007	2,77877855	2,7794975427496765E-005	0,010005993402978634	2,7804439E-005	0,052422642773935546	-0,0019559592848883664	0,059063410193482701
1	1	0	0	0	0	2	110868,35	0,0100000007	2,77879763	2,7794552491512147E-005	0,010005841128532541	2,7804208E-005	0,05281176998703671	-0,0019704781443962736	0,059452537406583872
1	1	0	0	0	0	2	111008,35	0,0100000007	2,77877855	2,7795510435166458E-005	0,01000618601883823	2,78049756E-005	0,053200897423861382	-0,0019849970122516048	0,059841664843408538
1	1	0	0	0	0	2	111148,35	0,0100000007	2,77868319	2,7795017385803574E-005	0,010006008497420066	2,78035277E-005	0,05359003069417561	-0,0019995160977622752	0,060230798113722765
1	1	0	0	0	0	2	111288,36	0,0100000007	2,77877855	2,7795649966535469E-005	0,010006236211732002	2,78051139E-005	0,053979164855530266	-0,0020140352165188618	0,060619932275077427
1	1	0	0	0	0	2	111428,36	0,0100000007	2,77870226	2,7795076154068941E-005	0,010006029680499645	2,78037769E-005	0,05436829796982208	-0,0020285542962081258	0,061009065389369242
1	1	0	0	0	0	2	111568,36	0,0100000007	2,77885509	2,779470601088057E-005	0,010005896394412827	2,78049356E-005	0,054757429246349024	-0,0020430733073279117	0,061398196665896179
1	1	0	0	0	0	2	111708,37	0,0100000007	2,77877855	2,77947521001204E-005	0,010005912993083656	2,78042171E-005	0,055146557194500141	-0,002057592194261521	0,061787324614047309
1	1	0	0	0	0	2	111848,37	0,0100000007	2,77883601	2,7795349529271738E-005	0,01000612809361329	2,78053885E-005	0,055535685825182963	-0,0020721111066613053	0,062176453244730125
1	1	0	0	0	0	2	111988,37	0,0100000007	2,77893138	2,7795246177352966E-005	0,010006090850499408	2,78062398E-005	0,055924817777209363	-0,0020866301429848838	0,062565585196756531
1	1	0	0	0	0	2	112128,37	0,0100000007	2,77877855	2,7795171714956976E-005	0,01000606406168977	2,78046355E-005	0,056313951125277683	-0,002101149231396664	0,062954718544824883
1	1	0	0	0	0	2	112268,38	0,0100000007	2,77887416	2,7795553445453859E-005	0,010006201501988189	2,78059742E-005	0,056703083863687251	-0,002115668297061256	0,063343851283234419
1	1	0	0	0	0	2	112408,38	0,0100000007	2,77893138	2,7795097245886509E-005	0,010006037236231186	2,78060907E-005	0,057092217121967802	-0,0021301873821229341	0,06373298454151497
1	1	0	0	0	0	2	112548,38	0,0100000007	2,77889323	2,7794783355099043E-005	0,010005924265154413	2,78053958E-005	0,057481347719829856	-0,0021447063679208202	0,064122115139376998
1	1	0	0	0	0	2	112688,38	0,0100000007	2,77891231	2,7795495910259584E-005	0,010006180789727557	2,7806298E-005	0,057870482701902925	-0,0021592255172995142	0,064511250121450048
1	1	0	0	0	0	2	112828,39	0,0100000007	2,7789886	2,7794631407699651E-005	0,010005869537798526	2,7806198E-005	0,058259612175185677	-0,0021737444611378349	0,0649003795947328
1	1	0	0	0	0	2	112968,39	0,0100000007	2,77889323	2,7795561719685792E-005	0,010006204480652821	2,78061743E-005	0,058648746844722662	-0,0021882635988553878	0,065289514264269824
1	1	0	0	0	0	2	113108,39	0,0100000007	2,77891231	2,7795058588497338E-005	0,010006023347802101	2,78058615E-005	0,05903788091717545	-0,0022027827142949261	0,065678648336722598
1	1	0	0	0	0	2	113248,40	0,0100000007	2,77895045	2,7794919797995437E-005	0,010005973356253006	2,78061034E-005	0,059427011639521024	-0,0022173017047374598	0,06606777905906816
1	1	0	0	0	0	2	113388,40	0,0100000007	2,77895045	2,7794343613915971E-005	0,010005765971255886	2,78055286E-005	0,059816138179950246	-0,002231820539147072	0,066456905599497382
1	1	0	0	0	0	2	113528,40	0,0100000007	2,77893138	2,7794613168419648E-005	0,010005862989958582	2,78056068E-005	0,060205269375292109	-0,0022463395472377338	0,066846036794839219
1	1	0	0	0	0	2	113668,40	0,0100000007	2,77896953	2,7794989246409386E-005	0,010005998357187877	2,78063653E-005	0,060594397585165325	-0,0022608584439365456	0,067235165004712422
1	1	0	0	0	0	2	113808,41	0,0100000007	2,77900767	2,7795376279857008E-005	0,010006137723662805	2,78071329E-005	0,060983528152676352	-0,0022753774286019946	0,06762429557222345
1	1	0	0	0	0	2	113948,41	0,0100000007	2,7789886	2,7795541113656429E-005	0,010006197032925126	2,78071075E-005	0,061372665345322189	-0,0022898966604601312	0,068013432764869261
1	1	0	0	0	0	2	114088,41	0,0100000007	2,77900767	2,7796265028313629E-005	0,010006457629479261	2,78080224E-005	0,061761808379702016	-0,0023044161102812166	0,068402575799249075
1	1	0	0	0	0	2	114228,42	0,0100000007	2,77893138	2,7795671634583008E-005	0,010006244049292125	2,78066655E-005	0,062150953294088307	-0,002318935630247871	0,068791720713635341
1	1	0	0	0	0	2	114368,42	0,0100000007	2,77895045	2,7795997105073184E-005	0,010006361179135562	2,78071821E-005	0,062540094379439309	-0,0023334550073480704	0,069180861798986317
1	1	0	0	0	0	2	114508,42	0,0100000007	2,77896953	2,7795203741795072E-005	0,010006075583668662	2,780658E-005	0,062929233015907597	-0,0023479742930771638	0,069570000435454605
1	1	0	0	0	0	2	114648,42	0,0100000007	2,77908421	2,7795732179139226E-005	0,010006265844843402	2,78082553E-005	0,063318366017715072	-0,0023624933685694861	0,06995913343726208
1	1	0	0	0	0	2	114788,43	0,0100000007	2,77891231	2,7795403136147392E-005	0,010006147354548584	2,78062053E-005	0,063707501142990285	-0,0023770125232912448	0,070348268562537306
1	1	0	0	0	0	2	114928,43	0,0100000007	2,7789886	2,7795011725121488E-005	0,010006006469282872	2,78065781E-005	0,064096631191878144	-0,0023915314886061658	0,070737398611425152
1	1	0	0	0	0	2	115068,43	0,0100000007	2,77906513	2,779572574225151E-005	0,010006263527726104	2,78080588E-005	0,064485763122248499	-0,002406050524121729	0,07112653054179552
1	1	0	0	0	0	2	115208,43	0,0100000007	2,77914143	2,7795000622462893E-005	0,010006002452486197	2,78080952E-005	0,064874890874482163	-0,0024205694037453936	0,071515658294029171
1	1	0	0	0	0	2	115348,44	0,0100000007	2,77912235	2,7794582309925722E-005	0,010005851892651952	2,78074858E-005	0,065264017286926643	-0,0024350882333797232	0,071904784706473651
1	1	0	0	0	0	2	115488,44	0,0100000007	2,77912235	2,7795079653927437E-005	0,010006030938661994	2,78079842E-005	0,065653143578943616	-0,0024496070585207402	0,072293910998490624
1	1	0	0	0	0	2	115628,44	0,0100000007	2,77912235	2,7794765847165962E-005	0,010005917935049814	2,78076695E-005	0,066042272601853069	-0,0024641259855550278	0,072683040021400077
1	1	0	0	0	0	2	115768,45	0,0100000007	2,77914143	2,7795640815256371E-005	0,010006232954510102	2,78087373E-005	0,066431406247624474	-0,0024786450850745101	0,073072173667171494
1	1	0	0	0	0	2	115908,45	0,0100000007	2,7791605	2,7795953317079693E-005	0,010006345441396589	2,78092393E-005	0,066820547302533939	-0,002493164461038895	0,073461314722080947
1	1	0	0	0	0	2	116048,45	0,0100000007	2,77925611	2,7795299557658531E-005	0,010006110067029592	2,78095431E-005	0,067209685254726464	-0,0025076837212367398	0,073850452674273485
1	1	0	0	0	0	2	116188,45	0,0100000007	2,77927518	2,7795779247147341E-005	0,010006282788991482	2,78102125E-005	0,067598822801278362	-0,0025222029662995866	0,074239590220825382
1	1	0	0	0	0	2	116328,46	0,0100000007	2,77942777	2,7795159984742192E-005	0,010006059836682717	2,78111202E-005	0,06798795698316416	-0,0025367220858222176	0,074628724402711181
1	1	0	0	0	0	2	116468,46	0,0100000007	2,77946615	2,7795142740321654E-005	0,010006053613787646	2,78114876E-005	0,068377091977620378	-0,0025512412356629437	0,075017859397167386
1	1	0	0	0	0	2	116608,46	0,0100000007	2,77942777	2,7795477082331978E-005	0,01000617401180756	2,78114385E-005	0,068766227540100237	-0,0025657604066973955	0,075406994959647258
1	1	0	0	0	0	2	116748,46	0,0100000007	2,77944684	2,779585234220657E-005	0,010006309070659024	2,78120042E-005	0,069155363561086093	-0,0025802795948393222	0,075796130980633101
1	1	0	0	0	0	2	116888,47	0,0100000007	2,77961874	2,779517278354615E-005	0,010006064430998434	2,78130447E-005	0,069544501950978688	-0,0025947988713683453	0,076185269370525709
1	1	0	0	0	0	2	117028,47	0,0100000007	2,77958059	2,7795413534881341E-005	0,010006151135177411	2,78129028E-005	0,06993363331805079	-0,0026093178858664925	0,076574400737597798
1	1	0	0	0	0	2	117168,47	0,0100000007	2,77963781	2,7795491807835382E-005	0,010006179275725326	2,7813554E-005	0,070322771996292493	-0,002623837173154208	0,076963539415839514
1	1	0	0	0	0	2	117308,48	0,0100000007	2,77973342	2,7795485386521453E-005	0,010006176976561891	2,78145053E-005	0,070711908073395264	-0,0026383563633899325	0,077352675492942285
1	1	0	0	0	0	2	117448,48	0,0100000007	2,77973342	2,7795582073947622E-005	0,010006211808158765	2,78146017E-005	0,071101048661544269	-0,002652875721938857	0,077741816081091277
1	1	0	0	0	0	2	117588,48	0,0100000007	2,77971435	2,7795505203047974E-005	0,010006184097906549	2,78143343E-005	0,071490189856846669	-0,0026673951031414915	0,07813095727639369
1	1	0	0	0	0	2	117728,48	0,0100000007	2,77975249	2,7795687399545891E-005	0,010006249709612749	2,78148982E-005	0,071879326416516314	-0,0026819143113824346	0,078520093836063334
1	1	0	0	0	0	2	117868,49	0,0100000007	2,77980971	2,7795383128337562E-005	0,010006140189154448	2,78151656E-005	0,072268458154608102	-0,0026964333397238253	0,07890922557415511
1	1	0	0	0	0	2	118008,49	0,0100000007	2,77998161	2,7795420291885318E-005	0,010006153530492166	2,78169227E-005	0,072657592236330099	-0,0027109524555092106	0,07929835965587712
1	1	0	0	0	0	2	118148,49	0,0100000007	2,77977157	2,7796073894171664E-005	0,010006388855645125	2,78154748E-005	0,073046733227763763	-0,0027254718291052285	0,079687500647310784
1	1	0	0	0	0	2	118288,50	0,0100000007	2,77982879	2,779541999846697E-005	0,010006153457945291	2,7815393E-005	0,073435872312580774	-0,002739991131562815	0,080076639732127795
1	1	0	0	0	0	2	118428,50	0,0100000007	2,77984786	2,7795935181745638E-005	0,010006338887061763	2,78161006E-005	0,073825010778959104	-0,002754510410945623	0,080465778198506112
1	1	0	0	0	0	2	118568,50	0,0100000007	2,77986693	2,7795878886710848E-005	0,010006318658525507	2,78162352E-005	0,074214155766713958	-0,0027690299336497574	0,080854923186260979
1	1	0	0	0	0	2	118708,50	0,0100000007	2,77980971	2,7795613175878922E-005	0,010006222990188576	2,78153966E-005	0,074603289510810752	-0,0027835490368378922	0,081244056930357773
1	1	0	0	0	0	2	118848,51	0,0100000007	2,77971435	2,7796064038295299E-005	0,010006385274502781	2,78148927E-005	0,074992425875712499	-0,0027980682378117837	0,08163319329525952
1	1	0	0	0	0	2	118988,51	0,0100000007	2,77944684	2,779554889066559E-005	0,010006199862296814	2,78117004E-005	0,075381565716268518	-0,0028125875684670083	0,082022333135815526
1	1	0	0	0	0	2	119128,51	0,0100000007	2,77948523	2,7795367730833174E-005	0,010006134621467706	2,78119041E-005	0,075770701328513562	-0,0028271067413582662	0,08241146874806057
1	1	0	0	0	0	2	119268,51	0,0100000007	2,77958059	2,7796273761635853E-005	0,010006460773413122	2,7813765E-005	0,076159840115060685	-0,0028416260326870026	0,082800607534607706
1	1	0	0	0	0	2	119408,52	0,0100000007	2,77961874	2,7795671671215034E-005	0,010006244062421149	2,78135431E-005	0,07654898183952311	-0,0028561454336333085	0,083189749259070118
1	1	0	0	0	0	2	119548,52	0,0100000007	2,77954245	2,7795546634226211E-005	0,010006199015165619	2,78126554E-005	0,076938122310208525	-0,0028706647877995091	0,083578889729755533
1	1	0	0	0	0	2	119688,52	0,0100000007	2,77954245	2,7796140947637872E-005	0,010006412966444326	2,78132502E-005	0,077327264182910477	-0,0028851841942768307	0,083968031602457485
1	1	0	0	0	0	2	119828,53	0,0100000007	2,77965689	2,7796019864216861E-005	0,01000636940954124	2,78142743E-005	0,077716410798048243	-0,0028997037777008096	0,084357178217595251
1	1	0	0	0	0	2	119968,53	0,0100000007	2,77961874	2,779565540344144E-005	0,010006238168979466	2,78135267E-005	0,078105552221895565	-0,0029142231674307622	0,084746319641442586
1	1	0	0	0	0	2	120108,53	0,0100000007	2,77963781	2,7796071703183568E-005	0,010006388048732968	2,78141342E-005	0,078494697815996326	-0,0029287427127584781	0,085135465235543347
1	1	0	0	0	0	2	120248,53	0,0100000007	2,77958059	2,779591984400112E-005	0,010006333402975118	2,78134103E-005	0,078883841056542886	-0,0029432621702719213	0,085524608476089907
1	1	0	0	0	0	2	120388,54	0,0100000007	2,77965689	2,7796233081310573E-005	0,010006446128901965	2,78144871E-005	0,079272983351054758	-0,0029577815924875386	0,085913750770601779
1	1	0	0	0	0	2	120528,54	0,0100000007	2,77969527	2,7795675902886112E-005	0,010006245573707238	2,78143143E-005	0,079662124086988032	-0,0029723009565504928	0,08630289150653504
1	1	0	0	0	0	2	120668,54	0,0100000007	2,77975249	2,7796508222456192E-005	0,010006545215033206	2,78157186E-005	0,080051273693806515	-0,0029868206515981024	0,086692041113353536
1	1	0	0	0	0	2	120808,55	0,0100000007	2,77969527	2,7796419134311792E-005	0,010006513106542078	2,78150565E-005	0,080440421773656282	-0,0030013402896724544	0,08708118919320329
1	1	0	0	0	0	2	120948,55	0,0100000007	2,7796762	2,7796661249517155E-005	0,01000660030223039	2,78151092E-005	0,080829571166333005	-0,0030158599767301466	0,087470338585880026
1	1	0	0	0	0	2	121088,55	0,0100000007	2,7796762	2,7796274186267206E-005	0,010006460956680816	2,78147218E-005	0,081218717037949158	-0,0030303795324123341	0,087859484457496166
1	1	0	0	0	0	2	121228,55	0,0100000007	2,77958059	2,7796560488693002E-005	0,010006563993113525	2,78140506E-005	0,081607869597560512	-0,003044899337632615	0,088248637017107533
1	1	0	0	0	0	2	121368,56	0,0100000007	2,77959967	2,7797045416974771E-005	0,010006738601121789	2,78147272E-005	0,081997022869508326	-0,0030594191694311264	0,088637790289055347
1	1	0	0	0	0	2	121508,56	0,0100000007	2,77971435	2,7796213755073645E-005	0,010006439191630117	2,78150419E-005	0,082386178489791462	-0,0030739390888491866	0,08902694590933847
1	1	0	0	0	0	2	121648,56	0,0100000007	2,77973342	2,7796608315987718E-005	0,010006581210599314	2,78156276E-005	0,082775334649908173	-0,0030884590284091629	0,089416102069455194
1	1	0	0	0	0	2	121788,56	0,0100000007	2,77975249	2,7796447714376781E-005	0,010006523432555075	2,78156585E-005	0,083164484075061453	-0,003102978716678599	0,089805251494608474
1	1	0	0	0	0	2	121928,57	0,0100000007	2,77977157	2,7796601769773085E-005	0,010006578863910243	2,78160041E-005	0,083553634290004608	-0,0031174984344161568	0,090194401709551616
1	1	0	0	0	0	2	122068,57	0,0100000007	2,77988601	2,7796185169162022E-005	0,010006428880752912	2,78167317E-005	0,083942781087929178	-0,0031320180246601568	0,090583548507476186
1	1	0	0	0	0	2	122208,57	0,0100000007	2,77973342	2,7795888372024314E-005	0,010006322073520336	2,78149073E-005	0,084331926328637005	-0,0031465375568023066	0,090972693748184026
1	1	0	0	0	0	2	122348,58	0,0100000007	2,77979064	2,7796018020353379E-005	0,010006368708487613	2,78156094E-005	0,084721068509595392	-0,0031610569747810906	0,0913618359291424
1	1	0	0	0	0	2	122488,58	0,0100000007	2,77973342	2,7796405796530755E-005	0,010006508312505654	2,78154257E-005	0,08511021809619383	-0,0031755766690742624	0,091750985515740851
1	1	0	0	0	0	2	122628,58	0,0100000007	2,77982879	2,7797022021686038E-005	0,01000673017910077	2,78169973E-005	0,085499369129544474	-0,0031900964173477043	0,092140136549091494
1	1	0	0	0	0	2	122768,58	0,0100000007	2,77980971	2,7796430465196157E-005	0,010006517185696315	2,78162133E-005	0,08588851782341833	-0,003204616078332121	0,09252928524296535
1	1	0	0	0	0	2	122908,59	0,0100000007	2,77984786	2,7795794343731056E-005	0,010006288204084536	2,78159587E-005	0,086277659689149158	-0,0032191354845493414	0,092918427108696179
1	1	0	0	0	0	2	123048,59	0,0100000007	2,77973342	2,7796072616086653E-005	0,010006388399839088	2,78150928E-005	0,086666804571319974	-0,0032336550033139936	0,093307571990866995
1	1	0	0	0	0	2	123188,59	0,0100000007	2,77980971	2,7796226617104067E-005	0,01000644380171713	2,78160096E-005	0,087055952892089126	-0,0032481746503773722	0,093696720311636147
1	1	0	0	0	0	2	123328,59	0,0100000007	2,77979064	2,7796673904949181E-005	0,010006604850582288	2,78162661E-005	0,087445104076477683	-0,0032626944042862413	0,094085871496024691
1	1	0	0	0	0	2	123468,60	0,0100000007	2,77984786	2,7796607069722893E-005	0,010006580799346018	2,78167718E-005	0,087834255660355802	-0,0032772141731006029	0,09447502307990281
1	1	0	0	0	0	2	123608,60	0,0100000007	2,77959967	2,7795673162883357E-005	0,010006244562135706	2,78133539E-005	0,08822340169317824	-0,0032917337347976141	0,094864169112725261
1	1	0	0	0	0	2	123748,60	0,0100000007	2,77980971	2,7796062488522797E-005	0,010006384753871658	2,78158459E-005	0,088612550810901286	-0,0033062534115964141	0,095253318230448307
1	1	0	0	0	0	2	123888,61	0,0100000007	2,77973342	2,7795711608965779E-005	0,010006258430524915	2,78147309E-005	0,089001695328175795	-0,0033207729167462944	0,095642462747722816
1	1	0	0	0	0	2	124028,61	0,0100000007	2,7796762	2,7795561051772285E-005	0,01000620420293343	2,78140069E-005	0,089390833252771315	-0,0033352921759144576	0,096031600672318336
1	1	0	0	0	0	2	124168,61	0,0100000007	2,77959967	2,7796559854100147E-005	0,010006563802057722	2,78142415E-005	0,089779978550688422	-0,0033498117101911622	0,09642074597023543
1	1	0	0	0	0	2	124308,61	0,0100000007	2,77954245	2,7796643680892883E-005	0,010006593959070518	2,78137522E-005	0,090169126834371584	-0,0033643313558708134	0,096809894253918605
1	1	0	0	0	0	2	124448,62	0,0100000007	2,77904606	2,7796320589052304E-005	0,010006477630964411	2,78084626E-005	0,090558277507774451	-0,0033788510907141197	0,097199044927321472
1	1	0	0	0	0	2	124588,62	0,0100000007	2,77843499	2,7795680897051677E-005	0,010006247383773194	2,78017087E-005	0,090947421344253056	-0,0033933705704625888	0,097588188763800077
1	1	0	0	0	0	2	124728,62	0,0100000007	2,77845407	2,7795919107428442E-005	0,010006333107993587	2,78021362E-005	0,091336569800511309	-0,003407890222581248	0,097977337220058317
1	1	0	0	0	0	2	124868,63	0,0100000007	2,77853036	2,7796217667301085E-005	0,010006440579866298	2,78031985E-005	0,091725713106620173	-0,0034224096825409094	0,098366480526167181
1	1	0	0	0	0	2	125008,63	0,0100000007	2,77841592	2,7796435946546912E-005	0,010006519196220037	2,78022726E-005	0,092114860649788211	-0,0034369293005909459	0,098755628069335232
1	1	0	0	0	0	2	125148,63	0,0100000007	2,77828217	2,7796077228979104E-005	0,010006390023055094	2,78005755E-005	0,092504011758238336	-0,0034514490516664493	0,099144779177785344
1	1	0	0	0	0	2	125288,63	0,0100000007	2,77812934	2,7796415157253958E-005	0,010006511685080573	2,7799384E-005	0,092893162964391194	-0,0034659688063873741	0,099533930383938202
1	1	0	0	0	0	2	125428,64	0,0100000007	2,77807212	2,7795867250714864E-005	0,010006314469766218	2,77982635E-005	0,093282303344941632	-0,0034804881571905171	0,09992307076448864
1	1	0	0	0	0	2	125477,92	0,0100000007	2,77799582	2,5794513225193238E-005	0,010006278933205558	2,77974013E-005	0,093419281492540237	-0,0034855989960464998	0,10006004891208726