File: Experimentelles/Rohdaten/Batterietests/AlteZelle/150511_LLTO_LTO_Tests/ECLab-Export/LLTO_LP30_LTO_05_GCPL_C01_loop1.mpt
EC-Lab ASCII FILE
Nb header lines : 3
mode	ox/red	error	control changes	Ns changes	counter inc.	Ns	time/s	control/V/mA	Ewe/V	dq/mA.h	<I>/mA	P/W	(Q-Qo)/mA.h	x	Capacity/mA.h
1	0	0	1	1	0	1	48843,55	-0,0100000007	2,8181715	0	0	0	0	0	0
1	0	0	1	0	0	1	48983,55	-0,0100000007	2,51582265	-2,7756908201095133E-005	-0,0099924869337817894	2,51393249E-005	-0,00038845703158968986	1,4493854134645075E-005	0,00038845703158968986
1	0	0	1	0	0	1	49123,55	-0,0100000007	2,33654046	-2,7757249212099446E-005	-0,0099926096977431142	2,33481369E-005	-0,00077705784020072602	2,8993072783266835E-005	0,00077705784020072602
1	0	0	1	0	0	1	49263,55	-0,0100000007	2,1917057	-2,775642712579833E-005	-0,009992313746675264	2,19002104E-005	-0,0011656540292697699	4,3492119070565837E-005	0,0011656540292697699
1	0	0	1	0	0	1	49403,55	-0,0100000007	2,06524014	-2,775703713039143E-005	-0,0099925333483283725	2,06369805E-005	-0,0015542465526159597	5,7991028584816512E-005	0,0015542465526159597
1	0	0	1	0	0	1	49543,55	-0,0100000007	1,94977319	-2,7755341512927165E-005	-0,0099919229260423718	1,94819841E-005	-0,0019428302783515565	7,2489609848387482E-005	0,0019428302783515565
1	0	0	1	0	0	1	49683,55	-0,0100000007	1,84060764	-2,7756490281110422E-005	-0,009992336482587575	1,8391971E-005	-0,0023314116408159706	8,6988102935133146E-005	0,0023314116408159706
1	0	0	1	0	0	1	49823,55	-0,0100000007	1,73493636	-2,7755617569097213E-005	-0,0099920223062634048	1,7335522E-005	-0,002719996192740448	0,00010148671502492205	0,002719996192740448
1	0	0	1	0	0	1	49963,55	-0,0100000007	1,63102186	-2,7754742633240918E-005	-0,0099917073293557261	1,62966935E-005	-0,003108574106328672	0,00011598507942946002	0,003108574106328672
1	0	0	1	0	0	1	50103,55	-0,0100000007	1,52966619	-2,7756000398916918E-005	-0,0099921601249982426	1,52846696E-005	-0,0034971532769247341	0,00013048349073465048	0,0034971532769247341
1	0	0	1	0	0	1	50243,55	-0,0100000007	1,43205297	-2,7755034490384989E-005	-0,0099918123979273946	1,43088046E-005	-0,0038857299231411558	0,00014498180785184246	0,0038857299231411558
1	0	0	1	0	0	1	50383,55	-0,0100000007	1,33917534	-2,7755500085651875E-005	-0,0099919800122231629	1,33810136E-005	-0,0042743051063643654	0,00015948007038279072	0,0042743051063643654
1	0	0	1	0	0	1	50523,55	-0,0100000007	1,25067043	-2,7755799853294675E-005	-0,009992087928574368	1,24968092E-005	-0,0046628816515302682	0,000173978383729652	0,0046628816515302682
1	0	0	1	0	0	1	50663,55	-0,0100000007	1,16325402	-2,7755733389666096E-005	-0,0099920640016681254	1,16233086E-005	-0,0050514611912828326	0,00018847680880856794	0,0050514611912828326
1	0	0	1	0	0	1	50803,55	-0,0100000007	1,07532191	-2,7755453227243075E-005	-0,0099919631431960256	1,07445767E-005	-0,0054400351777156576	0,00020297502668565782	0,0054400351777156576
1	0	0	1	0	0	1	50943,55	-0,0100000007	0,987733543	-2,7757328529117837E-005	-0,0099926382518696806	9,87006388E-006	-0,0058286130268721382	0,00021747338868616083	0,0058286130268721382
1	0	0	1	0	0	1	51083,55	-0,0100000007	0,901080847	-2,7757249000792701E-005	-0,0099926096216726874	9,00414943E-006	-0,0062172145962036992	0,00023197263571828816	0,0062172145962036992
1	1	0	0	0	0	2	51205,32	0,0100000007	1,16324759	2,7795970625606259E-005	0,010006549406579603	1,16400943E-005	-0,0058885645582158707	0,00021971026092628666	0,00033355466941562995
1	1	0	0	0	0	2	51345,32	0,0100000007	1,36112809	2,7796200347132982E-005	0,010006632106329069	1,3620308E-005	-0,0054994143259783654	0,00020519054254345341	0,0007227049016531351
1	1	0	0	0	0	2	51485,32	0,0100000007	1,5255543	2,7796528186752563E-005	0,010006750128591899	1,52658413E-005	-0,0051102632477282106	0,00019067079259475072	0,0011118559799032907
1	1	0	0	0	0	2	51625,32	0,0100000007	1,67088568	2,7796535389342659E-005	0,010006752721524328	1,67201397E-005	-0,0047211133874099245	0,00017615108808872358	0,001501005840221575
1	1	0	0	0	0	2	51765,32	0,0100000007	1,8006165	2,7796320126391949E-005	0,010006675226862216	1,80181851E-005	-0,0043319620519420288	0,00016163132854288115	0,0018901571756894701
1	1	0	0	0	0	2	51905,32	0,0100000007	1,9172864	2,7796685524388323E-005	0,010006806770140664	1,91859144E-005	-0,003942810671810231	0,00014711156733056851	0,0022793085558212672
1	1	0	0	0	0	2	52045,32	0,0100000007	2,02190733	2,7796098920361446E-005	0,010006595592691384	2,02324081E-005	-0,0035536602167498675	0,00013259184063391482	0,0026684590108816307
1	1	0	0	0	0	2	52185,32	0,0100000007	2,11501408	2,7796154618677165E-005	0,010006615644085006	2,11641327E-005	-0,0031645149796142182	0,00011807230862504781	0,00305760424801728
1	1	0	0	0	0	2	52325,32	0,0100000007	2,19767594	2,7795649431594131E-005	0,010006433776735453	2,19908979E-005	-0,0027753736992576304	0,00010355292424892752	0,0034467455283738675
1	1	0	0	0	0	2	52465,32	0,0100000007	2,27018571	2,7796453293464662E-005	0,010006723167008304	2,27171204E-005	-0,0023862220579573206	8,9033153292066522E-005	0,0038358971696741773
1	1	0	0	0	0	2	52605,32	0,0100000007	2,3341918	2,7797176430674474E-005	0,01000698349640335	2,33582196E-005	-0,0019970672887645613	7,4513265629332749E-005	0,0042250519388669376
1	1	0	0	0	0	2	52745,32	0,0100000007	2,3901782	2,7796641454462787E-005	0,010006790904967504	2,39180135E-005	-0,0016079112810766381	5,9993331756679232E-005	0,0046142079465548602
1	1	0	0	0	0	2	52885,32	0,0100000007	2,43906116	2,7796692555511578E-005	0,010006809301345034	2,44072198E-005	-0,0012187565811512016	4,5473446678402394E-005	0,0050033626464802963
1	1	0	0	0	0	2	53025,32	0,0100000007	2,48131824	2,7797222264473222E-005	0,01000699999657087	2,48305514E-005	-0,00082960192380666086	3,0953563188876032E-005	0,0053925173038248371
1	1	0	0	0	0	2	53165,32	0,0100000007	2,51796126	2,7796497927616454E-005	0,01000673923530292	2,51965812E-005	-0,00044044783051111802	1,6433700744776154E-005	0,0057816713971203802
1	1	0	0	0	0	2	53305,32	0,0100000007	2,5496397	2,7797207213524317E-005	0,010006994578229274	2,55142313E-005	-5,1291724938139418E-005	1,9137632198996112E-006	0,0061708275026933606
1	1	0	0	0	0	2	53445,32	0,0100000007	2,57727003	2,7796500153166966E-005	0,010006740036501102	2,5790072E-005	0,00033786003840744115	-1,2606012290634525E-005	0,0065599792660389414
1	1	0	0	0	0	2	53585,32	0,0100000007	2,60134864	2,779666361093728E-005	0,010006798881298307	2,60311735E-005	0,00072701266258104832	-2,7125819919819731E-005	0,0069491318902125491
1	1	0	0	0	0	2	53725,32	0,0100000007	2,6225059	2,7796353421432694E-005	0,010006687213076861	2,62425965E-005	0,0011161680159289744	-4,1645729378168179E-005	0,0073382872435604749
1	1	0	0	0	0	2	53865,32	0,0100000007	2,64089441	2,7796728961738861E-005	0,010006822407586832	2,6426962E-005	0,0015053203637633411	-5,6165526696764781E-005	0,0077274395913948429
1	1	0	0	0	0	2	54005,32	0,0100000007	2,65702939	2,7796986500939562E-005	0,010006915121698909	2,65886683E-005	0,0018944819197843411	-7,0685667585185216E-005	0,0081166011474158426
1	1	0	0	0	0	2	54145,32	0,0100000007	2,67121696	2,7796980818319648E-005	0,010006913075955747	2,67306368E-005	0,0022836394180343325	-8,5205657072713574E-005	0,0085057586456658342
1	1	0	0	0	0	2	54285,32	0,0100000007	2,68343782	2,7797519041380534E-005	0,010007106836257302	2,68534495E-005	0,0026728006182466474	-9,9725784685433574E-005	0,0088949198458781504
1	1	0	0	0	0	2	54425,32	0,0100000007	2,69409275	2,7796840511003715E-005	0,010006862565322102	2,69594166E-005	0,0030619595712350733	-0,00011424582845120883	0,0092840787988665728
1	1	0	0	0	0	2	54565,32	0,0100000007	2,70344925	2,7797232310856794E-005	0,01000700361326895	2,70534256E-005	0,0034511167088950208	-0,00012876580448463784	0,0096732359365265178
1	1	0	0	0	0	2	54705,32	0,0100000007	2,71167922	2,7797053943646864E-005	0,010006939401073494	2,71356093E-005	0,0038402770330725702	-0,00014328589941132291	0,010062396260704069
1	1	0	0	0	0	2	54845,32	0,0100000007	2,71885872	2,7796919107385395E-005	0,010006890860019456	2,7207323E-005	0,0042294355966032134	-0,00015780592864590464	0,010451554824234712
1	1	0	0	0	0	2	54985,32	0,0100000007	2,72523642	2,7797216438740077E-005	0,010006997899306941	2,72714351E-005	0,0046185935067273018	-0,00017232593350100934	0,010840712734358797
1	1	0	0	0	0	2	55125,32	0,0100000007	2,73086953	2,7797185870922275E-005	0,010006986894892554	2,73277765E-005	0,005007752720149943	-0,00018684598698393539	0,011229871947781438
1	1	0	0	0	0	2	55265,32	0,0100000007	2,73600602	2,779724446249505E-005	0,010007007987858714	2,73792339E-005	0,0053969088637509421	-0,00020136592592768848	0,011619028091382442
1	1	0	0	0	0	2	55405,32	0,0100000007	2,74056983	2,7796665239561763E-005	0,010006799467603118	2,74243321E-005	0,0057860683584397786	-0,0002158859899050344	0,012008187586071278
1	1	0	0	0	0	2	55545,32	0,0100000007	2,74454141	2,7797127590928637E-005	0,010006965914094883	2,74645317E-005	0,0061752247030063245	-0,0002304059363470823	0,012397343930637827
1	1	0	0	0	0	2	55685,32	0,0100000007	2,74815035	2,7797049162495466E-005	0,010006937679858994	2,75005696E-005	0,006564381339250839	-0,0002449258936720273	0,012786500566882339
1	1	0	0	0	0	2	55825,32	0,0100000007	2,75153017	2,7797590006194595E-005	0,010007132383590318	2,75349266E-005	0,0069535429651237747	-0,00025944603716671738	0,013175662192755277
1	1	0	0	0	0	2	55965,32	0,0100000007	2,75454712	2,7797186081297696E-005	0,010006986970627706	2,7564718E-005	0,0073426988943610675	-0,00027396596811227242	0,013564818121992571
1	1	0	0	0	0	2	56105,32	0,0100000007	2,75735402	2,7797388558689917E-005	0,010007059862488768	2,7593007E-005	0,0077318633369846707	-0,00028848621670371699	0,013953982564616174
1	1	0	0	0	0	2	56245,32	0,0100000007	2,75968361	2,7797706738114355E-005	0,010007174407081354	2,76166356E-005	0,0081210295332084864	-0,0003030065307243433	0,01434314876083999
1	1	0	0	0	0	2	56385,32	0,0100000007	2,76203227	2,7797205585417235E-005	0,010006993992110725	2,76396404E-005	0,0085101896184428134	-0,00031752661673573549	0,014732308846074317
1	1	0	0	0	0	2	56525,32	0,0100000007	2,76417112	2,7796777097353094E-005	0,01000683973640792	2,7660617E-005	0,0088993467507335834	-0,00033204659256883328	0,015121465978365088
1	1	0	0	0	0	2	56665,32	0,0100000007	2,76608062	2,7797674654569062E-005	0,010007162857005069	2,76806186E-005	0,0092885081775014464	-0,00034656672863464538	0,01551062740513295
1	1	0	0	0	0	2	56805,32	0,0100000007	2,76785636	2,779749830144768E-005	0,01000709936988149	2,76982137E-005	0,0096776708198630963	-0,00036108691005589606	0,015899790047494598
1	1	0	0	0	0	2	56945,32	0,0100000007	2,76951766	2,7797648638383382E-005	0,010007153491178242	2,77149884E-005	0,01006682876515543	-0,00037560691622317523	0,016288947992786925
1	1	0	0	0	0	2	57085,32	0,0100000007	2,77104521	2,7797247258118458E-005	0,010007008994283139	2,7729875E-005	0,010455990422454861	-0,00039012706089043008	0,016678109650086355
1	1	0	0	0	0	2	57225,32	0,0100000007	2,77247739	2,779746492522665E-005	0,010007087354441941	2,77444233E-005	0,010845153238564722	-0,00040464724879446016	0,017067272466196211
1	1	0	0	0	0	2	57365,32	0,0100000007	2,77381396	2,7796829931024048E-005	0,01000685875652943	2,77571653E-005	0,01123431166525329	-0,00041916727292328	0,01745643089288479
1	1	0	0	0	0	2	57505,32	0,0100000007	2,77507424	2,7797574102412909E-005	0,01000712665822892	2,77705203E-005	0,011623473422184418	-0,00043368742130792755	0,01784559264981592
1	1	0	0	0	0	2	57645,32	0,0100000007	2,77621984	2,7797434042000938E-005	0,010007076236480706	2,77818435E-005	0,012012632581500429	-0,00044820747277206246	0,018234751809131923
1	1	0	0	0	0	2	57785,32	0,0100000007	2,77730823	2,7797292318350323E-005	0,010007025215966579	2,77925938E-005	0,012401796195526595	-0,00046272769044742253	0,018623915423158086
1	1	0	0	0	0	2	57925,32	0,0100000007	2,77837753	2,7797670796875738E-005	0,010007161468235475	2,78036732E-005	0,012790960856418786	-0,00047724794718276166	0,019013080084050272
1	1	0	0	0	0	2	58065,32	0,0100000007	2,7793324	2,7797418703635536E-005	0,010007070714669171	2,78129755E-005	0,013180123663838627	-0,00049176813476255533	0,019402242891470115
1	1	0	0	0	0	2	58205,32	0,0100000007	2,78022981	2,7797406589457146E-005	0,010007066353564958	2,7821945E-005	0,013569286752899733	-0,00050628833285076339	0,019791405980531213
1	1	0	0	0	0	2	58345,32	0,0100000007	2,78110814	2,779708669629569E-005	0,01000695119202705	2,78304142E-005	0,013958450122939562	-0,00052080854142266528	0,020180569350571046
1	1	0	0	0	0	2	58485,32	0,0100000007	2,78181481	2,7796816577617494E-005	0,01000685394930308	2,78372154E-005	0,014347611054144886	-0,00053532865899837274	0,020569730281776378
1	1	0	0	0	0	2	58625,32	0,0100000007	2,7824831	2,7796833004543766E-005	0,010006859862996526	2,78439184E-005	0,01473677027432169	-0,00054984871273330566	0,020958889501953171
1	1	0	0	0	0	2	58765,32	0,0100000007	2,78318954	2,7797287654752531E-005	0,010007023537071376	2,78514435E-005	0,015125926614234106	-0,00056436865900170163	0,02134804584186559
1	1	0	0	0	0	2	58905,32	0,0100000007	2,78389597	2,7796775543027456E-005	0,010006839176850691	2,78579992E-005	0,015515091226054186	-0,00057888891390609434	0,021737210453685664
1	1	0	0	0	0	2	59045,32	0,0100000007	2,78465986	2,7797156854687882E-005	0,010006976449048189	2,78660264E-005	0,015904250825509514	-0,00059340898179241882	0,022126370053140995
1	1	0	0	0	0	2	59185,32	0,0100000007	2,78509903	2,7797139670855053E-005	0,010006970262868386	2,78704028E-005	0,016293409093947392	-0,00060792900001669286	0,022515528321578874
1	1	0	0	0	0	2	59325,32	0,0100000007	2,78567195	2,7796124053705069E-005	0,01000660464069507	2,78751177E-005	0,016682564035347958	-0,00062244889410473152	0,02290468326297944
1	1	0	0	0	0	2	59465,32	0,0100000007	2,78613019	2,779623401728976E-005	0,010006644227585488	2,78798143E-005	0,017071716055500877	-0,00063696867919709261	0,023293835283132355
1	1	0	0	0	0	2	59605,32	0,0100000007	2,78672218	2,7796861919263997E-005	0,010006870272295792	2,78863681E-005	0,017460870111174611	-0,00065148854023747226	0,023682989338806093
1	1	0	0	0	0	2	59745,32	0,0100000007	2,78700852	2,7797104685360362E-005	0,010006957668090318	2,78894768E-005	0,017850025489665037	-0,00066600845063392115	0,024072144717296518
1	1	0	0	0	0	2	59885,32	0,0100000007	2,78761959	2,7797062169346547E-005	0,010006942362325374	2,78955486E-005	0,018239181782284422	-0,00068052839513775066	0,024461301009915904
1	1	0	0	0	0	2	60025,32	0,0100000007	2,78796315	2,7796580587720704E-005	0,010006768992940394	2,78985026E-005	0,018628343717955709	-0,00069504855019143373	0,024850462945587187
1	1	0	0	0	0	2	60165,32	0,0100000007	2,78821158	2,7796977136491075E-005	0,010006911750497462	2,79013875E-005	0,019017498122775648	-0,00070956842425892774	0,02523961735040713
1	1	0	0	0	0	2	60305,32	0,0100000007	2,78876519	2,7796208979096262E-005	0,010006635213835845	2,79061551E-005	0,01940665186167936	-0,00072408827348019187	0,025628771089310842
1	1	0	0	0	0	2	60445,32	0,0100000007	2,78907084	2,7796627033294902E-005	0,010006785713347074	2,79096348E-005	0,019795797345748362	-0,00073860781470247424	0,026017916573379843
1	1	0	0	0	0	2	60585,32	0,0100000007	2,78939533	2,7796615020216755E-005	0,010006781388638947	2,7912869E-005	0,020184950263396253	-0,00075312763328157965	0,026407069491027734
1	1	0	0	0	0	2	60725,32	0,0100000007	2,78979635	2,7797624109830291E-005	0,010007144660899146	2,79178948E-005	0,020574107649069981	-0,00076764761856873613	0,026796226876701462
1	1	0	0	0	0	2	60865,32	0,0100000007	2,79002547	2,7796938124319747E-005	0,01000689770611581	2,79194992E-005	0,020963265295836176	-0,00078216761359760384	0,027185384523467658
1	1	0	0	0	0	2	61005,32	0,0100000007	2,79040742	2,779699678413777E-005	0,010006918823650259	2,79233809E-005	0,02135242281158023	-0,0007966876037378592	0,027574542039211712
1	1	0	0	0	0	2	61145,32	0,0100000007	2,79067469	2,7796611417291894E-005	0,010006780091586	2,79256674E-005	0,021741579069638912	-0,0008112075469521824	0,027963698297270394
1	1	0	0	0	0	2	61285,32	0,0100000007	2,79088473	2,7796621349588448E-005	0,010006783667212754	2,79277792E-005	0,022130734070419574	-0,00082572744325577216	0,028352853298051056
1	1	0	0	0	0	2	61425,32	0,0100000007	2,791152	2,7796114179616173E-005	0,010006601086023075	2,79299438E-005	0,022519884921856979	-0,00084024718474178624	0,028742004149488461
1	1	0	0	0	0	2	61565,32	0,0100000007	2,79143858	2,7796433900172509E-005	0,010006716185423142	2,79331343E-005	0,022909034013408419	-0,00085476686056408858	0,029131153241039898
1	1	0	0	0	0	2	61705,32	0,0100000007	2,79172492	2,7796129383146765E-005	0,010006606559294077	2,79356937E-005	0,023298180024755107	-0,00086928642145981043	0,029520299252386586
1	1	0	0	0	0	2	61845,32	0,0100000007	2,79187775	2,7795836327442282E-005	0,010006501059240661	2,79369269E-005	0,023687321962702317	-0,00088380583037152115	0,029909441190333798
1	1	0	0	0	0	2	61985,32	0,0100000007	2,79214501	2,779652125890263E-005	0,010006747634565928	2,79402902E-005	0,024076466914021437	-0,00089832535171618906	0,030298586141652915
1	1	0	0	0	0	2	62125,32	0,0100000007	2,79224062	2,7796336454804986E-005	0,010006681105090899	2,79410615E-005	0,024465615020329066	-0,00091284499077772019	0,030687734247960544
1	1	0	0	0	0	2	62265,32	0,0100000007	2,79241228	2,7795902556688003E-005	0,010006524901769077	2,79423439E-005	0,024854756859218682	-0,00092736439599345882	0,031076876086850163
1	1	0	0	0	0	2	62405,32	0,0100000007	2,79273701	2,7796044665906163E-005	0,010006576061087518	2,79457345E-005	0,025243901863264157	-0,00094188391930541811	0,031466021090895629
1	1	0	0	0	0	2	62545,32	0,0100000007	2,7928133	2,7796069196477117E-005	0,010006584892093046	2,79465239E-005	0,025633046236693526	-0,00095640341908824243	0,031855165464324992
1	1	0	0	0	0	2	62685,32	0,0100000007	2,79308081	2,7795884632246778E-005	0,010006518448970248	2,79490141E-005	0,026022189800475075	-0,00097092288866201818	0,032244309028106554
1	1	0	0	0	0	2	62825,32	0,0100000007	2,79302335	2,7796847785719568E-005	0,010006865184219806	2,79494088E-005	0,02641133858000153	-0,0009854425528422487	0,032633457807633018
1	1	0	0	0	0	2	62965,32	0,0100000007	2,79309988	2,779597008911272E-005	0,01000654921344193	2,79492906E-005	0,026800484177386614	-0,00099996209829250675	0,033022603405018112
1	1	0	0	0	0	2	63105,32	0,0100000007	2,7931571	2,7795455818116253E-005	0,010006364075883546	2,7949347E-005	0,027189631592566784	-0,0010144817115671432	0,033411750820198278
1	1	0	0	0	0	2	63245,32	0,0100000007	2,79342437	2,7796097540865754E-005	0,010006595096072936	2,79526666E-005	0,027578773766078118	-0,001029001129268068	0,033800892993709613
1	1	0	0	0	0	2	63385,32	0,0100000007	2,79365349	2,779614549363032E-005	0,010006612359068146	2,79550077E-005	0,027967916598000474	-0,0010435205715351931	0,034190035825631962
1	1	0	0	0	0	2	63525,32	0,0100000007	2,79382539	2,7796184768072435E-005	0,010006626497867282	2,79567666E-005	0,028357063777818413	-0,0010580401760281483	0,034579183005449888
1	1	0	0	0	0	2	63665,32	0,0100000007	2,79399729	2,7796803427290998E-005	0,01000684921518555	2,79591095E-005	0,02874621509205495	-0,0010725599347818202	0,034968334319686426
1	1	0	0	0	0	2	63805,32	0,0100000007	2,79418826	2,7796259866147818E-005	0,010006653533174371	2,79604737E-005	0,02913536750920967	-0,0010870797346868525	0,035357486736841146
1	1	0	0	0	0	2	63945,32	0,0100000007	2,79451275	2,7796761158388109E-005	0,010006833998380539	2,79642245E-005	0,029524516802846573	-0,0011015994180492352	0,035746636030478048
1	1	0	0	0	0	2	64085,32	0,0100000007	2,7947228	2,7796348966037232E-005	0,010006685609134499	2,79659125E-005	0,029913670395800083	-0,0011161192618249013	0,036135789623431558
1	1	0	0	0	0	2	64225,32	0,0100000007	2,79500937	2,7797017115944374E-005	0,010006926143100622	2,79694523E-005	0,030302826627986112	-0,0011306392040738806	0,036524945855617574
1	1	0	0	0	0	2	64365,32	0,0100000007	2,79525757	2,7796292267894995E-005	0,010006665197803331	2,79712058E-005	0,03069197960641433	-0,0011451590249207818	0,036914098834045798
1	1	0	0	0	0	2	64505,32	0,0100000007	2,79550576	2,7797555545551907E-005	0,010007119977758974	2,7974962E-005	0,031081143344756749	-0,0011596792472345485	0,037303262572388218
1	1	0	0	0	0	2	64645,32	0,0100000007	2,79573488	2,7796964558410563E-005	0,010006907222388485	2,79766591E-005	0,031470307410098464	-0,0011741994817490987	0,037692426637729946
1	1	0	0	0	0	2	64785,32	0,0100000007	2,795964	2,7796333624774381E-005	0,010006680086279883	2,7978318E-005	0,031859462009289478	-0,0011887193630688389	0,03808158123692096
1	1	0	0	0	0	2	64925,32	0,0100000007	2,79615498	2,7796273152499152E-005	0,01000665831626084	2,79801679E-005	0,03224860715788169	-0,0012032388917740314	0,038470726385513171
1	1	0	0	0	0	2	65065,32	0,0100000007	2,79634595	2,7796464043255482E-005	0,010006727036932992	2,79822707E-005	0,032637755552604243	-0,0012177585415967112	0,038859874780235725
1	1	0	0	0	0	2	65205,32	0,0100000007	2,796556	2,7796426393557341E-005	0,010006713483041686	2,79843352E-005	0,033026905994338637	-0,0012322782677961546	0,039249025221970118
1	1	0	0	0	0	2	65345,32	0,0100000007	2,79684234	2,7797048072848054E-005	0,010006937287585926	2,79878259E-005	0,033416060292608288	-0,0012467981378881142	0,03963817952023977
1	1	0	0	0	0	2	65485,32	0,0100000007	2,79709053	2,7796367408552518E-005	0,01000669224843999	2,79896249E-005	0,033805216009037037	-0,001261318060893496	0,040027335236668518
1	1	0	0	0	0	2	65625,32	0,0100000007	2,79731989	2,7797047124244272E-005	0,010006739194408725	2,79920514E-005	0,034194371764852448	-0,0012758379853684477	0,04041649099248393
1	1	0	0	0	0	2	65765,33	0,0100000007	2,79747248	2,779747508160977E-005	0,010006893277333741	2,79940086E-005	0,03458353256402144	-0,0012903580980177021	0,040805651791652922
1	1	0	0	0	0	2	65905,33	0,0100000007	2,79768252	2,779750646211E-005	0,010006904536812694	2,79961423E-005	0,034972697557326784	-0,001304878367155823	0,041194816784958266
1	1	0	0	0	0	2	66045,33	0,0100000007	2,79794979	2,7797674123818675E-005	0,010006964920046014	2,79989854E-005	0,035361856617221997	-0,0013193984149104342	0,041583975844853478
1	1	0	0	0	0	2	66185,34	0,0100000007	2,79810262	2,7796951128687296E-005	0,010006704658009067	2,79997857E-005	0,035751014299318848	-0,001333918411257536	0,041973133526950323
1	1	0	0	0	0	2	66325,34	0,0100000007	2,79831266	2,7796649914545322E-005	0,010006596185784061	2,80015847E-005	0,03614017194989479	-0,0013484384064285504	0,042362291177526272
1	1	0	0	0	0	2	66465,34	0,0100000007	2,79836988	2,7796308008281309E-005	0,010006473138422669	2,80018139E-005	0,036529325901691142	-0,0013629582635931251	0,042751445129322624
1	1	0	0	0	0	2	66605,34	0,0100000007	2,7987709	2,7796288963614237E-005	0,010006466275852738	2,80058066E-005	0,036918478573886381	-0,0013774780730140621	0,043140597801517862
1	1	0	0	0	0	2	66745,35	0,0100000007	2,7987709	2,7796849882799306E-005	0,010006668173049139	2,80063723E-005	0,037307634623529395	-0,0013919980084521165	0,043529753851160877
1	1	0	0	0	0	2	66885,35	0,0100000007	2,79890466	2,7797409590799363E-005	0,01000686970122439	2,8008275E-005	0,037696794181758957	-0,0014065180748002522	0,043918913409390432
1	1	0	0	0	0	2	67025,35	0,0100000007	2,79900002	2,7797208249982858E-005	0,010006797202139494	2,80090262E-005	0,038085958698305875	-0,0014210383261498752	0,044308077925937357
1	1	0	0	0	0	2	67165,35	0,0100000007	2,79922938	2,7797573044068285E-005	0,010006928505960414	2,80116892E-005	0,03847512546259961	-0,0014355586613659541	0,044697244690231091
1	1	0	0	0	0	2	67305,36	0,0100000007	2,79940104	2,779742531405969E-005	0,010006875361486253	2,80132572E-005	0,038864285886730534	-0,0014500787600220339	0,045086405114362016
1	1	0	0	0	0	2	67445,36	0,0100000007	2,79947758	2,7797186438925562E-005	0,010006789340062744	2,80137829E-005	0,039253446141877146	-0,0014645988523730819	0,045475565369508627
1	1	0	0	0	0	2	67585,36	0,0100000007	2,79976392	2,7796436339409814E-005	0,010006519300371434	2,80158911E-005	0,03964259622034103	-0,0014791185650184147	0,045864715447972512
1	1	0	0	0	0	2	67725,37	0,0100000007	2,7998786	2,7796141129400995E-005	0,010006413064028355	2,80167424E-005	0,040031745755009901	-0,0014936382573740243	0,046253864982641382
1	1	0	0	0	0	2	67865,37	0,0100000007	2,79989767	2,7797084766802272E-005	0,010006752729502429	2,80178829E-005	0,04042090100145104	-0,0015081581628435366	0,046643020229082522
1	1	0	0	0	0	2	68005,37	0,0100000007	2,80016494	2,7797856074240474E-005	0,01000703040273019	2,80213353E-005	0,040810067844371802	-0,0015226785009932954	0,047032187072003283
1	1	0	0	0	0	2	68145,37	0,0100000007	2,80037498	2,7798693045456374E-005	0,010007331735653888	2,80242821E-005	0,041199242674189792	-0,0015371991371449286	0,047421361901821274
1	1	0	0	0	0	2	68285,38	0,0100000007	2,80050874	2,7799072836370515E-005	0,010007468420401149	2,80260028E-005	0,041588425799682342	-0,0015517200828193325	0,047810545027313818
1	1	0	0	0	0	2	68425,38	0,0100000007	2,8006804	2,7799996751774515E-005	0,01000780104166369	2,80286531E-005	0,041977615879466573	-0,0015662412879677101	0,048199735107098054
1	1	0	0	0	0	2	68565,38	0,0100000007	2,80089045	2,7799001758659469E-005	0,010007442870210806	2,80297518E-005	0,042366807159138381	-0,0015807625378855059	0,048588926386769862
1	1	0	0	0	0	2	68705,39	0,0100000007	2,80098605	2,7798837807702109E-005	0,010007383811869334	2,8030543E-005	0,042755995571044384	-0,0015952836808031037	0,048978114798675866
1	1	0	0	0	0	2	68845,39	0,0100000007	2,8011961	2,7799532541591258E-005	0,010007633940018614	2,80333443E-005	0,043145185331537101	-0,0016098048740382854	0,049367304559168582
1	1	0	0	0	0	2	68985,39	0,0100000007	2,80138707	2,7799243296134387E-005	0,010007529821998037	2,8034965E-005	0,0435343754266376	-0,0016243260797581331	0,049756494654269082
1	1	0	0	0	0	2	69125,39	0,0100000007	2,80152059	2,7798947584763584E-005	0,010007423330830363	2,80360018E-005	0,043923555788804499	-0,0016388469223291421	0,050145675016435981
1	1	0	0	0	0	2	69265,40	0,0100000007	2,80169249	2,7798284280889981E-005	0,010007184583434445	2,80370532E-005	0,044312739126620704	-0,0016533678759256275	0,050534858354252186
1	1	0	0	0	0	2	69405,40	0,0100000007	2,80188346	2,779857578356233E-005	0,010007289511954424	2,80392596E-005	0,044701919097193773	-0,0016678887038857443	0,050924038324825254
1	1	0	0	0	0	2	69545,40	0,0100000007	2,80213165	2,7798635192422403E-005	0,010007310871810323	2,80418026E-005	0,045091104384891494	-0,0016824097302349309	0,051313223612522976
1	1	0	0	0	0	2	69685,40	0,0100000007	2,80215073	2,779925453559392E-005	0,010007533868108949	2,80426175E-005	0,045480290420782266	-0,0016969307845002061	0,051702409648413747
1	1	0	0	0	0	2	69825,41	0,0100000007	2,80215073	2,7799748654891219E-005	0,010007711727036304	2,80431159E-005	0,045869479072109926	-0,0017114519363509482	0,052091598299741408
1	1	0	0	0	0	2	69965,41	0,0100000007	2,80241823	2,7799314741821341E-005	0,010007555504758698	2,80453569E-005	0,046258669700814733	-0,0017259731619802899	0,052480788928446214
1	1	0	0	0	0	2	70105,41	0,0100000007	2,80220819	2,779931234294135E-005	0,010007554678342778	2,80432523E-005	0,046647861300002438	-0,0017404944238196538	0,05286998052763392
1	1	0	0	0	0	2	70245,42	0,0100000007	2,8023417	2,7799179606036179E-005	0,010007506863245104	2,80444547E-005	0,047037050591775014	-0,0017550155995662563	0,053259169819406496
1	1	0	0	0	0	2	70385,42	0,0100000007	2,80239892	2,7799731676104586E-005	0,010007705598600035	2,80455843E-005	0,04742624339852944	-0,0017695369064615578	0,053648362626160922
1	1	0	0	0	0	2	70525,42	0,0100000007	2,80253267	2,7799407409917974E-005	0,010007588901778056	2,80465956E-005	0,047815433816583898	-0,0017840581242312518	0,054037553044215379
1	1	0	0	0	0	2	70665,42	0,0100000007	2,80264735	2,779930814448744E-005	0,010007553129648936	2,80476415E-005	0,048204624589302074	-0,0017985793552339264	0,054426743816933555
1	1	0	0	0	0	2	70805,43	0,0100000007	2,80255175	2,7799793146395434E-005	0,010007727737719622	2,80471741E-005	0,048593820486214496	-0,0018131007774271776	0,054815939713845978
1	1	0	0	0	0	2	70945,43	0,0100000007	2,80260897	2,7799916456091322E-005	0,01000777215477909	2,80478725E-005	0,048983023896332237	-0,0018276224799482208	0,055205143123963718
1	1	0	0	0	0	2	71085,43	0,0100000007	2,80278087	2,7800350522312022E-005	0,010007928378365387	2,80500299E-005	0,049372223360048435	-0,0018421440352237165	0,055594342587679917
1	1	0	0	0	0	2	71225,43	0,0100000007	2,80283809	2,7799926559958192E-005	0,010007775776371307	2,80501754E-005	0,049761422474565498	-0,0018566655774701229	0,055983541702196979
1	1	0	0	0	0	2	71365,44	0,0100000007	2,80295277	2,7799585472533686E-005	0,01000765300306753	2,80509794E-005	0,050150617092840512	-0,0018711869519556934	0,056372736320471994
1	1	0	0	0	0	2	71505,44	0,0100000007	2,80289555	2,7799019997680768E-005	0,010007449398965306	2,80498352E-005	0,050539805357291098	-0,0018857080893715318	0,056761924584922579
1	1	0	0	0	0	2	71645,44	0,0100000007	2,8028574	2,779918952524248E-005	0,010007510458903392	2,80496242E-005	0,050928994038068128	-0,0019002292423210694	0,05715111326569961
1	1	0	0	0	0	2	71785,45	0,0100000007	2,80302906	2,7799020464945997E-005	0,010007449602010885	2,80511722E-005	0,051318181955187008	-0,0019147503667774944	0,05754030118281849
1	1	0	0	0	0	2	71925,45	0,0100000007	2,80306745	2,7799238097905699E-005	0,010007527913494418	2,80517761E-005	0,05170737114941536	-0,001929271538884591	0,057929490377046835
1	1	0	0	0	0	2	72065,45	0,0100000007	2,80304813	2,7798762526880534E-005	0,010007356748472293	2,80511031E-005	0,052096557729659238	-0,0019437926134604125	0,058318676957290714
1	1	0	0	0	0	2	72205,45	0,0100000007	2,80320096	2,7798279502636029E-005	0,010007182850191146	2,80521454E-005	0,052485740701803693	-0,0019583135534131936	0,058707859929435174
1	1	0	0	0	0	2	72345,46	0,0100000007	2,80337286	2,7798367932645811E-005	0,0100072146601924	2,80539534E-005	0,052874915504335949	-0,001972834188546759	0,059097034731967437
1	1	0	0	0	0	2	72485,46	0,0100000007	2,80236077	2,7798957825483133E-005	0,010007427054579869	2,80444219E-005	0,053264092915858816	-0,001987354921025272	0,059486212143490304
1	1	0	0	0	0	2	72625,46	0,0100000007	2,80062318	2,7797910315502019E-005	0,010007049935139666	2,80259756E-005	0,053653271054800237	-0,0020018756806447491	0,059875390282431718
1	1	0	0	0	0	2	72765,47	0,0100000007	2,80048943	2,7798389735942083E-005	0,010007222509223922	2,80251206E-005	0,054042449920145434	-0,0020163964673673277	0,060264569147776909
1	1	0	0	0	0	2	72905,47	0,0100000007	2,80045128	2,7798354466652707E-005	0,010007209849693226	2,80247041E-005	0,05443163135025056	-0,0020309173497845482	0,060653750577882035
1	1	0	0	0	0	2	73045,47	0,0100000007	2,80048943	2,7798826606478541E-005	0,010007379783120019	2,80255608E-005	0,054820816598691059	-0,0020454383746689949	0,061042935826322534
1	1	0	0	0	0	2	73185,47	0,0100000007	2,80073786	2,7799356211649459E-005	0,010007570436863781	2,80285822E-005	0,055210005081325216	-0,0020599595202255555	0,061432124308956698
1	1	0	0	0	0	2	73325,48	0,0100000007	2,80087137	2,7800299315558125E-005	0,01000790998147803	2,80308686E-005	0,055599200998379232	-0,0020744809431703168	0,061821320226010714
1	1	0	0	0	0	2	73465,48	0,0100000007	2,80096698	2,7799620737735597E-005	0,010007665661110557	2,80311415E-005	0,055988395544786381	-0,0020890023149744003	0,062210514772417856
1	1	0	0	0	0	2	73605,48	0,0100000007	2,80100513	2,7799460292535107E-005	0,010007607915494192	2,80313616E-005	0,056377590322179533	-0,0021035236953968822	0,062599709549811008
1	1	0	0	0	0	2	73745,48	0,0100000007	2,80125332	2,7799387341106518E-005	0,010007581677381702	2,80337717E-005	0,056766779087136467	-0,0021180448514872851	0,062988898314767949
1	1	0	0	0	0	2	73885,49	0,0100000007	2,80146337	2,7799677920372538E-005	0,010007686246452982	2,80361655E-005	0,057155966451628973	-0,0021325659553244774	0,06337808567926048
1	1	0	0	0	0	2	74025,49	0,0100000007	2,80167341	2,7798592678426454E-005	0,010007295590839866	2,80371733E-005	0,057545151466877997	-0,0021470869715082365	0,063767270694509504
1	1	0	0	0	0	2	74165,49	0,0100000007	2,80180717	2,7798782437004976E-005	0,01000736391597545	2,8038703E-005	0,057934330107883213	-0,0021616077498603894	0,064156449335514688
1	1	0	0	0	0	2	74305,50	0,0100000007	2,80211258	2,7798708846637357E-005	0,01000733738680363	2,80416862E-005	0,058323510052111181	-0,0021761285768375347	0,064545629279742656
1	1	0	0	0	0	2	74445,50	0,0100000007	2,80220819	2,7798395249475206E-005	0,010007224527957277	2,80423264E-005	0,05871269964048393	-0,002190649763650689	0,064934818868115405
1	1	0	0	0	0	2	74585,50	0,0100000007	2,80243731	2,7798989645360656E-005	0,010007438503917429	2,80452186E-005	0,059101882878799155	-0,0022051707135346592	0,065324002106430656
1	1	0	0	0	0	2	74725,50	0,0100000007	2,80258989	2,7798966811866397E-005	0,010007430252450566	2,80467229E-005	0,059491070640128269	-0,0022196918321783584	0,065713189867759808
1	1	0	0	0	0	2	74865,51	0,0100000007	2,80281901	2,7798785033842755E-005	0,010007364850818576	2,8048833E-005	0,059880259689874918	-0,0022342129988946486	0,066102378917506432
1	1	0	0	0	0	2	75005,51	0,0100000007	2,80291462	2,7798648800183501E-005	0,010007315792292656	2,80496515E-005	0,060269442630094387	-0,0022487339376562653	0,066491561857725914
1	1	0	0	0	0	2	75145,51	0,0100000007	2,80299091	2,7798608014411808E-005	0,010007301087919891	2,80503737E-005	0,060658622972073562	-0,0022632547794740432	0,066880742199705062
1	1	0	0	0	0	2	75285,52	0,0100000007	2,80327749	2,7798755103204813E-005	0,010007354076001846	2,80533895E-005	0,061047805932342438	-0,0022777757189837302	0,067269925159973965
1	1	0	0	0	0	2	75425,52	0,0100000007	2,80344915	2,7798630560593059E-005	0,010007309215801533	2,8054983E-005	0,061436988448996493	-0,002292296641941552	0,067659107676628032
1	1	0	0	0	0	2	75565,52	0,0100000007	2,80364013	2,7799039507233021E-005	0,010007456422265296	2,80573058E-005	0,061826172042465178	-0,0023068176050767754	0,06804829127009673
1	1	0	0	0	0	2	75705,52	0,0100000007	2,80375481	2,7799305351140598E-005	0,010007552161358811	2,80587228E-005	0,06221536104117344	-0,0023213387698887542	0,068437480268804954
1	1	0	0	0	0	2	75845,53	0,0100000007	2,80392671	2,7798906449849405E-005	0,010007408523485942	2,80600398E-005	0,062604548330209421	-0,0023358598709105626	0,068826667557840934
1	1	0	0	0	0	2	75985,53	0,0100000007	2,80413675	2,7799444066567552E-005	0,010007602066805219	2,80626846E-005	0,062993741335683482	-0,0023503811852203606	0,069215860563314995
1	1	0	0	0	0	2	76125,53	0,0100000007	2,80432749	2,77994728694256E-005	0,010007612466735118	2,80646236E-005	0,063382931993713779	-0,0023649024119438762	0,069605051221345293
1	1	0	0	0	0	2	76265,53	0,0100000007	2,80444217	2,7798941402489114E-005	0,010007421105255542	2,8065233E-005	0,06377212245510473	-0,002379423631330513	0,069994241682736243
1	1	0	0	0	0	2	76405,54	0,0100000007	2,80467129	2,779968191967863E-005	0,01000768770236857	2,80682743E-005	0,064161313745309171	-0,0023939448816412954	0,070383432972940685
1	1	0	0	0	0	2	76545,54	0,0100000007	2,80482411	2,7799907512238458E-005	0,010007768935055686	2,80700315E-005	0,064550510900056435	-0,0024084663507660557	0,070772630127687949
1	1	0	0	0	0	2	76685,54	0,0100000007	2,80501509	2,7799481919035315E-005	0,010007615687366203	2,80715121E-005	0,064939703909277402	-0,0024229876652156566	0,071161823136908915
1	1	0	0	0	0	2	76825,55	0,0100000007	2,80522513	2,7799887827131898E-005	0,010007761837839054	2,80740242E-005	0,065328899926192704	-0,002437509091886376	0,071551019153824205
1	1	0	0	0	0	2	76965,55	0,0100000007	2,80537772	2,779940756596625E-005	0,010007588957954323	2,80750664E-005	0,065718096186211712	-0,0024520305276276227	0,071940215413843226
1	1	0	0	0	0	2	77105,55	0,0100000007	2,80551147	2,7799383732800682E-005	0,010007580341020365	2,80763816E-005	0,066107286522852915	-0,0024665517423596784	0,072329405750484429
1	1	0	0	0	0	2	77245,55	0,0100000007	2,80572152	2,7799576958072269E-005	0,010007649937441422	2,8078679E-005	0,066496482336225997	-0,0024810731614359648	0,07271860156385751
1	1	0	0	0	0	2	77385,56	0,0100000007	2,8058362	2,7799827886900554E-005	0,010007740262578285	2,80800796E-005	0,066885677831260774	-0,0024955945686346205	0,073107797058892288
1	1	0	0	0	0	2	77525,56	0,0100000007	2,80600786	2,7799750490683235E-005	0,010007712371248469	2,80817203E-005	0,067274877614739789	-0,002510116135840897	0,07349699684237129
1	1	0	0	0	0	2	77665,56	0,0100000007	2,80623698	2,780004566307697E-005	0,010007818668374741	2,80843105E-005	0,067664077663879488	-0,0025246377129593302	0,073886196891510989
1	1	0	0	0	0	2	77805,56	0,0100000007	2,80648541	2,7800334331993427E-005	0,010007922569072752	2,80870881E-005	0,068053281341267213	-0,0025391594254525763	0,074275400568898726
1	1	0	0	0	0	2	77945,57	0,0100000007	2,80654263	2,7799967623212272E-005	0,010007790537413944	2,808729E-005	0,068442478747065536	-0,0025536809039443891	0,07466459797469705
1	1	0	0	0	0	2	78085,57	0,0100000007	2,80682898	2,7799950801974371E-005	0,010007784519067213	2,80901404E-005	0,068831680248335757	-0,0025682025352437651	0,07505379947596727
1	1	0	0	0	0	2	78225,57	0,0100000007	2,80690551	2,7799526519090349E-005	0,010007631751456803	2,80904769E-005	0,069220878068996736	-0,0025827240292146614	0,07544299729662825
1	1	0	0	0	0	2	78365,58	0,0100000007	2,80711555	2,7799521672539414E-005	0,010007629998344816	2,80925742E-005	0,069610066519019622	-0,0025972451735544515	0,075832185746651123
1	1	0	0	0	0	2	78505,58	0,0100000007	2,80726814	2,7800300797344083E-005	0,010007910514895869	2,8094888E-005	0,069999265475535309	-0,0026117667099056141	0,076221384703166822
1	1	0	0	0	0	2	78645,58	0,0100000007	2,8074019	2,7800317759418656E-005	0,010007916583956893	2,80962431E-005	0,07038846909807529	-0,002626288420352417	0,076610588325706803
1	1	0	0	0	0	2	78785,58	0,0100000007	2,80755472	2,7799438164931616E-005	0,010007599944471805	2,80968852E-005	0,070777667625334861	-0,0026408099406874563	0,076999786852966362
1	1	0	0	0	0	2	78925,59	0,0100000007	2,8075738	2,7799932464181136E-005	0,010007777917635792	2,80975746E-005	0,071166862635422003	-0,0026553313297920643	0,077388981863053517
1	1	0	0	0	0	2	79065,59	0,0100000007	2,8077457	2,7799442405398522E-005	0,010007601462738109	2,80988006E-005	0,07155605841705216	-0,0026698527476839792	0,077778177644683674
1	1	0	0	0	0	2	79205,59	0,0100000007	2,80787921	2,779884607722569E-005	0,010007386807828323	2,80995337E-005	0,071945249445184448	-0,0026843739882164976	0,078167368672815962
1	1	0	0	0	0	2	79345,60	0,0100000007	2,80797482	2,7800015167022746E-005	0,010007807690012171	2,81016728E-005	0,072334439320944589	-0,0026988951857524618	0,078556558548576102
1	1	0	0	0	0	2	79485,60	0,0100000007	2,80818486	2,7799156621460701E-005	0,01000749858255395	2,81029061E-005	0,072723635156051802	-0,0027134166056396774	0,078945754383683315
1	1	0	0	0	0	2	79625,60	0,0100000007	2,80831838	2,7800019079198442E-005	0,010007809089979306	2,81051143E-005	0,07311283103819415	-0,0027279380272818371	0,079334950265825651
1	1	0	0	0	0	2	79765,60	0,0100000007	2,8085475	2,7799840999974147E-005	0,010007744990647691	2,8107228E-005	0,073502033627634406	-0,0027424596991823002	0,07972415285526592
1	1	0	0	0	0	2	79905,61	0,0100000007	2,80870032	2,7799829049967229E-005	0,010007740652031728	2,8108745E-005	0,073891231815391795	-0,0027569812068500573	0,080113351043023309
1	1	0	0	0	0	2	80045,61	0,0100000007	2,808815	2,7800422948992086E-005	0,010007954488634723	2,81104931E-005	0,074280436177662323	-0,0027715029448972006	0,080502555405293824
1	1	0	0	0	0	2	80185,61	0,0100000007	2,80898666	2,7800077229065613E-005	0,010007830021304213	2,8111861E-005	0,074669637044842867	-0,0027860245525378381	0,080891756272474368
1	1	0	0	0	0	2	80325,61	0,0100000007	2,80915856	2,779973394263329E-005	0,010007706414068234	2,81132343E-005	0,075058835278031936	-0,0028005460619007126	0,08128095450566345
1	1	0	0	0	0	2	80465,62	0,0100000007	2,80931139	2,7800329678019302E-005	0,010007920911966501	2,81153661E-005	0,075448033143980288	-0,0028150675575613414	0,081670152371611789
1	1	0	0	0	0	2	80605,62	0,0100000007	2,80934954	2,7800183964324077E-005	0,010007868434519478	2,81156008E-005	0,075837233151263616	-0,0028295891331180579	0,08205935237889513
1	1	0	0	0	0	2	80745,62	0,0100000007	2,80969334	2,7799991171341389E-005	0,010007799014572872	2,81188459E-005	0,076226434744877798	-0,0028441107678629107	0,082448553972509299
1	1	0	0	0	0	2	80885,63	0,0100000007	2,80976963	2,7799892561458464E-005	0,01000776355288125	2,81195098E-005	0,076615632015234611	-0,0028586322413012189	0,082837751242866112
1	1	0	0	0	0	2	81025,63	0,0100000007	2,80997968	2,7799956818369942E-005	0,010007786653805776	2,81216762E-005	0,077004829295044147	-0,0028731537150922208	0,083226948522675661
1	1	0	0	0	0	2	81165,63	0,0100000007	2,81011343	2,7800101473151395E-005	0,010007838723255165	2,81231623E-005	0,077394029055763712	-0,002887675281449312	0,083616148283395226
1	1	0	0	0	0	2	81305,63	0,0100000007	2,81032348	2,7800542503336653E-005	0,010007997527333693	2,81257107E-005	0,077783232313409626	-0,0029021969782814259	0,084005351541041139
1	1	0	0	0	0	2	81445,64	0,0100000007	2,8103044	2,779986778512183E-005	0,01000775459641177	2,81248376E-005	0,078172436773318246	-0,0029167187199715782	0,084394556000949747
1	1	0	0	0	0	2	81585,64	0,0100000007	2,81041884	2,779914305333255E-005	0,010007493709657885	2,81252487E-005	0,078561632651435008	-0,0029312401414635386	0,084783751879066522
1	1	0	0	0	0	2	81725,64	0,0100000007	2,81078172	2,7799419461904717E-005	0,010007593240407542	2,81291595E-005	0,078950826607788979	-0,0029457614912519443	0,08517294583542048
1	1	0	0	0	0	2	81865,65	0,0100000007	2,81089616	2,7800283588675987E-005	0,010007904282732672	2,81311804E-005	0,079340027222633984	-0,0029602830894776038	0,085562146450265498
1	1	0	0	0	0	2	82005,65	0,0100000007	2,81104898	2,7799887824079232E-005	0,010007761831613968	2,81323082E-005	0,079729229331008371	-0,0029748047434288518	0,085951348558639885
1	1	0	0	0	0	2	82145,65	0,0100000007	2,81116366	2,779893139558327E-005	0,010007417540120438	2,81324883E-005	0,080118422616027085	-0,0029893260681688371	0,086340541843658598
1	1	0	0	0	0	2	82285,65	0,0100000007	2,81129718	2,779934051969192E-005	0,010007564784608688	2,81342382E-005	0,080507611177851546	-0,0030038472166800947	0,086729730405483059
1	1	0	0	0	0	2	82425,66	0,0100000007	2,81145	2,7800182974431664E-005	0,010007868094373955	2,8136621E-005	0,080896807666344781	-0,0030183686609460218	0,087118926893976294
1	1	0	0	0	0	2	82565,66	0,0100000007	2,8116219	2,7799410429317501E-005	0,010007589985594867	2,81375596E-005	0,081286001506729382	-0,0030328900064074541	0,087508120734360883
1	1	0	0	0	0	2	82705,66	0,0100000007	2,81166005	2,7799155466465485E-005	0,010007498166763893	2,81376833E-005	0,081675197057755482	-0,0030474114156952218	0,087897316285386995
1	1	0	0	0	0	2	82845,66	0,0100000007	2,81192732	2,7799719278234989E-005	0,010007701172153539	2,81409284E-005	0,082064390843027098	-0,0030619327591003155	0,088286510070658598
1	1	0	0	0	0	2	82985,67	0,0100000007	2,81192732	2,7799828243545357E-005	0,010007740385492232	2,81410394E-005	0,082453584015301773	-0,0030764540796336691	0,088675703242933274
1	1	0	0	0	0	2	83125,67	0,0100000007	2,81200385	2,7799217489910208E-005	0,010007520494646173	2,81411867E-005	0,082842773641203814	-0,0030909752678470918	0,089064892868835328
1	1	0	0	0	0	2	83265,67	0,0100000007	2,81209922	2,7799993708833222E-005	0,010007799965216598	2,81429257E-005	0,083231969528241011	-0,0031054966896718848	0,089454088755872525
1	1	0	0	0	0	2	83405,68	0,0100000007	2,81141186	2,7799352704650829E-005	0,010007569184621326	2,81353987E-005	0,083621160585647629	-0,0031200179312966682	0,089843279813279142
1	1	0	0	0	0	2	83545,68	0,0100000007	2,81167912	2,7798981863436186E-005	0,010007435670792093	2,81376979E-005	0,084010348216795494	-0,0031345390450831302	0,090232467444427008
1	1	0	0	0	0	2	83685,68	0,0100000007	2,8118701	2,78000121545564E-005	0,010007806605545715	2,81406519E-005	0,084399541688100314	-0,0031490603767736998	0,090621660915731814
1	1	0	0	0	0	2	83825,68	0,0100000007	2,81209922	2,7799706234648413E-005	0,010007696442652902	2,81426346E-005	0,084788737509479501	-0,0031635817961487053	0,091010856737111014
1	1	0	0	0	0	2	83965,69	0,0100000007	2,81223297	2,7799095423219517E-005	0,010007476555700075	2,81433549E-005	0,08517792713592247	-0,0031781029843823098	0,091400046363553971
1	1	0	0	0	0	2	84105,69	0,0100000007	2,81234741	2,7797983271328522E-005	0,010007076222017216	2,81433749E-005	0,085567108297544909	-0,00319262385678208	0,091789227525176422
1	1	0	0	0	0	2	84245,69	0,0100000007	2,81232834	2,7797611716979491E-005	0,010006942427933278	2,81428074E-005	0,085956283328650035	-0,003207144500444007	0,092178402556281536
1	1	0	0	0	0	2	84385,69	0,0100000007	2,81232834	2,7797319012176659E-005	0,010006837070149579	2,81425109E-005	0,086345451793053517	-0,0032216648990934656	0,09256757102068503
1	1	0	0	0	0	2	84525,70	0,0100000007	2,81236649	2,7797706047176486E-005	0,010006976423411158	2,81432858E-005	0,086734619264322675	-0,0032361852606877485	0,092956738491954189
1	1	0	0	0	0	2	84665,70	0,0100000007	2,81236649	2,7797315398386368E-005	0,010006835755348168	2,81428893E-005	0,08712378218336535	-0,0032507054524323398	0,093345901410996851
1	1	0	0	0	0	2	84805,70	0,0100000007	2,81230927	2,7797037720214573E-005	0,010006735817310392	2,81420362E-005	0,08751294436030615	-0,0032652256164881133	0,093735063587937664
1	1	0	0	0	0	2	84945,71	0,0100000007	2,81211829	2,7797707002661709E-005	0,01000697676737904	2,81408029E-005	0,087902108415916864	-0,0032797458506395866	0,094124227643548378
1	1	0	0	0	0	2	85085,71	0,0100000007	2,81219482	2,7797293592761789E-005	0,010006827905478474	2,81411503E-005	0,088291273716576896	-0,0032942661312455238	0,09451339294420841
1	1	0	0	0	0	2	85225,71	0,0100000007	2,812042	2,7796764703312269E-005	0,010006637543404525	2,81390858E-005	0,088680430570316122	-0,0033087860966854886	0,094902549797947622
1	1	0	0	0	0	2	85365,71	0,0100000007	2,812042	2,7797025025822224E-005	0,01000673125497684	2,81393477E-005	0,089069588469513395	-0,0033233061011328998	0,095291707697144896
1	1	0	0	0	0	2	85505,72	0,0100000007	2,81200385	2,7796798237547693E-005	0,010006649581009542	2,81387365E-005	0,089458746910585587	-0,0033378261257983923	0,095680866138217088
1	1	0	0	0	0	2	85645,72	0,0100000007	2,8118701	2,7796369828387267E-005	0,010006495394094688	2,81369648E-005	0,08984790252417216	-0,0033523460449665939	0,096070021751803661
1	1	0	0	0	0	2	85785,72	0,0100000007	2,81194639	2,7797171884268106E-005	0,010006784112255309	2,81385401E-005	0,090237054952783309	-0,003366865845299081	0,096459174180414822
1	1	0	0	0	0	2	85925,73	0,0100000007	2,81188917	2,7796950807070566E-005	0,010006704504952189	2,81377434E-005	0,090626209995347187	-0,0033813857431616589	0,096848329222978701
1	1	0	0	0	0	2	86065,73	0,0100000007	2,81208014	2,7797163424806461E-005	0,010006781083101685	2,81398698E-005	0,091015364922878387	-0,0033959056367322131	0,097237484150509901
1	1	0	0	0	0	2	86205,73	0,0100000007	2,81183195	2,7797033756350477E-005	0,010006734376936445	2,81372559E-005	0,09140452369867383	-0,0034104256738866797	0,097626642926305331
1	1	0	0	0	0	2	86345,73	0,0100000007	2,81188917	2,7796855812116214E-005	0,010006670307444547	2,81376488E-005	0,09179367882981737	-0,0034249455750542835	0,098015798057448883
1	1	0	0	0	0	2	86485,74	0,0100000007	2,81190825	2,7796629127735891E-005	0,010006588739957285	2,81376088E-005	0,092182828399685568	-0,0034394652687232275	0,098404947627317082
1	1	0	0	0	0	2	86625,74	0,0100000007	2,81192732	2,7797397883867638E-005	0,010006865450466454	2,81385783E-005	0,092571986834986854	-0,003453985293173399	0,098794106062618355
1	1	0	0	0	0	2	86765,74	0,0100000007	2,81190825	2,7796794311246941E-005	0,010006648174107234	2,81377761E-005	0,09296114397844087	-0,0034685052694230125	0,099183263206072371
1	1	0	0	0	0	2	86905,74	0,0100000007	2,81185102	2,7797101158596986E-005	0,01000675866782573	2,81375142E-005	0,093350300050693594	-0,0034830252057046662	0,099572419278325107
1	1	0	0	0	0	2	87045,75	0,0100000007	2,81188917	2,7796559678494106E-005	0,010006563701564176	2,81373486E-005	0,093739455767762112	-0,0034975451287339187	0,099961574995393626
1	1	0	0	0	0	2	87085,32	0,0100000007	2,81183195	2,6598825440276416E-005	0,010006666602507485	2,81370649E-005	0,093849444432808794	-0,0035016489537081434	0,1000715636604403