File: Experimentelles/Rohdaten/Batterietests/AlteZelle/150511_LLTO_LTO_Tests/ECLab-Export/LLTO_LP30_LTO_02_CV_C01_loop8.mpt
EC-Lab ASCII FILE
Nb header lines : 3
mode	ox/red	error	control changes	counter inc.	time/s	control/V	Ewe/V	<I>/mA	cycle number	(Q-Qo)/C	P/W
2	1	0	1	0	6887,29	0,273292035	0,273605406	-0,69924926757812506	9	0	0,000191318381
2	1	0	0	0	6888,72	0,287593067	0,288140923	-0,39885769737884314	9	-0,000728510029	0,000114927228
2	1	0	1	0	6890,17	0,302094162	0,302235425	-0,26232365068669194	9	-0,00119960518	7,92834981E-005
2	1	0	1	0	6891,62	0,316595286	0,316871226	-0,17204266417926806	9	-0,00150977192	5,45153707E-005
2	1	0	0	0	6893,07	0,331096381	0,331517071	-0,11110886108751088	9	-0,00171152444	3,68344845E-005
2	1	0	0	0	6894,52	0,345597506	0,345952392	-0,068625487581205939	9	-0,00183897116	2,37411514E-005
2	1	0	1	0	6896,01	0,360498667	0,360898972	-0,038956011189536064	9	-0,00191702391	1,40591847E-005
2	1	0	1	0	6897,46	0,374999732	0,375264138	-0,018736375321168451	9	-0,0019572312	7,03108981E-006
2	1	0	0	0	6898,95	0,389900893	0,390250802	-0,0038057796397576186	9	-0,0019730276	1,4852086E-006
2	1	0	1	0	6900,40	0,404402971	0,404868543	0,0064677061670902618	9	-0,00197067973	2,61857076E-006
2	1	0	1	0	6901,89	0,419303119	0,419923365	0,014117998187430216	9	-0,0019549476	5,92847709E-006
2	1	0	0	0	6903,34	0,433804274	0,434298575	0,01963434709371839	9	-0,00192972145	8,52716857E-006
2	1	0	0	0	6904,79	0,448305339	0,448834151	0,024754119231753747	9	-0,00189662981	1,11104937E-005
2	1	0	1	0	6906,24	0,462806433	0,46314916	0,028841524384915718	9	-0,00185712916	1,33579279E-005
2	1	0	1	0	6907,69	0,477307558	0,477564454	0,032698277413146541	9	-0,00181176513	1,56155347E-005
2	1	0	0	0	6909,14	0,491808653	0,492049873	0,03612923228259504	9	-0,00176124566	1,77773836E-005
2	1	0	0	0	6910,59	0,506309748	0,506675661	0,039293467794777754	9	-0,00170590437	1,99090446E-005
2	1	0	1	0	6912,04	0,520810902	0,521311522	0,042346025846200006	9	-0,00164606795	2,20754719E-005
2	1	0	0	0	6913,49	0,535311997	0,535806954	0,045261242824684134	9	-0,00158188271	2,42512888E-005
2	1	0	0	0	6914,94	0,549813092	0,550162137	0,047928772284649254	9	-0,00151354633	2,63685961E-005
2	1	0	1	0	6916,39	0,564314187	0,564697683	0,050954320662034093	9	-0,00144107919	2,87737876E-005
2	1	0	1	0	6917,84	0,578815281	0,579203129	0,053986007250690138	9	-0,00136439735	3,12688644E-005
2	1	0	0	0	6919,29	0,593316436	0,59363848	0,056971479129666982	9	-0,00128354714	3,38204627E-005
2	1	0	0	0	6920,74	0,607817531	0,608144045	0,059969975186201395	9	-0,00119843916	3,64703847E-005
2	1	0	1	0	6922,19	0,622318685	0,622679532	0,062915062745257152	9	-0,00110901403	3,91759204E-005
2	1	0	1	0	6923,64	0,63681972	0,637114882	0,066030690271873139	9	-0,00101517444	4,20691358E-005
2	1	0	0	0	6925,09	0,651320875	0,651760757	0,068794296569346099	9	-0,000916802499	4,4837423E-005
2	1	0	1	0	6926,54	0,66582197	0,666105807	0,072075800058276736	9	-0,000813941238	4,8010108E-005
2	1	0	1	0	6927,99	0,680323064	0,680721581	0,075211477853978522	9	-0,000706483261	5,11980761E-005
2	1	0	0	0	6929,44	0,694824159	0,695186973	0,078232238864681446	9	-0,00059461646	5,43860333E-005
2	1	0	0	0	6930,89	0,709325254	0,70978272	0,08105699021446816	9	-0,000478513743	5,75328522E-005
2	1	0	1	0	6932,34	0,723826408	0,724107742	0,083720170330100646	9	-0,000358481164	6,06224239E-005
2	1	0	1	0	6933,79	0,738327503	0,738853812	0,085972136255198067	9	-0,000234875668	6,35208416E-005
2	1	0	0	0	6935,25	0,752828598	0,753339231	0,0880159045336768	9	-0,000108040811	6,63058308E-005
2	1	0	0	0	6936,70	0,767329752	0,7677145	0,089518296629345523	9	2,14423217E-005	6,87244974E-005
2	1	0	1	0	6938,15	0,781830847	0,782149732	0,091141246880094285	9	0,000153372253	7,12861001E-005
2	1	0	0	0	6939,60	0,796331882	0,796845734	0,092477530221609958	9	0,000287255127	7,36903239E-005
2	1	0	0	0	6941,05	0,810832977	0,81112057	0,093567983344352461	9	0,000422765734	7,58949172E-005
2	1	0	1	0	6942,50	0,825334132	0,825746417	0,094589171872939917	9	0,000559551525	7,81066701E-005
2	1	0	1	0	6943,95	0,839835286	0,840392292	0,095037375867832448	9	0,000697364099	7,98686815E-005
2	1	0	0	0	6945,40	0,854336321	0,854917884	0,09558359766378976	9	0,000835946237	8,17161272E-005
2	1	0	0	0	6946,85	0,868837416	0,869122505	0,095472032475905971	9	0,000975084375	8,29768906E-005
2	1	0	1	0	6948,30	0,883338571	0,884009004	0,095852547946075456	9	0,00111455005	8,47345145E-005
2	1	0	1	0	6949,75	0,897839665	0,898093522	0,095913504580191104	9	0,00125416834	8,61392982E-005
2	1	0	0	0	6951,15	0,911840796	0,912388504	0,096047417202498765	9	0,0013890242	8,76325576E-005
2	1	0	1	0	6952,60	0,926343322	0,926985383	0,095858738825144845	9	0,00152847276	8,88596478E-005
2	1	0	1	0	6954,05	0,940842986	0,9413293	0,095626921722820838	9	0,00166765193	9,00164232E-005
2	1	0	0	0	6955,50	0,955344081	0,955884874	0,095424850781758554	9	0,00180658547	9,12151736E-005
2	1	0	0	0	6956,95	0,969845235	0,970169902	0,095442252505260058	9	0,00194530992	9,25951972E-005
2	1	0	1	0	6958,40	0,98434639	0,98462522	0,095087460552652493	9	0,00208409852	9,36255092E-005
2	1	0	1	0	6959,85	0,998847425	0,999441504	0,095464664453174925	9	0,002223016	9,54113493E-005
2	1	0	0	0	6961,30	1,01334846	1,01391685	0,095755024929531136	9	0,00236235559	9,70876354E-005
2	1	0	0	0	6962,75	1,02784956	1,02827203	0,096176699909847117	9	0,00250213617	9,88958127E-005
2	1	0	1	0	6964,20	1,04235065	1,04284775	0,096575447241775693	9	0,00264254306	0,000100713485
2	1	0	0	0	6965,65	1,0568521	1,05727303	0,09707245332000736	9	0,00278358138	0,00010263209
2	1	0	0	0	6967,10	1,07135296	1,0717485	0,097504445448672986	9	0,00292526186	0,000104500243
2	1	0	1	0	6968,55	1,08585393	1,08655465	0,097975088128198438	9	0,00306768506	0,000106455285
2	1	0	1	0	6970,00	1,10035515	1,10112035	0,09835242371385289	9	0,00321069476	0,000108297856
2	1	0	0	0	6971,49	1,11525631	1,1155957	0,098931233476226458	9	0,00335842906	0,000110367262
2	1	0	0	0	6972,94	1,1297574	1,12994087	0,099447047531914906	9	0,00350286043	0,000112369285
2	1	0	1	0	6974,39	1,14425838	1,14460671	0,099813909308674509	9	0,00364799565	0,000114247669
2	1	0	1	0	6975,84	1,15875959	1,15933275	0,10034831516289467	9	0,00379377115	0,000116337091
2	1	0	0	0	6977,29	1,17326069	1,17387831	0,10070540922849136	9	0,00394021533	0,000118215896
2	1	0	1	0	6978,74	1,18776166	1,18808317	0,10135290997258072	9	0,00408741971	0,000120415687
2	1	0	1	0	6980,19	1,20226276	1,20262873	0,10157461922305266	9	0,00423532911	0,000122156562
2	1	0	0	0	6981,64	1,21676409	1,21729445	0,10231411131098866	9	0,00438412605	0,000124546394
2	1	0	0	0	6983,09	1,23126507	1,23197043	0,1028542798012495	9	0,00453368388	0,000126713436
2	1	0	1	0	6984,54	1,24576628	1,24628544	0,1033152788101384	9	0,00468401378	0,000128760323
2	1	0	1	0	6985,99	1,26026738	1,26086128	0,10378465231042344	9	0,00483491691	0,000130858054
2	1	0	0	0	6987,44	1,27476835	1,27516615	0,1040734825267764	9	0,00498633133	0,000132710979
2	1	0	0	0	6988,89	1,28926957	1,28974187	0,10460295349669968	9	0,00513825426	0,000134910806
2	1	0	1	0	6990,34	1,30377066	1,30410695	0,10437847844635418	9	0,0052904957	0,000136120696
2	1	0	1	0	6991,79	1,31827092	1,3187325	0,1046134277041788	9	0,00544279767	0,000137957133
2	1	0	0	0	6993,24	1,33277297	1,33324838	0,10450050502549878	9	0,00559500232	0,00013932513
2	1	0	1	0	6994,69	1,34727395	1,34773374	0,10444168276929622	9	0,00574709661	0,000140759585
2	1	0	1	0	6996,14	1,36177516	1,3622191	0,10419865538521334	9	0,00589887891	0,000141941404
2	1	0	0	0	6997,59	1,37627625	1,3767848	0,1037883969644705	9	0,00605032919	0,000142894292
2	1	0	0	0	6999,04	1,39077723	1,3912102	0,1036012862653779	9	0,00620136876	0,000144131162
2	1	0	1	0	7000,49	1,40527844	1,40582585	0,10325160898113018	9	0,00635196455	0,000145153783
2	1	0	1	0	7001,94	1,41977954	1,42032135	0,10256498489373654	9	0,00650201412	0,000145675236
2	1	0	0	0	7003,39	1,43428051	1,43481684	0,10226982994936406	9	0,00665144483	0,000146738472
2	1	0	0	0	7004,84	1,44878197	1,44913185	0,10196843458884475	9	0,00680032931	0,000147765706
2	1	0	1	0	7006,29	1,46328294	1,46365738	0,10159690720805286	9	0,00694865128	0,000148703068
2	1	0	0	0	7007,74	1,47778392	1,47824323	0,10124822166593139	9	0,00709658768	0,000149669504
2	1	0	0	0	7009,19	1,49228513	1,49283886	0,10138342991316062	9	0,00724432524	0,00015134913
2	1	0	1	0	7010,64	1,50678623	1,50729418	0,10159836364133934	9	0,00739215454	0,000153138622
2	1	0	1	0	7012,09	1,5212872	1,52171957	0,10179703733107698	9	0,00754039781	0,000154906549
2	1	0	0	0	7013,54	1,53578842	1,53634536	0,10265858890488699	9	0,00768936099	0,000157719041
2	1	0	0	0	7014,99	1,55028951	1,55061018	0,10355117439758032	9	0,00783943012	0,000160567506
2	1	0	1	0	7016,44	1,56479049	1,56525588	0,10468519645898301	9	0,00799090322	0,00016385912
2	1	0	1	0	7017,89	1,57929146	1,57984173	0,10569851712046963	9	0,00814407971	0,000166986923
2	1	0	0	0	7019,34	1,5937928	1,59444749	0,10729939929054467	9	0,00829912256	0,000171083258
2	1	0	1	0	7020,79	1,60829377	1,6087023	0,10874563707814877	9	0,00845634378	0,000174939356
2	1	0	1	0	7022,24	1,6227951	1,62313783	0,1104966295339791	9	0,00861593615	0,000179351264
2	1	0	0	0	7023,69	1,63729608	1,63771331	0,11186863435432304	9	0,00877795275	0,000183208758
2	1	0	0	0	7025,14	1,65179718	1,65229905	0,11388633179012686	9	0,00894256495	0,000188174279
2	1	0	1	0	7026,59	1,66629827	1,66692483	0,11568794632330538	9	0,00910987426	0,000192843116
2	1	0	1	0	7028,04	1,68079937	1,68125999	0,1177232666329169	9	0,00927995704	0,000197923422
2	1	0	0	0	7029,49	1,69530034	1,69604623	0,1197371529803295	9	0,00945290364	0,000203079748
2	1	0	1	0	7030,94	1,70980251	1,71020126	0,12164064135950349	9	0,00962869916	0,000208029975
2	1	0	1	0	7032,39	1,72430277	1,72494686	0,12365480260147387	9	0,00980731659	0,000213297957
2	1	0	0	0	7033,84	1,73880398	1,73934186	0,1256248939316723	9	0,00998887513	0,000218504632
2	1	0	0	0	7035,29	1,75330508	1,75402796	0,12773307925090171	9	0,0101733292	0,000224047399
2	1	0	1	0	7036,74	1,76780605	1,76840305	0,12983981807095323	9	0,0103607597	0,000229609126
2	1	0	1	0	7038,19	1,78230715	1,78296876	0,13199958057763672	9	0,0105511295	0,000235351123
2	1	0	0	0	7039,64	1,79680824	1,797364	0,13394768613701058	9	0,0107444078	0,00024075275
2	1	0	0	0	7041,09	1,81130934	1,81204987	0,13598026164496957	9	0,0109406719	0,000246403011
2	1	0	1	0	7042,54	1,82581055	1,82637513	0,13793263297217528	9	0,0111398594	0,000251916732
2	1	0	1	0	7043,99	1,84031105	1,84094977	0,13994924885052118	9	0,0113419006	0,000257639535
2	1	0	0	0	7045,44	1,85481262	1,8552556	0,14156168400465208	9	0,0115468549	0,000262633112
2	1	0	1	0	7046,89	1,86931396	1,86964095	0,14372813961623886	9	0,0117546422	0,000268720003
2	1	0	1	0	7048,34	1,88381493	1,88423669	0,14564080703227466	9	0,0119653149	0,000274421764
2	1	0	0	0	7049,79	1,89831603	1,89892256	0,14772063055230912	9	0,0121787731	0,000280510052
2	1	0	0	0	7051,24	1,91281712	1,91329765	0,14958345630050918	9	0,0123951277	0,000286197668
2	1	0	1	0	7052,69	1,92731822	1,92788327	0,15152117415952192	9	0,0126142753	0,000292115146
2	1	0	1	0	7054,14	1,94181943	1,94247901	0,15336076810490317	9	0,0128361536	0,000297900086
2	1	0	0	0	7055,59	1,95632052	1,95673406	0,15529382395713277	9	0,0130608175	0,000303868728
2	1	0	0	0	7057,04	1,97082102	1,97149003	0,15703272753516627	9	0,0132880686	0,000309588446
2	1	0	1	0	7058,49	1,98532283	1,98579502	0,15889113066562822	9	0,0135180755	0,00031552522
2	1	0	0	0	7059,95	1,99982393	2,00054121	0,1608966644465304	9	0,0137506137	0,00032188042
2	1	0	0	0	7061,40	2,0143249	2,01502681	0,16268737086405373	9	0,0139857987	0,000327819405
2	1	0	1	0	7062,85	2,02882624	2,0292716	0,1645895382389423	9	0,0142235355	0,000333996868
2	1	0	1	0	7064,30	2,04332709	2,04394746	0,16613905484943302	9	0,0144637907	0,000339579507
2	1	0	0	0	7065,75	2,05782843	2,05854297	0,16793250665068627	9	0,0147065222	0,000345696288
2	1	0	0	0	7067,20	2,07232952	2,07305861	0,16907964635174733	9	0,0149516016	0,000350512011
2	1	0	1	0	7068,65	2,08683062	2,08743382	0,17097512100978384	9	0,0151991518	0,000356899254
2	1	0	1	0	7070,10	2,10133171	2,10177803	0,17239111317513056	9	0,0154488422	0,000362327846
2	1	0	0	0	7071,55	2,11583281	2,11654496	0,17419157472128656	9	0,0157009754	0,000368684297
2	1	0	1	0	7073,00	2,13033366	2,13105059	0,17580821803615754	9	0,0159554277	0,0003746562
2	1	0	1	0	7074,45	2,14483476	2,14551592	0,17725925628716733	9	0,0162121598	0,000380312558
2	1	0	0	0	7075,90	2,15933585	2,15989089	0,17884406835461642	9	0,0164711494	0,000386283675
2	1	0	0	0	7077,35	2,17383718	2,17442679	0,18033105115561453	9	0,0167322997	0,000392116664
2	1	0	1	0	7078,80	2,18833828	2,18900251	0,18152406384857933	9	0,0169955548	0,000397356634
2	1	0	1	0	7080,25	2,20283937	2,20340753	0,18292580071526253	9	0,017260747	0,000403060083
2	1	0	0	0	7081,70	2,21734047	2,21779275	0,18448774318676419	9	0,0175280254	0,000409155589
2	1	0	1	0	7083,15	2,23184156	2,23245835	0,18602080380005059	9	0,0177972335	0,000415283692
2	1	0	1	0	7084,60	2,24634242	2,24708462	0,18730588051645693	9	0,0180683881	0,000420892175
2	1	0	0	0	7086,05	2,26084352	2,26133919	0,1885821563191712	9	0,0183414798	0,000426448212
2	1	0	0	0	7087,50	2,27534509	2,27600527	0,18994323598841834	9	0,0186164472	0,000432311819
2	1	0	1	0	7088,95	2,28984594	2,29031014	0,19087534091280122	9	0,0188933872	0,000437163719
2	1	0	1	0	7090,40	2,30434728	2,30502629	0,19234796970461776	9	0,0191721451	0,000443367142
2	1	0	0	0	7091,85	2,31884837	2,3193512	0,19389155444999523	9	0,0194530673	0,000449702609
2	1	0	0	0	7093,30	2,33334947	2,33396602	0,19544674150188566	9	0,0197360367	0,000456166046
2	1	0	1	0	7094,75	2,34785056	2,34837222	0,19686165040669312	9	0,0200212169	0,000462304422
2	1	0	0	0	7096,20	2,36235166	2,36287785	0,19852021833260826	9	0,020308638	0,000469079037
2	1	0	0	0	7097,65	2,37685251	2,37735319	0,19995249357695366	9	0,0205982123	0,000475357694
2	1	0	1	0	7099,10	2,39135361	2,39195895	0,20169896221098771	9	0,0208901186	0,000482455653
2	1	0	1	0	7100,55	2,4058547	2,40648437	0,20269856710607747	9	0,0211841185	0,000487790938
2	1	0	0	0	7102,00	2,4203558	2,42088985	0,20447651599533856	9	0,0214804988	0,00049501512
2	1	0	0	0	7103,45	2,43485713	2,4353652	0,2062033001954351	9	0,0217790995	0,000502180366
2	1	0	1	0	7104,90	2,44935822	2,44996095	0,20787421544082464	9	0,022080129	0,000509283738
2	1	0	0	0	7106,35	2,46385956	2,46462727	0,20987132221814662	9	0,0223835204	0,000517254579
2	1	0	0	0	7107,80	2,47836018	2,4789319	0,21128038293681949	9	0,0226892307	0,000523749681
2	1	0	1	0	7109,25	2,49286127	2,49354768	0,21309328638017088	9	0,022997424	0,000531358295
2	1	0	1	0	7110,70	2,50736237	2,50790262	0,2141074668616063	9	0,0233077016	0,000536960666
2	1	0	0	0	7112,15	2,52186394	2,52237821	0,21599462465383056	9	0,0236205496	0,000544820155
2	1	0	0	0	7113,60	2,53636479	2,53688359	0,21777943777851715	9	0,0239357855	0,000552481099
2	1	0	1	0	7115,05	2,55086613	2,5516696	0,2194645717584841	9	0,0242535882	0,000560001063
2	1	0	1	0	7116,50	2,56536722	2,5658946	0,22118756159519197	9	0,0245737173	0,000567543961
2	1	0	0	0	7117,95	2,57986832	2,58049011	0,22279871177549194	9	0,0248963237	0,000574929873
2	1	0	0	0	7119,40	2,59436798	2,59496427	0,22457786421332003	9	0,0252213944	0,00058277155
2	1	0	1	0	7120,85	2,60887051	2,60936093	0,22621676845786442	9	0,0255489144	0,000590281212
2	1	0	0	0	7122,30	2,62337136	2,62383628	0,22762819418373149	9	0,0258789361	0,000597259088
2	1	0	0	0	7123,75	2,63787246	2,63854265	0,22954668430611491	9	0,0262114909	0,000605668698
2	1	0	1	0	7125,20	2,65237355	2,65270686	0,23143561176645232	9	0,0265467428	0,00061393081
2	1	0	1	0	7126,65	2,66687465	2,66735291	0,23339387727901299	9	0,0268845707	0,000622543856
2	1	0	0	0	7128,10	2,68137598	2,682019	0,23528664411666432	9	0,0272251125	0,000631043222
2	1	0	0	0	7129,55	2,69587708	2,69656444	0,23723734294374842	9	0,0275681932	0,000639725768
2	1	0	1	0	7131,00	2,71037817	2,71114016	0,23907073400914624	9	0,0279139224	0,000648154295
2	1	0	1	0	7132,45	2,7248795	2,72527456	0,24026397613260109	9	0,0282621421	0,000654785312
2	1	0	0	0	7133,90	2,73938012	2,7399404	0,24212145960579267	9	0,0286127292	0,000663398358
2	1	0	1	0	7135,35	2,75388145	2,75444603	0,2439456344582136	9	0,0289659332	0,000671935093
2	1	0	1	0	7136,80	2,76838255	2,76882124	0,24592017126269638	9	0,0293217544	0,000680908968
2	1	0	0	0	7138,25	2,78288364	2,78340721	0,2478304768446833	9	0,0296805818	0,000689813111
2	1	0	0	0	7139,70	2,79738474	2,79817295	0,25033297133631917	9	0,0300424807	0,00070047495
2	1	0	1	0	7141,15	2,81188607	2,81234765	0,25269492808729456	9	0,0304079242	0,000710666005
2	1	0	1	0	7142,60	2,82638717	2,8269937	0,25564115502250752	9	0,0307771582	0,000722695957
2	1	0	0	0	7144,05	2,84088826	2,84154916	0,25807234815632275	9	0,0311505217	0,000733325258
2	1	0	0	0	7145,50	2,85538936	2,85593438	0,26128992182202637	9	0,0315281898	0,00074622687
2	1	0	1	0	7146,95	2,86989021	2,87031937	0,26444078244579395	9	0,0319103971	0,000759029528
2	1	0	0	0	7148,40	2,88439131	2,88510561	0,2679665045967945	9	0,0322974771	0,000773111649
2	1	0	0	0	7149,85	2,8988924	2,89963126	0,27168939448892982	9	0,032689523	0,000787799072
2	1	0	1	0	7151,30	2,9133935	2,91388631	0,27530454828714301	9	0,0330868475	0,000802206167
2	1	0	1	0	7152,75	2,92789483	2,92856216	0,2796833858980481	9	0,033489719	0,000819070206
2	1	0	0	0	7154,20	2,94239593	2,94311786	0,28343554236926048	9	0,0338986889	0,000834184233
2	1	0	0	0	7155,65	2,95689702	2,9573524	0,28828075279792141	9	0,0343139768	0,000852547761
2	1	0	1	0	7157,10	2,97139788	2,97199845	0,29300866175132435	9	0,0347360857	0,000870821299
2	1	0	1	0	7158,55	2,98589921	2,98661399	0,29815829684957773	9	0,035165336	0,00089048373
2	1	0	0	0	7160,00	3,0004003	3,00104952	0,30346095173930189	9	0,0356021225	0,000910701347
2	1	0	1	0	7161,45	3,0149014	3,01543474	0,30869090425161152	9	0,0360466279	0,000930837297
2	1	0	1	0	7162,90	3,02940249	3,02987003	0,31454006923983526	9	0,036499206	0,000953015522
2	1	0	0	0	7164,35	3,04390359	3,04473639	0,32051254273392173	9	0,0369602665	0,000975876173
2	1	0	0	0	7165,80	3,05840492	3,05897141	0,32623517063135885	9	0,0374299847	0,000997944036
2	1	0	1	0	7167,25	3,07290602	3,07382751	0,33283446333371104	9	0,0379088558	0,00102307578
2	1	0	1	0	7168,70	3,08740711	3,08799219	0,33940335207929184	9	0,0383971594	0,00104807492
2	1	0	0	0	7170,15	3,10190821	3,1023674	0,34646018423760781	9	0,0388953127	0,00107484683
2	1	0	0	0	7171,60	3,11640906	3,11686301	0,35379028591948256	9	0,0394037589	0,00110271585
2	1	0	1	0	7173,05	3,13091016	3,13152885	0,36139667437722214	9	0,039923057	0,0011317241
2	1	0	0	0	7174,50	3,14541149	3,1460247	0,36936870651671552	9	0,0404535942	0,00116204307
2	1	0	0	0	7175,95	3,15991211	3,16038895	0,37715182794878912	9	0,0409955718	0,00119194645
2	1	0	1	0	7177,40	3,1744132	3,17498517	0,38577750852952429	9	0,0415495634	0,00122483785
2	1	0	1	0	7178,85	3,1889143	3,18946052	0,3944985740818048	9	0,0421159007	0,00125823764
2	1	0	0	0	7180,30	3,20341539	3,20413613	0,40336517849937171	9	0,0426950566	0,00129243697
2	1	0	0	0	7181,75	3,21791673	3,21862197	0,41256861497337651	9	0,0432873927	0,00132790243
2	1	0	1	0	7183,20	3,23241782	3,23317742	0,42248859256505965	9	0,0438934565	0,0013659806
2	1	0	1	0	7184,65	3,24691892	3,24748254	0,43259834575777222	9	0,0445138738	0,00140485552
2	1	0	0	0	7186,10	3,26142001	3,26208806	0,44316742522642016	9	0,0451493971	0,00144565117
2	1	0	1	0	7187,55	3,27592134	3,27647352	0,45378611290587136	9	0,0458006673	0,00148681819
2	1	0	1	0	7189,00	3,29042244	3,29091883	0,4657369720128681	9	0,0464683361	0,00153270259
2	1	0	0	0	7190,46	3,30492353	3,30564475	0,47807696942860909	9	0,0471535213	0,00158035266
2	1	0	0	0	7191,91	3,31942463	3,31984925	0,49118716968223277	9	0,0478571393	0,00163066736
2	1	0	1	0	7193,36	3,33392572	3,33451509	0,50503802252933363	9	0,0485804118	0,00168405694
2	1	0	1	0	7194,81	3,34842682	3,34885073	0,51970749922717562	9	0,0493241549	0,0017404228
2	1	0	0	0	7196,26	3,36292791	3,3634963	0,53500234025220019	9	0,0500896014	0,00179947843
2	1	0	0	0	7197,71	3,37742949	3,37829447	0,5507188410468855	9	0,0508776605	0,00186049042
2	1	0	1	0	7199,16	3,39192986	3,3926177	0,56741694562757952	9	0,0516890176	0,00192502874
2	1	0	0	0	7200,61	3,40643096	3,40708303	0,58450631781791526	9	0,0525249802	0,0019914615
2	1	0	0	0	7202,06	3,42093205	3,4215281	0,60250888795902298	9	0,0533861928	0,00206150115
2	1	0	1	0	7203,51	3,43543315	3,43610382	0,6204991894774144	9	0,0542735159	0,00213209959
2	1	0	1	0	7204,96	3,44993424	3,45047927	0,63880424620583565	9	0,0551871024	0,0022041807
2	1	0	0	0	7206,41	3,46443558	3,46513486	0,65750544331967744	9	0,0561277717	0,00227834494
2	1	0	0	0	7207,86	3,47893667	3,47974062	0,67678449458131955	9	0,0570956841	0,00235503446
2	1	0	1	0	7209,31	3,49343777	3,49417615	0,69599453872069542	9	0,0580917969	0,00243192748
2	1	0	1	0	7210,76	3,50793886	3,50879192	0,71615646391486016	9	0,0591165423	0,00251284405
2	1	0	0	0	7212,21	3,52243996	3,52308702	0,73714655699829402	9	0,0601712205	0,00259703142
2	1	0	1	0	7213,66	3,53694105	3,53768277	0,75810153223574067	9	0,0612564795	0,00268192263
2	1	0	1	0	7215,11	3,55144238	3,5521481	0,77984757705902118	9	0,0623726957	0,00277013402
2	1	0	0	0	7216,56	3,56594348	3,5669744	0,80184100506206234	9	0,0635205433	0,00286014634
2	1	0	0	0	7218,01	3,58044457	3,58106852	0,82354827287296218	9	0,0647000298	0,00294918288
2	1	0	1	0	7219,46	3,59494567	3,59552407	0,84511658176779392	9	0,0659111738	0,00303863711
2	1	0	1	0	7220,91	3,60944676	3,61007953	0,86620089132338406	9	0,0671529174	0,00312705408
2	1	0	0	0	7222,36	3,62394786	3,62467527	0,88633087432632602	9	0,0684246123	0,00321266172
2	1	0	0	0	7223,81	3,63844872	3,6391809	0,90586348343640205	9	0,0697246864	0,00329660112
2	1	0	1	0	7225,26	3,65294981	3,65355611	0,92466115268568	9	0,0710526779	0,00337830139
2	1	0	0	0	7226,71	3,66745162	3,66799116	0,94235996083180851	9	0,0724070519	0,00345656811
2	1	0	0	0	7228,16	3,681952	3,68248701	0,95957457150022131	9	0,0737866089	0,00353362085
2	1	0	1	0	7229,61	3,69645357	3,69707251	0,97606439019242867	9	0,0751906261	0,00360858091
2	1	0	1	0	7231,06	3,71095443	3,71176839	0,99150033605595315	9	0,0766180083	0,00368021964
2	1	0	0	0	7232,55	3,72585559	3,72656488	1,0091316858306509	9	0,0781101733	0,00376059464
2	1	0	0	0	7234,00	3,74035668	3,74097991	1,0252538674200586	9	0,079585962	0,00383545412
2	1	0	1	0	7235,45	3,75485778	3,75544524	1,0409944507603832	9	0,0810849816	0,00390939787
2	1	0	1	0	7236,90	3,76935887	3,76997089	1,0565971455847248	9	0,0826063827	0,00398334069
2	1	0	0	0	7238,35	3,78385997	3,78463697	1,0718920637542979	9	0,0841504782	0,00405672239
2	1	0	1	0	7239,80	3,79836106	3,7991221	1,0872329324483818	9	0,085716486	0,00413053064
2	1	0	1	0	7241,25	3,8128624	3,81356764	1,1021377959599042	9	0,0873043165	0,00420307694
2	1	0	0	0	7242,70	3,82736349	3,82798314	1,117371321655809	9	0,0889146551	0,00427727867
2	1	0	0	0	7244,15	3,84186459	3,8424983	1,1328033671403901	9	0,0905466974	0,00435279496
2	1	0	1	0	7245,60	3,85636568	3,85704398	1,1482708600039269	9	0,0922011808	0,00442893105
2	1	0	1	0	7247,05	3,87086678	3,87164974	1,1633778503164613	9	0,0938776806	0,00450419169
2	1	0	0	0	7248,50	3,88536787	3,8863256	1,1792837387571714	9	0,0955768377	0,00458308076
2	1	0	0	0	7249,95	3,89986873	3,90058041	1,1948053014154211	9	0,0972988233	0,00466043409
2	1	0	1	0	7251,40	3,91436982	3,91515636	1,210907363332808	9	0,0990438387	0,00474089151
2	1	0	0	0	7252,85	3,92887092	3,92957163	1,2270420961702832	9	0,100812554	0,00482174987
2	1	0	0	0	7254,30	3,94337201	3,94414735	1,2441664664074742	9	0,102605425	0,0049071759
2	1	0	1	0	7255,75	3,95787311	3,95865273	1,262194716682032	9	0,104423992	0,00499659078
2	1	0	1	0	7257,20	3,97237444	3,97317839	1,2809288259595632	9	0,106268562	0,00508935889
2	1	0	0	0	7258,65	3,98687553	3,98753309	1,3002811719973866	9	0,108140968	0,00518491399
2	1	0	0	0	7260,10	4,00137663	4,00212908	1,3195820624629669	9	0,110041134	0,00528113777
2	1	0	1	0	7261,55	4,01587772	4,01672459	1,3407377976303251	9	0,111970678	0,00538537465
2	1	0	1	0	7263,00	4,03037739	4,03123808	1,36102215874158	9	0,113929935	0,00548660429
2	1	0	0	0	7264,45	4,04487991	4,04560566	1,3824615143239462	9	0,115920171	0,00559289427
2	1	0	0	0	7265,90	4,05938053	4,06007051	1,4053122203634486	9	0,117942065	0,00570566673
2	1	0	1	0	7267,35	4,0738821	4,07464647	1,4276806532094853	9	0,119996749	0,00581729412
2	1	0	0	0	7268,80	4,0883832	4,08915234	1,4507001948853357	9	0,122084938	0,00593213411
2	1	0	0	0	7270,25	4,10288429	4,10366726	1,4753251398603062	9	0,124207266	0,00605424354
2	1	0	1	0	7271,70	4,11738539	4,11813259	1,5019331742078067	9	0,126366645	0,00618516002
2	1	0	1	0	7273,15	4,13188648	4,13281918	1,5302998091404659	9	0,128564969	0,00632445235
2	1	0	0	0	7274,60	4,14638758	4,14739466	1,5604969505220634	9	0,130806714	0,00647199666
2	1	0	1	0	7276,05	4,16088915	4,16168976	1,5944866180695706	9	0,133094832	0,00663575856
2	1	0	1	0	7277,50	4,17539024	4,17627525	1,6314010707040634	9	0,135434017	0,0068131797
2	1	0	0	0	7278,95	4,18989086	4,19074059	1,6729064391305002	9	0,137830496	0,00701071694
2	0	0	0	1	7280,34	4,19619131	4,19715643	1,6172473952174186	9	0,140166909	0,00678784028
2	0	0	1	1	7281,79	4,18169022	4,18245029	1,3846495049074266	9	0,142333522	0,0057912278
2	0	0	1	1	7283,24	4,16718912	4,16812515	1,1972924716149755	9	0,144200563	0,00499046501
2	0	0	0	1	7284,69	4,15268803	4,15343904	1,037397488951683	9	0,145816803	0,00430876715
2	0	0	0	1	7286,14	4,13818693	4,13912439	0,89851985592394893	9	0,147216588	0,00371908536
2	0	0	1	1	7287,59	4,12368584	4,12448835	0,77726872156684659	9	0,148428559	0,00320583582
2	0	0	1	1	7289,04	4,1091857	4,1101346	0,67217177791265075	9	0,149476349	0,0027627165
2	0	0	0	1	7290,49	4,09468412	4,0953474	0,57998422533273869	9	0,150381997	0,00237523695
2	0	0	1	1	7291,94	4,08018303	4,08099174	0,50046508184944563	9	0,151163146	0,0020423939
2	0	0	1	1	7293,43	4,06528187	4,06582499	0,42770457469547731	9	0,151851997	0,00173897191
2	0	0	0	1	7294,88	4,05078077	4,0516901	0,36688388488255354	9	0,152426571	0,00148649979
2	0	0	0	1	7296,33	4,0362792	4,03680372	0,31403185892850163	9	0,152918711	0,00126768497
2	0	0	1	1	7297,78	4,02177811	4,02273941	0,26762213589002659	9	0,153339237	0,00107657409
2	0	0	1	1	7299,23	4,00727749	4,00796366	0,22710905435744787	9	0,153696746	0,000910244824
2	0	0	0	1	7300,68	3,99277616	3,99344778	0,19143928665046957	9	0,153999195	0,000764502794
2	0	0	1	1	7302,13	3,97827506	3,97885203	0,16045103486006429	9	0,154253155	0,000638410915
2	0	0	1	1	7303,58	3,96377397	3,96446681	0,13251340707453618	9	0,154464245	0,000525344978
2	0	0	0	1	7305,03	3,94927287	3,95003128	0,1079823894736669	9	0,154637456	0,000426533807
2	0	0	0	1	7306,48	3,93477178	3,93539572	0,085954606474842662	9	0,154776871	0,000338265381
2	0	0	1	1	7307,93	3,92027044	3,92089033	0,06647932067668672	9	0,154886439	0,000260658126
2	0	0	1	1	7309,42	3,90536928	3,90611386	0,048355293285567366	9	0,154971093	0,000188881284
2	0	0	0	1	7310,87	3,89086819	3,89176893	0,032336451481872474	9	0,155029014	0,000125845996
2	0	0	1	1	7312,32	3,87636709	3,87717366	0,018604267766242605	9	0,155065298	7,21319739E-005
2	0	0	1	1	7313,77	3,861866	3,8626678	0,0055659902864135597	9	0,155081958	2,14995707E-005
2	0	0	0	1	7315,27	3,84696484	3,84772158	-0,006725430309112809	9	0,155080646	2,58775835E-005
2	0	0	0	1	7316,76	3,83206367	3,83283496	-0,017528738748903107	9	0,15506202	6,71847592E-005
2	0	0	1	1	7318,21	3,81756258	3,81841946	-0,027396336944851386	9	0,155028775	0,000104610706
2	0	0	1	1	7319,66	3,80306149	3,80364347	-0,036726874697099789	9	0,154981628	0,000139695941
2	0	0	0	1	7321,11	3,78856015	3,78953886	-0,045361157409691654	9	0,154921621	0,000171897875
2	0	0	0	1	7322,56	3,77405906	3,77473259	-0,053024680664142234	9	0,154849663	0,000200153983
2	0	0	1	1	7324,01	3,75955796	3,76029706	-0,060746916938418048	9	0,154766485	0,000228426448
2	0	0	0	1	7325,46	3,74505591	3,74557996	-0,067750328625734605	9	0,154672772	0,000253764272
2	0	0	0	1	7326,91	3,73055577	3,73135638	-0,074531412353584179	9	0,154569045	0,000278103253
2	0	0	1	1	7328,36	3,71605492	3,71677089	-0,080779812259910157	9	0,154456168	0,000300240063
2	0	0	1	1	7329,81	3,70155382	3,70243549	-0,086967155919410342	9	0,154334024	0,000321990286
2	0	0	0	1	7331,26	3,68705273	3,68767977	-0,092818610234341325	9	0,154203236	0,000342285319
2	0	0	0	1	7332,71	3,67255163	3,67327428	-0,098444514946701926	9	0,154064178	0,000361613696
2	0	0	1	1	7334,20	3,65765047	3,65845799	-0,10323540218329696	9	0,153913245	0,000377682387
2	0	0	1	1	7335,65	3,64314938	3,64373207	-0,10857414326164882	9	0,153758675	0,00039561509
2	0	0	0	1	7337,10	3,62864828	3,62931657	-0,11371918267104774	9	0,153596669	0,000412722904
2	0	0	0	1	7338,55	3,61414719	3,61477995	-0,1186538478009993	9	0,153427571	0,000428907544
2	0	0	1	1	7340,00	3,59964585	3,60024571	-0,1235611104639247	9	0,153251439	0,000444850361
2	0	0	0	1	7341,45	3,58514476	3,58589053	-0,12808785835901926	9	0,153068557	0,000459309027
2	0	0	0	1	7342,90	3,57064366	3,57123446	-0,13261246444502173	9	0,152879104	0,000473590189
2	0	0	1	1	7344,35	3,55614257	3,55674911	-0,13655698132546024	9	0,152683228	0,000485698925
2	0	0	1	1	7345,80	3,54164147	3,54232359	-0,1408230200177053	9	0,152481332	0,000498840702
2	0	0	0	1	7347,25	3,52714062	3,52788854	-0,14474769394534314	9	0,152273446	0,000510653714
2	0	0	0	1	7348,70	3,51263905	3,5134635	-0,14867109553112323	9	0,152060106	0,000522350485
2	0	0	1	1	7350,15	3,49813795	3,49893737	-0,15221806794094528	9	0,151841253	0,000532601494
2	0	0	0	1	7351,60	3,4836359	3,48443198	-0,15569850792994189	9	0,151617348	0,000542520836
2	0	0	0	1	7353,05	3,46913576	3,46989655	-0,15888971427921251	9	0,151388615	0,000551330857
2	0	0	1	1	7354,50	3,4546349	3,45537138	-0,16202073330835763	9	0,151155308	0,000559841807
2	0	0	1	1	7355,95	3,44013381	3,44067502	-0,16446891182567901	9	0,150917798	0,000565884053
2	0	0	0	1	7357,40	3,42563272	3,42632008	-0,16736911726184234	9	0,150676146	0,000573460187
2	0	0	0	1	7358,85	3,41113162	3,41160393	-0,17008040880318698	9	0,15043062	0,000580246968
2	0	0	1	1	7360,30	3,39663053	3,39742923	-0,17284234865413373	9	0,150181219	0,000587219663
2	0	0	1	1	7361,75	3,38212943	3,38286328	-0,17540202782644544	9	0,149928272	0,000593361096
2	0	0	0	1	7363,20	3,3676281	3,36842823	-0,17783237551339014	9	0,149671644	0,000599015621
2	0	0	0	1	7364,65	3,35312772	3,35364246	-0,18032311134627488	9	0,149411649	0,000604739238
2	0	0	1	1	7366,10	3,33862591	3,33943725	-0,1820950220571832	9	0,14914827	0,00060809491
2	0	0	0	1	7367,55	3,32412481	3,32500219	-0,18444579874631014	9	0,148881704	0,000613282667
2	0	0	0	1	7369,00	3,30962372	3,31021619	-0,18668329343199754	9	0,148611844	0,00061796204
2	0	0	1	1	7370,45	3,29512262	3,29586077	-0,18878936542508496	9	0,148338914	0,000622223481
2	0	0	1	1	7371,90	3,28062129	3,28130531	-0,1909572178653136	9	0,148063093	0,000626588939
2	0	0	0	1	7373,35	3,2661202	3,26663923	-0,19304135503868326	9	0,147784039	0,000630596478
2	0	0	0	1	7374,80	3,2516191	3,25220394	-0,19516215663558477	9	0,147502005	0,000634707161
2	0	0	1	1	7376,25	3,23711801	3,23795891	-0,19713614229112954	9	0,147216961	0,000638318714
2	0	0	1	1	7377,70	3,22261739	3,22341204	-0,19884777660410525	9	0,146929011	0,000640968326
2	0	0	0	1	7379,15	3,20811605	3,20903826	-0,20113193282547126	9	0,146638095	0,000645440072
2	0	0	1	1	7380,60	3,19361496	3,19433236	-0,20307169288086426	9	0,146344036	0,000648678455
2	0	0	1	1	7382,05	3,17911386	3,1799171	-0,20539077146289264	9	0,146047041	0,000653125637
2	0	0	0	1	7383,50	3,16461277	3,16503048	-0,20758554867158362	9	0,145746797	0,000657014607
2	0	0	0	1	7384,95	3,15011168	3,15064549	-0,20999277243390768	9	0,145443484	0,000661612779
2	0	0	1	1	7386,40	3,13561058	3,13608003	-0,21216469110610614	9	0,145136952	0,000665365427
2	0	0	1	1	7387,85	3,12110949	3,12163472	-0,21421345300041139	9	0,144827127	0,000668696128
2	0	0	0	1	7389,30	3,10660839	3,10698891	-0,2165455428573	9	0,144514114	0,000672804599
2	0	0	1	1	7390,75	3,09210658	3,09271407	-0,21901769503514813	9	0,144197568	0,000677359116
2	0	0	1	1	7392,20	3,0776062	3,07822824	-0,22146046782533402	9	0,143877655	0,000681705889
2	0	0	0	1	7393,65	3,06310511	3,06400347	-0,22383001889102074	9	0,143554091	0,000685815932
2	0	0	0	1	7395,10	3,04860401	3,0491972	-0,22649196318040365	9	0,14322713	0,000690618646
2	0	0	1	1	7396,55	3,03410292	3,03458166	-0,22886089002713562	9	0,142896429	0,000694497081
2	0	0	1	1	7398,00	3,01960182	3,02002597	-0,23155604264078045	9	0,142562106	0,000699305267
2	0	0	0	1	7399,45	3,00510049	3,00577092	-0,23357546865008861	9	0,142224148	0,00070207438
2	0	0	0	1	7400,90	2,99059939	2,99128556	-0,23618993194152989	9	0,141882598	0,00070651155
2	0	0	1	1	7402,35	2,9760983	2,97656965	-0,2386802599454919	9	0,141537473	0,000710448425
2	0	0	1	1	7403,80	2,96159792	2,96218586	-0,24111807728132285	9	0,141188756	0,000714236579
2	0	0	0	1	7405,25	2,94709611	2,9474082	-0,24348161059121408	9	0,140836671	0,00071763969
2	0	0	1	1	7406,70	2,93259501	2,93296289	-0,24591169560638627	9	0,140481099	0,000721249904
2	0	0	1	1	7408,15	2,91809392	2,91840744	-0,2482570154437176	9	0,140122324	0,000724515121
2	0	0	0	1	7409,60	2,90359282	2,90419245	-0,24980429513379933	9	0,139760539	0,000725479738
2	0	0	0	1	7411,05	2,88909173	2,88976717	-0,25213391597693226	9	0,139395833	0,000728608342
2	0	0	1	1	7412,50	2,87459064	2,87522149	-0,25397563562728464	9	0,139028177	0,000730236177
2	0	0	1	1	7413,95	2,86008954	2,86072588	-0,25577410380356058	9	0,138657987	0,000731699576
2	0	0	0	1	7415,40	2,84558868	2,84612036	-0,25729969151628506	9	0,138285369	0,000732305867
2	0	0	1	1	7416,85	2,83108616	2,83160281	-0,25872688635616826	9	0,137910515	0,000732611807
2	0	0	1	1	7418,30	2,81658626	2,81719947	-0,25999266460227587	9	0,137533873	0,000732451212
2	0	0	0	1	7419,75	2,80208492	2,80252361	-0,2608109162344281	9	0,137155712	0,000730928732
2	0	0	0	1	7421,20	2,78758407	2,78806829	-0,2613982015755032	9	0,136776388	0,000728796062
2	0	0	1	1	7422,65	2,77308297	2,77359295	-0,26189208248009299	9	0,13639605	0,000726382015
2	0	0	1	1	7424,10	2,75858188	2,75915766	-0,26231607282534243	9	0,136015072	0,000723771402
2	0	0	0	1	7425,55	2,74408054	2,74459195	-0,26238509523682298	9	0,135633826	0,00072014
2	0	0	0	1	7427,00	2,72957945	2,73029685	-0,26246685348451094	9	0,135252476	0,000716612441
2	0	0	1	1	7428,45	2,71507835	2,71576118	-0,26254597259685302	9	0,13487111	0,000713012181
2	0	0	1	1	7429,90	2,70057774	2,70114565	-0,2622239784738456	9	0,134490088	0,000708305161
2	0	0	0	1	7431,35	2,68607616	2,68678045	-0,26187261062053402	9	0,134109408	0,00070359424
2	0	0	1	1	7432,80	2,67157507	2,67216468	-0,26160229012991021	9	0,133729175	0,00069904438
2	0	0	1	1	7434,25	2,65707397	2,6577394	-0,26138247184765894	9	0,133349359	0,000694686489
2	0	0	0	1	7435,70	2,64257288	2,643224	-0,26106221469429603	9	0,13297005	0,000690045883
2	0	0	0	1	7437,15	2,62807178	2,62862802	-0,260876710604256	9	0,132591039	0,000685747829
2	0	0	1	1	7438,60	2,61357069	2,61419296	-0,2606924287198744	9	0,132212415	0,0006815003
2	0	0	1	1	7440,05	2,59906983	2,59945679	-0,26029699272476224	9	0,131834269	0,000676630763
2	0	0	0	1	7441,50	2,5845685	2,5850215	-0,2601488569440953	9	0,131456479	0,000672490394
2	0	0	0	1	7442,95	2,57006645	2,57091641	-0,25952080740412685	9	0,131079048	0,000667206303
2	0	0	1	1	7444,40	2,55556631	2,55615091	-0,25951057284449597	9	0,13070181	0,000663348183
2	0	0	0	1	7445,86	2,54106522	2,54143476	-0,25938397785648726	9	0,130324721	0,000659207464
2	0	0	0	1	7447,31	2,52656412	2,52705956	-0,25955161312595066	9	0,129947662	0,000655902375
2	0	0	1	1	7448,76	2,51206303	2,51253414	-0,25949800984623562	9	0,129570663	0,00065199763
2	0	0	1	1	7450,21	2,49756169	2,49812865	-0,25908672607814266	9	0,129193828	0,000647231995
2	0	0	0	1	7451,66	2,4830606	2,48366332	-0,2595016163152959	9	0,128817052	0,000644514628
2	0	0	0	1	7453,11	2,4685595	2,46924829	-0,2593872738070777	9	0,128440171	0,000640491606
2	0	0	1	1	7454,56	2,45405841	2,45480275	-0,25944539493260298	9	0,128063202	0,000636887271
2	0	0	1	1	7456,01	2,43955731	2,44011688	-0,25964828239133107	9	0,127686188	0,00063357217
2	0	0	0	1	7457,46	2,42505622	2,42547131	-0,25993810198269872	9	0,12730889	0,000630472379
2	0	0	1	1	7458,91	2,41055512	2,41129637	-0,25986689305864253	9	0,126931563	0,000626616122
2	0	0	1	1	7460,36	2,39605403	2,3967607	-0,25979903705107722	9	0,126554206	0,000622676103
2	0	0	0	1	7461,81	2,38155293	2,3822751	-0,25996873147475296	9	0,126176745	0,000619317056
2	0	0	0	1	7463,26	2,36705184	2,36761928	-0,26004940543013299	9	0,125799268	0,000615697994
2	0	0	1	1	7464,71	2,35255098	2,3531239	-0,2595355696976185	9	0,125421807	0,000610719377
2	0	0	1	1	7466,16	2,33804965	2,33863854	-0,25960707625684608	9	0,125044584	0,000607127091
2	0	0	0	1	7467,61	2,32354856	2,32405305	-0,25950437512559322	9	0,124667354	0,000603101915
2	0	0	0	1	7469,06	2,30904746	2,30971766	-0,25938923160235117	9	0,124290392	0,000599115912
2	0	0	1	1	7470,51	2,29454637	2,29491162	-0,25920615042559802	9	0,123913594	0,000594855228
2	0	0	0	1	7471,96	2,28004527	2,2805562	-0,25905009832543667	9	0,123537205	0,000590778305
2	0	0	0	1	7473,41	2,26554418	2,26596069	-0,25876742306475898	9	0,123161159	0,000586356793
2	0	0	1	1	7474,86	2,25104284	2,25174594	-0,25847843359224493	9	0,122785434	0,000582027773
2	0	0	1	1	7476,31	2,23654175	2,2370398	-0,25777765728222813	9	0,122410335	0,000576658873
2	0	0	0	1	7477,76	2,22204065	2,2228651	-0,25761988324423645	9	0,122035764	0,000572654244
2	0	0	0	1	7479,21	2,20753956	2,20803905	-0,25721758735987133	9	0,121661976	0,000567946467
2	0	0	1	1	7480,66	2,19303846	2,19350338	-0,25652933632954998	9	0,121288858	0,00056269794
2	0	0	1	1	7482,11	2,17853737	2,17892766	-0,25616801149832714	9	0,120916754	0,000558171538
2	0	0	0	1	7483,56	2,16403627	2,16463256	-0,25531048141419933	9	0,120545499	0,000552653393
2	0	0	1	1	7485,01	2,14953518	2,15039802	-0,25456347603661379	9	0,120175309	0,000547412783
2	0	0	1	1	7486,46	2,13503408	2,13566184	-0,2533479934403055	9	0,119806372	0,000541065645
2	0	0	0	1	7487,91	2,12053299	2,12106609	-0,25274065742269069	9	0,119438536	0,000536079635
2	0	0	0	1	7489,36	2,10603213	2,10650039	-0,25191659433767245	9	0,119071938	0,000530662423
2	0	0	1	1	7490,81	2,0915308	2,09209538	-0,2510919489432135	9	0,118706532	0,000525308307
2	0	0	1	1	7492,26	2,07702971	2,07774997	-0,25014973129145802	9	0,11834266	0,000519748603
2	0	0	0	1	7493,71	2,06252861	2,06307411	-0,24938376814437424	9	0,117979728	0,000514497224
2	0	0	0	1	7495,16	2,04802752	2,04857874	-0,24864639892863805	9	0,117618017	0,000509371748
2	0	0	1	1	7496,61	2,03352642	2,0340631	-0,24791491279999402	9	0,117257334	0,000504274562
2	0	0	0	1	7498,06	2,01902533	2,01932693	-0,24695350152129901	9	0,116897672	0,000498679874
2	0	0	0	1	7499,51	2,00452423	2,00516248	-0,24650051607750355	9	0,116538972	0,000494273612
2	0	0	1	1	7500,96	1,99002302	1,99045646	-0,24616240360774144	9	0,116181068	0,000489975559
2	0	0	1	1	7502,41	1,97552192	1,97603118	-0,24563922042337578	9	0,115824096	0,000485390774
2	0	0	0	1	7503,86	1,96102083	1,96123505	-0,24509369698353155	9	0,115467764	0,000480686344
2	0	0	0	1	7505,31	1,94651985	1,9469099	-0,24472614385498125	9	0,115112208	0,00047645974
2	0	0	1	1	7506,76	1,93201852	1,93236423	-0,24424553142550077	9	0,114757232	0,000471971318
2	0	0	1	1	7508,21	1,91751754	1,91813946	-0,24352381417217338	9	0,114402972	0,000467112637
2	0	0	0	1	7509,66	1,90301645	1,90363407	-0,24324876838363706	9	0,114049301	0,00046305664
2	0	0	1	1	7511,11	1,88851535	1,88918877	-0,24279452751701146	9	0,113696165	0,000458684692
2	0	0	1	1	7512,56	1,87401414	1,87433231	-0,24247108733591994	9	0,113343745	0,000454471388
2	0	0	0	1	7514,01	1,85951304	1,85993719	-0,24190341541543693	9	0,11299181	0,000449925166
2	0	0	0	1	7515,46	1,84501195	1,84560204	-0,24155228235758842	9	0,112640597	0,00044580939
2	0	0	1	1	7516,91	1,83051097	1,83106637	-0,24091687100008218	9	0,112290077	0,000441134791
2	0	0	1	1	7518,36	1,81600988	1,81670129	-0,24042033047104995	9	0,111940272	0,000436771923
2	0	0	0	1	7519,81	1,80150867	1,8019352	-0,23963094114636374	9	0,111591302	0,000431799417
2	0	0	0	1	7521,26	1,78700757	1,78749979	-0,23923627853704032	9	0,111243077	0,000427634805
2	0	0	1	1	7522,71	1,77250648	1,77298427	-0,23883357628559072	9	0,110895738	0,00042344816
2	0	0	0	1	7524,16	1,75800526	1,75853908	-0,23830137324209043	9	0,11054913	0,000419062271
2	0	0	0	1	7525,61	1,74350417	1,74401343	-0,23785865718188416	9	0,110203475	0,000414828683
2	0	0	1	1	7527,06	1,72900307	1,72965837	-0,23731839222212602	9	0,109858461	0,000410479755
2	0	0	1	1	7528,51	1,71450198	1,71504259	-0,23687017615884586	9	0,109514222	0,000406242441
2	0	0	0	1	7529,96	1,700001	1,70032632	-0,2361293448290479	9	0,109170511	0,000401496945
2	0	0	0	1	7531,41	1,68549967	1,68601143	-0,23613326173896598	9	0,108827323	0,000398123375
2	0	0	1	1	7532,86	1,67099869	1,67149603	-0,23601372229556272	9	0,10848432	0,00039449599
2	0	0	1	1	7534,31	1,6564976	1,65694034	-0,23591219548446451	9	0,108141519	0,000390892441
2	0	0	0	1	7535,76	1,64199638	1,64260519	-0,23594651270347456	9	0,107798837	0,000387566979
2	0	0	1	1	7537,21	1,62749529	1,62788928	-0,23613194034745267	9	0,107455909	0,000384396641
2	0	0	1	1	7538,66	1,61299419	1,61345387	-0,23640288847188186	9	0,107112713	0,000381425169
2	0	0	0	1	7540,11	1,5984931	1,59914899	-0,23667863640002906	9	0,106769025	0,000378484401
2	0	0	0	1	7541,56	1,58399212	1,58466339	-0,23697718566594083	9	0,106424816	0,000375529082
2	0	0	1	1	7543,01	1,56949103	1,57006764	-0,23755644564516886	9	0,106079772	0,000372979703
2	0	0	1	1	7544,46	1,55498981	1,5555824	-0,23835651545474922	9	0,105733879	0,000370783207
2	0	0	0	1	7545,91	1,54048884	1,54108691	-0,23928528209216803	9	0,105386846	0,000368759414
2	0	0	0	1	7547,36	1,52598763	1,52642107	-0,24021112608412931	9	0,105038643	0,000366663327
2	0	0	1	1	7548,81	1,51148641	1,51190555	-0,24124341481365219	9	0,104689069	0,000364737265
2	0	0	0	1	7550,26	1,49698544	1,49740994	-0,2423017961749192	9	0,104338065	0,000362825114
2	0	0	0	1	7551,71	1,48248434	1,48299479	-0,24305808148346976	9	0,103985548	0,00036045388
2	0	0	1	1	7553,16	1,46798325	1,46859956	-0,24433888968390826	9	0,103631437	0,000358835998
2	0	0	1	1	7554,61	1,45348215	1,45388365	-0,24555728406024445	9	0,103275642	0,000357011711
2	0	0	0	1	7556,06	1,43898106	1,43921769	-0,24674340112445181	9	0,102918126	0,00035511746
2	0	0	0	1	7557,51	1,42447984	1,42501295	-0,24794770218432038	9	0,102558821	0,00035332868
2	0	0	1	1	7558,96	1,40997875	1,41053748	-0,24928954010829328	9	0,102197714	0,000351632247
2	0	0	1	1	7560,41	1,39547753	1,39604199	-0,2503191012268271	9	0,101834923	0,000349455979
2	0	0	0	1	7561,86	1,38097656	1,38120568	-0,25168531357000301	9	0,10147021	0,000347629189
2	0	0	1	1	7563,31	1,36647546	1,36680043	-0,25249039482635683	9	0,101103872	0,000345103967
2	0	0	1	1	7564,76	1,35197437	1,35236502	-0,25366359413601414	9	0,100735955	0,000343045773
2	0	0	0	1	7566,21	1,33747327	1,33798993	-0,25473024385670762	9	0,100366428	0,000340826489
2	0	0	0	1	7567,66	1,3229723	1,32342434	-0,25581756086709638	9	0,0999953896	0,000338555197
2	0	0	1	1	7569,11	1,30847108	1,3088485	-0,25684789451770528	9	0,0996229798	0,00033617497
2	0	0	1	1	7570,56	1,29396987	1,2943331	-0,25777676980942531	9	0,099249281	0,000333649019
2	0	0	0	1	7572,01	1,27946877	1,27977753	-0,25868193261946182	9	0,0988743678	0,000331055315
2	0	0	0	1	7573,46	1,26496756	1,26578319	-0,25895252389212554	9	0,0984984711	0,000327777758
2	0	0	1	1	7574,91	1,25046659	1,25096703	-0,2599679025200512	9	0,0981214643	0,000325211266
2	0	0	1	1	7576,36	1,23596621	1,23645139	-0,26067670433811418	9	0,0977433547	0,000322314067
2	0	0	0	1	7577,82	1,2214644	1,22184575	-0,26152770966291472	9	0,0973640978	0,000319546525
2	0	0	1	1	7579,27	1,2069633	1,20753062	-0,26226341274256493	9	0,0969837382	0,00031669109
2	0	0	1	1	7580,72	1,19246221	1,19288492	-0,26331246636497507	9	0,096602127	0,00031410146
2	0	0	0	1	7582,17	1,17796099	1,17836928	-0,2640861507194736	9	0,0962191224	0,000311191019
2	0	0	0	1	7583,62	1,1634599	1,16406429	-0,26521409217578595	9	0,0958347991	0,000308726245
2	0	0	1	1	7585,07	1,14895868	1,14958894	-0,26600801145347398	9	0,0954488069	0,000305799855
2	0	0	1	1	7586,52	1,13445771	1,13477266	-0,2673694281062735	9	0,095061183	0,000303403503
2	0	0	0	1	7587,97	1,11995661	1,12039745	-0,2687727886562561	9	0,0946715698	0,000301132357
2	0	0	0	1	7589,42	1,10545576	1,10588253	-0,27037141054423898	9	0,0942798331	0,000298999017
2	0	0	1	1	7590,87	1,09095442	1,09174728	-0,27208427161288774	9	0,0938857347	0,000297047256
2	0	0	0	1	7592,32	1,07645345	1,07676065	-0,27426367198737987	9	0,0934888646	0,000295316335
2	0	0	0	1	7593,77	1,06195211	1,06267619	-0,27655726112425194	9	0,0930889547	0,000293890829
2	0	0	1	1	7595,22	1,04745102	1,04766953	-0,2788024355346952	9	0,0926855356	0,000292092824
2	0	0	1	1	7596,67	1,03294992	1,03335452	-0,28204324290466819	9	0,0922782347	0,000291450648
2	0	0	0	1	7598,12	1,01844871	1,01901937	-0,28537435100103446	9	0,0918662548	0,000290801981
2	0	0	0	1	7599,57	1,00394773	1,00446379	-0,28913318955649978	9	0,0914491788	0,000290423806
2	0	0	1	1	7601,02	0,98944664	0,990018427	-0,2932843544209991	9	0,0910262316	0,000290356926
2	0	0	1	1	7602,47	0,97494632	0,975233734	-0,29796621178611962	9	0,0905970037	0,0002905867
2	0	0	0	1	7603,92	0,96044451	0,960786879	-0,3030244983577488	9	0,090160735	0,000291141972
2	0	0	1	1	7605,37	0,945943356	0,946371675	-0,3083589309826489	9	0,0897168741	0,000291822158
2	0	0	1	1	7606,82	0,931442201	0,931665659	-0,31379845621995674	9	0,0892650783	0,000292355253
2	0	0	0	1	7608,27	0,916941166	0,917631269	-0,32000537666802662	9	0,0888045654	0,000293646939
2	0	0	0	1	7609,72	0,902440071	0,902965426	-0,32634201273322106	9	0,0883352011	0,000294675556
2	0	0	1	1	7611,17	0,887938917	0,888449967	-0,33245862446104454	9	0,08785671	0,000295372854
2	0	0	1	1	7612,62	0,873437881	0,873964429	-0,33856960882743168	9	0,0873692483	0,0002958978
2	0	0	0	1	7614,07	0,858936727	0,8593086	-0,34472464482920896	9	0,086872831	0,00029622484
2	0	0	0	1	7615,52	0,844435871	0,844923913	-0,35064666391098688	9	0,0863679424	0,000296269747
2	0	0	1	1	7616,97	0,829934478	0,830478013	-0,35594112022469517	9	0,0858549476	0,000295601261
2	0	0	0	1	7618,42	0,815433443	0,815721929	-0,36135038058273536	9	0,0853340253	0,000294761441
2	0	0	0	1	7619,87	0,800932288	0,801256537	-0,36661141590836179	9	0,0848056078	0,000293749792
2	0	0	1	1	7621,32	0,786431193	0,787011623	-0,37153153602654944	9	0,0842698067	0,000292399636
2	0	0	1	1	7622,77	0,771930099	0,772265613	-0,37622290795358534	9	0,0837271884	0,000290544005
2	0	0	0	1	7624,22	0,757429004	0,757930517	-0,38051837799139418	9	0,083177954	0,000288406503
2	0	0	0	1	7625,67	0,742927849	0,743214548	-0,38472349344131904	9	0,0826226175	0,000285932096
2	0	0	1	1	7627,12	0,728426754	0,728819311	-0,38857752953966515	9	0,0820613727	0,000283202797
2	0	0	1	1	7628,57	0,713924885	0,714292526	-0,39191456864104704	9	0,0814947262	0,000279941654
2	0	0	0	1	7630,02	0,699424505	0,699718058	-0,39560735970735642	9	0,0809228346	0,000276813604
2	0	0	1	1	7631,47	0,68492341	0,685282767	-0,39902297516043104	9	0,0803457946	0,000273443555
2	0	0	1	1	7632,92	0,670422316	0,670927584	-0,4025626292762663	9	0,0797639266	0,000270090386
2	0	0	0	1	7634,37	0,655921221	0,656382024	-0,40583801999067328	9	0,0791768655	0,00026638477
2	0	0	0	1	7635,82	0,641420126	0,641746163	-0,40990053660546707	9	0,078584522	0,00026305209
2	0	0	1	1	7637,27	0,626918972	0,627300799	-0,41383139773582477	9	0,0779864341	0,000259596767
2	0	0	1	1	7638,72	0,612417877	0,612955749	-0,41815850899244378	9	0,077382341	0,000256312662
2	0	0	0	1	7640,17	0,597916782	0,598329961	-0,42283176584169446	9	0,0767717212	0,000252992904
2	0	0	0	1	7641,62	0,583415687	0,583944738	-0,42803967775156339	9	0,0761540979	0,000249951525
2	0	0	1	1	7643,07	0,568914533	0,569329023	-0,43351883642996646	9	0,0755288675	0,00024681486
2	0	0	0	1	7644,52	0,554413438	0,554703176	-0,43907062569633306	9	0,0748955011	0,000243553877
2	0	0	0	1	7645,97	0,539912343	0,540217757	-0,44544478210931258	9	0,0742535964	0,000240637179
2	0	0	1	1	7647,42	0,525411248	0,525581956	-0,45211006918301421	9	0,073602125	0,000237620901
2	0	0	1	1	7648,87	0,510910153	0,511286914	-0,45943284019206995	9	0,0729406923	0,000234901992
2	0	0	0	1	7650,32	0,496409029	0,496851653	-0,46638827662294259	9	0,0722686127	0,000231725789
2	0	0	0	1	7651,77	0,481907904	0,482175767	-0,47461210905263942	9	0,0715853497	0,00022884646
2	0	0	1	1	7653,22	0,467406809	0,467820585	-0,48287597158923878	9	0,0708902255	0,000225899319
2	0	0	1	1	7654,67	0,452906668	0,453045219	-0,49157463975655616	9	0,070182845	0,000222705537
2	0	0	0	1	7656,12	0,43840459	0,439090312	-0,50046865316108045	9	0,069462955	0,000219750931
2	0	0	1	1	7657,57	0,423903465	0,424304068	-0,51015073526650714	9	0,0687292665	0,000216459026
2	0	0	1	1	7659,02	0,40940237	0,409688354	-0,52048840032269619	9	0,0679813027	0,000213238032
2	0	0	0	1	7660,47	0,394901246	0,395192891	-0,5314173771378905	9	0,0672180429	0,000210012367
2	0	0	0	1	7661,92	0,380400151	0,380847812	-0,54293592274188998	9	0,0664384887	0,000206775963
2	0	0	1	1	7663,37	0,365899056	0,366272122	-0,55595521256327808	9	0,065641053	0,000203630902
2	0	0	1	1	7664,82	0,351397932	0,351786673	-0,57013857240478182	9	0,0648242235	0,000200567156
2	0	0	0	1	7666,27	0,336896837	0,33723104	-0,58556301224355776	9	0,0639858842	0,000197470028
2	0	0	1	1	7667,72	0,322394729	0,322573721	-0,60283855386060032	9	0,0631238073	0,000194459877
2	0	0	1	1	7669,17	0,307894588	0,307949394	-0,62177025107666944	9	0,0622357242	0,000191473766
2	0	0	0	1	7670,62	0,293393523	0,293834865	-0,64284197256589875	9	0,0613184422	0,000188889389
2	0	0	0	1	7672,07	0,278892398	0,279469699	-0,66588626491526707	9	0,0603691489	0,000186095029
2	0	0	0	1	7672,69	0,272691995	0,273364812	-0,67673620084921638	9	0,0599525757	0,000184995864