File: Experimentelles/Rohdaten/Batteriemessungen/AlteZelle/Batterietest Li vs LATP/ZView-Export/LATP vs Li Batterietest Probe1_02_GCPL_C01_loop6.txt
EC-Lab ASCII FILE
Nb header lines : 3
mode	ox/red	error	control changes	Ns changes	counter inc.	Ns	time/s	control/V/mA	Ewe/V	dq/mA.h	<I>/mA	P/W	(Q-Qo)/mA.h	x	Capacity/mA.h
1	1	0	1	1	0	1	20871,75	0,100000001	1,21261787	0	0	0	0	0	0
1	1	0	1	0	0	1	20883,75	0,100000001	1,52523971	5,556299575169881E-005	0,10001339356393936	0,000152544395	0,00033200557193724205	-1,238757427521751E-005	0,00033200557193724205
1	1	0	1	0	0	1	20895,75	0,100000001	1,6847204	5,5563016750332378E-005	0,10001343136148024	0,000168494662	0,00066538360804428224	-2,4826357033907891E-005	0,00066538360804428224
1	1	0	1	0	0	1	20907,75	0,100000001	1,83658218	5,5563009187579155E-005	0,10001341774852427	0,00018368286	0,00099876186490664448	-3,7265148029276141E-005	0,00099876186490664448
1	1	0	1	0	0	1	20919,75	0,100000001	1,99510813	5,5562852449715142E-005	0,10001313562036563	0,000199537026	0,0013321392388623744	-4,9703906082210874E-005	0,0013321392388623744
1	1	0	1	0	0	1	20931,75	0,100000001	2,15903783	5,556289284634921E-005	0,10001320833430784	0,000215932305	0,0016655164073360586	-6,2142656468334195E-005	0,0016655164073360586
1	1	0	1	0	0	1	20943,75	0,100000001	2,31758285	5,5562907499985562E-005	0,1000132347108536	0,000231788959	0,0019988935909095862	-7,4581407417852979E-005	0,0019988935909095862
1	1	0	1	0	0	1	20955,75	0,100000001	2,43467283	5,5562865503960186E-005	0,10001315911800699	0,000243499322	0,0023322710132878816	-8,7020167277498714E-005	0,0023322710132878816
1	1	0	1	0	0	1	20967,75	0,100000001	2,4865346	5,5562784376657677E-005	0,1000130130888607	0,000248685828	0,0026656480027965501	-9,9458910986196685E-005	0,0026656480027965501
1	1	0	1	0	0	1	20979,75	0,100000001	2,50954413	5,556281844029824E-005	0,10001307440341448	0,000250987214	0,0029990252060934202	-0,00011189766267161987	0,0029990252060934202
1	1	0	1	0	0	1	20991,75	0,100000001	2,52306318	5,5562863460017581E-005	0,10001315543891026	0,000252339523	0,0033324023429621549	-0,00012433641187852006	0,0033324023429621549
1	1	0	1	0	0	1	21003,75	0,100000001	2,53285885	5,5562840422822368E-005	0,10001311397195837	0,0002533191	0,0036657796540647872	-0,0001367751675863212	0,0036657796540647872
1	1	0	1	0	0	1	21015,75	0,100000001	2,54032493	5,5562878398845594E-005	0,10001318232880102	0,000254065992	0,0039991567748998726	-0,00014921391619498435	0,0039991567748998726
1	1	0	1	0	0	1	21027,75	0,100000001	2,54662633	5,5562924189700026E-005	0,10001326475234	0,00025469641	0,0043325340014980192	-0,00016165266874980954	0,0043325340014980192
1	1	0	1	0	0	1	21039,75	0,100000001	2,55203032	5,5562938421964646E-005	0,10001329037041661	0,000255236955	0,004665911271184944	-0,00017409142291233494	0,004665911271184944
1	1	0	1	0	0	1	21051,75	0,100000001	2,55695677	5,5562872706188096E-005	0,10001317208201741	0,000255729363	0,0049992881789251469	-0,0001865301635701415	0,0049992881789251469
1	1	0	1	0	0	1	21063,75	0,100000001	2,56152034	5,5562856030546957E-005	0,10001314206586299	0,000256185711	0,0053326649085538381	-0,0001989688975823681	0,0053326649085538381
1	1	0	1	0	0	1	21075,75	0,100000001	2,56572127	5,5562738981511853E-005	0,10001293137759726	0,000256605301	0,0056660416130765568	-0,00021140763065785712	0,0056660416130765568
1	1	0	1	0	0	1	21087,75	0,100000001	2,56967402	5,5562792492409549E-005	0,10001302769721426	0,00025700088	0,0059994176760504768	-0,00022384633979629789	0,0059994176760504768
1	1	0	1	0	0	1	21099,75	0,100000001	2,57337832	5,556278791319993E-005	0,10001301945463685	0,000257371343	0,0063327943069167565	-0,00023628507012356611	0,0063327943069167565
1	1	0	1	0	0	1	21111,75	0,100000001	2,57696819	5,5562814961704947E-005	0,10001306814194646	0,000257730484	0,0066661709090589786	-0,00024872379937910112	0,0066661709090589786
1	1	0	1	0	0	1	21123,75	0,100000001	2,58053899	5,5562841914594176E-005	0,10001311665714766	0,000258087734	0,0069995477342330867	-0,00026116253695625571	0,0069995477342330867
1	1	0	1	0	0	1	21135,75	0,100000001	2,58405232	5,5562763792359168E-005	0,10001297603712296	0,000258438755	0,007332924322386016	-0,00027360126568983139	0,007332924322386016
1	1	0	1	0	0	1	21147,75	0,100000001	2,58741307	5,5562725370956787E-005	0,10001290687859784	0,0002587747	0,0076663015563159488	-0,00028604001851821539	0,0076663015563159488
1	1	0	1	0	0	1	21159,75	0,100000001	2,59065914	5,5562842672069869E-005	0,10001311802060394	0,000259099907	0,0079996785628566451	-0,00029847876286240122	0,0079996785628566451
1	1	0	1	0	0	1	21171,75	0,100000001	2,59392452	5,5562829244881869E-005	0,10001309385166525	0,000259426422	0,0083330553038528538	-0,00031091749729876518	0,0083330553038528538
1	1	0	1	0	0	1	21183,75	0,100000001	2,5970943	5,5562849585380819E-005	0,10001313046456381	0,000259743538	0,0086664323263916032	-0,00032335624223985984	0,0086664323263916032
1	1	0	1	0	0	1	21195,75	0,100000001	2,60028315	5,5562822693337997E-005	0,10001308205888611	0,000260062341	0,0089998096170353523	-0,00033579499718431258	0,0089998096170353523
1	1	0	1	0	0	1	21207,75	0,100000001	2,60354829	5,5562895236743821E-005	0,10001321263701819	0,000260389235	0,0093331868225644992	-0,00034823374895302509	0,0093331868225644992
1	1	0	1	0	0	1	21219,75	0,100000001	2,60679436	5,556280567621191E-005	0,1000130514280588	0,000260713452	0,0096665640690391398	-0,00036067250224946893	0,0096665640690391398
1	1	0	1	0	0	1	21231,75	0,100000001	2,61009789	5,5562860403623846E-005	0,10001314993740147	0,000261044101	0,0099999409252010432	-0,00037311124098281978	0,0099999409252010432
1	1	0	1	0	0	1	21243,75	0,100000001	2,61315298	5,5562837451696397E-005	0,10001310862393155	0,000261349545	0,010333317947809333	-0,00038554998592650912	0,010333317947809333
1	1	0	1	0	0	1	21255,75	0,100000001	2,61639905	5,5562971258329018E-005	0,1000133494758732	0,000261674839	0,010666695572923307	-0,00039798875335049562	0,010666695572923307
1	1	0	1	0	0	1	21267,75	0,100000001	2,61960697	5,5562890538324915E-005	0,10001320417986406	0,000261995301	0,011000073169429539	-0,00041042751970708883	0,011000073169429539
1	1	0	1	0	0	1	21279,75	0,100000001	2,62287235	5,5562959447503091E-005	0,10001332821638627	0,000262322195	0,011333451068190094	-0,00042286629734119718	0,011333451068190094
1	1	0	1	0	0	1	21291,75	0,100000001	2,62615657	5,5563014253973958E-005	0,10001342686803504	0,000262650923	0,011666828590037781	-0,00043530506091217958	0,011666828590037781
1	1	0	1	0	0	1	21303,75	0,100000001	2,62942195	5,5562975457145107E-005	0,10001335703374226	0,000262977323	0,012000206334736886	-0,00044774383279804813	0,012000206334736886
1	1	0	1	0	0	1	21315,75	0,100000001	2,63272524	5,5562913109444909E-005	0,10001324480788054	0,000263307389	0,012333583727720986	-0,00046018259156095699	0,012333583727720986
1	1	0	1	0	0	1	21327,75	0,100000001	2,63616228	5,5562870174232454E-005	0,10001316752449718	0,000263650931	0,012666960979021947	-0,00047262134503747731	0,012666960979021947
1	1	0	1	0	0	1	21339,75	0,100000001	2,63944674	5,556287770552768E-005	0,10001318108082875	0,000263979455	0,013000338259011784	-0,0004850600995844183	0,013000338259011784
1	1	0	1	0	0	1	21351,75	0,100000001	2,64284563	5,5562907557520608E-005	0,10001323481441667	0,000264319533	0,013333715343204086	-0,00049749884682588986	0,013333715343204086
1	1	0	1	0	0	1	21363,75	0,100000001	2,6464355	5,556287791248825E-005	0,10001318145335779	0,000264678441	0,013667092638437811	-0,00050993760194160077	0,013667092638437811
1	1	0	1	0	0	1	21375,75	0,100000001	2,64977694	5,5562903830988544E-005	0,10001322810665888	0,000265012757	0,014000469931783227	-0,00052237635698685626	0,014000469931783227
1	1	0	1	0	0	1	21387,75	0,100000001	2,65338588	5,556277207988832E-005	0,10001299095467562	0,000265373063	0,014333846880309563	-0,00053481509916644826	0,014333846880309563
1	1	0	1	0	0	1	21399,75	0,100000001	2,65699482	5,5562861315078208E-005	0,10001315157801936	0,000265734416	0,014667224122029488	-0,00054725385228548742	0,014667224122029488
1	1	0	1	0	0	1	21411,75	0,100000001	2,66056561	5,5562879176189498E-005	0,10001318372802006	0,000266091636	0,015000601156314906	-0,00055969259766486605	0,015000601156314906
1	1	0	1	0	0	1	21423,75	0,100000001	2,66423178	5,5562784778161178E-005	0,10001301381156704	0,00026645785	0,015333977947150118	-0,00057213133396079027	0,015333977947150118
1	1	0	1	0	0	1	21435,75	0,100000001	2,6679554	5,5562840861578784E-005	0,10001311476171995	0,000266830524	0,015667355095556906	-0,00058457008359819072	0,015667355095556906
1	1	0	1	0	0	1	21447,75	0,100000001	2,67177439	5,5562882134483923E-005	0,1000131890529501	0,000267212687	0,016000733073621443	-0,00059700886419123725	0,016000733073621443
1	1	0	1	0	0	1	21459,75	0,100000001	2,67568874	5,556300688866112E-005	0,10001341361047176	0,000267604773	0,016334110779172714	-0,00060944763461644749	0,016334110779172714
1	1	0	1	0	0	1	21471,75	0,100000001	2,67952681	5,5562942741231789E-005	0,10001329814509757	0,000267988304	0,016667488312735194	-0,00062188639862452454	0,016667488312735194
1	1	0	1	0	0	1	21483,75	0,100000001	2,68351769	5,5562919033070406E-005	0,10001325547040656	0,000268387346	0,017000865821546013	-0,00063432516170908403	0,017000865821546013
1	1	0	1	0	0	1	21495,75	0,100000001	2,68741322	5,5562994917647706E-005	0,10001339206264736	0,000268777309	0,017334243654224051	-0,0006467639368775648	0,017334243654224051
1	1	0	1	0	0	1	21507,75	0,100000001	2,69128942	5,5563012614846227E-005	0,10001342391760509	0,000269165059	0,017667621672504336	-0,00065920271897111501	0,017667621672504336
1	1	0	1	0	0	1	21519,75	0,100000001	2,69547105	5,5562943968094054E-005	0,1000133003534497	0,000269582961	0,018000999618273501	-0,00067164149835917786	0,018000999618273501
1	1	0	1	0	0	1	21531,75	0,100000001	2,69967198	5,5562878059844173E-005	0,10001318171859845	0,000270002784	0,018334376722031856	-0,00068408024633068518	0,018334376722031856
1	1	0	1	0	0	1	21543,75	0,100000001	2,70387292	5,5562855076458714E-005	0,10001314034850413	0,00027042281	0,018667753893760618	-0,00069651899683825971	0,018667753893760618
1	1	0	1	0	0	1	21555,75	0,100000001	2,70822644	5,5562972787353728E-005	0,10001335222811773	0,000270858814	0,019001131165120608	-0,0007089577510632096	0,019001131165120608
1	1	0	1	0	0	1	21567,75	0,100000001	2,71273303	5,5562789248095616E-005	0,10001302185744912	0,000271308614	0,019334508437731472	-0,0007213965053348311	0,019334508437731472
1	1	0	1	0	0	1	21579,75	0,100000001	2,7171247	5,5562783247480787E-005	0,10001301105634229	0,00027174782	0,01966788501593705	-0,00073383523369725773	0,01966788501593705
1	1	0	1	0	0	1	21591,75	0,100000001	2,72153568	5,5562796283513312E-005	0,10001303452120112	0,000272189034	0,020001261950192624	-0,00074627397534438848	0,020001261950192624
1	1	0	1	0	0	1	21603,75	0,100000001	2,72619486	5,5562841968403923E-005	0,10001311675400522	0,000272655248	0,020334639174549386	-0,00075871272781558451	0,020334639174549386
1	1	0	1	0	0	1	21615,75	0,100000001	2,73081589	5,5562717337989146E-005	0,1000128924192559	0,000273116806	0,020668015762605456	-0,00077115145654554624	0,020668015762605456
1	1	0	1	0	0	1	21627,75	0,100000001	2,73557043	5,5562768210967379E-005	0,10001298399061784	0,000273592566	0,021001392348350195	-0,00078359018518926925	0,021001392348350195
1	1	0	1	0	0	1	21639,75	0,100000001	2,7404778	5,5562650237232448E-005	0,10001277163789238	0,000274082791	0,02133476898983521	-0,00079602891591273677	0,02133476898983521
1	1	0	1	0	0	1	21651,75	0,100000001	2,74544263	5,5562777394221888E-005	0,10001300052047613	0,000274579943	0,021668145454919037	-0,00080846764005443866	0,021668145454919037
1	1	0	1	0	0	1	21663,75	0,100000001	2,75038815	5,5562704844193325E-005	0,10001286993042315	0,000275074213	0,022001521968817408	-0,00082090636601747699	0,022001521968817408
1	1	0	1	0	0	1	21675,75	0,100000001	2,75562	5,5562753188941216E-005	0,10001295695097042	0,000275597704	0,022334898446451318	-0,00083334509062743962	0,022334898446451318
1	1	0	1	0	0	1	21687,75	0,100000001	2,76083302	5,5562746967706413E-005	0,10001294575274762	0,000276119041	0,022668274907746522	-0,00084578381462778304	0,022668274907746522
1	1	0	1	0	0	1	21699,75	0,100000001	2,76627517	5,5562600932601427E-005	0,10001268288955547	0,000276662613	0,023001650954814691	-0,00085822252317275878	0,023001650954814691
1	1	0	1	0	0	1	21711,75	0,100000001	2,771698	5,5562736911492218E-005	0,10001292765156184	0,000277205632	0,023335027335520691	-0,00087066124416621069	0,023335027335520691
1	1	0	1	0	0	1	21723,75	0,100000001	2,77735019	5,5562598926325638E-005	0,10001267927825901	0,000277770247	0,023668403391979907	-0,00088309995306157901	0,023668403391979907
1	1	0	1	0	0	1	21735,75	0,100000001	2,78300214	5,5562712312572531E-005	0,10001288337350589	0,000278336054	0,024001779276786435	-0,00089553865555235494	0,024001779276786435
1	1	0	1	0	0	1	21747,75	0,100000001	2,78905535	5,5562735246701376E-005	0,1000129246549383	0,000278941588	0,024335155339945792	-0,00090797736469771443	0,024335155339945792
1	1	0	1	0	0	1	21759,75	0,100000001	2,79503202	5,5562789760116077E-005	0,10001302277908594	0,000279539614	0,024668531691997686	-0,00092041608462204314	0,024668531691997686
1	1	0	1	0	0	1	21771,75	0,100000001	2,80144787	5,5562811534437869E-005	0,10001306197286566	0,000280181383	0,025001908234271594	-0,00093285481164381094	0,025001908234271594
1	1	0	1	0	0	1	21783,75	0,100000001	2,80786371	5,556277312214176E-005	0,10001299283073181	0,00028082286	0,025335284849562022	-0,0009452935413899232	0,025335284849562022
1	1	0	1	0	0	1	21795,75	0,100000001	2,81441331	5,5562806952330803E-005	0,10001305372507283	0,000281478075	0,025668661644737194	-0,00095773227784777715	0,025668661644737194
1	1	0	1	0	0	1	21807,75	0,100000001	2,82126832	5,5562728926953344E-005	0,10001291327939171	0,000282163266	0,026002038238889082	-0,00097017100680518195	0,026002038238889082
1	1	0	1	0	0	1	21819,75	0,100000001	2,82856274	5,5562915536678502E-005	0,10001324917690106	0,000282893743	0,026335415562391549	-0,00098260976297563776	0,026335415562391549
1	1	0	1	0	0	1	21831,75	0,100000001	2,83589506	5,5562968412621152E-005	0,10001334435359899	0,000283627363	0,026668793175505946	-0,00099504852995190387	0,026668793175505946
1	1	0	1	0	0	1	21843,75	0,100000001	2,84330392	5,5562832004080218E-005	0,10001309881822234	0,000284367648	0,027002170531107584	-0,0010074872873200227	0,027002170531107584
1	1	0	1	0	0	1	21855,75	0,100000001	2,85124731	5,556293016961879E-005	0,1000132755161939	0,00028516259	0,027335547892094755	-0,0010199260448890829	0,027335547892094755
1	1	0	1	0	0	1	21867,75	0,100000001	2,85932446	5,5563019543058342E-005	0,10001343638838704	0,000285970862	0,02766892578631377	-0,0010323648223537403	0,02766892578631377
1	1	0	1	0	0	1	21879,75	0,100000001	2,86772633	5,5563060645841888E-005	0,10001351037339832	0,000286811381	0,028002304038469434	-0,0010448036131734954	0,028002304038469434
1	1	0	1	0	0	1	21891,75	0,100000001	2,87647176	5,5562951715870035E-005	0,10001331429944662	0,000287685485	0,02833568199158777	-0,0010572423928357654	0,02833568199158777
1	1	0	1	0	0	1	21903,75	0,100000001	2,88550377	5,5562982865505747E-005	0,10001337036879157	0,000288588955	0,028669059831176227	-0,0010696811682620835	0,028669059831176227
1	1	0	1	0	0	1	21915,75	0,100000001	2,89470744	5,5562960890846118E-005	0,10001333081440376	0,000289509335	0,029002437757888461	-0,0010821199469391067	0,029002437757888461
1	1	0	1	0	0	1	21927,75	0,100000001	2,90427399	5,5562995608068179E-005	0,10001339330540422	0,000290466298	0,02933581563871671	-0,0010945587239041366	0,02933581563871671
1	1	0	1	0	0	1	21939,75	0,100000001	2,91441345	5,5562913792000877E-005	0,1000132460364813	0,000291479955	0,029669193427499654	-0,0011069974974348323	0,029669193427499654
1	1	0	1	0	0	1	21951,75	0,100000001	2,92489648	5,5562945944567526E-005	0,10001330391110197	0,000292528566	0,030002571045480531	-0,0011194362645926734	0,030002571045480531
1	1	0	1	0	0	1	21963,75	0,100000001	2,9357996	5,5562987368553875E-005	0,1000133784742783	0,000293619232	0,030335948915058816	-0,001131875041137952	0,030335948915058816
1	1	0	1	0	0	1	21975,75	0,100000001	2,94702744	5,5562983488870989E-005	0,10001337149084904	0,000294742145	0,030669326885568051	-0,0011443138214491003	0,030669326885568051
1	1	0	1	0	0	1	21987,75	0,100000001	2,95878983	5,5562951727045907E-005	0,10001331431956318	0,000295918377	0,031002704540506701	-0,0011567525899858851	0,031002704540506701
1	1	0	1	0	0	1	21999,75	0,100000001	2,97116351	5,5562964462157754E-005	0,10001333724276478	0,000297155988	0,031336082142493242	-0,0011691913565469563	0,031336082142493242
1	1	0	1	0	0	1	22011,75	0,100000001	2,98410988	5,5562908386190733E-005	0,10001323630602293	0,000298450497	0,031669459554278458	-0,00118163011601136	0,031669459554278458
1	1	0	1	0	0	1	22023,75	0,100000001	2,99776268	5,5562933117151264E-005	0,10001328082175242	0,000299816078	0,032002837123842138	-0,0011940688813626902	0,032002837123842138
1	1	0	1	0	0	1	22035,75	0,100000001	3,01166368	5,5562989073908992E-005	0,10001338154391754	0,000301206659	0,032336214954580134	-0,0012065076564587856	0,032336214954580134
1	1	0	1	0	0	1	22047,75	0,100000001	3,02663422	5,556303591074215E-005	0,10001346585021826	0,000302704168	0,03266959283747385	-0,001218946433500881	0,03266959283747385
1	1	0	1	0	0	1	22059,75	0,100000001	3,04233003	5,5563083876338272E-005	0,1000135521882923	0,000304274232	0,033002971043773677	-0,001231385222609693	0,033002971043773677
1	1	0	1	0	0	1	22071,75	0,100000001	3,05888534	5,5563083853986528E-005	0,10001355214805917	0,000305929978	0,033336349436710138	-0,0012438240186821686	0,033336349436710138
1	1	0	1	0	0	1	22083,75	0,100000001	3,07628083	5,556307792911927E-005	0,10001354148329798	0,000307669747	0,0336697275339376	-0,0012562628037213443	0,0336697275339376
1	1	0	1	0	0	1	22095,75	0,100000001	3,09466934	5,5563169105599328E-005	0,10001370560096406	0,000309509342	0,034003106241945446	-0,001268701611549557	0,034003106241945446
1	1	0	1	0	0	1	22107,75	0,100000001	3,11397433	5,5563104290515187E-005	0,1000135889338112	0,00031143974	0,034336484471763034	-0,0012811404015358482	0,034336484471763034
1	1	0	1	0	0	1	22119,75	0,100000001	3,13452029	5,5563070658594368E-005	0,10001352839635301	0,000313494442	0,034669863031742323	-0,0012935792038409168	0,034669863031742323
1	1	0	1	0	0	1	22131,75	0,100000001	3,15628862	5,5563174163715706E-005	0,10001371470557366	0,000315672136	0,035003241625549331	-0,0013060180074081429	0,035003241625549331
1	1	0	1	0	0	1	22143,75	0,100000001	3,17937422	5,5563040608333216E-005	0,10001347430588227	0,000317980273	0,035336620146215642	-0,001318456808246391	0,035336620146215642
1	1	0	1	0	0	1	22155,75	0,100000001	3,20404482	5,5562956586066221E-005	0,10001332306579984	0,000320447172	0,035669997934079674	-0,001330895581742801	0,035669997934079674
1	1	0	1	0	0	1	22167,75	0,100000001	3,23007131	5,5562873868892595E-005	0,10001317417488552	0,000323049695	0,036003375563938842	-0,0013433343493438371	0,036003375563938842
1	1	0	1	0	0	1	22179,75	0,100000001	3,25785446	5,5563010924806195E-005	0,10001342087553298	0,000325829169	0,03633675349023095	-0,0013557731280051848	0,03633675349023095
1	1	0	1	0	0	1	22191,75	0,100000001	3,28764248	5,556300182143847E-005	0,10001340448947088	0,000328808324	0,036670131422174317	-0,0013682119068773883	0,036670131422174317
1	1	0	1	0	0	1	22203,75	0,100000001	3,31928277	5,5562985708316166E-005	0,1000133754858504	0,000331972667	0,037003509230494342	-0,0013806506811370389	0,037003509230494342
1	1	0	1	0	0	1	22215,75	0,100000001	3,35302329	5,5562982929249606E-005	0,10001337048353051	0,000335347169	0,03733688702364167	-0,0013930894548305757	0,03733688702364167
1	1	0	1	0	0	1	22227,75	0,100000001	3,38892174	5,5562948177672096E-005	0,10001330793069022	0,000338937272	0,037670264876125843	-0,0014055282307380501	0,037670264876125843
1	1	0	1	0	0	1	22239,75	0,100000001	3,42728353	5,5562887148724659E-005	0,10001319807858352	0,000342773594	0,03800364242400089	-0,0014179669952801482	0,03800364242400089
1	1	0	1	0	0	1	22251,75	0,100000001	3,46774554	5,5563069633725613E-005	0,10001352655158922	0,000346821471	0,038337020241626272	-0,0014304057698869944	0,038337020241626272
1	1	0	1	0	0	1	22263,75	0,100000001	3,5110147	5,5562982765750752E-005	0,10001337018923258	0,000351148425	0,038670398102938144	-0,0014428445461238419	0,038670398102938144
1	1	0	1	0	0	1	22275,75	0,100000001	3,55697608	5,5563001376059315E-005	0,10001340368778838	0,000355745287	0,039003776185772333	-0,001455283330625985	0,039003776185772333
1	1	0	1	0	0	1	22287,75	0,100000001	3,60583997	5,5562937606539987E-005	0,10001328890265222	0,000360631908	0,039337154044211174	-0,0014677221067556358	0,039337154044211174
1	1	0	1	0	0	1	22299,75	0,100000001	3,6577208	5,5563076067301965E-005	0,10001353813202678	0,000365821586	0,039670531999777434	-0,0014801608865092419	0,039670531999777434
1	1	0	1	0	0	1	22311,75	0,100000001	3,71256137	5,5562910190059078E-005	0,100013239552986	0,000371305301	0,040003909714436634	-0,001492599657274281	0,040003909714436634
1	1	0	1	0	0	1	22323,75	0,100000001	3,770648	5,5562971980621414E-005	0,10001335077599954	0,000377115153	0,040337287191134214	-0,0015050384191606522	0,040337287191134214
1	1	0	1	0	0	1	22335,75	0,100000001	3,83165622	5,5562815014272928E-005	0,10001306823656883	0,000383215694	0,040670664851573037	-0,0015174771879026563	0,040670664851573037
1	1	0	1	0	0	1	22347,75	0,100000001	3,89526153	5,5562793597992922E-005	0,10001302968726435	0,000389576919	0,041004041978013446	-0,0015299159367204614	0,041004041978013446
1	1	0	1	0	0	1	22359,75	0,100000001	3,96136808	5,5562893384032781E-005	0,10001320930213827	0,000396189134	0,041337418893767994	-0,0015423546776772941	0,041337418893767994
1	1	0	1	0	0	1	22371,75	0,100000001	4,03014803	5,5562851270039878E-005	0,10001313349695014	0,000403067737	0,041670796116359795	-0,0015547934300826371	0,041670796116359795
1	1	0	1	0	0	1	22383,75	0,100000001	4,09978724	5,5562917624910675E-005	0,10001325293571901	0,00041003307	0,042004173416710406	-0,0015672321853892659	0,042004173416710406
1	1	0	1	0	0	1	22395,75	0,100000001	4,16787958	5,5562748336957562E-005	0,10001294821739971	0,000416841911	0,042337550238701056	-0,0015796709228476413	0,042337550238701056
1	1	0	1	0	0	1	22407,75	0,100000001	4,23207092	5,5562786510007251E-005	0,10001301692888998	0,000423262187	0,042670926840228608	-0,0015921096520802422	0,042670926840228608
1	1	0	1	0	0	1	22419,75	0,100000001	4,29304075	5,5562818273074099E-005	0,10001307410241101	0,000429360196	0,043004303797940269	-0,0016045483946025514	0,043004303797940269
1	1	0	1	0	0	1	22431,75	0,100000001	4,34898901	5,5562836072097222E-005	0,10001310614065302	0,000434955902	0,043337680803675475	-0,0016169871389166829	0,043337680803675475
1	1	0	1	0	0	1	22443,75	0,100000001	4,40025902	5,5562859555085504E-005	0,10001314841003243	0,000440083764	0,04367105781786089	-0,0016294258835461037	0,04367105781786089
1	1	0	1	0	0	1	22455,75	0,100000001	4,44595289	5,5562858441637619E-005	0,10001314640582622	0,000444653735	0,044004434743794995	-0,0016418646248827491	0,044004434743794995
1	1	0	1	0	0	1	22467,75	0,100000001	4,4855938	5,5562867682013248E-005	0,10001316303850256	0,000448618433	0,044337812122634573	-0,0016543033831179066	0,044337812122634573
1	0	0	0	0	0	2	22476,63	-0,100000001	4,31173468	-5,5544703753458125E-005	-0,099980467966707494	0,000431089255	0,044362291236861158	-0,0016552167317822198	0,00011109461378885638
1	0	0	0	0	0	2	22488,63	-0,100000001	3,89947557	-5,5545148012124832E-005	-0,099981267632317248	0,000389874505	0,044029020905579808	-0,0016427819676353866	0,00044436494507019718
1	0	0	0	0	0	2	22500,63	-0,100000001	3,53611875	-5,5545275358276237E-005	-0,09998149685539255	0,000353546435	0,043695749383146003	-0,0016303471590450538	0,00077763646750400461
1	0	0	0	0	0	2	22512,63	-0,100000001	3,1931932	-5,554523041802976E-005	-0,099981415962947904	0,000319259969	0,043362477794741018	-0,0016179123479932477	0,0011109080559089778
1	0	0	0	0	0	2	22524,63	-0,100000001	2,88127804	-5,5545254125363296E-005	-0,099981458636148787	0,00028807437	0,043029206164829683	-0,0016054775353927837	0,0014441796858203078
1	0	0	0	0	0	2	22536,63	-0,100000001	2,64406204	-5,5545274528364339E-005	-0,099981495361551117	0,000264357281	0,042695934516885472	-0,0015930427221194886	0,0017774513337645261
1	0	0	0	0	0	2	22548,63	-0,100000001	2,56040716	-5,5545252431597978E-005	-0,099981455587371187	0,000255993247	0,042362662867611328	-0,0015806079087965722	0,0021107229830386733
1	0	0	0	0	0	2	22560,63	-0,100000001	2,51872301	-5,5545198554380077E-005	-0,099981358608377779	0,000251825346	0,042029391423582874	-0,0015681731031316486	0,0024439944270671235
1	0	0	0	0	0	2	22572,63	-0,100000001	2,49019527	-5,5545091857926714E-005	-0,099981166554759411	0,000248972618	0,041696120391039642	-0,0015557383128197917	0,0027772654596103558
1	0	0	0	0	0	2	22584,63	-0,100000001	2,46791148	-5,5545263290819194E-005	-0,099981475133969613	0,000246745418	0,041362848959370464	-0,0015433035076160093	0,0031105368912795347
1	0	0	0	0	0	2	22596,63	-0,100000001	2,45007682	-5,5545249065177306E-005	-0,099981449527813901	0,000244962226	0,041029577728012634	-0,0015308687098861123	0,0034438081226373709
1	0	0	0	0	0	2	22608,63	-0,100000001	2,43634748	-5,5545145263688429E-005	-0,099981262685131661	0,000243589093	0,04069630621060921	-0,0015184339014834698	0,0037770796400407949
1	0	0	0	0	0	2	22620,63	-0,100000001	2,42748761	-5,5545180765291053E-005	-0,099981326588017152	0,000242703434	0,040363034975155219	-0,0015059991036007398	0,0041103508754947949
1	0	0	0	0	0	2	22632,63	-0,100000001	2,42223644	-5,554519422021177E-005	-0,099981350806874739	0,000242178474	0,040029763915501389	-0,0014935643122773498	0,0044436219351486208
1	0	0	0	0	0	2	22644,63	-0,100000001	2,41822648	-5,5545109929723872E-005	-0,099981199083994688	0,00024177719	0,039696493298730355	-0,0014811295374785126	0,0047768925519196538
1	0	0	0	0	0	2	22656,63	-0,100000001	2,41461754	-5,5545190230425862E-005	-0,099981343625260019	0,00024141671	0,039363222313039264	-0,0014686947489147725	0,0051101635376107373
1	0	0	0	0	0	2	22668,63	-0,100000001	2,41156244	-5,5545163071817818E-005	-0,099981294739764941	0,000241111135	0,039029951149028064	-0,0014562599536976685	0,0054434347016219475
1	0	0	0	0	0	2	22680,63	-0,100000001	2,40869808	-5,5545130508641402E-005	-0,099981236126046694	0,000240824607	0,03869668062387351	-0,0014438251823171658	0,0057767052267765018
1	0	0	0	0	0	2	22692,63	-0,100000001	2,40583396	-5,554505594405863E-005	-0,09998110190979607	0,000240537935	0,038363410416178266	-0,0014313904227814963	0,0061099754344717517
1	0	0	0	0	0	2	22704,63	-0,100000001	2,40300775	-5,5545129921287296E-005	-0,09998123506880928	0,000240255686	0,038030139742471136	-0,0014189556458582968	0,0064432461081788774
1	0	0	0	0	0	2	22716,63	-0,100000001	2,40025806	-5,5545231639511059E-005	-0,099981418161614285	0,000239981207	0,037696868496095834	-0,0014065208475680778	0,0067765173545541875
1	0	0	0	0	0	2	22728,63	-0,100000001	2,39739394	-5,5545174323436288E-005	-0,099981314992678438	0,000239694593	0,037363597044586176	-0,0013940860416240202	0,0071097888060638477
1	0	0	0	0	0	2	22740,63	-0,100000001	2,39470148	-5,554509107561575E-005	-0,099981165146599654	0,000239425048	0,037030326329172762	-0,0013816512631447032	0,0074430595214772557
1	0	0	0	0	0	2	22752,63	-0,100000001	2,39191365	-5,5545141458925274E-005	-0,099981255836557914	0,000239146524	0,03669705567787863	-0,001369216487057763	0,0077763301727713805
1	0	0	0	0	0	2	22764,63	-0,100000001	2,38899207	-5,5545087298999232E-005	-0,099981158348689843	0,000238854191	0,036363784726905587	-0,0013567816997893995	0,0081096011237444147
1	0	0	0	0	0	2	22776,63	-0,100000001	2,38587976	-5,5545109817965165E-005	-0,099981198882829018	0,000238543114	0,036030514050903686	-0,001344346922780579	0,0084428717997463194
1	0	0	0	0	0	2	22788,63	-0,100000001	2,38295817	-5,5545200751059584E-005	-0,09998136256240096	0,000238251407	0,035697242853417843	-0,0013319121263144917	0,00877614299723216
1	0	0	0	0	0	2	22800,63	-0,100000001	2,37984562	-5,5545142109609318E-005	-0,099981257007789184	0,000237939952	0,035363972140980525	-0,001319477347946217	0,0091094137096694746
1	0	0	0	0	0	2	22812,63	-0,100000001	2,37667584	-5,5545284447984557E-005	-0,099981513216867725	0,000237623652	0,035030700522640774	-0,0013070425357775043	0,009442685328009225
1	0	0	0	0	0	2	22824,63	-0,100000001	2,37339163	-5,554515393036935E-005	-0,099981278285157517	0,000237294735	0,034697429218429914	-0,0012946077353293629	0,0097759566322200794
1	0	0	0	0	0	2	22836,63	-0,100000001	2,3700881	-5,554512814887696E-005	-0,099981231878470643	0,000236964333	0,034364158181252832	-0,0012821729448446109	0,010109227669397157
1	0	0	0	0	0	2	22848,63	-0,100000001	2,36670852	-5,5545017326457638E-005	-0,099981032398113459	0,000236625958	0,034030887786405626	-0,0012697381783260501	0,010442498064244368
1	0	0	0	0	0	2	22860,63	-0,100000001	2,36287022	-5,5545127094205882E-005	-0,099981229980062694	0,000236242675	0,033697617257842842	-0,0012573034068183816	0,010775768592807147
1	0	0	0	0	0	2	22872,63	-0,100000001	2,35912776	-5,5545274806933267E-005	-0,099981495862975194	0,000235869127	0,033364346198848397	-0,0012448686155195942	0,011109039651801597
1	0	0	0	0	0	2	22884,63	-0,100000001	2,35544252	-5,5545298711707194E-005	-0,099981538891568781	0,000235500775	0,033031074767752499	-0,0012324338103372014	0,011442311082897494
1	0	0	0	0	0	2	22896,63	-0,100000001	2,35150886	-5,5545204319473773E-005	-0,09998136898554656	0,000235107073	0,032697803582139162	-0,0012199990143140931	0,011775582268510835
1	0	0	0	0	0	2	22908,63	-0,100000001	2,34744167	-5,5545092759446963E-005	-0,099981168177495885	0,000234699954	0,03236453270881152	-0,001207564229942784	0,012108853141838472
1	0	0	0	0	0	2	22920,63	-0,100000001	2,34335542	-5,554510456158055E-005	-0,099981189421336602	0,000234291467	0,032031261898839898	-0,0011951294479353731	0,012442123951810094
1	0	0	0	0	0	2	22932,63	-0,100000001	2,33902073	-5,554509240595831E-005	-0,099981167541216294	0,000233858023	0,031697991082619725	-0,0011826946656948203	0,012775394768030272
1	0	0	0	0	0	2	22944,63	-0,100000001	2,33478165	-5,5545216861698362E-005	-0,099981391561551104	0,000233434723	0,03136471977303369	-0,0011702598650461243	0,013108666077616307
1	0	0	0	0	0	2	22956,63	-0,100000001	2,33033252	-5,5545193497919373E-005	-0,099981349506748403	0,000232989783	0,031031448328650509	-0,001157825059367965	0,013441937521999485
1	0	0	0	0	0	2	22968,63	-0,100000001	2,32574987	-5,5545186532040435E-005	-0,099981336968166182	0,000232531587	0,030698177061344032	-0,0011453902602967757	0,013775208789305962
1	0	0	0	0	0	2	22980,63	-0,100000001	2,3210144	-5,5545085978590784E-005	-0,099981155971954598	0,000232057704	0,03036490617905376	-0,0011329554755910589	0,014108479671596229
1	0	0	0	0	0	2	22992,63	-0,100000001	2,31643152	-5,5545021996315981E-005	-0,099981040803858573	0,000231599231	0,030031635462872531	-0,0011205206970830938	0,014441750387777462
1	0	0	0	0	0	2	23004,63	-0,100000001	2,3115623	-5,554510011027257E-005	-0,099981181408982131	0,000231112732	0,029698365034663277	-0,0011080859293197501	0,014775020815986717
1	0	0	0	0	0	2	23016,63	-0,100000001	2,30659771	-5,5545083190831872E-005	-0,099981150953988506	0,000230616293	0,029365094768014899	-0,0010956511675844598	0,015108291082635098
1	0	0	0	0	0	2	23028,63	-0,100000001	2,30180478	-5,5545176563991437E-005	-0,09998131902567776	0,000230137477	0,029031824184478419	-0,0010832163940256488	0,015441561666171571
1	0	0	0	0	0	2	23040,63	-0,100000001	2,29666829	-5,5545160024530362E-005	-0,099981289254647475	0,000229623853	0,028698553600410883	-0,001070781620447023	0,01577483225023911
1	0	0	0	0	0	2	23052,63	-0,100000001	2,29158902	-5,554516499365369E-005	-0,099981298199069568	0,000229116049	0,028365282544190944	-0,0010583468292517565	0,016108103306459046
1	0	0	0	0	0	2	23064,63	-0,100000001	2,28637624	-5,5545133375873171E-005	-0,099981241287063936	0,000228594741	0,028032011780353728	-0,0010459120489656822	0,016441374070296262
1	0	0	0	0	0	2	23076,63	-0,100000001	2,28106785	-5,5545111367685926E-005	-0,099981201672326413	0,000228063902	0,027698741074499002	-0,0010334772708430128	0,016774644776150989
1	0	0	0	0	0	2	23088,63	-0,100000001	2,27575946	-5,5545060197098387E-005	-0,099981109565267738	0,000227532961	0,027365470879985901	-0,0010210425117991869	0,017107914970664093
1	0	0	0	0	0	2	23100,63	-0,100000001	2,27022195	-5,554506317815847E-005	-0,099981114931175949	0,000226979319	0,027032200406701043	-0,0010086077423540118	0,017441185443948947
1	0	0	0	0	0	2	23112,63	-0,100000001	2,26466513	-5,5545121316694547E-005	-0,099981219580542157	0,000226423988	0,026698929920087514	-0,00099617297241152614	0,01777445593056248
1	0	0	0	0	0	2	23124,63	-0,100000001	2,2590704	-5,5545083331151142E-005	-0,099981151206563187	0,000225864453	0,026365659507333654	-0,00098373820522484416	0,018107726343316339
1	0	0	0	0	0	2	23136,63	-0,100000001	2,25330377	-5,5545007278107936E-005	-0,099981014311083776	0,0002252876	0,026032389369060842	-0,00097130344827941888	0,018440996481589152
1	0	0	0	0	0	2	23148,63	-0,100000001	2,24747992	-5,5545164539168275E-005	-0,099981297380995814	0,00022470596	0,025699118758175354	-0,00095886867370017933	0,01877426709247464
1	0	0	0	0	0	2	23160,63	-0,100000001	2,24154139	-5,5545106444921754E-005	-0,099981192811350822	0,00022411198	0,025365848198954672	-0,00094643390104862323	0,019107537651695322
1	0	0	0	0	0	2	23172,63	-0,100000001	2,235641	-5,5545136962913805E-005	-0,099981247743737152	0,000223522176	0,02503257735112872	-0,00093399911762881638	0,01944080849952127
1	0	0	0	0	0	2	23184,63	-0,100000001	2,22939682	-5,554500614561968E-005	-0,09998101227260489	0,000222897346	0,02469930664954359	-0,00092156433966545126	0,019774079201106403
1	0	0	0	0	0	2	23196,63	-0,100000001	2,2231338	-5,554513038156761E-005	-0,099981235897313869	0,000222271672	0,024366035990802195	-0,00090912956330064358	0,020107349859847798
1	0	0	0	0	0	2	23208,63	-0,100000001	2,21664143	-5,5545164690663411E-005	-0,099981297653687066	0,000221622686	0,024032765425591251	-0,00089669479042558272	0,020440620425058742
1	0	0	0	0	0	2	23220,63	-0,100000001	2,21020651	-5,5545116013536851E-005	-0,099981210034858189	0,000220979127	0,023699494847639814	-0,00088426001707515699	0,020773891003010179
1	0	0	0	0	0	2	23232,63	-0,100000001	2,2035234	-5,554515295392937E-005	-0,099981276527565542	0,000220311078	0,023366224101763466	-0,00087182523745922688	0,021107161748886525
1	0	0	0	0	0	2	23244,63	-0,100000001	2,1968019	-5,5545124538656736E-005	-0,099981225380074163	0,00021963894	0,023032953130312512	-0,00085939044942680499	0,021440432720337478
1	0	0	0	0	0	2	23256,63	-0,100000001	2,18988967	-5,5545144845628077E-005	-0,099981261932623027	0,000218947927	0,022699682145935626	-0,00084695566091209933	0,021773703704714365
1	0	0	0	0	0	2	23268,63	-0,100000001	2,18278623	-5,5545271742261114E-005	-0,099981490346565261	0,000218238216	0,022366410689032163	-0,00083452085476679168	0,022106975161617827
1	0	0	0	0	0	2	23280,63	-0,100000001	2,17551112	-5,5545253735449581E-005	-0,099981457934304102	0,00021751078	0,022033139352332224	-0,00082208605310643904	0,02244024649831777
1	0	0	0	0	0	2	23292,63	-0,100000001	2,16796851	-5,5545095752924685E-005	-0,099981173565755853	0,000216756031	0,021699868482284915	-0,00080965126885752358	0,022773517368365078
1	0	0	0	0	0	2	23304,63	-0,100000001	2,16031146	-5,5545123046884934E-005	-0,09998122269488489	0,000215990585	0,021366597703308531	-0,00079721648800658675	0,023106788147341462
1	0	0	0	0	0	2	23316,63	-0,100000001	2,15259719	-5,5545044190353818E-005	-0,099981080753127168	0,000215218999	0,021033327348392707	-0,00078478172297791949	0,023440058502257283
1	0	0	0	0	0	2	23328,63	-0,100000001	2,14455819	-5,5545051407068966E-005	-0,099981093743214579	0,000214415268	0,020700056878266074	-0,00077234695365058202	0,02377332897238392
1	0	0	0	0	0	2	23340,63	-0,100000001	2,136271	-5,5545010418941581E-005	-0,099981019964584397	0,000213586551	0,020366786760182682	-0,00075991219745845133	0,024106599090467309
1	0	0	0	0	0	2	23352,63	-0,100000001	2,12788844	-5,554492393508553E-005	-0,099980864293641626	0,000212748128	0,020033517122092598	-0,00074747745917551629	0,024439868728557395
1	0	0	0	0	0	2	23364,63	-0,100000001	2,11925745	-5,5544992957264186E-005	-0,099980988533564698	0,000211885461	0,01970024713744745	-0,00073504270796214592	0,024773138713202541
1	0	0	0	0	0	2	23376,63	-0,100000001	2,11032104	-5,5545039498557645E-005	-0,099981072307893952	0,000210992162	0,019366976848303696	-0,00072260794538752307	0,025106409002346298
1	0	0	0	0	0	2	23388,63	-0,100000001	2,10121274	-5,5545009692509971E-005	-0,099981018657007475	0,000210081387	0,019033706860443206	-0,00071017319405418394	0,025439678990206784
1	0	0	0	0	0	2	23400,63	-0,100000001	2,09176087	-5,5544997805522547E-005	-0,099980997260429862	0,000209136342	0,018700436638585645	-0,00069773843399009933	0,025772949212064349
1	0	0	0	0	0	2	23412,63	-0,100000001	2,08213711	-5,5544972878363398E-005	-0,099980952391542848	0,000208174053	0,01836716681864055	-0,00068530368892190938	0,02610621903200944
1	0	0	0	0	0	2	23424,63	-0,100000001	2,0719595	-5,5545079119503501E-005	-0,099981143625597363	0,000207156874	0,018033896633111197	-0,0006728689302132791	0,026439489217538797
1	0	0	0	0	0	2	23436,63	-0,100000001	2,06174374	-5,5545224233220026E-005	-0,099981404830290253	0,000206136028	0,01770062576972512	-0,00066043414621290317	0,02677276008092487
1	0	0	0	0	0	2	23448,63	-0,100000001	2,05110788	-5,5545283984806803E-005	-0,099981512383147763	0,000205072865	0,017367354597210733	-0,00064799935067853427	0,027106031253439258
1	0	0	0	0	0	2	23460,63	-0,100000001	2,0399754	-5,5545230502469677E-005	-0,09998141611493975	0,000203959629	0,017034083199895357	-0,00063556454675653824	0,027439302650754637
1	0	0	0	0	0	2	23472,63	-0,100000001	2,02865219	-5,5545135164012512E-005	-0,099981244505714803	0,00020282717	0,016700812041486154	-0,00062312975174845274	0,02777257380916384
1	0	0	0	0	0	2	23484,63	-0,100000001	2,01694703	-5,5544999298536115E-005	-0,09998099994785431	0,000201656381	0,016367541671920003	-0,00061069498617316211	0,02810584417872999
1	0	0	0	0	0	2	23496,63	-0,100000001	2,0048027	-5,5545118961483238E-005	-0,099981215341161754	0,000200442606	0,016034271053476726	-0,00059826021131193139	0,028439114797173267
1	0	0	0	0	0	2	23508,63	-0,100000001	1,99218082	-5,5545006282627578E-005	-0,09998101251921911	0,000199180256	0,015701000849102368	-0,0005858254519001687	0,028772385001547626
1	0	0	0	0	0	2	23520,63	-0,100000001	1,9791199	-5,5545023211174541E-005	-0,099981042990604006	0,000197874469	0,015367730941036355	-0,00057339070354406874	0,029105654909613638
1	0	0	0	0	0	2	23532,63	-0,100000001	1,96565807	-5,5545015443116429E-005	-0,099981029008099238	0,000196528519	0,015034460476561811	-0,00056095593442761843	0,029438925374088179
1	0	0	0	0	0	2	23544,63	-0,100000001	1,95166147	-5,5544882129049965E-005	-0,099980789042776691	0,000195128654	0,01470119089080295	-0,00054852119809723162	0,02977219495984704
1	0	0	0	0	0	2	23556,63	-0,100000001	1,93711114	-5,5544950302690266E-005	-0,099980911755330726	0,000193674132	0,014367921412923528	-0,00053608646579197171	0,030105464437726464
1	0	0	0	0	0	2	23568,63	-0,100000001	1,92210257	-5,554484707324041E-005	-0,099980725942318733	0,000192173204	0,014034651797066803	-0,00052365172833859322	0,030438734053583181
1	0	0	0	0	0	2	23580,63	-0,100000001	1,90657842	-5,5544869556195206E-005	-0,099980766411637862	0,000190621169	0,013701382743524024	-0,000511217011865904	0,030772003107125958
1	0	0	0	0	0	2	23592,63	-0,100000001	1,89038587	-5,5544908951140115E-005	-0,099980837322539546	0,000189002356	0,013368113368309878	-0,00049878228339122362	0,031105272482340109
1	0	0	0	0	0	2	23604,63	-0,100000001	1,87362063	-5,5544998280290099E-005	-0,099980998115011469	0,000187326455	0,013034843687855795	-0,00048634754352763078	0,031438542162794195
1	0	0	0	0	0	2	23616,63	-0,100000001	1,85630155	-5,5544971478482086E-005	-0,099980949871756454	0,000185594792	0,012701574031259294	-0,00047391280455419642	0,031771811819390682
1	0	0	0	0	0	2	23628,63	-0,100000001	1,83835232	-5,5544883493334054E-005	-0,09998079149848809	0,000183799915	0,012368304601290005	-0,000461478074036528	0,032105081249359968
1	0	0	0	0	0	2	23640,63	-0,100000001	1,81969655	-5,554488931554887E-005	-0,099980801978474893	0,000181934724	0,01203503516357749	-0,0004490433432299495	0,032438350687072486
1	0	0	0	0	0	2	23652,63	-0,100000001	1,80052531	-5,5545011890431245E-005	-0,099981022613265818	0,000180018367	0,01170176523726749	-0,00043660859419314182	0,032771620613382483
1	0	0	0	0	0	2	23664,63	-0,100000001	1,78099692	-5,5544902135928467E-005	-0,099980825055158438	0,000178065544	0,011368495384500099	-0,0004241738479003079	0,033104890466149882
1	0	0	0	0	0	2	23676,63	-0,100000001	1,76048899	-5,5544956210586758E-005	-0,09998092238954455	0,00017601531	0,011035225538401395	-0,00041173910185629152	0,033438160312248589
1	0	0	0	0	0	2	23688,63	-0,100000001	1,7392745	-5,5545056270228493E-005	-0,099981102496901837	0,000173894587	0,010701955577056694	-0,0003993043515122921	0,033771430273593293
1	0	0	0	0	0	2	23700,63	-0,100000001	1,71741092	-5,5544934480554528E-005	-0,099980883275486042	0,000171708263	0,010368685661367498	-0,0003868696028717609	0,034104700189282496
1	0	0	0	0	0	2	23712,63	-0,100000001	1,69489801	-5,5544911632521286E-005	-0,099980842149025728	0,000169457329	0,010035416055804579	-0,00037443486580245811	0,034437969794845414
1	0	0	0	0	0	2	23724,63	-0,100000001	1,67188859	-5,5545012133816877E-005	-0,099981023051359962	0,000167157137	0,009702146210531648	-0,00036200011978925242	0,034771239640118349
1	0	0	0	0	0	2	23736,63	-0,100000001	1,64823008	-5,5545046707408294E-005	-0,09998108528382528	0,000164791825	0,0093688763077518234	-0,00034956537163038733	0,03510450954289817
1	0	0	0	0	0	2	23748,63	-0,100000001	1,62417042	-5,5545133989304301E-005	-0,09998124239124	0,000162386583	0,0090356056700554227	-0,00033713059605079654	0,035437780180594579
1	0	0	0	0	0	2	23760,63	-0,100000001	1,59991992	-5,5545081136541235E-005	-0,099981147256265318	0,000159961826	0,008702335565294912	-0,00032469584035576038	0,035771050285355091
1	0	0	0	0	0	2	23772,63	-0,100000001	1,57538295	-5,5545064005172915E-005	-0,099981116419801984	0,000157508548	0,0083690653974983488	-0,00031226108230876442	0,036104320453151654
1	0	0	0	0	0	2	23784,63	-0,100000001	1,55063593	-5,5545146579129824E-005	-0,099981265052926221	0,000155034548	0,0080357946486645338	-0,00029982630258248736	0,036437591201985466
1	0	0	0	0	0	2	23796,63	-0,100000001	1,52558339	-5,5545100035766765E-005	-0,099981181274871667	0,000152529625	0,007702523405296777	-0,000287391504404484	0,036770862445353229
1	0	0	0	0	0	2	23808,63	-0,100000001	1,50026357	-5,5545102097507981E-005	-0,099981184986005926	0,00014999813	0,0073692526724196211	-0,00027495672527357136	0,037104133178230387
1	0	0	0	0	0	2	23820,63	-0,100000001	1,47496283	-5,5545045230123738E-005	-0,099981082624713024	0,000147468381	0,0070359823304909862	-0,0002625219607294736	0,037437403520159027
1	0	0	0	0	0	2	23832,63	-0,100000001	1,44945204	-5,5545163335899514E-005	-0,099981295215112013	0,000144918085	0,006702711770869632	-0,00025008718806296784	0,037770674079780384
1	0	0	0	0	0	2	23844,63	-0,100000001	1,4241513	-5,5545087539901338E-005	-0,099981158782313651	0,000142388293	0,0063694412849390733	-0,00023765241814596474	0,038103944565710944
1	0	0	0	0	0	2	23856,63	-0,100000001	1,39898419	-5,5545105485038624E-005	-0,099981191083561139	0,000139872107	0,0060361704921787034	-0,00022521763678072886	0,038437215358471309
1	0	0	0	0	0	2	23868,63	-0,100000001	1,37429452	-5,5545211672782899E-005	-0,099981382221503155	0,000137403869	0,0057028991912639021	-0,0002127828364555679	0,038770486659386106
1	0	0	0	0	0	2	23880,63	-0,100000001	1,35050225	-5,5545183101875917E-005	-0,099981330793869965	0,00013502501	0,0053696278085665619	-0,00020034803307899046	0,03910375804208345
1	0	0	0	0	0	2	23892,63	-0,100000001	1,32808483	-5,5545165554102925E-005	-0,099981299207878182	0,000132783651	0,0050363568235274048	-0,0001879132445395745	0,039437029027122598
1	0	0	0	0	0	2	23904,63	-0,100000001	1,30805421	-5,554513581428263E-005	-0,099981245676201024	0,000130780885	0,0047030856763218067	-0,00017547844994951056	0,039770300174328198
1	0	0	0	0	0	2	23916,63	-0,100000001	1,29042971	-5,5545184977352621E-005	-0,099981334169728064	0,000129018881	0,0043698145115543635	-0,00016304365470419059	0,040103571339095635
1	0	0	0	0	0	2	23928,63	-0,100000001	1,27587938	-5,5545195249219738E-005	-0,099981352659089114	0,000127564141	0,0040365433675392698	-0,00015060886023316867	0,040436842483110733
1	0	0	0	0	0	2	23940,63	-0,100000001	1,26375413	-5,554525823228889E-005	-0,09998146602861495	0,000126351995	0,0037032723117175264	-0,00013817406905275925	0,040770113538932474
1	0	0	0	0	0	2	23952,63	-0,100000001	1,25386286	-5,5545159526169299E-005	-0,099981288357597542	0,000125362829	0,0033700013512214086	-0,00012573928142907707	0,041103384499428589
1	0	0	0	0	0	2	23964,63	-0,100000001	1,24553752	-5,5545085474020902E-005	-0,099981155063728819	0,000124530285	0,0030367305038805696	-0,0001133044980273705	0,041436655346769421
1	0	0	0	0	0	2	23976,63	-0,100000001	1,23849154	-5,5545117286758291E-005	-0,099981212326656806	0,000123825885	0,0027034595203530525	-0,00010086970954435582	0,041769926330296934
1	0	0	0	0	0	2	23988,63	-0,100000001	1,23228562	-5,5545064765959981E-005	-0,099981117789218701	0,000123205289	0,0023701886874166691	-8,8434926680098854E-005	0,042103197163233318
1	0	0	0	0	0	2	24000,63	-0,100000001	1,22674811	-5,5545026955091296E-005	-0,099981049729654246	0,00012265156	0,002036918303253591	-7,600016056017728E-005	0,042436467547396397
1	0	0	0	0	0	2	24012,63	-0,100000001	1,22157347	-5,5545020679632819E-005	-0,099981038433828851	0,000122134181	0,0017036482047014829	-6,3565405096785011E-005	0,042769737645948512
1	0	0	0	0	0	2	24024,63	-0,100000001	1,21685696	-5,5545156606369549E-005	-0,099981283101957914	0,000121662917	0,0013703777765460378	-5,1130637335449062E-005	0,043103008074103955
1	0	0	0	0	0	2	24036,63	-0,100000001	1,21238875	-5,5545153682430586E-005	-0,099981277838867738	0,000121216173	0,0010371066153188613	-3,8695842222221197E-005	0,04343627923533113
1	0	0	0	0	0	2	24048,63	-0,100000001	1,20834064	-5,554513332661655E-005	-0,099981241198402035	0,000120811397	0,00070383556877474662	-2,6261051387972563E-005	0,043769550281875251
1	0	0	0	0	0	2	24060,63	-0,100000001	1,20413983	-5,554497630438871E-005	-0,09998095855838848	0,000120391058	0,00037056537541400064	-1,3826292387142538E-005	0,044102820475236
1	0	0	0	0	0	2	24072,63	-0,100000001	1,20030165	-5,554508876634969E-005	-0,099981160989920704	0,000120007549	3,7295049670510822E-005	-1,3915284469343442E-006	0,044436090800979488
1	0	0	0	0	0	2	24073,84	-0,100000001	1,20007253	-3,3665822821358842E-005	-0,099980996225043597	0,000119984448	3,6292268491519802E-006	-1,3541133328925546E-007	0,044469756623800851