File: Experimentelles/Rohdaten/Batteriemessungen/AlteZelle/Batterietest Li vs LATP/ZView-Export/LATP vs Li Batterietest Probe1_02_GCPL_C01_loop8.txt
EC-Lab ASCII FILE
Nb header lines : 3
mode	ox/red	error	control changes	Ns changes	counter inc.	Ns	time/s	control/V/mA	Ewe/V	dq/mA.h	<I>/mA	P/W	(Q-Qo)/mA.h	x	Capacity/mA.h
1	1	0	1	1	0	1	27255,10	0,100000001	1,21219778	0	0	0	0	0	0
1	1	0	1	0	0	1	27267,10	0,100000001	1,53045261	5,556318422613872E-005	0,10001373281793531	0,000153066285	0,0003320071111984121	-1,2387631707121322E-005	0,0003320071111984121
1	1	0	1	0	0	1	27279,10	0,100000001	1,69449699	5,5563003842615418E-005	0,10001340812758944	0,00016947242	0,00066538532699193229	-2,4826421170155866E-005	0,00066538532699193229
1	1	0	1	0	0	1	27291,10	0,100000001	1,84994864	5,5563029805405274E-005	0,10001345486061174	0,000185019759	0,00099876370268029325	-3,7265216599081894E-005	0,00099876370268029325
1	1	0	1	0	0	1	27303,10	0,100000001	2,01206446	5,5562835763725965E-005	0,10001310558558477	0,000201232819	0,0013321413285968605	-4,9703984053014221E-005	0,0013321413285968605
1	1	0	1	0	0	1	27315,10	0,100000001	2,17903042	5,5562899127188659E-005	0,10001321963981898	0,000217931854	0,0016655188933358826	-6,2142749224330086E-005	0,0016655188933358826
1	1	0	1	0	0	1	27327,10	0,100000001	2,33709788	5,5562948949221107E-005	0,10001330931947848	0,000233740895	0,0019988966089864144	-7,4581520026357274E-005	0,0019988966089864144
1	1	0	1	0	0	1	27339,10	0,100000001	2,44567156	5,5563033838238982E-005	0,10001346211971251	0,000244600087	0,0023322747990890906	-8,7020308530831898E-005	0,0023322747990890906
1	1	0	1	0	0	1	27351,10	0,100000001	2,49086928	5,5563031953242093E-005	0,10001345872671805	0,000249120465	0,0026656528682162755	-9,9459092521548262E-005	0,0026656528682162755
1	1	0	1	0	0	1	27363,10	0,100000001	2,51162529	5,5563060416115654E-005	0,10001350995989109	0,00025119647	0,0029990308684210368	-0,00011189787394067637	0,0029990308684210368
1	1	0	1	0	0	1	27375,10	0,100000001	2,52418995	5,5563182128386362E-005	0,10001372904198102	0,000252453639	0,003332409665832128	-0,00012433668510464446	0,003332409665832128
1	1	0	1	0	0	1	27387,10	0,100000001	2,53358459	5,5563150446034138E-005	0,10001367201374634	0,000253393111	0,0036657883139315136	-0,00013677549069759208	0,0036657883139315136
1	1	0	1	0	0	1	27399,10	0,100000001	2,54097438	5,5563077616194886E-005	0,10001354092003408	0,000254131854	0,0039991668393243904	-0,00014921429171219488	0,0039991668393243904
1	1	0	1	0	0	1	27411,10	0,100000001	2,54712272	5,5563032002084781E-005	0,10001345881463491	0,000254746556	0,0043325452754075718	-0,00016165308939453286	0,0043325452754075718
1	1	0	1	0	0	1	27423,10	0,100000001	2,55243111	5,5563020736392998E-005	0,10001343853638944	0,000255277409	0,0046659237168671757	-0,00017409188727747238	0,0046659237168671757
1	1	0	1	0	0	1	27435,10	0,100000001	2,5573194	5,5563027890606061E-005	0,1000134514139731	0,000255766354	0,0049993019096586835	-0,00018653067588227094	0,0049993019096586835
1	1	0	1	0	0	1	27447,10	0,100000001	2,56180692	5,5563066629899872E-005	0,10001352114470282	0,000256215339	0,0053326802162582253	-0,00019896946873340022	0,0053326802162582253
1	1	0	1	0	0	1	27459,10	0,100000001	2,56581664	5,5563132416456941E-005	0,10001363956050698	0,000256616651	0,0056660587362432218	-0,00021140826954622774	0,0056660587362432218
1	1	0	1	0	0	1	27471,10	0,100000001	2,56986475	5,5563098743971853E-005	0,10001357895003309	0,000257021369	0,0059994375016023283	-0,00022384707951429325	0,0059994375016023283
1	1	0	1	0	0	1	27483,10	0,100000001	2,5735693	5,5563084951705402E-005	0,10001355412395318	0,000257391803	0,0063328157763187661	-0,00023628587117582099	0,0063328157763187661
1	1	0	1	0	0	1	27495,10	0,100000001	2,57731175	5,5563144402785434E-005	0,10001366113589853	0,000257766398	0,0066661944548624653	-0,00024872467790468694	0,0066661944548624653
1	1	0	1	0	0	1	27507,10	0,100000001	2,58065343	5,5563053632362022E-005	0,10001349774913442	0,00025810019	0,0069995734513990157	-0,00026116349649829363	0,0069995734513990157
1	1	0	1	0	0	1	27519,10	0,100000001	2,58409047	5,5563129336883629E-005	0,10001363401727494	0,000258444285	0,0073329522742873664	-0,00027360230861285258	0,0073329522742873664
1	1	0	1	0	0	1	27531,10	0,100000001	2,58745122	5,5563069404827226E-005	0,10001352613957213	0,000258780114	0,0076663306326026304	-0,00028604110339356493	0,0076663306326026304
1	1	0	1	0	0	1	27543,10	0,100000001	2,59079289	5,5563004660109677E-005	0,10001340959907912	0,000259114022	0,0079997088409786816	-0,00029847989257984378	0,0079997088409786816
1	1	0	1	0	0	1	27555,10	0,100000001	2,59407711	5,556309885697232E-005	0,10001357915343394	0,000259442924	0,0083330870655634739	-0,00031091868237089254	0,0083330870655634739
1	1	0	1	0	0	1	27567,10	0,100000001	2,59739971	5,5562993251615098E-005	0,10001338906378862	0,000259774737	0,0086664653401060634	-0,00032335747402593376	0,0086664653401060634
1	1	0	1	0	0	1	27579,10	0,100000001	2,60056949	5,5563119173877766E-005	0,10001361572386418	0,000260092347	0,0089998436939534605	-0,00033579626863994413	0,0089998436939534605
1	1	0	1	0	0	1	27591,10	0,100000001	2,60383463	5,5562970598124794E-005	0,10001334828750557	0,000260418223	0,0093332217531175629	-0,00034823505225892448	0,0093332217531175629
1	1	0	1	0	0	1	27603,10	0,100000001	2,60706162	5,556309332367447E-005	0,10001356919349768	0,000260741537	0,0096665997371119296	-0,00036067383307322099	0,0096665997371119296
1	1	0	1	0	0	1	27615,10	0,100000001	2,61009789	5,5562975979099667E-005	0,10001335797326048	0,000261044654	0,0099999777502513139	-0,00037311261497495725	0,0099999777502513139
1	1	0	1	0	0	1	27627,10	0,100000001	2,61349678	5,5563019442061587E-005	0,10001343620659286	0,00026138479	0,010333355844412866	-0,00038555139989973946	0,010333355844412866
1	1	0	1	0	0	1	27639,10	0,100000001	2,61664748	5,5563070429695981E-005	0,1000135279843359	0,000261700159	0,010666733856075378	-0,00039799018174637165	0,010666733856075378
1	1	0	1	0	0	1	27651,10	0,100000001	2,61996984	5,5562964999841318E-005	0,10001333821059522	0,000262031943	0,011000112057647395	-0,00041042897067878278	0,011000112057647395
1	1	0	1	0	0	1	27663,10	0,100000001	2,62321591	5,5562863711681632E-005	0,10001315589190557	0,000262356101	0,011333490054277949	-0,00042286775196455238	0,011333490054277949
1	1	0	1	0	0	1	27675,10	0,100000001	2,62665319	5,556297954627209E-005	0,10001336439417093	0,000262700429	0,011666867990372949	-0,00043530653099165914	0,011666867990372949
1	1	0	1	0	0	1	27687,10	0,100000001	2,62991834	5,5563023430191808E-005	0,10001344338522736	0,000263027177	0,012000245953340125	-0,00044774531102140275	0,012000245953340125
1	1	0	1	0	0	1	27699,10	0,100000001	2,63326001	5,5563029733796915E-005	0,10001345473171669	0,000263361435	0,012333624185259597	-0,00046018410108611827	0,012333624185259597
1	1	0	1	0	0	1	27711,10	0,100000001	2,6365633	5,5563038729545139E-005	0,1000134709240637	0,000263691851	0,012667002632731819	-0,00047262289919339667	0,012667002632731819
1	1	0	1	0	0	1	27723,10	0,100000001	2,64007688	5,5562980307473075E-005	0,1000133657643327	0,000264042988	0,013000380887419438	-0,0004850616901076224	0,013000380887419438
1	1	0	1	0	0	1	27735,10	0,100000001	2,64360929	5,5562957110504307E-005	0,10001332400978842	0,000264396163	0,013333759182272312	-0,00049750048252046771	0,013333759182272312
1	1	0	1	0	0	1	27747,10	0,100000001	2,64695096	5,5562927247749434E-005	0,10001327025682899	0,000264730217	0,013667137617071923	-0,00050993928015491398	0,013667137617071923
1	1	0	1	0	0	1	27759,10	0,100000001	2,65067458	5,5563022451268307E-005	0,10001344162316504	0,000265103095	0,014000515471622387	-0,00052237805613948435	0,014000515471622387
1	1	0	1	0	0	1	27771,10	0,100000001	2,65422606	5,5563019585692224E-005	0,10001343646512802	0,000265458279	0,014333893356968171	-0,0005348168332730695	0,014333893356968171
1	1	0	1	0	0	1	27783,10	0,100000001	2,65781593	5,5562960484375552E-005	0,10001333008275675	0,000265817012	0,014667271251266243	-0,00054725561074067661	0,014667271251266243
1	1	0	1	0	0	1	27795,10	0,100000001	2,66152048	5,5563068447013696E-005	0,10001352441550774	0,000266188057	0,015000649551387504	-0,00055969440335009261	0,015000649551387504
1	1	0	1	0	0	1	27807,10	0,100000001	2,66511035	5,556311914531721E-005	0,10001361567245518	0,000266547315	0,015334027934079411	-0,0005721331990403303	0,015334027934079411
1	1	0	1	0	0	1	27819,10	0,100000001	2,66902471	5,5563058057592979E-005	0,10001350571455022	0,000266938529	0,015667406272288867	-0,0005845719930708681	0,015667406272288867
1	1	0	1	0	0	1	27831,10	0,100000001	2,67297745	5,556305721484953E-005	0,10001350419761198	0,000267333846	0,016000784617209645	-0,00059701078735181414	0,016000784617209645
1	1	0	1	0	0	1	27843,10	0,100000001	2,67664361	5,5563036330872109E-005	0,10001346660645219	0,000267700409	0,016334162948435427	-0,00060944958112178163	0,016334162948435427
1	1	0	1	0	0	1	27855,10	0,100000001	2,68061543	5,5563056111335757E-005	0,10001350221128718	0,000268097734	0,01666754140794696	-0,00062188837967826278	0,01666754140794696
1	1	0	1	0	0	1	27867,10	0,100000001	2,6847589	5,5563151358730259E-005	0,10001367365659936	0,000268512609	0,017000920241521507	-0,00063432719219153818	0,017000920241521507
1	1	0	1	0	0	1	27879,10	0,100000001	2,68880701	5,5563025951385498E-005	0,10001344792337606	0,000268916861	0,017334298506462784	-0,0006467659834883415	0,017334298506462784
1	1	0	1	0	0	1	27891,10	0,100000001	2,69285512	5,5563027985394003E-005	0,10001345158459142	0,000269321725	0,017667676933740618	-0,00065920478084214016	0,017667676933740618
1	1	0	1	0	0	1	27903,10	0,100000001	2,69699883	5,5563023281594118E-005	0,10001344311775152	0,000269736134	0,018001054991090915	-0,00067164356439344512	0,018001054991090915
1	1	0	1	0	0	1	27915,10	0,100000001	2,70119953	5,5562969961100154E-005	0,10001334714086122	0,000270156015	0,018334433361578355	-0,0006840823596283177	0,018334433361578355
1	1	0	1	0	0	1	27927,10	0,100000001	2,70555329	5,5563039114077888E-005	0,10001347161622264	0,000270591787	0,018667811524590717	-0,00069652114712201638	0,018667811524590717
1	1	0	1	0	0	1	27939,10	0,100000001	2,71005964	5,556313511894809E-005	0,10001364442499112	0,000271042954	0,019001189616164026	-0,00070895993195022771	0,019001189616164026
1	1	0	1	0	0	1	27951,10	0,100000001	2,71443248	5,5563018771923251E-005	0,10001343500034384	0,000271479716	0,019334568115211645	-0,00072139873198185357	0,019334568115211645
1	1	0	1	0	0	1	27963,10	0,100000001	2,71903419	5,5563041643963923E-005	0,10001347617001757	0,000271940051	0,01966794636045855	-0,00073383752254383347	0,01966794636045855
1	1	0	1	0	0	1	27975,10	0,100000001	2,72357893	5,5563006216867104E-005	0,10001341240124253	0,00027239442	0,020001324262627334	-0,00074627630030510746	0,020001324262627334
1	1	0	1	0	0	1	27987,10	0,100000001	2,72825718	5,5562985040247443E-005	0,10001337428332667	0,000272862206	0,020334702036999616	-0,00075871507329812198	0,020334702036999616
1	1	0	1	0	0	1	27999,10	0,100000001	2,73297358	5,5563071533209747E-005	0,1000135299706607	0,000273334328	0,02066808007425777	-0,00077115385609976205	0,02066808007425777
1	1	0	1	0	0	1	28011,10	0,100000001	2,7378428	5,5563085680206618E-005	0,10001355543525538	0,000273821381	0,021001458000956342	-0,00078359263477627546	0,021001458000956342
1	1	0	1	0	0	1	28023,10	0,100000001	2,74275017	5,5563053831458093E-005	0,10001349810750734	0,000274312042	0,021334836484688883	-0,00079603143423647501	0,021334836484688883
1	1	0	1	0	0	1	28035,10	0,100000001	2,74777222	5,5563086538679072E-005	0,10001355698050582	0,000274814462	0,021668215037364547	-0,00080847023626903526	0,021668215037364547
1	1	0	1	0	0	1	28047,10	0,100000001	2,75302315	5,5563087913725114E-005	0,10001355945558872	0,00027533964	0,022001593478989302	-0,00082090903415813696	0,022001593478989302
1	1	0	1	0	0	1	28059,10	0,100000001	2,75819802	5,5562940656724902E-005	0,10001329439298512	0,000275856466	0,022334971602331056	-0,00083334782017167168	0,022334971602331056
1	1	0	1	0	0	1	28071,10	0,100000001	2,76356363	5,5562984046422771E-005	0,10001337249444224	0,000276393315	0,022668349603943565	-0,0008457866016433248	0,022668349603943565
1	1	0	1	0	0	1	28083,10	0,100000001	2,76900554	5,5562887796925178E-005	0,10001319924534446	0,000276937091	0,023001727430121389	-0,00085822537656927386	0,023001727430121389
1	1	0	1	0	0	1	28095,10	0,100000001	2,77458143	5,5562852282904915E-005	0,10001313532010723	0,000277494575	0,023335105091063555	-0,00087066414533005824	0,023335105091063555
1	1	0	1	0	0	1	28107,10	0,100000001	2,78038621	5,5562992490000192E-005	0,10001338769288179	0,000278075837	0,023668482880787344	-0,0008831029188958583	0,023668482880787344
1	1	0	1	0	0	1	28119,10	0,100000001	2,78634381	5,5563039693567488E-005	0,10001347265930394	0,000278671912	0,024001860974357814	-0,0008955417037985865	0,024001860974357814
1	1	0	1	0	0	1	28131,10	0,100000001	2,79237771	5,5562935361431699E-005	0,10001328486145725	0,000279274856	0,024335238936990128	-0,00090798048381583616	0,024335238936990128
1	1	0	1	0	0	1	28143,10	0,100000001	2,79869819	5,556289220021831E-005	0,10001320717127219	0,000279906788	0,024668616551168307	-0,00092041925083179341	0,024668616551168307
1	1	0	1	0	0	1	28155,10	0,100000001	2,80509496	5,5562862893773453E-005	0,10001315441967082	0,000280546403	0,025001994273429987	-0,00093285802188049139	0,025001994273429987
1	1	0	1	0	0	1	28167,10	0,100000001	2,81166363	5,5562973303513395E-005	0,10001335315720514	0,000281203917	0,02533537203999696	-0,00094529679458227942	0,02533537203999696
1	1	0	1	0	0	1	28179,10	0,100000001	2,81859517	5,5562964367783731E-005	0,10001333707289154	0,000281897112	0,025668750027377203	-0,00095773557552290752	0,025668750027377203
1	1	0	1	0	0	1	28191,10	0,100000001	2,82571745	5,5562981611738605E-005	0,10001336811201069	0,000282609515	0,026002127758095699	-0,00097017434688714086	0,026002127758095699
1	1	0	1	0	0	1	28203,10	0,100000001	2,83301187	5,556298000241319E-005	0,1000133652152249	0,000283339061	0,026335505524828243	-0,00098261311959510643	0,026335505524828243
1	1	0	1	0	0	1	28215,10	0,100000001	2,84072614	5,5563034756730003E-005	0,10001346377299635	0,000284110865	0,02666888329750593	-0,00099505189252489344	0,02666888329750593
1	1	0	1	0	0	1	28227,10	0,100000001	2,84838319	5,5563006092276838E-005	0,10001341217698003	0,000284876529	0,027002261229700554	-0,0010074906714064718	0,027002261229700554
1	1	0	1	0	0	1	28239,10	0,100000001	2,85649848	5,5563065910918842E-005	0,10001351985053696	0,000285688468	0,02733563938855673	-0,0010199294587450976	0,02733563938855673
1	1	0	1	0	0	1	28251,10	0,100000001	2,86484289	5,5562959672262272E-005	0,1000133286209528	0,000286522467	0,027669017138396736	-0,00103236823082278	0,027669017138396736
1	1	0	1	0	0	1	28263,10	0,100000001	2,87356925	5,5562974105692576E-005	0,10001335460112765	0,000287395291	0,028002395283063283	-0,0010448070176319715	0,028002395283063283
1	1	0	1	0	0	1	28275,10	0,100000001	2,88262033	5,556307492074039E-005	0,10001353606821594	0,00028830106	0,028335773359540058	-0,001057245801896911	0,028335773359540058
1	1	0	1	0	0	1	28287,10	0,100000001	2,89182401	5,5562987027068928E-005	0,10001337785960539	0,00028922109	0,028669151474149731	-0,0010696845875846403	0,028669151474149731
1	1	0	1	0	0	1	28299,10	0,100000001	2,90161967	5,5563015088852909E-005	0,10001342837081715	0,000290200929	0,029002529193047475	-0,0010821233585078251	0,029002529193047475
1	1	0	1	0	0	1	28311,10	0,100000001	2,91156816	5,5562970333629184E-005	0,10001334781141347	0,000291195669	0,029335907388744704	-0,0010945621472210402	0,029335907388744704
1	1	0	1	0	0	1	28323,10	0,100000001	2,9219749	5,556300257270535E-005	0,1000134058417513	0,000292236655	0,029669285427567066	-0,0011070009300810429	0,029669285427567066
1	1	0	1	0	0	1	28335,10	0,100000001	2,93293548	5,5563029495378336E-005	0,10001345430256325	0,000293332996	0,030002663690899014	-0,0011194397213178	0,030002663690899014
1	1	0	1	0	0	1	28347,10	0,100000001	2,94423962	5,5563154298398234E-005	0,10001367894800178	0,000294464233	0,030336042282223738	-0,0011318785247924086	0,030336042282223738
1	1	0	1	0	0	1	28359,10	0,100000001	2,95625019	5,5562920810861715E-005	0,10001325867043094	0,000295664213	0,030669420611978029	-0,0011443173185074728	0,030669420611978029
1	1	0	1	0	0	1	28371,10	0,100000001	2,96852827	5,556303296652105E-005	0,10001346055062019	0,000296892773	0,031002798687994099	-0,0011567561027552226	0,031002798687994099
1	1	0	1	0	0	1	28383,10	0,100000001	2,98147464	5,5562968222217427E-005	0,10001334401087229	0,000298187253	0,031336176537015821	-0,0011691948785335083	0,031336176537015821
1	1	0	1	0	0	1	28395,10	0,100000001	2,99505115	5,5562961542357997E-005	0,10001333198712515	0,000299545034	0,03166955438517161	-0,001181633654279485	0,03166955438517161
1	1	0	1	0	0	1	28407,10	0,100000001	3,00923872	5,5562993418839245E-005	0,1000133893647921	0,000300964166	0,032002932267026803	-0,0011940724312828317	0,032002932267026803
1	1	0	1	0	0	1	28419,10	0,100000001	3,0241518	5,556292982937561E-005	0,10001327490375616	0,00030245533	0,032336309864253248	-0,0012065111976662966	0,032336309864253248
1	1	0	1	0	0	1	28431,10	0,100000001	3,04000044	5,5563072987314726E-005	0,1000135325880497	0,000304041168	0,032669687890020531	-0,001218949980039197	0,032669687890020531
1	1	0	1	0	0	1	28443,10	0,100000001	3,05657482	5,556291434417168E-005	0,10001324703038877	0,000305697962	0,033003065806676966	-0,0012313887583410248	0,033003065806676966
1	1	0	1	0	0	1	28455,10	0,100000001	3,07404685	5,5562951412051917E-005	0,10001331375257398	0,000307445618	0,033336443826932896	-0,0012438275405082888	0,033336443826932896
1	1	0	1	0	0	1	28467,10	0,100000001	3,0923779	5,5562927032510445E-005	0,10001326986939882	0,000309278839	0,033669821448023968	-0,0012562663077821755	0,033669821448023968
1	1	0	1	0	0	1	28479,10	0,100000001	3,11195016	5,5563016480869722E-005	0,10001343087644746	0,000311236799	0,034003199172742266	-0,0012687050789225328	0,034003199172742266
1	1	0	1	0	0	1	28491,10	0,100000001	3,13257265	5,5563027460128064E-005	0,10001345063911274	0,000313299388	0,03433657688892551	-0,0012811438497444365	0,03433657688892551
1	1	0	1	0	0	1	28503,10	0,100000001	3,1544745	5,5563092704862355E-005	0,10001356807963587	0,000315490237	0,034669954899202624	-0,0012935826315393776	0,034669954899202624
1	1	0	1	0	0	1	28515,10	0,100000001	3,17773223	5,5563101912538214E-005	0,10001358465345259	0,00031781639	0,035003333410195181	-0,0013060214320166851	0,035003333410195181
1	1	0	1	0	0	1	28527,10	0,100000001	3,20255542	5,5563061664087904E-005	0,10001351220624117	0,000320298801	0,035336711829731859	-0,0013184602290816507	0,035336711829731859
1	1	0	1	0	0	1	28539,10	0,100000001	3,22894454	5,556302833722697E-005	0,10001345221789077	0,000322937878	0,035670089880261158	-0,001330899012378455	0,035670089880261158
1	1	0	1	0	0	1	28551,10	0,100000001	3,2570715	5,5563018788894016E-005	0,10001343503089123	0,000325750909	0,036003467982064518	-0,0013433377975883635	0,036003467982064518
1	1	0	1	0	0	1	28563,10	0,100000001	3,28718424	5,5563037874384058E-005	0,10001346938477373	0,00032876269	0,036336845894517587	-0,0013557765757333578	0,036336845894517587
1	1	0	1	0	0	1	28575,10	0,100000001	3,3190918	5,5562963151269491E-005	0,10001333488316589	0,00033195343	0,036670223504633536	-0,001368215342597748	0,036670223504633536
1	1	0	1	0	0	1	28587,10	0,100000001	3,35315704	5,5562907839814816E-005	0,10001323532254627	0,000335360091	0,0370036012651672	-0,0013806541150744251	0,0370036012651672
1	1	0	1	0	0	1	28599,10	0,100000001	3,38976192	5,556311364471913E-005	0,10001360577137851	0,000339022314	0,037336979371274106	-0,0013930929004449046	0,037336979371274106
1	1	0	1	0	0	1	28611,10	0,100000001	3,42837191	5,5563019321196608E-005	0,10001343598903592	0,000342883257	0,037670357121123219	-0,0014055316725229269	0,037670357121123219
1	1	0	1	0	0	1	28623,10	0,100000001	3,46976972	5,5563050587144166E-005	0,10001349226774219	0,000347023801	0,038003735270131802	-0,0014179704594941256	0,038003735270131802
1	1	0	1	0	0	1	28635,10	0,100000001	3,51363063	5,556293836360176E-005	0,10001329026536342	0,000351409748	0,038337112866762208	-0,0014304092258553518	0,038337112866762208
1	1	0	1	0	0	1	28647,10	0,100000001	3,56039405	5,5563071658627853E-005	0,10001353019641328	0,000356087578	0,038670490792458682	-0,0014428480044944755	0,038670490792458682
1	1	0	1	0	0	1	28659,10	0,100000001	3,61021256	5,556305397508873E-005	0,10001349836604248	0,000361069979	0,03900386924501097	-0,0014552868027912979	0,03900386924501097
1	1	0	1	0	0	1	28671,10	0,100000001	3,66329646	5,556301033621033E-005	0,10001341981606042	0,000366378808	0,039337247317106803	-0,0014677255868927789	0,039337247317106803
1	1	0	1	0	0	1	28683,10	0,100000001	3,71956921	5,5563116627020973E-005	0,10001361113952189	0,000372007547	0,039670625574976243	-0,0014801643779257222	0,039670625574976243
1	1	0	1	0	0	1	28695,10	0,100000001	3,7790308	5,5563073318451642E-005	0,10001353318409616	0,000377954217	0,04000400403025129	-0,0014926031763241347	0,04000400403025129
1	1	0	1	0	0	1	28707,10	0,100000001	3,84143281	5,5563031704061562E-005	0,10001345827819309	0,00038419498	0,040337382346274995	-0,0015050419695268922	0,040337382346274995
1	1	0	1	0	0	1	28719,10	0,100000001	3,90698576	5,5563135080039501E-005	0,10001364435495565	0,000390751899	0,040670760707703776	-0,0015174807644237741	0,040670760707703776
1	1	0	1	0	0	1	28731,10	0,100000001	3,97513533	5,5563096530735494E-005	0,10001357496620758	0,000397567492	0,041004139170194298	-0,0015299195630914054	0,041004139170194298
1	1	0	1	0	0	1	28743,10	0,100000001	4,04611111	5,5563115264806483E-005	0,10001360868753578	0,000404666178	0,041337517855587981	-0,0015423583700758534	0,041337517855587981
1	1	0	1	0	0	1	28755,10	0,100000001	4,11785078	5,5563039085103411E-005	0,10001347156406859	0,000411840563	0,041670896585969517	-0,0015547971787388589	0,041670896585969517
1	1	0	1	0	0	1	28767,10	0,100000001	4,18792915	5,5563102787981434E-005	0,1000135862292504	0,000418849813	0,042004275028872454	-0,0015672359766756509	0,042004275028872454
1	1	0	1	0	0	1	28779,10	0,100000001	4,2537055	5,5562980421715309E-005	0,10001336596996874	0,000425427395	0,042337653337929453	-0,001579674769618471	0,042337653337929453
1	1	0	1	0	0	1	28791,10	0,100000001	4,31559181	5,5563102796673779E-005	0,10001358624489662	0,000431617809	0,042671031540433619	-0,0015921135585856621	0,042671031540433619
1	1	0	1	0	0	1	28803,10	0,100000001	4,37251377	5,5563080447001587E-005	0,10001354601548622	0,000437310606	0,043004409898560134	-0,0016045523533593322	0,043004409898560134
1	1	0	1	0	0	1	28815,10	0,100000001	4,42407036	5,5563086314747731E-005	0,10001355657742941	0,000442467019	0,043337788325642598	-0,0016169911507058413	0,043337788325642598
1	1	0	1	0	0	1	28827,10	0,100000001	4,46926785	5,5563089400529862E-005	0,1000135621318373	0,000446987397	0,043671167163841485	-0,001629429963391657	0,043671167163841485
1	0	0	0	1	0	2	28836,55	-0,100000001	4,48858023	-5,4835143188635507E-009	-0,032901087542289075	0,000147679166	0,043933547432573363	-0,0016392197239920666	5,4835143188635507E-009
1	0	0	0	0	0	2	28848,55	-0,100000001	4,02691507	-5,5544606857001779E-005	-0,099980293553083968	0,000402612146	0,04360028039199824	-0,0016267850826259069	0,00033327252408944896
1	0	0	0	0	0	2	28860,55	-0,100000001	3,65143275	-5,5544831488281491E-005	-0,099980697889392333	0,000365072803	0,043267012173249555	-0,0016143503973005078	0,00066654074283813427
1	0	0	0	0	0	2	28872,55	-0,100000001	3,29888368	-5,5544892016384339E-005	-0,09998080683997879	0,000329825038	0,042933743132713414	-0,0016019156813131139	0,00099980978337426995
1	0	0	0	0	0	2	28884,55	-0,100000001	2,97104311	-5,554478606995609E-005	-0,099980616136405619	0,000297046732	0,042600474535809683	-0,0015894809818782413	0,0013330783802780011
1	0	0	0	0	0	2	28896,55	-0,100000001	2,69283032	-5,5544825620535347E-005	-0,099980687327449152	0,000269231037	0,042267205812568941	-0,0015770462777295654	0,0016663471035187443
1	0	0	0	0	0	2	28908,55	-0,100000001	2,57658052	-5,5544782730854221E-005	-0,099980610126022195	0,000257608102	0,041933936810466624	-0,0015646115631761888	0,0019996161056210592
1	0	0	0	0	0	2	28920,55	-0,100000001	2,52806044	-5,5544866085466406E-005	-0,099980760164325939	0,000252757396	0,04160066794218336	-0,0015521768536157818	0,0023328849739043242
1	0	0	0	0	0	2	28932,55	-0,100000001	2,49651551	-5,5544844292932083E-005	-0,099980720937763686	0,000249603414	0,041267398935980742	-0,0015397421389094176	0,0026661539801069427
1	0	0	0	0	0	2	28944,55	-0,100000001	2,47287607	-5,5544865465412531E-005	-0,099980759048228954	0,000247240037	0,040934130100560339	-0,0015273074305751674	0,002999422815527353
1	0	0	0	0	0	2	28956,55	-0,100000001	2,45391488	-5,5544815836267341E-005	-0,099980669715766528	0,000245344039	0,040600861057396218	-0,0015148727144897197	0,0033326918586914733
1	0	0	0	0	0	2	28968,55	-0,100000001	2,43923092	-5,5544739450017613E-005	-0,099980532220515341	0,000243875606	0,040267592713862317	-0,0015024380245084166	0,0036659602022253798
1	0	0	0	0	0	2	28980,55	-0,100000001	2,4293015	-5,5544715826296141E-005	-0,099980489697816179	0,000242882757	0,039934324276319885	-0,0014900033310195283	0,003999228639767815
1	0	0	0	0	0	2	28992,55	-0,100000001	2,42332482	-5,5544829789549114E-005	-0,099980694831674022	0,000242285707	0,03960105564856247	-0,0014775686304334637	0,0043324972675252282
1	0	0	0	0	0	2	29004,55	-0,100000001	2,41916203	-5,5544656270080147E-005	-0,099980382496626099	0,000241868751	0,039267787109327891	-0,001465133933150305	0,0046657658067598099
1	0	0	0	0	0	2	29016,55	-0,100000001	2,41566777	-5,5544821406818099E-005	-0,099980679742758016	0,000241520102	0,038934518235277056	-0,0014526992233747014	0,0049990346808106522
1	0	0	0	0	0	2	29028,55	-0,100000001	2,41240263	-5,5544807267271808E-005	-0,099980654291574387	0,0002411936	0,038601249303954438	-0,0014402645114622109	0,0053323036121332787
1	0	0	0	0	0	2	29040,55	-0,100000001	2,40953827	-5,5544791515088742E-005	-0,099980625937644518	0,000240907146	0,03826798030861104	-0,0014278297971610189	0,0056655726074766758
1	0	0	0	0	0	2	29052,55	-0,100000001	2,40655947	-5,5544832746187846E-005	-0,099980700153623795	0,000240609501	0,037934711612515238	-0,0014153950940251568	0,005998841303572471
1	0	0	0	0	0	2	29064,55	-0,100000001	2,40377164	-5,5544868063181638E-005	-0,099980763724213402	0,000240330919	0,037601442225329248	-0,0014029603651037909	0,0063321106907584589
1	0	0	0	0	0	2	29076,55	-0,100000001	2,40098381	-5,5544891709668768E-005	-0,099980806287890739	0,000240052294	0,037268172632592083	-0,0013905256285130346	0,0066653802834956173
1	0	0	0	0	0	2	29088,55	-0,100000001	2,39806223	-5,5544920869999456E-005	-0,09998085877648663	0,000239760324	0,036934903388340102	-0,0013780909049247283	0,0069986495277475968
1	0	0	0	0	0	2	29100,55	-0,100000001	2,39536977	-5,5544981194453107E-005	-0,099980967360504525	0,00023949139	0,036601633882343021	-0,0013656561715703608	0,007331919033744681
1	0	0	0	0	0	2	29112,55	-0,100000001	2,39252472	-5,5544911711166304E-005	-0,099980842290586752	0,000239206638	0,036268364604176416	-0,0013532214467166546	0,0076651883119112896
1	0	0	0	0	0	2	29124,55	-0,100000001	2,38962221	-5,554488566931751E-005	-0,099980795415258355	0,000238916327	0,035935095480156928	-0,001340786727614385	0,0079984574359307661
1	0	0	0	0	0	2	29136,55	-0,100000001	2,38671994	-5,5544742055651213E-005	-0,099980536910655898	0,000238625536	0,03560182701520919	-0,001328352033102968	0,008331725900878505
1	0	0	0	0	0	2	29148,55	-0,100000001	2,38366461	-5,5544783997866842E-005	-0,099980612406644928	0,000238320252	0,03526855841006967	-0,0013159173333608072	0,008664994506018025
1	0	0	0	0	0	2	29160,55	-0,100000001	2,38064766	-5,5544795738326176E-005	-0,099980633539472013	0,000238018663	0,034935289613188211	-0,001303482626464497	0,008998263302899479
1	0	0	0	0	0	2	29172,55	-0,100000001	2,37730598	-5,5544954397612147E-005	-0,099980919126190195	0,000237685235	0,034602020630004992	-0,0012910479126170176	0,0093315322860827008
1	0	0	0	0	0	2	29184,55	-0,100000001	2,37396455	-5,5544862266216013E-005	-0,099980753289675136	0,00023735076	0,034268751580430483	-0,0012786131962923899	0,009664801335657216
1	0	0	0	0	0	2	29196,55	-0,100000001	2,37056565	-5,5544808248678842E-005	-0,099980656058107059	0,00023701071	0,033935482607775334	-0,001266178482837727	0,009998070308312352
1	0	0	0	0	0	2	29208,55	-0,100000001	2,36716676	-5,5544833044624992E-005	-0,099980700690810662	0,000236670996	0,033602213350392122	-0,0012537437587594773	0,010331339565695568
1	0	0	0	0	0	2	29220,55	-0,100000001	2,36340499	-5,554485742499431E-005	-0,099980744575475968	0,000236294989	0,033268944384604762	-0,0012413090455610603	0,010664608531482925
1	0	0	0	0	0	2	29232,55	-0,100000001	2,35968137	-5,5544846825301651E-005	-0,099980725496028966	0,000235922649	0,032935675289250982	-0,0012288743275283466	0,010997877626836707
1	0	0	0	0	0	2	29244,55	-0,100000001	2,35570979	-5,5544813309692672E-005	-0,09998066516793207	0,000235525426	0,032602406298256653	-0,0012164396133894243	0,011331146617831037
1	0	0	0	0	0	2	29256,55	-0,100000001	2,35183358	-5,554486376709408E-005	-0,099980755991255693	0,000235138097	0,032269137339281606	-0,0012040049004451845	0,01166441557680608
1	0	0	0	0	0	2	29268,55	-0,100000001	2,34770894	-5,5544852501402298E-005	-0,099980735713010253	0,000234725667	0,031935868303086682	-0,001191570184619767	0,011997684613001011
1	0	0	0	0	0	2	29280,55	-0,100000001	2,34348893	-5,5544867284595968E-005	-0,099980762322759181	0,000234303807	0,031602599183789632	-0,0011791354656936976	0,012330953732298061
1	0	0	0	0	0	2	29292,55	-0,100000001	2,33919263	-5,5544937630494432E-005	-0,099980888945377946	0,000233874554	0,031269329824655494	-0,001166700737818984	0,0126642230914322
1	0	0	0	0	0	2	29304,55	-0,100000001	2,33489633	-5,5544837070008122E-005	-0,09998070793650039	0,000233444589	0,030936060693350176	-0,0011542660184448699	0,012997492222737518
1	0	0	0	0	0	2	29316,55	-0,100000001	2,33040905	-5,5544751345697376E-005	-0,0999805536327392	0,00023299559	0,030602791657900307	-0,0011418313026472515	0,013330761258187389
1	0	0	0	0	0	2	29328,55	-0,100000001	2,32582617	-5,5544841863628896E-005	-0,099980716565017894	0,000232537772	0,030269522870522483	-0,0011293965961055347	0,013664030045565214
1	0	0	0	0	0	2	29340,55	-0,100000001	2,32110977	-5,5544858564105299E-005	-0,099980746625875776	0,00023206629	0,029936254014442445	-0,0011169618870004458	0,013997298901645256
1	0	0	0	0	0	2	29352,55	-0,100000001	2,31641245	-5,5544794554925626E-005	-0,099980631409350989	0,000231596379	0,029602985196971725	-0,0011045271793359226	0,014330567719115976
1	0	0	0	0	0	2	29364,55	-0,100000001	2,31142855	-5,5544837816307942E-005	-0,099980709279840102	0,000231098267	0,029269716285215149	-0,0010920924681534672	0,014663836630872554
1	0	0	0	0	0	2	29376,55	-0,100000001	2,30644488	-5,5544831599626272E-005	-0,099980698089812954	0,000230599966	0,028936447494807424	-0,0010796577614987006	0,014997105421280282
1	0	0	0	0	0	2	29388,55	-0,100000001	2,30161381	-5,554484319397145E-005	-0,099980718959634509	0,000230117003	0,028603178431945626	-0,0010672230446783062	0,015330374484142083
1	0	0	0	0	0	2	29400,55	-0,100000001	2,2964201	-5,5544648476358918E-005	-0,099980368467927706	0,000229596932	0,028269910045287344	-0,0010547883530879746	0,015663642870800365
1	0	0	0	0	0	2	29412,55	-0,100000001	2,29116893	-5,5544810779806637E-005	-0,099980660614137139	0,000229072582	0,027936641446604586	-0,0010423536535867242	0,015996911469483126
1	0	0	0	0	0	2	29424,55	-0,100000001	2,28603244	-5,5544863172703322E-005	-0,09998075492135232	0,000228559249	0,027603372363623315	-0,0010299189360156453	0,016330180552464394
1	0	0	0	0	0	2	29436,55	-0,100000001	2,280514	-5,5544891381843226E-005	-0,099980805697804762	0,00022800763	0,027270102858785622	-0,0010174842027045362	0,016663450057302086
1	0	0	0	0	0	2	29448,55	-0,100000001	2,27507186	-5,5544938578787776E-005	-0,099980890652305984	0,000227463708	0,026936833231257565	-0,0010050494648156845	0,016996719684830144
1	0	0	0	0	0	2	29460,55	-0,100000001	2,26945806	-5,5544772326532339E-005	-0,099980591398242573	0,000226901757	0,026603564266942938	-0,00099261475167221773	0,017329988649144774
1	0	0	0	0	0	2	29472,55	-0,100000001	2,26401591	-5,5544963873508902E-005	-0,09998093618280457	0,000226358432	0,026270294934642477	-0,00098018002479870451	0,017663257981445232
1	0	0	0	0	0	2	29484,55	-0,100000001	2,25826836	-5,5545114239884749E-005	-0,099981206842284365	0,000225784403	0,025937024408614134	-0,00096774525338559923	0,017996528507473574
1	0	0	0	0	0	2	29496,55	-0,100000001	2,25238729	-5,5544946377889978E-005	-0,099980904690690112	0,000225195719	0,025603754260022685	-0,00095531049605517184	0,018329798656065027
1	0	0	0	0	0	2	29508,55	-0,100000001	2,24650598	-5,5544960581594048E-005	-0,099980930257357747	0,000224607764	0,025270484523328301	-0,00094287575409317786	0,018663068392759411
1	0	0	0	0	0	2	29520,55	-0,100000001	2,24060559	-5,5544963361074528E-005	-0,099980935260422682	0,000224017844	0,024937214591744941	-0,00093044100485961395	0,018996338324342768
1	0	0	0	0	0	2	29532,55	-0,100000001	2,2343998	-5,5544827828804653E-005	-0,099980691302333952	0,000223396841	0,02460394507246761	-0,00091800627100974246	0,019329607843620099
1	0	0	0	0	0	2	29544,55	-0,100000001	2,22813678	-5,5544847392787533E-005	-0,099980726517503565	0,00022277073	0,024270675796578397	-0,0009055715462410089	0,019662877119509315
1	0	0	0	0	0	2	29556,55	-0,100000001	2,2217207	-5,5544805633111136E-005	-0,099980651350085133	0,000222129078	0,023937406633846525	-0,00089313682569432794	0,019996146282241184
1	0	0	0	0	0	2	29568,55	-0,100000001	2,215343	-5,5544864461653766E-005	-0,099980757241463155	0,000221491675	0,023604137572583286	-0,00088070210893357798	0,020329415343504422
1	0	0	0	0	0	2	29580,55	-0,100000001	2,20865989	-5,5544839998500218E-005	-0,099980713207786227	0,000220823393	0,023270868478781296	-0,00086826739095876339	0,020662684437306413
1	0	0	0	0	0	2	29592,55	-0,100000001	2,20205307	-5,5544783437417613E-005	-0,099980611397836301	0,000220162619	0,022937599647908643	-0,0008558326827941961	0,020995953268179066
1	0	0	0	0	0	2	29604,55	-0,100000001	2,19494963	-5,5545015822682118E-005	-0,099981029691317478	0,00021945333	0,02260433028206071	-0,00084339795466898176	0,021329222634026998
1	0	0	0	0	0	2	29616,55	-0,100000001	2,18784642	-5,5544912448359859E-005	-0,099980843617535168	0,000218742731	0,022271060628886512	-0,00083096321582323802	0,0216624922872012
1	0	0	0	0	0	2	29628,55	-0,100000001	2,18068576	-5,5544911535249818E-005	-0,099980841973937062	0,000218026791	0,021937790985998253	-0,00081852847736127667	0,021995761930089456
1	0	0	0	0	0	2	29640,55	-0,100000001	2,17333436	-5,5545010931789875E-005	-0,099981020887711334	0,000217292181	0,021604521159756589	-0,00080609373205815322	0,022329031756331123
1	0	0	0	0	0	2	29652,55	-0,100000001	2,16577268	-5,5545113500621587E-005	-0,099981205511610662	0,000216536559	0,021271250310120966	-0,00079365894857082509	0,022662302605966746
1	0	0	0	0	0	2	29664,55	-0,100000001	2,15790558	-5,5545108651535379E-005	-0,099981196783255373	0,000215749984	0,020937980003414125	-0,00078122418534089997	0,022995572912673584
1	0	0	0	0	0	2	29676,55	-0,100000001	2,14996219	-5,5545013329221139E-005	-0,099981025203087654	0,00021495542	0,020604709582565216	-0,00076878941785218074	0,023328843333522493
1	0	0	0	0	0	2	29688,55	-0,100000001	2,1418469	-5,55450228109128E-005	-0,099981042270132851	0,000214144078	0,020271438958668944	-0,00075635464278749133	0,023662113957418765
1	0	0	0	0	0	2	29700,55	-0,100000001	2,13354039	-5,5545133855193856E-005	-0,099981242149841178	0,000213314022	0,01993816873670831	-0,00074391988271956096	0,023995384179379398
1	0	0	0	0	0	2	29712,55	-0,100000001	2,12483335	-5,5544984562529453E-005	-0,09998097342304201	0,000212442901	0,019604898471552115	-0,00073148512103994624	0,024328654444535594
1	0	0	0	0	0	2	29724,55	-0,100000001	2,11587763	-5,554512447905209E-005	-0,099981225272785805	0,000211548031	0,019271628097392688	-0,00071905035529327424	0,024661924818695024
1	0	0	0	0	0	2	29736,55	-0,100000001	2,10692215	-5,5545056189099949E-005	-0,099981102350870464	0,000210652404	0,018938357673947664	-0,0007066155877076905	0,024995195242140045
1	0	0	0	0	0	2	29748,55	-0,100000001	2,09747028	-5,5544932834804058E-005	-0,099980880313135168	0,000209706923	0,018605087594600669	-0,00069418083296086682	0,02532846532148704
1	0	0	0	0	0	2	29760,55	-0,100000001	2,08773184	-5,5544910082386598E-005	-0,099980839358783245	0,000208733181	0,018271817801944979	-0,00068174608891088115	0,025661735114142733
1	0	0	0	0	0	2	29772,55	-0,100000001	2,07784057	-5,5544962382978867E-005	-0,099980933499850458	0,000207744437	0,017938548131748688	-0,00066931134943002035	0,025995004784339024
1	0	0	0	0	0	2	29784,55	-0,100000001	2,06762481	-5,5544801624284851E-005	-0,099980644134197734	0,000206722456	0,017605278941626	-0,00065687662786135117	0,026328273974461709
1	0	0	0	0	0	2	29796,55	-0,100000001	2,05706549	-5,5545040431121984E-005	-0,099981073986509786	0,000205667617	0,017272009297383811	-0,0006444418893488727	0,026661543618703901
1	0	0	0	0	0	2	29808,55	-0,100000001	2,04602861	-5,554498475500279E-005	-0,099980973769494016	0,000204563927	0,016938739469371798	-0,00063200714397969523	0,02699481344671591
1	0	0	0	0	0	2	29820,55	-0,100000001	2,03468609	-5,5545047608100704E-005	-0,099981086905071642	0,000203430129	0,016605469905402986	-0,00061957240846232448	0,027328083010684723
1	0	0	0	0	0	2	29832,55	-0,100000001	2,02298093	-5,5544992770171827E-005	-0,099980988196798451	0,000202259631	0,016272200136392954	-0,00060713766529459008	0,027661352779694758
1	0	0	0	0	0	2	29844,55	-0,100000001	2,01098943	-5,5545058177577126E-005	-0,099981105930129421	0,000201060946	0,015938929849531978	-0,00059470290280514074	0,027994623066555734
1	0	0	0	0	0	2	29856,55	-0,100000001	1,99852037	-5,5544954284611674E-005	-0,09998091892278935	0,000199813905	0,015605659862539066	-0,00058226815150417216	0,02832789305354864
1	0	0	0	0	0	2	29868,55	-0,100000001	1,98565042	-5,554508343463143E-005	-0,099981151392827699	0,000198527618	0,015272389728578077	-0,00056983339471962682	0,028661163187509629
1	0	0	0	0	0	2	29880,55	-0,100000001	1,97207391	-5,5545006777677274E-005	-0,099981013410308557	0,000197169953	0,01493911958482081	-0,00055739863756956934	0,028994433331266893
1	0	0	0	0	0	2	29892,55	-0,100000001	1,95826828	-5,5545000955876371E-005	-0,099981002931066816	0,000195789631	0,014605849611063443	-0,00054496388676243667	0,029327703305024262
1	0	0	0	0	0	2	29904,55	-0,100000001	1,94381344	-5,5544911493443782E-005	-0,099980841898686195	0,000194344102	0,014272580031645854	-0,00053252915066865126	0,02966097288444185
1	0	0	0	0	0	2	29916,55	-0,100000001	1,92876661	-5,5544814441767008E-005	-0,099980667205665894	0,000192839376	0,01393931077998717	-0,00052009442680399123	0,029994242136100531
1	0	0	0	0	0	2	29928,55	-0,100000001	1,91326165	-5,5544930410053997E-005	-0,099980875948584998	0,000191289582	0,01360604089453036	-0,0005076596792914711	0,030327512021557344
1	0	0	0	0	0	2	29940,55	-0,100000001	1,89726007	-5,5544946904811597E-005	-0,09998090563914903	0,000189689774	0,013272771334270282	-0,00049522494391247821	0,030660781581817421
1	0	0	0	0	0	2	29952,55	-0,100000001	1,8805902	-5,5544944937444397E-005	-0,099980902097888038	0,000188023099	0,012939501868524958	-0,00048279021205995789	0,030994051047562746
1	0	0	0	0	0	2	29964,55	-0,100000001	1,86332846	-5,5544875651597978E-005	-0,09998077738336297	0,000186297024	0,012606232664724667	-0,00047035548998095891	0,03132732025136304
1	0	0	0	0	0	2	29976,55	-0,100000001	1,84539831	-5,5545024992277229E-005	-0,09998104619658889	0,000184504854	0,012272963147614627	-0,00045792075621195187	0,031660589768473082
1	0	0	0	0	0	2	29988,55	-0,100000001	1,82679987	-5,5545006471375622E-005	-0,099981012858965606	0,000182645308	0,011939693453340126	-0,00044548601583270074	0,031993859462747578
1	0	0	0	0	0	2	30000,55	-0,100000001	1,80770493	-5,554497842200928E-005	-0,099980962370105549	0,000180736082	0,011606423715210683	-0,00043305127381716262	0,032327129200877018
1	0	0	0	0	0	2	30012,55	-0,100000001	1,78815746	-5,5544914979487661E-005	-0,099980848173565261	0,000178781498	0,011273154175075453	-0,00042061653918905491	0,03266039874101225
1	0	0	0	0	0	2	30024,55	-0,100000001	1,76764953	-5,554493567430311E-005	-0,09998088542423351	0,000176731162	0,010939884482737691	-0,00040818179888206598	0,032993668433350022
1	0	0	0	0	0	2	30036,55	-0,100000001	1,74635875	-5,554496597747008E-005	-0,099980939969934733	0,000174602596	0,010606614617730243	-0,00039574705213253907	0,033326938298357466
1	0	0	0	0	0	2	30048,55	-0,100000001	1,72445691	-5,5544940758910445E-005	-0,099980894576526822	0,000172412751	0,010273344956604621	-0,00038331231299011706	0,033660207959483085
1	0	0	0	0	0	2	30060,55	-0,100000001	1,70194399	-5,5544969319883322E-005	-0,09998094598627863	0,000170161977	0,0099400749836966195	-0,00037087756221467526	0,033993477932391098
1	0	0	0	0	0	2	30072,55	-0,100000001	1,67868638	-5,5545058103899155E-005	-0,099981105797509082	0,000167836915	0,0096068049936680102	-0,0003584428108004407	0,034326747922419699
1	0	0	0	0	0	2	30084,55	-0,100000001	1,65508509	-5,5544912563016019E-005	-0,09998084382391625	0,000165476798	0,0092735350819532851	-0,00034600806230820243	0,034660017834134432
1	0	0	0	0	0	2	30096,55	-0,100000001	1,63091099	-5,5545032953636512E-005	-0,099981060527035776	0,000163060206	0,0089402648789109248	-0,0003335733029461383	0,034993288037176787
1	0	0	0	0	0	2	30108,55	-0,100000001	1,60650766	-5,5545055685771834E-005	-0,099981101444879846	0,000160620402	0,0086069947315372314	-0,00032113854566114707	0,03532655818455049
1	0	0	0	0	0	2	30120,55	-0,100000001	1,58170342	-5,5544996896551712E-005	-0,099980995624282342	0,00015814029	0,008273724579216352	-0,0003087037881915696	0,035659828336871354
1	0	0	0	0	0	2	30132,55	-0,100000001	1,55644083	-5,5544985810915629E-005	-0,099980975670137139	0,000155614471	0,0079404547001877376	-0,00029626904091889402	0,035993098215899968
1	0	0	0	0	0	2	30144,55	-0,100000001	1,53115916	-5,5544909879151322E-005	-0,099980838992959744	0,000153086585	0,0076071851652617024	-0,00028383430648514835	0,036326367750825997
1	0	0	0	0	0	2	30156,55	-0,100000001	1,50557196	-5,5544849362224339E-005	-0,099980730062489869	0,000150528183	0,0072739156910177498	-0,00027139957431553277	0,036659637225069946
1	0	0	0	0	0	2	30168,55	-0,100000001	1,47981298	-5,5544915241913664E-005	-0,09998084864593207	0,00014795296	0,0069406462103720934	-0,00025896484190706099	0,036992906705715597
1	0	0	0	0	0	2	30180,55	-0,100000001	1,45369112	-5,5544883236289024E-005	-0,099980791035807027	0,000145341182	0,0066073770514309184	-0,0002465301215018159	0,037326175864656774
1	0	0	0	0	0	2	30192,55	-0,100000001	1,42781746	-5,5544913984421222E-005	-0,099980846382445645	0,000142754405	0,0062741079546822208	-0,00023409540341705584	0,037659444961405472
1	0	0	0	0	0	2	30204,55	-0,100000001	1,401963	-5,5544942188594074E-005	-0,099980897149957402	0,000140169519	0,005940838179177769	-0,00022166066000700592	0,037992714736909926
1	0	0	0	0	0	2	30216,55	-0,100000001	1,37639499	-5,5544917251500819E-005	-0,099980852263188979	0,00013761314	0,0056075685198514605	-0,00020922592093171878	0,038325984396236237
1	0	0	0	0	0	2	30228,55	-0,100000001	1,35187709	-5,5544805949346886E-005	-0,099980651919309491	0,00013516155	0,0052742994123954528	-0,00019679120244745456	0,038659253503692243
1	0	0	0	0	0	2	30240,55	-0,100000001	1,32882953	-5,5544875576264326E-005	-0,099980777247762406	0,000132857414	0,0049410306704889357	-0,00018435649760233334	0,038992522245598758
1	0	0	0	0	0	2	30252,55	-0,100000001	1,30771053	-5,5544853100760115E-005	-0,099980736791854336	0,000130745859	0,0046077616988450086	-0,00017192178418540045	0,039325791217242688
1	0	0	0	0	0	2	30264,55	-0,100000001	1,28962767	-5,554486824654871E-005	-0,099980764054274125	0,000128937958	0,0042744924952496064	-0,00015948706211404611	0,039659060420838086
1	0	0	0	0	0	2	30276,55	-0,100000001	1,27452362	-5,5544892823530573E-005	-0,099980808292842022	0,000127427906	0,0039412234611433222	-0,00014705234636655869	0,039992329454944365
1	0	0	0	0	0	2	30288,55	-0,100000001	1,26232195	-5,5544768316464294E-005	-0,099980584180120013	0,000126207684	0,0036079545004641651	-0,00013461763335873611	0,04032559841562352
1	0	0	0	0	0	2	30300,55	-0,100000001	1,25220168	-5,5544717378914355E-005	-0,099980492492529024	0,000125195744	0,0032746861030824294	-0,00012218294136829766	0,040658866813005261
1	0	0	0	0	0	2	30312,55	-0,100000001	1,24395263	-5,5544648971822528E-005	-0,099980369359762214	0,000124370839	0,0029414181329434758	-0,00010974826531886187	0,040992134783144218
1	0	0	0	0	0	2	30324,55	-0,100000001	1,23690665	-5,5544693463378483E-005	-0,099980449444563917	0,000123666483	0,0026081499729906336	-9,7313582187214669E-005	0,041325402943097062
1	0	0	0	0	0	2	30336,55	-0,100000001	1,23064351	-5,5544793693555725E-005	-0,099980629858885133	0,000123040518	0,0022748818659985878	-8,4878901031606003E-005	0,041658671050089094
1	0	0	0	0	0	2	30348,55	-0,100000001	1,22518241	-5,554484263973104E-005	-0,099980717962001766	0,000122494617	0,0019416133343143418	-7,244420403016032E-005	0,041991939581773344
1	0	0	0	0	0	2	30360,55	-0,100000001	1,21983576	-5,554473067240583E-005	-0,099980516420813939	0,000121959813	0,0016083445528282707	-6,0009497708272717E-005	0,042325208363259418
1	0	0	0	0	0	2	30372,55	-0,100000001	1,2154249	-5,5544879840893875E-005	-0,099980784924095693	0,000121519137	0,001275075369130057	-4,7574776379309261E-005	0,042658477546957638
1	0	0	0	0	0	2	30384,55	-0,100000001	1,21097577	-5,5544756419128838E-005	-0,09998056276491593	0,000121074037	0,00094180647099355686	-3,5140065705037299E-005	0,042991746445094144
1	0	0	0	0	0	2	30396,55	-0,100000001	1,20679402	-5,5544799179252653E-005	-0,099980639733139725	0,000120656041	0,00060853765582465293	-2,2705358126397891E-005	0,043325015260263053
1	0	0	0	0	0	2	30408,55	-0,100000001	1,20282221	-5,5544723110066515E-005	-0,099980502808603034	0,000120258766	0,00027526893303549789	-1,0270653994571122E-005	0,043658283983052218
1	0	0	0	0	0	2	30417,19	-0,100000001	1,20011079	-1,7818756779448854E-005	-0,099980556701623872	0,000119987744	3,5271511317191853E-005	-1,3160275102957619E-006	0,043898281404770522