File: Experimentelles/Rohdaten/Batteriemessungen/AlteZelle/Batterietest Li vs LATP/ZView-Export/LATP vs Li Batterietest Probe1_02_GCPL_C01_loop0.txt
EC-Lab ASCII FILE
Nb header lines : 3
mode	ox/red	error	control changes	Ns changes	counter inc.	Ns	time/s	control/V/mA	Ewe/V	dq/mA.h	<I>/mA	P/W	(Q-Qo)/mA.h	x	Capacity/mA.h
1	1	0	1	1	0	1	1800,00	0,100000001	2,48391867	0	0	0	0	0	0
1	1	0	1	0	0	1	1810,00	0,100000001	2,61611271	5,5563016110410291E-005	0,10001343152529032	0,000261646404	0,0002764426509103135	-1,0314446986560958E-005	0,0002764426509103135
1	1	0	1	0	0	1	1820,00	0,100000001	2,63728905	5,5563063884360928E-005	0,10001351751840363	0,000263764552	0,00055425771066199968	-2,0680100392216842E-005	0,00055425771066199968
1	1	0	1	0	0	1	1830,00	0,100000001	2,6492424	5,5562875570936339E-005	0,10001317855423082	0,000264959148	0,00083207245288070272	-3,1045741950290208E-005	0,00083207245288070272
1	1	0	1	0	0	1	1840,00	0,100000001	2,65836978	5,5562858776085907E-005	0,10001314832349928	0,000265871931	0,0011098867609130962	-4,1411367308288582E-005	0,0011098867609130962
1	1	0	1	0	0	1	1850,00	0,100000001	2,66631317	5,5563046522024608E-005	0,10001348626619747	0,000266667281	0,0013877016985642534	-5,1777016158209568E-005	0,0013877016985642534
1	1	0	1	0	0	1	1860,00	0,100000001	2,67397022	5,5562829298277696E-005	0,10001309526344314	0,000267432042	0,0016655165576734598	-6,2142662077624768E-005	0,0016655165576734598
1	1	0	1	0	0	1	1870,00	0,100000001	2,68126464	5,5562905706051322E-005	0,10001323279743917	0,000268161937	0,0019433308794765958	-7,2508287949428058E-005	0,0019433308794765958
1	1	0	1	0	0	1	1880,00	0,100000001	2,68876886	5,5562927474164294E-005	0,10001327198004349	0,000268912583	0,0022211455835686086	-8,2873928084943347E-005	0,0022211455835686086
1	1	0	1	0	0	1	1890,00	0,100000001	2,69621587	5,5562856281383168E-005	0,10001314383303424	0,00026965703	0,0024989601261461075	-9,3239562194134963E-005	0,0024989601261461075
1	1	0	1	0	0	1	1900,00	0,100000001	2,7038157	5,5562837725298272E-005	0,10001311043208056	0,000270417018	0,0027767743114765453	-0,00010360518297395838	0,0027767743114765453
1	1	0	1	0	0	1	1910,00	0,100000001	2,71139622	5,5562850138793389E-005	0,10001313277637235	0,000271175231	0,003054588587952832	-0,000113970807154556	0,003054588587952832
1	1	0	1	0	0	1	1920,00	0,100000001	2,71932077	5,5562874940948352E-005	0,10001317742025242	0,000271967903	0,0033324030953913229	-0,00012433643995266397	0,0033324030953913229
1	1	0	1	0	0	1	1930,00	0,100000001	2,72726417	5,5562816622356576E-005	0,10001307244678456	0,000272762059	0,0036102174123586182	-0,00013470206564403557	0,0036102174123586182
1	1	0	1	0	0	1	1940,00	0,100000001	2,73545599	5,5562909548895226E-005	0,10001323971455835	0,000273581827	0,0038880316917244896	-0,00014506768993244742	0,0038880316917244896
1	1	0	1	0	0	1	1950,00	0,100000001	2,74372387	5,5562863423178592E-005	0,10001315668826632	0,000274408492	0,0041658460174611187	-0,00015543331595101466	0,0041658460174611187
1	1	0	1	0	0	1	1960,00	0,100000001	2,75233579	5,5562760912295846E-005	0,1000129721686727	0,000275269296	0,0044436601061024755	-0,00016579893312323846	0,0044436601061024755
1	1	0	1	0	0	1	1970,00	0,100000001	2,7609477	5,556271035017239E-005	0,10001288115684821	0,000276130333	0,0047214737448550086	-0,00017616453350950544	0,0047214737448550086
1	1	0	1	0	0	1	1980,00	0,100000001	2,7697885	5,5562879262699021E-005	0,10001318519940381	0,000277015381	0,0049992877813882458	-0,00018653014873750525	0,0049992877813882458
1	1	0	1	0	0	1	1990,00	0,100000001	2,77895403	5,5562788621005082E-005	0,10001302204435061	0,000277931598	0,0052771020012806842	-0,00019689577080688339	0,0052771020012806842
1	1	0	1	0	0	1	2000,00	0,100000001	2,78838706	5,5562852656675706E-005	0,10001313730856064	0,000278875348	0,005554916047592807	-0,00020726138639974659	0,005554916047592807
1	1	0	1	0	0	1	2010,00	0,100000001	2,79808712	5,5562834335284102E-005	0,10001310433005493	0,000279845379	0,0058327300872759846	-0,00021762700174527491	0,0058327300872759846
1	1	0	1	0	0	1	2020,00	0,100000001	2,80822659	5,5562858152306746E-005	0,10001314720069674	0,000280859589	0,0061105442386446067	-0,00022799262125793734	0,0061105442386446067
1	1	0	1	0	0	1	2030,00	0,100000001	2,81861424	5,5562900069273184E-005	0,10001322265123824	0,000281898683	0,0063883587793876045	-0,00023835825529868128	0,0063883587793876045
1	1	0	1	0	0	1	2040,00	0,100000001	2,82946014	5,5562824764599405E-005	0,10001308710282202	0,000282983034	0,0066661730505872269	-0,00024872387928239939	0,0066661730505872269
1	1	0	1	0	0	1	2050,00	0,100000001	2,84095526	5,5562909559657171E-005	0,10001323973392986	0,00028413313	0,006943987471496329	-0,00025908950885197958	0,006943987471496329
1	1	0	1	0	0	1	2060,00	0,100000001	2,85288954	5,5562939994451072E-005	0,10001329451656026	0,000285326882	0,0072218018353083213	-0,00026945513629118976	0,0072218018353083213
1	1	0	1	0	0	1	2070,00	0,100000001	2,86528206	5,5562873230212262E-005	0,10001317434092736	0,000286565948	0,0074996161664731123	-0,00027982076251228899	0,0074996161664731123
1	1	0	1	0	0	1	2080,00	0,100000001	2,87811399	5,5562912293606336E-005	0,10001324465503846	0,000287849514	0,007777430370909321	-0,0002901863840049744	0,007777430370909321
1	1	0	1	0	0	1	2090,00	0,100000001	2,89172864	5,5562863026228211E-005	0,10001315597375562	0,000289210904	0,0080552446894747648	-0,0003005520097559751	0,0080552446894747648
1	1	0	1	0	0	1	2100,00	0,100000001	2,90574431	5,5562841926597882E-005	0,10001311799442006	0,000290612545	0,0083330591617278886	-0,0003109176412412697	0,0083330591617278886
1	1	0	1	0	0	1	2110,00	0,100000001	2,9205811	5,5562897202041414E-005	0,10001321749022094	0,000292096724	0,0086108736055984397	-0,00032128327166757235	0,0086108736055984397
1	1	0	1	0	0	1	2120,00	0,100000001	2,93595243	5,5562866413758861E-005	0,10001316207131094	0,000293633871	0,0088886880303110643	-0,00033164890137906707	0,0088886880303110643
1	1	0	1	0	0	1	2130,00	0,100000001	2,95210671	5,5562709426714317E-005	0,10001287949462362	0,000295248698	0,0091665019814486438	-0,00034201451342084006	0,0091665019814486438
1	1	0	1	0	0	1	2140,00	0,100000001	2,96913934	5,5562694881525306E-005	0,10001285331328275	0,000296952087	0,0094443157197003699	-0,00035238011751955565	0,0094443157197003699
1	1	0	1	0	0	1	2150,00	0,100000001	2,98685932	5,5562786499245299E-005	0,10001301822518288	0,00029872483	0,0097221299886391539	-0,00036274574141891891	0,0097221299886391539
1	1	0	1	0	0	1	2160,00	0,100000001	3,00555325	5,5562927109085856E-005	0,10001327132290229	0,000300595217	0,0099999442390073638	-0,00037311136462538912	0,0099999442390073638
1	1	0	1	0	0	1	2170,00	0,100000001	3,02516389	5,5562840933187142E-005	0,10001311620628067	0,000302556058	0,010277758523171824	-0,00038347698909284275	0,010277758523171824
1	1	0	1	0	0	1	2180,00	0,100000001	3,04574823	5,5562838312652378E-005	0,10001311148931798	0,000304614747	0,010555572591744624	-0,00039384260551628179	0,010555572591744624
1	1	0	1	0	0	1	2190,00	0,100000001	3,06726813	5,5562660859276851E-005	0,10001279207323395	0,000306766044	0,010833386269990618	-0,00040420820737610278	0,010833386269990618
1	1	0	1	0	0	1	2200,00	0,100000001	3,09001017	5,5562821958214048E-005	0,10001308205132822	0,000309041439	0,011111199958837954	-0,00041457380963147418	0,011111199958837954
1	1	0	1	0	0	1	2210,00	0,100000001	3,11403155	5,5562771037634874E-005	0,10001299039428342	0,000311443611	0,01138901409938585	-0,00042493942874040077	0,01138901409938585
1	1	0	1	0	0	1	2220,00	0,100000001	3,13927507	5,5562737968646816E-005	0,10001293087010342	0,000313968107	0,011666828158776226	-0,00043530504482123117	0,011666828158776226
1	1	0	1	0	0	1	2230,00	0,100000001	3,16585517	5,5562914728290502E-005	0,10001324903747008	0,000316627469	0,011944642361672234	-0,00044567066625644966	0,011944642361672234
1	1	0	1	0	0	1	2240,00	0,100000001	3,19396281	5,5562777067638106E-005	0,10001300124828952	0,000319437793	0,012222456471768778	-0,00045603628422919539	0,012222456471768778
1	1	0	1	0	0	1	2250,00	0,100000001	3,22329259	5,5562877538303533E-005	0,10001318209549184	0,00032237175	0,012500270464935082	-0,00046640189783911654	0,012500270464935082
1	1	0	1	0	0	1	2260,00	0,100000001	3,25428367	5,5562704650064314E-005	0,10001287089665339	0,000325470261	0,012778084331099203	-0,00047676750671041562	0,012778084331099203
1	1	0	1	0	0	1	2270,00	0,100000001	3,28682137	5,5562755674123763E-005	0,10001296273996272	0,000328724738	0,01305589780365867	-0,0004871331008957959	0,01305589780365867
1	1	0	1	0	0	1	2280,00	0,100000001	3,32088661	5,5562760191245216E-005	0,10001297087078154	0,000332131749	0,013333711412513682	-0,00049749870016654605	0,013333711412513682
1	1	0	1	0	0	1	2290,00	0,100000001	3,35682321	5,5562689822994995E-005	0,10001284420792794	0,000335725432	0,013611524801878307	-0,00050786429124781485	0,013611524801878307
1	1	0	1	0	0	1	2300,00	0,100000001	3,3944211	5,5562705686936774E-005	0,10001287276302387	0,000339485792	0,013889338214595126	-0,00051822988320038534	0,013889338214595126
1	1	0	1	0	0	1	2310,00	0,100000001	3,43383312	5,5562677299396858E-005	0,10001282166545072	0,000343427353	0,01416715117011576	-0,00052859545809435162	0,01416715117011576
1	1	0	1	0	0	1	2320,00	0,100000001	3,47486806	5,5562598492536282E-005	0,10001267981309811	0,000347530877	0,01444496453751401	-0,00053896104835602528	0,01444496453751401
1	1	0	1	0	0	1	2330,00	0,100000001	3,51744962	5,5562678906652666E-005	0,10001282455851126	0,000351790077	0,014722777796690922	-0,00054932663457981536	0,014722777796690922
1	1	0	1	0	0	1	2340,00	0,100000001	3,56186438	5,5562719684094189E-005	0,10001289795790786	0,000356232369	0,015000591111288563	-0,00055969222287142758	0,015000591111288563
1	1	0	1	0	0	1	2350,00	0,100000001	3,60729122	5,5562738527026438E-005	0,10001293187518677	0,000360775768	0,015278404663637126	-0,00057005782003384614	0,015278404663637126
1	1	0	1	0	0	1	2360,00	0,100000001	3,6532526	5,5562729312727846E-005	0,10001291528944886	0,000365372456	0,015556218302513837	-0,00058042342042474637	0,015556218302513837
1	1	0	1	0	0	1	2370,00	0,100000001	3,70142913	5,5562740029560192E-005	0,1000129345797476	0,000370190799	0,015834031895638192	-0,00059078901910856448	0,015834031895638192
1	1	0	1	0	0	1	2380,00	0,100000001	3,7508657	5,5562731102522874E-005	0,10001291851108002	0,000375135016	0,016111845403218282	-0,00060115461460061133	0,016111845403218282
1	1	0	1	0	0	1	2390,00	0,100000001	3,8016963	5,5562727048993114E-005	0,10001291121472624	0,000380218728	0,016389658824473466	-0,00061152020687175974	0,016389658824473466
1	1	0	1	0	0	1	2400,00	0,100000001	3,85315704	5,5562677216198707E-005	0,10001282151569405	0,0003853651	0,01666747228162472	-0,00062188580048223872	0,01666747228162472
1	1	0	1	0	0	1	2410,00	0,100000001	3,90490437	5,5562765119804282E-005	0,10001297974218806	0,000390541129	0,016945285808018362	-0,00063225139667624435	0,016945285808018362
1	1	0	1	0	0	1	2420,00	0,100000001	3,95649886	5,5562630583842598E-005	0,10001273757745094	0,000395700277	0,017223099197951306	-0,00064261698777871795	0,017223099197951306
1	1	0	1	0	0	1	2430,00	0,100000001	4,00765419	5,5562709788067475E-005	0,10001288014505933	0,000400817051	0,017500912654446909	-0,00065298258136473382	0,017500912654446909
1	1	0	1	0	0	1	2440,00	0,100000001	4,05647993	5,5562726635071968E-005	0,10001291046966816	0,000405700353	0,017778726135699136	-0,00066334817587445261	0,017778726135699136
1	1	0	1	0	0	1	2450,00	0,100000001	4,10181093	5,5562809817079046E-005	0,10001306019728469	0,000410234672	0,01805653983203969	-0,00067371377840940595	0,01805653983203969
1	1	0	1	0	0	1	2460,00	0,100000001	4,14276981	5,5562754425323674E-005	0,10001296049212251	0,000414330687	0,018334353548387536	-0,00068407938169085824	0,018334353548387536
1	1	0	1	0	0	1	2470,00	0,100000001	4,18082571	5,5562702667795955E-005	0,10001286732857024	0,000418136362	0,018612167095491302	-0,00069444497865758656	0,018612167095491302
1	1	0	1	0	0	1	2480,00	0,100000001	4,21542025	5,5562678560200666E-005	0,10001282393489763	0,00042159608	0,018889980620029331	-0,00070481057478235674	0,018889980620029331
1	1	0	1	0	0	1	2490,00	0,100000001	4,24736595	5,5562653324256339E-005	0,1000127785101967	0,000424790866	0,019167793877434243	-0,0007151761609400311	0,019167793877434243
1	1	0	1	0	0	1	2500,00	0,100000001	4,27726841	5,5562563694599603E-005	0,10001261717681051	0,000427780818	0,019445607194507133	-0,00072554174932399821	0,019445607194507133
1	1	0	1	0	0	1	2510,00	0,100000001	4,30514717	5,556260536114375E-005	0,10001269217659187	0,000430569373	0,019723420388178538	-0,0007359073331036896	0,019723420388178538
1	1	0	1	0	0	1	2520,00	0,100000001	4,33119249	5,5562777734878989E-005	0,10001300244932312	0,000433175563	0,020001233983327789	-0,00074627293186305958	0,020001233983327789
1	1	0	1	0	0	1	2530,00	0,100000001	4,35542393	5,5562766645103693E-005	0,10001298248772709	0,000435598951	0,020279047681108781	-0,0007566385344517577	0,020279047681108781
1	1	0	1	0	0	1	2540,00	0,100000001	4,37822342	5,5562762274924256E-005	0,1000129746214039	0,000437879149	0,020556861318474678	-0,00076700413478628749	0,020556861318474678
1	1	0	1	0	0	1	2550,00	0,100000001	4,39974308	5,5562798142433171E-005	0,10001303918292157	0,000440031668	0,020834675236570589	-0,00077736974559523136	0,020834675236570589
1	1	0	1	0	0	1	2560,00	0,100000001	4,41985035	5,5562831320282483E-005	0,10001309890305187	0,000442042918	0,021112489300204067	-0,0007877353618343776	0,021112489300204067
1	1	0	1	0	0	1	2570,00	0,100000001	4,43892622	5,5562904506093926E-005	0,10001323063751579	0,000443951343	0,02139030355238857	-0,00079810098510861606	0,02139030355238857
1	1	0	1	0	0	1	2580,00	0,100000001	4,45685625	5,5562767839680115E-005	0,10001298463796472	0,000445743499	0,021668117754547379	-0,0008084666065163287	0,021668117754547379
1	1	0	1	0	0	1	2590,00	0,100000001	4,47398424	5,556279705257879E-005	0,10001303722118366	0,000447456754	0,021945931652405027	-0,00081883221657015578	0,021945931652405027
1	1	0	1	0	0	1	2600,00	0,100000001	4,49080706	5,5562772598531514E-005	0,10001299320389744	0,000449139043	0,022223745504292179	-0,00082919782490876198	0,022223745504292179
1	0	0	0	0	0	2	2607,62	-0,100000001	4,38757992	-5,5544844125294029E-005	-0,09998072195125472	0,000438673422	0,022324204229124138	-0,0008329460750004343	5,5550327887551654E-005
1	0	0	0	0	0	2	2617,62	-0,100000001	4,04249668	-5,5545328567011488E-005	-0,099981593946368192	0,000404175255	0,022046478214375507	-0,0008225837439835648	0,00033327634263618131
1	0	0	0	0	0	2	2627,62	-0,100000001	3,76233602	-5,5545488521456717E-005	-0,09998188186437687	0,000376165437	0,021768751075480378	-0,00081222137102327782	0,0006110034815313088
1	0	0	0	0	0	2	2637,62	-0,100000001	3,49983835	-5,5545454108466701E-005	-0,09998181992099328	0,000349920214	0,021491023798527648	-0,00080185899291187622	0,00088873075848403891
1	0	0	0	0	0	2	2647,62	-0,100000001	3,25225377	-5,5545399390988877E-005	-0,099981721429530714	0,000325165922	0,021213296910573453	-0,00079149662931453299	0,001166457646438231
1	0	0	0	0	0	2	2657,62	-0,100000001	3,02746868	-5,5545405421406035E-005	-0,099981732284281856	0,000302691566	0,020935569976685187	-0,00078113426400332787	0,0014441845803264941
1	0	0	0	0	0	2	2667,62	-0,100000001	2,82225561	-5,5545453504969677E-005	-0,099981818834698611	0,000282174238	0,020657842984196035	-0,0007707718965056448	0,0017219115728156435
1	0	0	0	0	0	2	2677,62	-0,100000001	2,65782928	-5,5545386152134995E-005	-0,099981697599593114	0,00026573427	0,020380116240245421	-0,00076040953828126874	0,0019996383167662554
1	0	0	0	0	0	2	2687,62	-0,100000001	2,58473396	-5,5545352000743155E-005	-0,099981636127086246	0,00025842592	0,020102389595268739	-0,00075004718374974323	0,0022773649617429405
1	0	0	0	0	0	2	2697,62	-0,100000001	2,54490209	-5,5545391659355821E-005	-0,099981707512590861	0,000254443643	0,019824662982442963	-0,0007396848304178112	0,0025550915745687149
1	0	0	0	0	0	2	2707,62	-0,100000001	2,51706171	-5,5545288370715251E-005	-0,099981521593033126	0,000251659658	0,019546936377479622	-0,00072932247737923712	0,0028328181795320566
1	0	0	0	0	0	2	2717,62	-0,100000001	2,49540806	-5,5545206358449331E-005	-0,099981373970950733	0,000249494333	0,019269210318854112	-0,00071896014472526221	0,0031105442381575693
1	0	0	0	0	0	2	2727,62	-0,100000001	2,47728705	-5,5545210964563821E-005	-0,09998138226195703	0,00024768259	0,01899148443809921	-0,00070859781870787878	0,0033882701189124736
1	0	0	0	0	0	2	2737,62	-0,100000001	2,46204925	-5,5545290718475974E-005	-0,099981525819002547	0,000246159441	0,018713758106092026	-0,00069823547585366592	0,0036659964509196563
1	0	0	0	0	0	2	2747,62	-0,100000001	2,44864464	-5,5545242493351296E-005	-0,099981439013775936	0,000244819006	0,01843603182513953	-0,0006878731349043721	0,0039437227318721498
1	0	0	0	0	0	2	2757,62	-0,100000001	2,43697762	-5,5545246723211475E-005	-0,099981446627524442	0,000243652554	0,018158305568843075	-0,00067751079487502861	0,0042214489881686035
1	0	0	0	0	0	2	2767,62	-0,100000001	2,42725825	-5,5545327479226726E-005	-0,099981591988355558	0,000242681141	0,017880579187150042	-0,00066714845016696998	0,004499175369861639
1	0	0	0	0	0	2	2777,62	-0,100000001	2,41988778	-5,5545296885073184E-005	-0,099981536918877798	0,000241944101	0,017602852570531098	-0,00065678609669350963	0,0047769019864805862
1	0	0	0	0	0	2	2787,62	-0,100000001	2,41517138	-5,5545275270524954E-005	-0,09998149801269001	0,000241472459	0,01732512619382664	-0,00064642375217158144	0,0050546283631850445
1	0	0	0	0	0	2	2797,62	-0,100000001	2,41139054	-5,5545284711652333E-005	-0,099981515006719718	0,000241094473	0,01704740004846271	-0,00063606141628127949	0,0053323545085489754
1	0	0	0	0	0	2	2807,62	-0,100000001	2,40841174	-5,5545222438871859E-005	-0,099981402915712026	0,000240796391	0,016769673862633014	-0,00062569907888114534	0,0056100806943786637
1	0	0	0	0	0	2	2817,62	-0,100000001	2,40539479	-5,5545166783034803E-005	-0,099981302735202778	0,000240494512	0,016491947786128179	-0,00061533674556006874	0,0058878067708835008
1	0	0	0	0	0	2	2827,62	-0,100000001	2,40258765	-5,554529868231879E-005	-0,099981540153919987	0,000240214416	0,016214221327954106	-0,00060497439799839962	0,0061655332290575744
1	0	0	0	0	0	2	2837,62	-0,100000001	2,40006733	-5,554513205215335E-005	-0,099981240219614605	0,000239961708	0,015936495258637008	-0,0005946120649455072	0,0064432592983746701
1	0	0	0	0	0	2	2847,62	-0,100000001	2,39743209	-5,5545247750977677E-005	-0,099981448477503654	0,000239698726	0,015658769302183376	-0,00058424973610370227	0,0067209852548283008
1	0	0	0	0	0	2	2857,62	-0,100000001	2,3949306	-5,5545240814487136E-005	-0,099981435991820365	0,000239448607	0,015381042982054074	-0,00057388739369266918	0,0069987115749576013
1	0	0	0	0	0	2	2867,62	-0,100000001	2,39244843	-5,5545205154766637E-005	-0,099981371804321843	0,000239200279	0,015103316672411462	-0,00056352505167290874	0,0072764378846002125
1	0	0	0	0	0	2	2877,62	-0,100000001	2,38983226	-5,5545308531158496E-005	-0,099981557881831898	0,000238939159	0,01482559039566441	-0,0005531627108805257	0,0075541641613472678
1	0	0	0	0	0	2	2887,62	-0,100000001	2,3874073	-5,5545274556510982E-005	-0,099981496727464832	0,00023869655	0,014547864043148675	-0,00054280036726111136	0,0078318905138630016
1	0	0	0	0	0	2	2897,62	-0,100000001	2,38507771	-5,5545238683207168E-005	-0,099981432155516314	0,000238463486	0,014270137751125034	-0,0005324380258987383	0,0081096168058866445
1	0	0	0	0	0	2	2907,62	-0,100000001	2,38248086	-5,5545363080584339E-005	-0,099981656070800896	0,000238204375	0,013992411393341328	-0,00052207568208276883	0,0083873431636703501
1	0	0	0	0	0	2	2917,62	-0,100000001	2,3799603	-5,5545250935686963E-005	-0,099981454209980506	0,000237951885	0,013714684586434965	-0,00051171332150942925	0,0086650699705767117
1	0	0	0	0	0	2	2927,62	-0,100000001	2,37742066	-5,5545284221569696E-005	-0,099981514124570944	0,000237698114	0,013436957769070054	-0,00050135096054586714	0,0089427967879416205
1	0	0	0	0	0	2	2937,62	-0,100000001	2,37486196	-5,5545254624966118E-005	-0,099981460850683149	0,000237442175	0,013159231169245546	-0,00049098860769902982	0,0092205233877661312
1	0	0	0	0	0	2	2947,62	-0,100000001	2,37199759	-5,5545287099563411E-005	-0,09998151930495977	0,000237155924	0,012881504431079894	-0,00048062624969049856	0,0094982501259317798
1	0	0	0	0	0	2	2957,62	-0,100000001	2,36940074	-5,5545399212588864E-005	-0,099981721108410675	0,000236896769	0,012603777852732514	-0,00047026389764500179	0,0097759767042791629
1	0	0	0	0	0	2	2967,62	-0,100000001	2,36649847	-5,5545321498066182E-005	-0,099981581222266317	0,000236606254	0,012326051200114014	-0,00045990154282834976	0,010053703356897661
1	0	0	0	0	0	2	2977,62	-0,100000001	2,36393976	-5,5545321426043904E-005	-0,099981581092626214	0,000236350432	0,012048324547922269	-0,00044953918802762048	0,010331430009089406
1	0	0	0	0	0	2	2987,62	-0,100000001	2,36094165	-5,5545391327804992E-005	-0,099981706915799347	0,000236050982	0,011770597971718997	-0,00043917683606212326	0,010609156585292682
1	0	0	0	0	0	2	2997,62	-0,100000001	2,35815382	-5,5545372100753914E-005	-0,099981672307106534	0,000235772168	0,011492870802685443	-0,00042881446197733133	0,010886883754326234
1	0	0	0	0	0	2	3007,62	-0,100000001	2,3551178	-5,5545447489039763E-005	-0,099981808006024486	0,000235468935	0,011215143826594194	-0,0004184520950914761	0,011164610730417482
1	0	0	0	0	0	2	3017,62	-0,100000001	2,35217714	-5,5545332727746829E-005	-0,099981601435691981	0,000235174433	0,010937416794806131	-0,00040808972612749779	0,011442337762205546
1	0	0	0	0	0	2	3027,62	-0,100000001	2,3490839	-5,5545299276709562E-005	-0,099981541223823386	0,000234865031	0,010659690040326192	-0,00039772736751025856	0,011720064516685483
1	0	0	0	0	0	2	3037,62	-0,100000001	2,34616232	-5,5545417880846394E-005	-0,099981754711275072	0,000234573425	0,010381962909016997	-0,00038736499483301299	0,01199779164799468
1	0	0	0	0	0	2	3047,62	-0,100000001	2,3427825	-5,5545359010911648E-005	-0,09998164874538985	0,000234235253	0,010104235942601565	-0,00037700262830817555	0,012275518614410109
1	0	0	0	0	0	2	3057,62	-0,100000001	2,33966994	-5,5545555350267219E-005	-0,099982002156238822	0,000233924889	0,0098265085025862566	-0,00036664024411268992	0,012553246054425421
1	0	0	0	0	0	2	3067,62	-0,100000001	2,33632851	-5,554539892532759E-005	-0,099981720591340365	0,000233590137	0,0095487812150474931	-0,00035627786560630912	0,012830973341964182
1	0	0	0	0	0	2	3077,62	-0,100000001	2,33298683	-5,5545515629980301E-005	-0,09998193065972055	0,000233256535	0,0092710540917869939	-0,00034591549322937133	0,013108700465224683
1	0	0	0	0	0	2	3087,62	-0,100000001	2,32960701	-5,5545399140152672E-005	-0,099981720978025523	0,000232918115	0,0089933268127435494	-0,0003355531150399623	0,013386427744268126
1	0	0	0	0	0	2	3097,62	-0,100000001	2,32620811	-5,5545410778373478E-005	-0,099981741926823501	0,000232578343	0,0087155996562596685	-0,00032519074142341549	0,013664154900752008
1	0	0	0	0	0	2	3107,62	-0,100000001	2,32263732	-5,554542077581088E-005	-0,099981759922211277	0,00023222137	0,0084378725278934541	-0,00031482836885597651	0,013941882029118224
1	0	0	0	0	0	2	3117,62	-0,100000001	2,31906652	-5,554535528313783E-005	-0,0999816420353968	0,000231864076	0,0081601456362483251	-0,00030446600512091962	0,01421960892076335
1	0	0	0	0	0	2	3127,62	-0,100000001	2,31541944	-5,5545450620767142E-005	-0,099981813643133914	0,000231499827	0,0078824186718184742	-0,00029410363867016678	0,0144973358851932
1	0	0	0	0	0	2	3137,62	-0,100000001	2,31186795	-5,5545324513895648E-005	-0,099981586650759488	0,000231144222	0,0076046921848623949	-0,0002837412900346024	0,01477506237214928
1	0	0	0	0	0	2	3147,62	-0,100000001	2,30818248	-5,5545289524727398E-005	-0,099981523670255053	0,000230775608	0,007326965869049463	-0,00027337894778461891	0,015052788687962211
1	0	0	0	0	0	2	3157,62	-0,100000001	2,3044591	-5,554523414621751E-005	-0,09998142398893472	0,000230403108	0,0070492394990091354	-0,00026301660351133843	0,015330515058002541
1	0	0	0	0	0	2	3167,62	-0,100000001	2,30058265	-5,5545268776516115E-005	-0,099981486323473792	0,000230015678	0,0067715133732021517	-0,00025265426835073232	0,015608241183809523
1	0	0	0	0	0	2	3177,62	-0,100000001	2,29672551	-5,5545237193918886E-005	-0,09998142947479735	0,000229629906	0,0064937871431677542	-0,00024229192930126131	0,015885967413843923
1	0	0	0	0	0	2	3187,62	-0,100000001	2,29288745	-5,5545290766490829E-005	-0,099981525905429286	0,000229246391	0,0062160611141082138	-0,00023192959775043245	0,016163693442903462
1	0	0	0	0	0	2	3197,62	-0,100000001	2,28893495	-5,5545292260332237E-005	-0,099981528594343898	0,000228851219	0,005938334708073719	-0,00022156725213416115	0,016441419848937958
1	0	0	0	0	0	2	3207,62	-0,100000001	2,2849822	-5,5545201234519482E-005	-0,099981364747876774	0,000228455639	0,0056606085156059763	-0,00021120491448635251	0,016719146041405699
1	0	0	0	0	0	2	3217,62	-0,100000001	2,2807622	-5,5545267904798189E-005	-0,099981484754381491	0,000228033998	0,0053828825683782336	-0,00020084258598877802	0,016996871988633443
1	0	0	0	0	0	2	3227,62	-0,100000001	2,27682877	-5,554526083129975E-005	-0,099981472022083994	0,000227640689	0,0051051566034806106	-0,00019048025683191654	0,017274597953531062
1	0	0	0	0	0	2	3237,62	-0,100000001	2,2726469	-5,5545179339746637E-005	-0,099981325337284672	0,000227222248	0,0048274305431965158	-0,00018011792411605757	0,017552324013815158
1	0	0	0	0	0	2	3247,62	-0,100000001	2,26838875	-5,5545284890052339E-005	-0,099981515327839731	0,000226796939	0,004549704293402352	-0,00016975558432932307	0,017830050263609325
1	0	0	0	0	0	2	3257,62	-0,100000001	2,26422596	-5,5545301213032672E-005	-0,099981544709205069	0,000226380813	0,0042719778179661114	-0,00015939323612357936	0,018107776739045568
1	0	0	0	0	0	2	3267,62	-0,100000001	2,25987244	-5,5545232626712979E-005	-0,099981421253826522	0,000225945259	0,0039942515295717293	-0,00014903089489661885	0,018385503027439942
1	0	0	0	0	0	2	3277,62	-0,100000001	2,2554996	-5,5545281279004282E-005	-0,099981508827953075	0,000225508251	0,0037165252340794278	-0,00013866855340482541	0,018663229322932243
1	0	0	0	0	0	2	3287,62	-0,100000001	2,25110793	-5,5545229946573574E-005	-0,09998141642957545	0,000225068958	0,0034387988228986496	-0,00012830620759653939	0,018940955734113021
1	0	0	0	0	0	2	3297,62	-0,100000001	2,24667788	-5,5545353077352051E-005	-0,09998163806498231	0,000224626536	0,0031610724283194214	-0,00011794386240767949	0,01921868212869225
1	0	0	0	0	0	2	3307,62	-0,100000001	2,24209499	-5,5545313287940294E-005	-0,099981566444039322	0,000224168165	0,0028833457349843283	-0,00010758150607183661	0,019496408822027341
1	0	0	0	0	0	2	3317,62	-0,100000001	2,23756957	-5,5545259251776666E-005	-0,099981469178942349	0,000223715499	0,002605619060211943	-9,7219150428593306E-005	0,019774135496799728
1	0	0	0	0	0	2	3327,62	-0,100000001	2,23270035	-5,5545288054065568E-005	-0,099981521023063693	0,000223228781	0,0023278927432259584	-8,6856808134841664E-005	0,020051861813785709
1	0	0	0	0	0	2	3337,62	-0,100000001	2,22806025	-5,5545284923993882E-005	-0,099981515388934515	0,000222764837	0,0020501663000138931	-7,6494461131425229E-005	0,020329588256997773
1	0	0	0	0	0	2	3347,62	-0,100000001	2,22326756	-5,5545308908240659E-005	-0,099981558560579802	0,000222285758	0,001772440047142224	-6,6132121229864896E-005	0,02060731450986944
1	0	0	0	0	0	2	3357,62	-0,100000001	2,21851277	-5,55452478395568E-005	-0,099981448636946061	0,000221810114	0,0014947136331095299	-5,5769775315170048E-005	0,020885040923902141
1	0	0	0	0	0	2	3367,62	-0,100000001	2,21372008	-5,5545205101370816E-005	-0,09998137170820937	0,000221330774	0,0012169874434378245	-4,5407437771685344E-005	0,021162767113573843
1	0	0	0	0	0	2	3377,62	-0,100000001	2,20860267	-5,5545168588972755E-005	-0,0999813059858912	0,000220818984	0,00093926149982278515	-3,504510940890567E-005	0,021440493057188883
1	0	0	0	0	0	2	3387,62	-0,100000001	2,20350432	-5,5545223669045504E-005	-0,09998140513002464	0,000220309463	0,00066153519004109824	-2,4682767383956058E-005	0,021718219366970573
1	0	0	0	0	0	2	3397,62	-0,100000001	2,19825315	-5,5545160799804659E-005	-0,099981291965388275	0,000219784197	0,00038380944399641594	-1,4320446392792046E-005	0,021995945113015251
1	0	0	0	0	0	2	3407,62	-0,100000001	2,19305944	-5,55452155429456E-005	-0,099981390503044442	0,00021926513	0,00010608336434163958	-3,9581129541868768E-006	0,022273671192670029
1	0	0	0	0	0	2	3417,62	-0,100000001	2,18780828	-5,5545291958169805E-005	-0,099981528050451494	0,000218740417	-0,00017164286417408144	6,4042260386202816E-006	0,02255139742118575
1	0	0	0	0	0	2	3427,62	-0,100000001	2,18242335	-5,554521979557143E-005	-0,099981398157771123	0,000218201734	-0,00044936896694262848	1,6766560339631309E-005	0,022829123523954298
1	0	0	0	0	0	2	3437,62	-0,100000001	2,17692423	-5,5545249016748538E-005	-0,099981450755891251	0,000217652036	-0,00072709523846185894	2,7128900936957226E-005	0,02310684979547353
1	0	0	0	0	0	2	3447,62	-0,100000001	2,17127204	-5,5545202540440698E-005	-0,099981367098535027	0,000217086752	-0,0010048214305806661	3,7491238571746592E-005	0,023384575987592336
1	0	0	0	0	0	2	3457,62	-0,100000001	2,16554356	-5,5545212828036813E-005	-0,099981385616208512	0,000216514047	-0,001282547598270261	4,7853575295049197E-005	0,02366230215528193
1	0	0	0	0	0	2	3467,62	-0,100000001	2,15975785	-5,5545177036275469E-005	-0,099981321191036467	0,000215935448	-0,001560273663335145	5,8215908189285862E-005	0,023940028220346813
1	0	0	0	0	0	2	3477,62	-0,100000001	2,15397215	-5,5545253528075085E-005	-0,099981458876279258	0,000215357271	-0,0018379999228262406	6,8578248337825907E-005	0,02421775447983791
1	0	0	0	0	0	2	3487,62	-0,100000001	2,14784265	-5,5545221401171552E-005	-0,099981401047851418	0,000214744316	-0,0021157260052265555	7,8940581878870797E-005	0,024495480562238227
1	0	0	0	0	0	2	3497,62	-0,100000001	2,14175129	-5,5545122720715072E-005	-0,09998122342302528	0,00021413491	-0,0023934518341485987	8,9302905962300582E-005	0,024773206391160275
1	0	0	0	0	0	2	3507,62	-0,100000001	2,13552642	-5,5545148757182886E-005	-0,099981270288668518	0,000213512641	-0,0026711776175157229	9,9665228346015091E-005	0,025050932174527405
1	0	0	0	0	0	2	3517,62	-0,100000001	2,12920594	-5,5545241015238893E-005	-0,099981436353173542	0,000212881074	-0,0029489038526045114	0,00011002756758407222	0,025328658409616195
1	0	0	0	0	0	2	3527,62	-0,100000001	2,12275195	-5,5545192434969875E-005	-0,099981348908687078	0,000212235609	-0,0032266297917823162	0,00012038989578129272	0,025606384348794003
1	0	0	0	0	0	2	3537,62	-0,100000001	2,1160686	-5,5545222213698758E-005	-0,099981402510400435	0,000211567502	-0,0035043556616266733	0,00013075222139158904	0,025884110218638362
1	0	0	0	0	0	2	3547,62	-0,100000001	2,10946178	-5,5545164673692646E-005	-0,099981298938386829	0,000210906728	-0,0037820816721421318	0,0001411145522505133	0,026161836229153821
1	0	0	0	0	0	2	3557,62	-0,100000001	2,10254955	-5,5545249011781485E-005	-0,099981450746950554	0,000210215949	-0,0040598075694675411	0,00015147687888616464	0,026439562126479229
1	0	0	0	0	0	2	3567,62	-0,100000001	2,09556079	-5,554520486998889E-005	-0,099981371291721882	0,000209517035	-0,004337533682908631	0,00016183921358538259	0,026717288239920323
1	0	0	0	0	0	2	3577,62	-0,100000001	2,08836198	-5,5545302248663373E-005	-0,099981546573340378	0,000208797661	-0,0046152603344728717	0,00017220156836269882	0,02699501489148456
1	0	0	0	0	0	2	3587,62	-0,100000001	2,08097219	-5,5545401234179738E-005	-0,099981724747274342	0,000208059195	-0,0048929874299671258	0,0001825639397036407	0,027272741986978819
1	0	0	0	0	0	2	3597,62	-0,100000001	2,07342982	-5,5545366654793427E-005	-0,099981662504377395	0,000207304955	-0,0051707140885162854	0,00019292629474157366	0,027550468645527978
1	0	0	0	0	0	2	3607,62	-0,100000001	2,06584907	-5,5545406875924928E-005	-0,099981734902415936	0,000206547178	-0,0054484411982908186	0,00020328866661533197	0,027828195755302509
1	0	0	0	0	0	2	3617,62	-0,100000001	2,05809641	-5,554544754284951E-005	-0,099981808102882022	0,000205772201	-0,0057261683120274048	0,00021365103863691978	0,028105922869039098
1	0	0	0	0	0	2	3627,62	-0,100000001	2,04994297	-5,5545316742526157E-005	-0,099981572662294054	0,000204956523	-0,0060038953132871296	0,0002240134064618447	0,028383649870298819
1	0	0	0	0	0	2	3637,62	-0,100000001	2,04178953	-5,5545458287828499E-005	-0,099981827443844723	0,000204141848	-0,0062816224861593882	0,00023437578068986397	0,028661377043171075
1	0	0	0	0	0	2	3647,62	-0,100000001	2,03342581	-5,5545426372438669E-005	-0,099981769996141555	0,000203305506	-0,0065593495486227354	0,00024473815079837827	0,028939104105634419
1	0	0	0	0	0	2	3657,62	-0,100000001	2,02487135	-5,5545404636197619E-005	-0,099981730870906688	0,000202450145	-0,006837076561420096	0,00025510051905378794	0,029216831118431782
1	0	0	0	0	0	2	3667,62	-0,100000001	2,01604962	-5,5545360754761427E-005	-0,099981651884319539	0,000201567978	-0,0071148035927524339	0,00026546288800076243	0,029494558149764122
1	0	0	0	0	0	2	3677,62	-0,100000001	2,00701761	-5,554539820469088E-005	-0,099981719294194266	0,000200665076	-0,0073925305229882586	0,00027582525317569014	0,029772285079999949
1	0	0	0	0	0	2	3687,62	-0,100000001	1,99771833	-5,5545347154140474E-005	-0,099981627403201203	0,000199735136	-0,0076702575565541146	0,00028618762220600022	0,030050012113565798
1	0	0	0	0	0	2	3697,62	-0,100000001	1,9882282	-5,5545358573396998E-005	-0,099981647957863475	0,000198786336	-0,0079479843618937856	0,00029654998272088454	0,030327738918905472
1	0	0	0	0	0	2	3707,62	-0,100000001	1,97848976	-5,5545223417381446E-005	-0,099981404677029338	0,000197812187	-0,0082257105365749222	0,00030691231970505094	0,030605465093586605
1	0	0	0	0	0	2	3717,62	-0,100000001	1,96854138	-5,5545284613553018E-005	-0,099981514830140954	0,000196817753	-0,0085034366539296358	0,00031727465455029152	0,030883191210941318
1	0	0	0	0	0	2	3727,62	-0,100000001	1,95836377	-5,5545220582849446E-005	-0,099981399574871603	0,000195799948	-0,0087811630915682522	0,00032763700134575501	0,031160917648579942
1	0	0	0	0	0	2	3737,62	-0,100000001	1,94788063	-5,5545256645729139E-005	-0,099981464488056704	0,000194751963	-0,0090588891449228954	0,00033799933380306688	0,031438643701934579
1	0	0	0	0	0	2	3747,62	-0,100000001	1,93707299	-5,5545308034039206E-005	-0,099981556987017139	0,000193671571	-0,0093366157261726976	0,00034836168595685683	0,031716370283184378
1	0	0	0	0	0	2	3757,62	-0,100000001	1,92605519	-5,5545329305032883E-005	-0,099981595274806746	0,000192570064	-0,0096143425742037811	0,00035872404806461517	0,031994097131215462
1	0	0	0	0	0	2	3767,62	-0,100000001	1,9147892	-5,5545314372413683E-005	-0,099981568396091494	0,000191443629	-0,0098920691279766694	0,00036908639919320448	0,032271823684988339
1	0	0	0	0	0	2	3777,62	-0,100000001	1,9030267	-5,5545190437800352E-005	-0,099981345313781862	0,000190267165	-0,010169795206479917	0,00037944873258884461	0,03254954976349159
1	0	0	0	0	0	2	3787,62	-0,100000001	1,89124513	-5,554515164759424E-005	-0,099981275491409101	0,0001890891	-0,01044752117818613	0,00038981106199974374	0,032827275735197818
1	0	0	0	0	0	2	3797,62	-0,100000001	1,87919629	-5,554528899201088E-005	-0,099981522711365299	0,0001878849	-0,010725247508016504	0,00040017340477273677	0,033105002065028192
1	0	0	0	0	0	2	3807,62	-0,100000001	1,86667001	-5,5545236079229248E-005	-0,099981427468355968	0,000186632329	-0,01100297384265043	0,00041053574772495693	0,033382728399662125
1	0	0	0	0	0	2	3817,62	-0,100000001	1,85410559	-5,5545064664549299E-005	-0,09998111892192425	0,000185375553	-0,011280699304431043	0,00042089805810984627	0,033660453861442726
1	0	0	0	0	0	2	3827,62	-0,100000001	1,84112108	-5,5545213464647533E-005	-0,099981386762107827	0,000184077842	-0,011558425132120016	0,00043126038214726854	0,033938179689131699
1	0	0	0	0	0	2	3837,62	-0,100000001	1,82792652	-5,5545121612234253E-005	-0,099981221427759744	0,000182758333	-0,011836151188950352	0,0004416227147342631	0,034215905745962035
1	0	0	0	0	0	2	3847,62	-0,100000001	1,81440723	-5,5545219666014118E-005	-0,099981397924567962	0,000181406969	-0,012113876996197	0,00045198503800895475	0,034493631553208685
1	0	0	0	0	0	2	3857,62	-0,100000001	1,8006016	-5,5545150554014579E-005	-0,099981273522965658	0,000180026444	-0,012391602757721917	0,00046234735957770726	0,0347713573147336
1	0	0	0	0	0	2	3867,62	-0,100000001	1,78705001	-5,5545118049614963E-005	-0,099981215015044864	0,000178671427	-0,012669328404989286	0,0004727096768833568	0,035049082962000973
1	0	0	0	0	0	2	3877,62	-0,100000001	1,77305341	-5,5545182769497235E-005	-0,099981331510835904	0,000177272246	-0,012947053918573786	0,00048307198920111885	0,035326808475585472
1	0	0	0	0	0	2	3887,62	-0,100000001	1,75884688	-5,5545241167147955E-005	-0,099981436626609856	0,000175852038	-0,013224779875446302	0,00049343431805855283	0,03560453443245799
1	0	0	0	0	0	2	3897,62	-0,100000001	1,74423921	-5,5545326058649357E-005	-0,099981589431316224	0,000174391811	-0,013502506143825528	0,0005037966585387209	0,035882260700837222
1	0	0	0	0	0	2	3907,62	-0,100000001	1,72909701	-5,5545401169194112E-005	-0,099981724630300211	0,000172878106	-0,013780232842260541	0,0005141590150648487	0,036159987399272237
1	0	0	0	0	0	2	3917,62	-0,100000001	1,71336269	-5,5545222320490413E-005	-0,099981402702625408	0,000171304404	-0,014057959412101846	0,00052452136679297242	0,036437713969113542
1	0	0	0	0	0	2	3927,62	-0,100000001	1,69711304	-5,5545286965452966E-005	-0,099981519063560947	0,000169679945	-0,014335685667756723	0,00053488370679837798	0,036715440224768416
1	0	0	0	0	0	2	3937,62	-0,100000001	1,68038583	-5,5545309631360902E-005	-0,099981559862196275	0,000168007595	-0,014613412265050106	0,00054524605955077555	0,036993166822061792
1	0	0	0	0	0	2	3947,62	-0,100000001	1,66365874	-5,5545307346102266E-005	-0,099981555748730624	0,000166335187	-0,014891138738842253	0,00055560840769517587	0,037270893295853946
1	0	0	0	0	0	2	3957,62	-0,100000001	1,646626	-5,5545392401516435E-005	-0,09998170884848	0,000164632482	-0,015168865493034515	0,00056597076630168147	0,037548620050046208
1	0	0	0	0	0	2	3967,62	-0,100000001	1,62955523	-5,5545342170115974E-005	-0,099981618431956877	0,000162925571	-0,015446591993640058	0,00057633311544652576	0,03782634655065175
1	0	0	0	0	0	2	3977,62	-0,100000001	1,61223614	-5,5545316153516378E-005	-0,099981571602076416	0,000161193908	-0,015724318541688	0,00058669546636150976	0,038104073098699699
1	0	0	0	0	0	2	3987,62	-0,100000001	1,59497428	-5,5545318793919354E-005	-0,099981576354801907	0,000159468036	-0,01600204515003225	0,00059705781952623002	0,038381799707043955
1	0	0	0	0	0	2	3997,62	-0,100000001	1,57776988	-5,5545283128403955E-005	-0,099981512156872563	0,000157747825	-0,016279771456079133	0,00060742016141182886	0,038659526013090829
1	0	0	0	0	0	2	4007,62	-0,100000001	1,56035531	-5,554527562070224E-005	-0,099981498643009126	0,000156006659	-0,016557497736527469	0,00061778250234231181	0,038937252293539162
1	0	0	0	0	0	2	4017,62	-0,100000001	1,54332256	-5,5545184488511744E-005	-0,099981334605062093	0,000154303445	-0,01683522367889247	0,00062814483065845094	0,039214978235904154
1	0	0	0	0	0	2	4027,62	-0,100000001	1,52680552	-5,5545255249987046E-005	-0,099981461975720845	0,000152652254	-0,017112949891399792	0,00063850716905396326	0,039492704448411475
1	0	0	0	0	0	2	4037,62	-0,100000001	1,51103318	-5,5545276757743629E-005	-0,099981500689683686	0,000151075365	-0,017390676397201702	0,00064886951839269094	0,039770430954213389
1	0	0	0	0	0	2	4047,62	-0,100000001	1,49648285	-5,5545321969936294E-005	-0,099981582071632538	0,000149620726	-0,017668403017981386	0,00065923187202139392	0,040048157574993075
1	0	0	0	0	0	2	4057,62	-0,100000001	1,48193252	-5,5545400847577382E-005	-0,09998172405139008	0,000148166175	-0,017946129817669376	0,00066959423232540634	0,040325884374681069
1	0	0	0	0	0	2	4067,62	-0,100000001	1,46484256	-5,5545343551784755E-005	-0,099981620918960742	0,000146457329	-0,018223856737723565	0,00067995659712044365	0,040603611294735258
1	0	0	0	0	0	2	4077,62	-0,100000001	1,44551849	-5,5545468514992134E-005	-0,099981845852739712	0,000144525606	-0,018501583881011229	0,00069031897024462182	0,040881338438022906
1	0	0	0	0	0	2	4087,62	-0,100000001	1,42688191	-5,5545485292457869E-005	-0,099981876052178803	0,000142662335	-0,01877931110886753	0,0007006813465241696	0,0411590656658792
1	0	0	0	0	0	2	4097,62	-0,100000001	1,40969646	-5,5545409223271744E-005	-0,099981738064089536	0,000140943899	-0,019057038248592157	0,00071104371951540621	0,041436792805603821
1	0	0	0	0	0	2	4107,62	-0,100000001	1,39306474	-5,5545437322308621E-005	-0,099981788390654374	0,00013928111	-0,019334765227028266	0,00072140608648875123	0,04171451978403993
1	0	0	0	0	0	2	4117,62	-0,100000001	1,37698686	-5,5545493324597677E-005	-0,099981889194775898	0,000137673749	-0,019612492436093373	0,0007317684620671744	0,041992246993105037
1	0	0	0	0	0	2	4127,62	-0,100000001	1,36152005	-5,5545475185331366E-005	-0,099981856544096154	0,000136127303	-0,019890219740912099	0,00074213084121829389	0,042269974297923763
1	0	0	0	0	0	2	4137,62	-0,100000001	1,34712243	-5,5545551709002918E-005	-0,099981994286706611	0,000134687987	-0,02016794752745888	0,00075249323834333466	0,042547702084470541
1	0	0	0	0	0	2	4147,62	-0,100000001	1,33369875	-5,5545500924189888E-005	-0,099981902874042048	0,000133345733	-0,0204456753169176	0,00076285563557702374	0,042825429873929254
1	0	0	0	0	0	2	4157,62	-0,100000001	1,32151616	-5,5545430865138771E-005	-0,099981776767748493	0,000132127534	-0,020723402589594522	0,00077321801352888922	0,043103157146606182
1	0	0	0	0	0	2	4167,62	-0,100000001	1,3103075	-5,5545428462740448E-005	-0,099981772443431462	0,000131006862	-0,021001130008358707	0,00078358039693146688	0,043380884565370368
1	0	0	0	0	0	2	4177,62	-0,100000001	1,30007255	-5,5545427025606234E-005	-0,09998176985658985	0,000129983557	-0,021278857325626531	0,00079394277654707891	0,043658611882638182
1	0	0	0	0	0	2	4187,62	-0,100000001	1,29094517	-5,5545413018928634E-005	-0,099981744644569869	0,000129070948	-0,021556584719942464	0,00080430515903745933	0,043936339276954118
1	0	0	0	0	0	2	4197,62	-0,100000001	1,28263891	-5,5545451616661414E-005	-0,099981814120489715	0,000128240572	-0,021834312051960365	0,00081466753920341658	0,044214066608972019
1	0	0	0	0	0	2	4207,62	-0,100000001	1,27521098	-5,5545497240291706E-005	-0,099981896243025229	0,000127498017	-0,022112039541121773	0,00082502992523260915	0,04449179409813344
1	0	0	0	0	0	2	4217,62	-0,100000001	1,26824141	-5,5545397458804979E-005	-0,099981716636346957	0,000126800951	-0,022389766812044915	0,00083539230311903872	0,044769521369056582
1	0	0	0	0	0	2	4227,62	-0,100000001	1,26222646	-5,5545437884413536E-005	-0,099981789402443238	0,000126199666	-0,022667494075289821	0,00084575468071898304	0,045047248632301478
1	0	0	0	0	0	2	4237,62	-0,100000001	1,25651705	-5,55454219331344E-005	-0,099981760690140429	0,000125628794	-0,022945221311373219	0,00085611705730549491	0,045324975868384877
1	0	0	0	0	0	2	4247,62	-0,100000001	1,25134242	-5,554549124505785E-005	-0,09998188545160416	0,000125111575	-0,023222948547968227	0,00086647943391109555	0,045602703104979878
1	0	0	0	0	0	2	4257,62	-0,100000001	1,24664509	-5,5545417880432474E-005	-0,09998175339527689	0,000124641767	-0,023500675764790221	0,00087684180977893862	0,045880430321801875
1	0	0	0	0	0	2	4267,62	-0,100000001	1,24221504	-5,5545551792201069E-005	-0,09998199443646327	0,000124199141	-0,023778403421189018	0,00088720420204798323	0,046158157978200666
1	0	0	0	0	0	2	4277,62	-0,100000001	1,23786139	-5,5545538518577811E-005	-0,09998197054394112	0,000123763821	-0,024056131299316266	0,00089756660259001421	0,046435885856327917
1	0	0	0	0	0	2	4287,62	-0,100000001	1,23387051	-5,5545525341398189E-005	-0,09998194682501751	0,000123364778	-0,024333859114405395	0,00090792900078000845	0,046713613671417037
1	0	0	0	0	0	2	4297,62	-0,100000001	1,23007071	-5,5545589617970912E-005	-0,099982062522849818	0,000122985002	-0,024611586835078282	0,00091829139544720576	0,046991341392089914
1	0	0	0	0	0	2	4307,62	-0,100000001	1,22644258	-5,5545585673302413E-005	-0,099982055422446438	0,000122622252	-0,024889314975257763	0,00092865380576675814	0,047269069532269395
1	0	0	0	0	0	2	4317,62	-0,100000001	1,22296739	-5,5545610503190093E-005	-0,0999821001162448	0,000122274854	-0,02516704298240216	0,00093901621112259264	0,047546797539413786
1	0	0	0	0	0	2	4327,62	-0,100000001	1,21945393	-5,5545566286477779E-005	-0,099982020526161677	0,000121923469	-0,025444771009943766	0,00094937861723947418	0,047824525566955392
1	0	0	0	0	0	2	4337,62	-0,100000001	1,21620774	-5,5545669684807456E-005	-0,099982206643157338	0,000121599136	-0,025722499341756736	0,00095974103470912973	0,048102253898768358
1	0	0	0	0	0	2	4347,62	-0,100000001	1,21301889	-5,5545407814284166E-005	-0,099981735276209715	0,000121279736	-0,026000226862481702	0,00097010342191600115	0,048379981419493331
1	0	0	0	0	0	2	4357,62	-0,100000001	1,20983005	-5,5545561343017549E-005	-0,099982011627933146	0,000120961238	-0,02627795446734649	0,00098046581226224256	0,048657709024358118
1	0	0	0	0	0	2	4367,62	-0,100000001	1,20675576	-5,5545474089268179E-005	-0,099981854571182387	0,000120653676	-0,02655568215887809	0,00099082820584213914	0,048935436715889709
1	0	0	0	0	0	2	4377,62	-0,100000001	1,20368147	-5,5545480497595334E-005	-0,099981866106171405	0,000120346318	-0,026833409490304083	0,0010011905859860115	0,049213164047315706
1	0	0	0	0	0	2	4387,62	-0,100000001	1,20077908	-5,554543617119392E-005	-0,099981786318647885	0,000120056036	-0,027111136818058598	0,0010115529659928958	0,049490891375070214
1	0	0	0	0	0	2	4390,00	-0,100000001	1,19999623	-1,0770264046887557E-005	-0,099981823205409702	0,000119977813	-0,027177452406353642	0,001014027289754441	0,049557206963365261