File: Experimentelles/Rohdaten/Batteriemessungen/AlteZelle/Studenten_Batterietests/Sonstige/ECLab-Export/LiCoO2 vs Li_05_GCPL_C01_loop4.mpt
EC-Lab ASCII FILE
Nb header lines : 3
mode	ox/red	error	control changes	Ns changes	counter inc.	Ns	time/s	control/V/mA	Ewe/V	dq/mA.h	<I>/mA	P/W	(Q-Qo)/mA.h	x	Capacity/mA.h
1	0	0	1	1	0	1	169841,40	-0,100000001	4,19598866	0	0	0	0	0	0
1	0	0	1	0	0	1	169941,40	-0,100000001	3,91032863	-0,00027771822761992614	-0,099978546300310861	0,000390948961	-0,0027758067672479635	0,00010356908259791294	0,0027758067672479635
1	0	0	1	0	0	1	170041,40	-0,100000001	3,87781	-0,00027771864465831056	-0,099978696434105741	0,000387698383	-0,0055529909466992794	0,00020718955829708339	0,0055529909466992794
1	0	0	1	0	0	1	170141,40	-0,100000001	3,85798955	-0,00027771877494040464	-0,099978743335652275	0,000385716936	-0,0083301803855605568	0,00031081023023191078	0,0083301803855605568
1	0	0	1	0	0	1	170241,40	-0,100000001	3,84275174	-0,0002777185860648751	-0,099978675340472282	0,000384193234	-0,011107366674264206	0,00041443078463012173	0,011107366674264206
1	0	0	1	0	0	1	170341,40	-0,100000001	3,82969069	-0,0002777186089422968	-0,099978683576342822	0,000382887432	-0,013884551922680538	0,00051805130021381414	0,013884551922680538
1	0	0	1	0	0	1	170441,40	-0,100000001	3,81848216	-0,00027771861773729322	-0,09997868674254103	0,000381766818	-0,016661740768483875	0,00062167195002085248	0,016661740768483875
1	0	0	1	0	0	1	170541,40	-0,100000001	3,80801797	-0,00027771880477832426	-0,09997875407730167	0,000380720885	-0,019438922297425498	0,00072529232682594266	0,019438922297425498
1	0	0	1	0	0	1	170641,40	-0,100000001	3,79837513	-0,00027771856704312896	-0,099978668492644749	0,0003797565	-0,022216111619912019	0,00082891299441867136	0,022216111619912019
1	0	0	1	0	0	1	170741,40	-0,100000001	3,78936243	-0,00027771843309617706	-0,099978620271749619	0,000378855213	-0,024993296678473894	0,00093253350291863872	0,024993296678473894
1	0	0	1	0	0	1	170841,40	-0,100000001	3,78088427	-0,00027771872600706086	-0,099978725719651277	0,000378008001	-0,027770483315079494	0,0010361540702975394	0,027770483315079494
1	0	0	1	0	0	1	170941,40	-0,100000001	3,77259707	-0,00027771837090079987	-0,099978597881417318	0,000377178978	-0,03054767137640665	0,0011397746908347165	0,03054767137640665
1	0	0	1	0	0	1	171041,40	-0,100000001	3,76480627	-0,00027771836674710115	-0,099978596386086016	0,000376400043	-0,033324857876312314	0,0012433952531131584	0,033324857876312314
1	0	0	1	0	0	1	171141,40	-0,100000001	3,7572639	-0,00027771848692165478	-0,099978639648918566	0,000375646137	-0,03610204417163456	0,0013470158077583181	0,03610204417163456
1	0	0	1	0	0	1	171241,40	-0,100000001	3,74989319	-0,00027771903135006627	-0,099978835643116019	0,000374909956	-0,038879232902804506	0,0014506364532882304	0,038879232902804506
1	0	0	1	0	0	1	171341,40	-0,100000001	3,74286628	-0,00027771857912424541	-0,09997867284184599	0,000374206807	-0,041656418848743373	0,0015542569948974266	0,041656418848743373
1	0	0	1	0	0	1	171441,40	-0,100000001	3,73585844	-0,00027771819800138474	-0,099978535637637619	0,000373505667	-0,044433604887403878	0,0016578775399661917	0,044433604887403878
1	0	0	1	0	0	1	171541,40	-0,100000001	3,72898436	-0,0002777178227868345	-0,099978400560420659	0,000372817885	-0,047210787661664109	0,0017614979632357933	0,047210787661664109
1	0	0	1	0	0	1	171641,40	-0,100000001	3,72222471	-0,00027771923699933622	-0,099978909676841626	0,000372143957	-0,049987974160252691	0,0018651185254650934	0,049987974160252691
1	0	0	1	0	0	1	171741,40	-0,100000001	3,71571326	-0,00027771958629414435	-0,099979035422952883	0,000371493428	-0,052765162684221171	0,0019687391632640403	0,052765162684221171
1	0	0	1	0	0	1	171841,40	-0,100000001	3,70927835	-0,00027771930845123194	-0,099978935399520064	0,00037084971	-0,05554235571524784	0,0020723599692273882	0,05554235571524784
1	0	0	1	0	0	1	171941,40	-0,100000001	3,70278597	-0,00027771829795878794	-0,099978571622297152	0,000370199239	-0,058319545728093568	0,0021759806625783472	0,058319545728093568
1	0	0	1	0	0	1	172041,40	-0,100000001	3,6963892	-0,00027771838781485952	-0,09997860397047785	0,000369559828	-0,061096728008809126	0,0022796010674331338	0,061096728008809126
1	0	0	1	0	0	1	172141,40	-0,100000001	3,69020247	-0,00027771903022792602	-0,0999788352391456	0,000368942157	-0,063873915167659059	0,0023832216542976726	0,063873915167659059
1	0	0	1	0	0	1	172241,40	-0,100000001	3,68393946	-0,00027771882345734368	-0,099978760801747597	0,000368315697	-0,066651100970930854	0,0024868421905837683	0,066651100970930854
1	0	0	1	0	0	1	172341,40	-0,100000001	3,6778481	-0,00027771935914374058	-0,099978953648820314	0,000367707398	-0,069428288911653798	0,0025904628066210403	0,069428288911653798
1	0	0	1	0	0	1	172441,40	-0,100000001	3,67175674	-0,00027771939513542586	-0,099978966605824973	0,000367098459	-0,072205484758211405	0,002694083717635633	0,072205484758211405
1	0	0	1	0	0	1	172541,40	-0,100000001	3,66564655	-0,00027771830054827862	-0,099978572554513626	0,000366486114	-0,074982670756587443	0,0027977042612013302	0,074982670756587443
1	0	0	1	0	0	1	172641,40	-0,100000001	3,65949798	-0,00027771837500358621	-0,099978599358420173	0,00036587147	-0,077759858978973376	0,0029013248877478272	0,077759858978973376
1	0	0	1	0	0	1	172741,40	-0,100000001	3,65338755	-0,0002777179217942887	-0,099978436203098598	0,00036525997	-0,080537041690186368	0,0030049453086650515	0,080537041690186368
1	0	0	1	0	0	1	172841,40	-0,100000001	3,64710522	-0,00027771791131670272	-0,09997843243116823	0,000364631851	-0,08331421938266304	0,0031085655423264762	0,08331421938266304
1	0	0	1	0	0	1	172941,40	-0,100000001	3,64103317	-0,00027771858417573901	-0,099978674660383398	0,000364025676	-0,08609140269833088	0,0032121859857967238	0,08609140269833088
1	0	0	1	0	0	1	173041,40	-0,100000001	3,63492274	-0,00027771904970953862	-0,099978842252525043	0,000363415369	-0,088868590125488614	0,0033158065826721875	0,088868590125488614
1	0	0	1	0	0	1	173141,40	-0,100000001	3,62864065	-0,00027771848059280051	-0,099978637370531366	0,000362786552	-0,091645780153420531	0,0034194272765860326	0,091645780153420531
1	0	0	1	0	0	1	173241,40	-0,100000001	3,62222457	-0,00027771824356665213	-0,099978552041131302	0,000362144754	-0,094422963115771072	0,0035230477068735366	0,094422963115771072
1	0	0	1	0	0	1	173341,40	-0,100000001	3,61577058	-0,00027771793151729638	-0,099978439703380813	0,000361499115	-0,097200142429660454	0,0036266680010320493	0,097200142429660454
1	0	0	1	0	0	1	173441,40	-0,100000001	3,60946918	-0,00027771820384843482	-0,099978537742575309	0,000360869453	-0,099977324833758042	0,0037302884104903853	0,099977324833758042
1	0	0	1	0	0	1	173541,40	-0,100000001	3,60301518	-0,00027771774943545459	-0,099978374153928013	0,00036022361	-0,10275450503733203	0,0038339087378442272	0,10275450503733203
1	0	0	1	0	0	1	173641,40	-0,100000001	3,59652281	-0,00027771776524848406	-0,099978379846617741	0,000359574537	-0,1055316813149335	0,0039375289187147552	0,1055316813149335
1	0	0	1	0	0	1	173741,40	-0,100000001	3,58989692	-0,0002777196736012896	-0,099979066853520243	0,000358914549	-0,10830887221862858	0,0040411496453045018	0,10830887221862858
1	0	0	1	0	0	1	173841,40	-0,100000001	3,5831182	-0,00027771814046179251	-0,099978514923387648	0,000358234829	-0,11108606047726576	0,0041447702732035814	0,11108606047726576
1	0	0	1	0	0	1	173941,40	-0,100000001	3,57651138	-0,0002777179004988737	-0,099978428536750387	0,000357573997	-0,11386324112792509	0,0042483906172387776	0,11386324112792509
1	0	0	1	0	0	1	174041,40	-0,100000001	3,56967545	-0,0002777187205904888	-0,099978723769685645	0,0003568916	-0,11664042354919211	0,0043520110273377286	0,11664042354919211
1	0	0	1	0	0	1	174141,40	-0,100000001	3,56266761	-0,00027771830855351357	-0,09997857543639776	0,00035619043	-0,11941761218138608	0,0044556316691747136	0,11941761218138608
1	0	0	1	0	0	1	174241,40	-0,100000001	3,55565977	-0,00027771794825626742	-0,099978445729409446	0,000355489348	-0,12219479499623915	0,004559252093958889	0,12219479499623915
1	0	0	1	0	0	1	174341,40	-0,100000001	3,54855657	-0,0002777179794555737	-0,099978456961157952	0,000354779215	-0,12497197888162019	0,0046628725586859027	0,12497197888162019
1	0	0	1	0	0	1	174441,40	-0,100000001	3,54124308	-0,00027771833991052374	-0,099978586724919654	0,000354048476	-0,12774915905879843	0,0047664928850548832	0,12774915905879843
1	0	0	1	0	0	1	174541,40	-0,100000001	3,5338726	-0,00027771811339134973	-0,099978505178029786	0,000353311305	-0,1305263413948565	0,0048701132919745728	0,1305263413948565
1	0	0	1	0	0	1	174641,40	-0,100000001	3,52621555	-0,00027771756657378541	-0,099978308323737434	0,000352545059	-0,13330351860099198	0,0049737335074899539	0,13330351860099198
1	0	0	1	0	0	1	174741,40	-0,100000001	3,51857758	-0,00027771800745402771	-0,099978467040599821	0,000351781986	-0,13608069441680146	0,0050773536711304026	0,13608069441680146
1	0	0	1	0	0	1	174841,40	-0,100000001	3,5111115	-0,00027771853558636378	-0,099978657168211046	0,0003510362	-0,13885787422240226	0,0051809739836353299	0,13885787422240226
1	0	0	1	0	0	1	174941,40	-0,100000001	3,50309157	-0,00027771814260424838	-0,099978515694671642	0,000350233895	-0,14163505621213704	0,005284594377633232	0,14163505621213704
1	0	0	1	0	0	1	175041,40	-0,100000001	3,49531984	-0,00027771843499566118	-0,099978620955563789	0,000349457259	-0,14441223873582182	0,0053882147915535264	0,14441223873582182
1	0	0	1	0	0	1	175141,40	-0,100000001	3,48701358	-0,00027771855085881222	-0,099978662666291635	0,000348626956	-0,14718942463085706	0,0054918353312634387	0,14718942463085706
1	0	0	1	0	0	1	175241,40	-0,100000001	3,47878361	-0,00027771741626039146	-0,09997825421092407	0,000347802707	-0,14996660353076736	0,0055954556099758362	0,14996660353076736
1	0	0	1	0	0	1	175341,40	-0,100000001	3,47032475	-0,00027771855031036672	-0,099978662468851277	0,000346958434	-0,15274378554791862	0,0056990760049966842	0,15274378554791862
1	0	0	1	0	0	1	175441,40	-0,100000001	3,46177006	-0,00027771790696142451	-0,099978430863268314	0,000346102344	-0,15552096486475763	0,0058026962992652531	0,15552096486475763
1	0	0	1	0	0	1	175541,40	-0,100000001	3,45310116	-0,00027771786153647635	-0,099978414510289549	0,000345235574	-0,15829814493475264	0,0059063166216350822	0,15829814493475264
1	0	0	1	0	0	1	175641,40	-0,100000001	3,44408822	-0,00027771830698599418	-0,099978574872090867	0,000344335043	-0,16107532448408538	0,0060099369245783027	0,16107532448408538
1	0	0	1	0	0	1	175741,40	-0,100000001	3,43505645	-0,00027771860408700176	-0,099978681828436864	0,000343432417	-0,16385250752129027	0,0061135573576587238	0,16385250752129027
1	0	0	1	0	0	1	175841,40	-0,100000001	3,42566156	-0,00027771930403262378	-0,099978933808821363	0,000342493993	-0,16662969225684502	0,0062171778541068608	0,16662969225684502
1	0	0	1	0	0	1	175941,40	-0,100000001	3,41619062	-0,00027771823027729987	-0,099978547256965248	0,000341545761	-0,16940687592429827	0,0063207983107026957	0,16940687592429827
1	0	0	1	0	0	1	176041,40	-0,100000001	3,40649033	-0,00027771880491988525	-0,099978754130591411	0,000340576662	-0,17218406263077011	0,0064244188806883994	0,17218406263077011
1	0	0	1	0	0	1	176141,40	-0,100000001	3,39694285	-0,00027771864742827088	-0,099978697431291315	0,000339621911	-0,17496125048352816	0,0065280394934435827	0,17496125048352816
1	0	0	1	0	0	1	176241,40	-0,100000001	3,38693714	-0,00027771905190414851	-0,099978843042584474	0,000338622049	-0,1777384390954065	0,0066316601345225638	0,1777384390954065
1	0	0	1	0	0	1	176341,40	-0,100000001	3,37687421	-0,00027771939364282624	-0,099978966068489203	0,000337616395	-0,1805156304271921	0,0067352808770849446	0,1805156304271921
1	0	0	1	0	0	1	176441,40	-0,100000001	3,36648655	-0,0002777192429064049	-0,09997891180338601	0,00033657765	-0,18329282452698384	0,0068389017229253542	0,18329282452698384
1	0	0	1	0	0	1	176541,40	-0,100000001	3,35604167	-0,00027771921842793622	-0,099978902991138662	0,000335533376	-0,18607001573762794	0,0069425224609677798	0,18607001573762794
1	0	0	1	0	0	1	176641,40	-0,100000001	3,34531021	-0,00027771829369912544	-0,099978570093474483	0,000334459328	-0,18884720401359354	0,0070461430895134067	0,18884720401359354
1	0	0	1	0	0	1	176741,40	-0,100000001	3,3345027	-0,00027771843671012253	-0,099978621572769766	0,000333378994	-0,19162438753281706	0,0071497635405785894	0,19162438753281706
1	0	0	1	0	0	1	176841,40	-0,100000001	3,32329392	-0,00027771916364464493	-0,09997888326915689	0,000332259224	-0,19440157322848509	0,0072533840728498445	0,19440157322848509
1	0	0	1	0	0	1	176941,40	-0,100000001	3,31216145	-0,0002777185523762471	-0,099978663212568102	0,000331145478	-0,19717876427527398	0,0073570048047786125	0,19717876427527398
1	0	0	1	0	0	1	177041,40	-0,100000001	3,30051374	-0,00027771892533948022	-0,099978797479311014	0,000329981383	-0,19995595380971706	0,0074606254802797274	0,19995595380971706
1	0	0	1	0	0	1	177141,40	-0,100000001	3,2887702	-0,00027771828809049395	-0,099978568069711846	0,000328806549	-0,2027331380988041	0,0075642459600695526	0,2027331380988041
1	0	0	1	0	0	1	177241,40	-0,100000001	3,2767787	-0,00027771837320716845	-0,099978598711709888	0,000327607733	-0,20551032294633738	0,0076678664606957594	0,20551032294633738
1	0	0	1	0	0	1	177341,40	-0,100000001	3,26448154	-0,00027771804269444611	-0,099978479727148442	0,000326377893	-0,20828750690043098	0,0077714869279865306	0,20828750690043098
1	0	0	1	0	0	1	177441,40	-0,100000001	3,25197434	-0,00027771834896297917	-0,099978589983803098	0,000325127796	-0,2110646893716881	0,0078751073399506803	0,2110646893716881
1	0	0	1	0	0	1	177541,40	-0,100000001	3,2393527	-0,00027771861673353446	-0,09997868638118793	0,000323866232	-0,21384187720314662	0,0079787279519111488	0,21384187720314662
1	0	0	1	0	0	1	177641,40	-0,100000001	3,22625351	-0,00027771865576960973	-0,099978700434172813	0,000322556647	-0,2166190631496	0,0080823484935395418	0,2166190631496
1	0	0	1	0	0	1	177741,40	-0,100000001	3,21290612	-0,00027771857821568848	-0,099978672514765542	0,000321222091	-0,21939625022589254	0,008185969077323753	0,21939625022589254
1	0	0	1	0	0	1	177841,40	-0,100000001	3,19940615	-0,00027771911539013187	-0,099978865897534912	0,000319873012	-0,22217343636426666	0,0082895896261129664	0,22217343636426666
1	0	0	1	0	0	1	177941,40	-0,100000001	3,18558145	-0,00027771773688164019	-0,099978369634555546	0,000318489241	-0,22495061857346368	0,0083932100282992998	0,22495061857346368
1	0	0	1	0	0	1	178041,40	-0,100000001	3,17131758	-0,00027771821220260531	-0,099978540750076211	0,000317063706	-0,22772779934059171	0,0084968303766801011	0,22772779934059171
1	0	0	1	0	0	1	178141,40	-0,100000001	3,15680528	-0,00027771788695413206	-0,099978423660644173	0,000315612415	-0,2305049836688344	0,0086004508579308787	0,2305049836688344
1	0	0	1	0	0	1	178241,40	-0,100000001	3,14206409	-0,00027771816883939834	-0,099978525139324147	0,000314138946	-0,23328216361731834	0,0087040711757669658	0,23328216361731834
1	0	0	1	0	0	1	178341,40	-0,100000001	3,12678814	-0,00027771925647349821	-0,099978916687538842	0,000312612887	-0,23605934701304845	0,0088076916222244467	0,23605934701304845
1	0	0	1	0	0	1	178441,40	-0,100000001	3,11126399	-0,00027771899192945827	-0,099978821451699366	0,000311060518	-0,23883653558815974	0,0089113122619316006	0,23883653558815974
1	0	0	1	0	0	1	178541,40	-0,100000001	3,09509063	-0,00027771851010703379	-0,099978647995653696	0,000309442985	-0,24161372134545488	0,0090149327965022464	0,24161372134545488
1	0	0	1	0	0	1	178641,40	-0,100000001	3,07859254	-0,00027771859441904554	-0,099978678347973171	0,000307793613	-0,24439090649084627	0,0091185533082419392	0,24439090649084627
1	0	0	1	0	0	1	178741,40	-0,100000001	3,06163645	-0,00027771858290210368	-0,099978674201874752	0,000306098344	-0,24716809338498656	0,0092221738852298048	0,24716809338498656
1	0	0	1	0	0	1	178841,40	-0,100000001	3,04429817	-0,00027771897053635782	-0,099978813750184397	0,000304365327	-0,24994527958277533	0,0093257944362358579	0,24994527958277533
1	0	0	1	0	0	1	178941,40	-0,100000001	3,02627254	-0,0002777183829053409	-0,099978602203051418	0,00030256249	-0,25272246511994096	0,0094294149625931763	0,25272246511994096
1	0	0	1	0	0	1	179041,40	-0,100000001	3,00788426	-0,00027771794493579203	-0,09997844453403849	0,000300723594	-0,25549964671702858	0,0095330353419408845	0,25549964671702858
1	0	0	1	0	0	1	179141,40	-0,100000001	2,98869371	-0,00027771824888181357	-0,099978553954589146	0,000298805273	-0,25827682893317894	0,0096366557443866573	0,25827682893317894
1	0	0	1	0	0	1	179241,40	-0,100000001	2,96904516	-0,00027771826578800877	-0,099978560040818445	0,000296840852	-0,26105401219366403	0,009740276185797961	0,26105401219366403
1	0	0	1	0	0	1	179341,40	-0,100000001	2,94863272	-0,00027771756000899606	-0,099978305960413632	0,000294799305	-0,26383119304734176	0,0098438965374080486	0,26383119304734176
1	0	0	1	0	0	1	179441,40	-0,100000001	2,92755198	-0,00027771789934196403	-0,099978428120262989	0,000292692042	-0,26660837120541309	0,0099475167884414349	0,26660837120541309
1	0	0	1	0	0	1	179541,40	-0,100000001	2,90589833	-0,00027771746922532717	-0,099978273278297946	0,000290526688	-0,26938554555955658	0,01005113689754516	0,26938554555955658
1	0	0	1	0	0	1	179641,40	-0,100000001	2,88365269	-0,00027771721569324534	-0,099978182006762752	0,000288302341	-0,27216271681068138	0,010154756890871086	0,27216271681068138
1	0	0	1	0	0	1	179741,40	-0,100000001	2,86087251	-0,00027771822391119267	-0,099978544965167014	0,000286025868	-0,27493989497821085	0,01025837714225737	0,27493989497821085
1	0	0	1	0	0	1	179841,40	-0,100000001	2,83730936	-0,00027771741204377677	-0,099978252692943027	0,000283669244	-0,27771707105720755	0,010361997315717686	0,27771707105720755
1	0	0	1	0	0	1	179941,40	-0,100000001	2,81307793	-0,00027771782557169594	-0,099978401562970624	0,000281247048	-0,280494246960876	0,010465617482636272	0,280494246960876
1	0	0	1	0	0	1	180041,40	-0,100000001	2,7885983	-0,00027771758586540819	-0,099978315268720525	0,000278799358	-0,28327142209796214	0,01056923762095264	0,28327142209796214
1	0	0	1	0	0	1	180141,40	-0,100000001	2,76331663	-0,00027771810297461021	-0,099978501428004134	0,000276272243	-0,2860486012449983	0,010672857908885635	0,2860486012449983
1	0	0	1	0	0	1	180241,40	-0,100000001	2,73761487	-0,00027771769864112138	-0,099978355867970931	0,00027370223	-0,28882577896731827	0,010776478143660554	0,28882577896731827
1	0	0	1	0	0	1	180341,40	-0,100000001	2,71155024	-0,00027771796758472922	-0,099978452687654592	0,000271096593	-0,29160295629294445	0,010880098363634294	0,29160295629294445
1	0	0	1	0	0	1	180441,40	-0,100000001	2,68508482	-0,00027771782127146922	-0,099978400014889242	0,000268450473	-0,29438013363382989	0,010983718584177374	0,29438013363382989
1	0	0	1	0	0	1	180541,40	-0,100000001	2,65823746	-0,00027771840776710045	-0,099978611153283469	0,000265766896	-0,29715731227627494	0,011087338853283397	0,29715731227627494
1	0	0	1	0	0	1	180641,40	-0,100000001	2,63114166	-0,0002777184383906424	-0,099978622177756838	0,000263057911	-0,29993449276108186	0,011190959191130419	0,29993449276108186
1	0	0	1	0	0	1	180741,40	-0,100000001	2,60406518	-0,00027771887801049485	-0,099978780440878963	0,000260351255	-0,30271167543393299	0,011294579610616312	0,30271167543393299
1	0	0	1	0	0	1	180841,40	-0,100000001	2,57668304	-0,00027771803320488995	-0,099978476310908762	0,000257612846	-0,30548885449034854	0,011398199895168126	0,30548885449034854
1	0	0	1	0	0	1	180941,40	-0,100000001	2,54914808	-0,00027771770857233142	-0,09997835944320599	0,000254859653	-0,30826603083772627	0,011501820078642104	0,30826603083772627
1	0	0	1	0	0	1	181041,40	-0,100000001	2,52174687	-0,0002777175049214727	-0,099978286128908314	0,000252119935	-0,31104320687057862	0,011605440250380714	0,31104320687057862
1	0	0	1	0	0	1	181141,40	-0,100000001	2,49421215	-0,00027771784100971286	-0,099978407120655834	0,000249367353	-0,31382038315560013	0,011709060431528093	0,31382038315560013
1	0	0	1	0	0	1	181241,40	-0,100000001	2,46660089	-0,00027771746968229613	-0,099978273442806733	0,000246606505	-0,31659755926115238	0,011812680605979234	0,31659755926115238
1	0	0	1	0	0	1	181341,40	-0,100000001	2,43898964	-0,00027771768465679552	-0,099978350833614413	0,000243846167	-0,31937473613261805	0,011916300809007634	0,31937473613261805
1	0	0	1	0	0	1	181441,40	-0,100000001	2,41118741	-0,00027771752057514259	-0,099978291764228608	0,000241066402	-0,32215191292507334	0,012019921009088051	0,32215191292507334
1	0	0	1	0	0	1	181541,40	-0,100000001	2,38258338	-0,00027771808676545821	-0,099978495592710323	0,000238207096	-0,32492909205156986	0,012123541296254682	0,32492909205156986
1	0	0	1	0	0	1	181641,40	-0,100000001	2,353158	-0,00027771782386095984	-0,099978400947105728	0,000235264975	-0,32770627121097261	0,012227161584649093	0,32770627121097261
1	0	0	1	0	0	1	181741,40	-0,100000001	2,32218599	-0,00027771717470097875	-0,099978167249549094	0,000232167906	-0,33048344577026822	0,012330781701407318	0,33048344577026822
1	0	0	1	0	0	1	181841,40	-0,100000001	2,28857899	-0,00027771767137654954	-0,099978346052726605	0,000228808349	-0,3332606200488368	0,012434401807691242	0,3332606200488368
1	0	0	1	0	0	1	181941,40	-0,100000001	2,25161123	-0,00027771723893202013	-0,099978190372720371	0,000225112017	-0,33603779673124858	0,012538022003665787	0,33603779673124858
1	0	0	1	0	0	1	182041,40	-0,100000001	2,20939255	-0,00027771766546078854	-0,099978343923052979	0,000220891408	-0,33881497153192896	0,012641642129430405	0,33881497153192896
1	0	0	1	0	0	1	182141,40	-0,100000001	2,16117787	-0,00027771742776367402	-0,099978258352105139	0,000216070795	-0,34159214591349504	0,012745262239557304	0,34159214591349504
1	0	0	1	0	0	1	182241,40	-0,100000001	2,10585999	-0,00027771682499804429	-0,099978041356512384	0,000210539758	-0,34436931752136282	0,012848882246193789	0,34436931752136282
1	0	0	1	0	0	1	182341,40	-0,100000001	2,04317141	-0,00027771778572060995	-0,099978387216581926	0,000204272976	-0,34714649080376666	0,012952502315309469	0,34714649080376666
1	0	0	1	0	0	1	182441,40	-0,100000001	1,97544169	-0,00027771753805337677	-0,09997829805639191	0,0001975013	-0,34992367002725734	0,013056122606095083	0,34992367002725734
1	0	0	1	0	0	1	182541,40	-0,100000001	1,90543973	-0,00027771825587542522	-0,099978556472288922	0,000190503109	-0,35270085354111968	0,013159743056960235	0,35270085354111968
1	0	0	1	0	0	1	182641,40	-0,100000001	1,83625889	-0,0002777178588323295	-0,099978413536796826	0,000183586249	-0,35547803024958822	0,013263363253906992	0,35547803024958822
1	0	0	1	0	0	1	182741,40	-0,100000001	1,77129698	-0,00027771780282176205	-0,099978393372995699	0,000177091424	-0,35825520542440198	0,01336698339363103	0,35825520542440198
1	0	0	1	0	0	1	182841,40	-0,100000001	1,71277106	-0,00027771856847529613	-0,099978669008224845	0,000171240565	-0,36103238498048282	0,013470603696826032	0,36103238498048282
1	0	0	1	0	0	1	182941,40	-0,100000001	1,65699494	-0,00027771800431940288	-0,099978465912135066	0,000165663805	-0,36380956531049645	0,013574224028897507	0,36380956531049645
1	0	0	1	0	0	1	183041,40	-0,100000001	1,60606873	-0,00027771690880424448	-0,099978071526739738	0,000160571653	-0,36658674149215309	0,013677844206188203	0,36658674149215309
1	0	0	1	0	0	1	183141,40	-0,100000001	1,5616349	-0,00027771790075219341	-0,099978428627945472	0,000156129798	-0,36936391893187955	0,013781464430419178	0,36936391893187955
1	0	0	1	0	0	1	183241,40	-0,100000001	1,52503002	-0,00027771760352700947	-0,099978321626896	0,000152469947	-0,37214110034771725	0,013885084803004208	0,37214110034771725
1	1	0	0	1	0	2	183327,22	0,100000001	1,50775266	5,4899441699186963E-009	0,032939666650530208	4,96648681E-005	-0,37452429150123405	0,013974004869176504	5,4899441699186963E-009
1	1	0	0	0	0	2	183427,22	0,100000001	2,45080853	0,00027782485706855853	0,10001693289581245	0,000245122355	-0,37174605085342086	0,013870344975222318	0,0027782461377572675
1	1	0	0	0	0	2	183527,22	0,100000001	2,65472293	0,00027782500064455795	0,10001698458316418	0,000265517388	-0,36896780396369229	0,013766684848373872	0,0055564930274859059
1	1	0	0	0	0	2	183627,22	0,100000001	2,77620482	0,00027782456572684979	0,10001682801281373	0,00027766719	-0,36618955821485286	0,013663024764093538	0,0083347387763253504
1	1	0	0	0	0	2	183727,22	0,100000001	2,86497688	0,00027782436679924525	0,1000167563988873	0,000286545692	-0,3634113123016329	0,013559364673679941	0,011112984689545296
1	1	0	0	0	0	2	183827,22	0,100000001	2,93396688	0,00027782447679258061	0,10001679599648182	0,000293445977	-0,36063307153845126	0,0134557047754212	0,013891225452726909
1	1	0	0	0	0	2	183927,22	0,100000001	2,98974299	0,00027782468482355277	0,1000168708876201	0,000299024745	-0,35785482650039059	0,013352044717660976	0,016669470490787584
1	1	0	0	0	0	2	184027,22	0,100000001	3,03707933	0,00027782468979722925	0,10001687267814333	0,000303759181	-0,35507658202776186	0,013248384680997778	0,01944771496341625
1	1	0	0	0	0	2	184127,22	0,100000001	3,08059669	0,00027782446440557635	0,10001679153716099	0,000308111397	-0,35229833778037248	0,01314472465273856	0,02222595921080559
1	1	0	0	0	0	2	184227,22	0,100000001	3,1230638	0,00027782474906825357	0,10001689401570877	0,00031235913	-0,34952009354461306	0,013041064624913275	0,025004203446564986
1	1	0	0	0	0	2	184327,22	0,100000001	3,16631365	0,00027782474716794163	0,10001689333159658	0,000316684862	-0,34674184490711232	0,012937404432853102	0,027782452084065722
1	1	0	0	0	0	2	184427,22	0,100000001	3,21065211	0,00027782501158780518	0,10001698852273258	0,000321119762	-0,34396359572120838	0,012833744220331267	0,03056070126996976
1	1	0	0	0	0	2	184527,22	0,100000001	3,25508595	0,00027782531100801299	0,1000170963139905	0,000325564237	-0,34118534315579507	0,012730083881715392	0,033338953835383059
1	1	0	0	0	0	2	184627,22	0,100000001	3,2981832	0,00027782466939960918	0,10001686533500125	0,000329873932	-0,33840709282476198	0,012626423626467254	0,03611720416641609
1	1	0	0	0	0	2	184727,22	0,100000001	3,33843517	0,00027782459378821981	0,10001683811490534	0,000333899719	-0,33562884504751482	0,012522763466504298	0,03889545194366327
1	1	0	0	0	0	2	184827,22	0,100000001	3,37502098	0,0002778242446618776	0,10001671242944181	0,000337558507	-0,33285059262007053	0,012419103133036234	0,041673704371107546
1	1	0	0	0	0	2	184927,22	0,100000001	3,40771151	0,00027782438221822179	0,10001676194971798	0,000340828265	-0,3300723434981289	0,012315442922900918	0,044451953493049158
1	1	0	0	0	0	2	185027,22	0,100000001	3,43702221	0,00027782422674695648	0,10001670598007123	0,000343759632	-0,32729409755412934	0,012211782831338896	0,047230199437048704
1	1	0	0	0	0	2	185127,22	0,100000001	3,46322036	0,00027782444352780778	0,10001678402116547	0,00034638017	-0,32451585176887437	0,012108122745699845	0,050008445222303693
1	1	0	0	0	0	2	185227,22	0,100000001	3,48672628	0,00027782503948857392	0,10001699856700771	0,000348731905	-0,32173760552872461	0,012004462643088061	0,052786691462453459
1	1	0	0	0	0	2	185327,22	0,100000001	3,50767326	0,00027782487331123818	0,10001693874201187	0,00035082674	-0,31895935819528	0,011900802499683973	0,055564938795898118
1	1	0	0	0	0	2	185427,22	0,100000001	3,52659631	0,00027782399439563357	0,10001662233360805	0,000352718256	-0,31618111472838906	0,011797142500546205	0,058343182262789056
1	1	0	0	0	0	2	185527,22	0,100000001	3,54397273	0,00027782326493784781	0,10001635972884629	0,00035445526	-0,31340287570373171	0,011693482667154142	0,0611214212874464
1	1	0	0	0	0	2	185627,22	0,100000001	3,55964971	0,00027782392639956541	0,10001659785735605	0,000356024044	-0,31062463819780237	0,011589822890427862	0,063899658793375757
1	1	0	0	0	0	2	185727,22	0,100000001	3,57419991	0,0002778241714011464	0,1000166860555827	0,000357479643	-0,30784640245203085	0,011486163179375442	0,066677894539147238
1	1	0	0	0	0	2	185827,22	0,100000001	3,58749008	0,00027782446336415078	0,10001679116224784	0,000358809251	-0,30506816006044582	0,011382503220358781	0,069456136930732314
1	1	0	0	0	0	2	185927,22	0,100000001	3,60007358	0,00027782422134156029	0,10001670403412891	0,000360067497	-0,30228991894060864	0,011278843308792741	0,072234378050569498
1	1	0	0	0	0	2	186027,22	0,100000001	3,61160684	0,00027782403410184714	0,1000166366278427	0,000361220766	-0,29951167465968134	0,011175183279282182	0,075012622331496794
1	1	0	0	0	0	2	186127,22	0,100000001	3,62245274	0,0002778246279698279	0,10001685042028234	0,000362306309	-0,29673343230063962	0,011071523321479755	0,077790864690538534
1	1	0	0	0	0	2	186227,22	0,100000001	3,63249683	0,00027782393636720054	0,10001660144803282	0,000363309984	-0,29395519258610496	0,010967863462347445	0,080569104405073293
1	1	0	0	0	0	2	186327,22	0,100000001	3,64223504	0,00027782406083204678	0,10001664625071307	0,000364284148	-0,2911769512487824	0,010864203542666734	0,083347345742395802
1	1	0	0	0	0	2	186427,22	0,100000001	3,65134335	0,00027782389200147661	0,10001658547171731	0,000365194894	-0,2883987133216279	0,010760543750223979	0,086125583669550349
1	1	0	0	0	0	2	186527,22	0,100000001	3,65995526	0,0002778242313493457	0,10001670763693109	0,000366056687	-0,28562047685653603	0,010656884012332746	0,088903820134642304
1	1	0	0	0	0	2	186627,22	0,100000001	3,66807055	0,00027782383691560893	0,10001656564080806	0,000366867811	-0,28284223331630941	0,010553224010458723	0,091682063674868864
1	1	0	0	0	0	2	186727,22	0,100000001	3,67588043	0,00027782409914624358	0,10001666004382178	0,000367649278	-0,28006399366737411	0,010449564153774011	0,094460303323804147
1	1	0	0	0	0	2	186827,22	0,100000001	3,68346095	0,00027782345831683942	0,10001642934527237	0,000368406618	-0,27728575483384976	0,010345904327513379	0,097238542157328435
1	1	0	0	0	0	2	186927,22	0,100000001	3,69079351	0,00027782391735663018	0,10001659459957118	0,000369140587	-0,27450751594226848	0,010242244499086563	0,10001678104890973
1	1	0	0	0	0	2	187027,22	0,100000001	3,69785857	0,00027782358748051856	0,10001647584418958	0,000369846792	-0,27172928019885222	0,010138584788122019	0,10279501679232598
1	1	0	0	0	0	2	187127,22	0,100000001	3,70479012	0,00027782330353185533	0,10001637362268682	0,000370539667	-0,26895105126278518	0,010034925331148824	0,10557324572839301
1	1	0	0	0	0	2	187227,22	0,100000001	3,71135879	0,00027782271138620048	0,10001616045028442	0,000371195842	-0,26617281920348867	0,0099312657576437414	0,10835147778768963
1	1	0	0	0	0	2	187327,22	0,100000001	3,71771717	0,00027782358228415248	0,1000164739734981	0,000371832954	-0,26339458705162099	0,0098276061806847027	0,11112970993955723
1	1	0	0	0	0	2	187427,22	0,100000001	3,72403765	0,00027782381579776605	0,10001655803838582	0,000372465438	-0,26061634857948797	0,009723946367908064	0,11390794841169027
1	1	0	0	0	0	2	187527,22	0,100000001	3,72984266	0,0002778233987717993	0,10001640790906128	0,000373045477	-0,25783811131626877	0,0096202866002376294	0,11668618567490949
1	1	0	0	0	0	2	187627,22	0,100000001	3,735991	0,00027782361014766826	0,10001648400436219	0,000373660674	-0,25505987773821552	0,0095166269700656896	0,11946441925296272
1	1	0	0	0	0	2	187727,22	0,100000001	3,74168134	0,00027782391405850646	0,10001659341224683	0,000374230207	-0,25228163879244992	0,009412967139617184	0,12224265819872832
1	1	0	0	0	0	2	187827,22	0,100000001	3,74739075	0,00027782355893568861	0,1000164655680524	0,000374800788	-0,24950340192319795	0,0093093073866461952	0,12502089506798029
1	1	0	0	0	0	2	187927,22	0,100000001	3,75292826	0,00027782345141594608	0,10001642686095117	0,000375354488	-0,24672516583975869	0,0092056476629949338	0,12779913115141952
1	1	0	0	0	0	2	188027,22	0,100000001	3,7583704	0,00027782352549499936	0,10001645352940616	0,000375898875	-0,24394693050547782	0,0091019879672957811	0,1305773664857004
1	1	0	0	0	0	2	188127,22	0,100000001	3,76364064	0,00027782352891647155	0,10001645476113595	0,000376426004	-0,24116869710969395	0,0089983283439245568	0,13335559988148427
1	1	0	0	0	0	2	188227,22	0,100000001	3,76898718	0,00027782445306041174	0,10001678745290237	0,00037696198	-0,2383904579622767	0,0088946685059521562	0,13613383902890152
1	1	0	0	0	0	2	188327,22	0,100000001	3,77433372	0,00027782420843053194	0,10001669938615942	0,000377496413	-0,23561221473663101	0,0087910085158155725	0,13891208225454722
1	1	0	0	0	0	2	188427,22	0,100000001	3,77948928	0,00027782427784386611	0,10001672437495581	0,000378012133	-0,23283397605520742	0,0086873486952300224	0,14169032093597082
1	1	0	0	0	0	2	188527,22	0,100000001	3,7846067	0,00027782415468576877	0,10001668003804771	0,000378523808	-0,23005573808387098	0,0085836889011387802	0,14446855890730726
1	1	0	0	0	0	2	188627,22	0,100000001	3,78980064	0,0002778239950351417	0,10001662256383094	0,000379043049	-0,2272774976081121	0,0084800290136041677	0,14724679938306614
1	1	0	0	0	0	2	188727,22	0,100000001	3,7948606	0,00027782332887252166	0,10001638274532528	0,000379548233	-0,22449926214627894	0,0083763693131458688	0,1500250348448993
1	1	0	0	0	0	2	188827,22	0,100000001	3,7998445	0,00027782404608155293	0,10001664094053613	0,000380047684	-0,22172102276636509	0,0082727094664987085	0,15280327422481312
1	1	0	0	0	0	2	188927,22	0,100000001	3,8049047	0,00027782403514410054	0,10001663700305389	0,000380553771	-0,21894278737069021	0,0081690497685088602	0,15558150962048803
1	1	0	0	0	0	2	189027,22	0,100000001	3,80967832	0,0002778243182185623	0,10001673890984419	0,000381031597	-0,21616454819766822	0,0080653899295811149	0,15835974879351002
1	1	0	0	0	0	2	189127,22	0,100000001	3,81470037	0,00027782368836386336	0,10001651216218805	0,000381533027	-0,21338631200605194	0,007961730201893623	0,1611379849851263
1	1	0	0	0	0	2	189227,22	0,100000001	3,81960773	0,0002778237938313848	0,10001655013048981	0,00038202398	-0,21060807604358448	0,0078580704827559846	0,16391622094759376
1	1	0	0	0	0	2	189327,22	0,100000001	3,82455325	0,00027782364943582147	0,10001649814809514	0,000382518425	-0,20782984144798566	0,0077544108146180506	0,16669445554319258
1	1	0	0	0	0	2	189427,22	0,100000001	3,82944155	0,00027782397736691766	0,1000166162032713	0,000383007777	-0,20505160525560074	0,0076507510869018816	0,1694726917355775
1	1	0	0	0	0	2	189527,22	0,100000001	3,83425355	0,00027782389875087472	0,10001658790150026	0,00038348895	-0,20227336817886998	0,0075470913261895795	0,17225092881230826
1	1	0	0	0	0	2	189627,22	0,100000001	3,83914185	0,00027782431860226726	0,10001673904797794	0,000383978448	-0,19949513087482698	0,0074434315569959526	0,17502916611635123
1	1	0	0	0	0	2	189727,22	0,100000001	3,84395361	0,00027782373699049155	0,10001652966777142	0,000384458894	-0,19671689186272595	0,0073397717240723827	0,17780740512845229
1	1	0	0	0	0	2	189827,22	0,100000001	3,84897566	0,00027782323883308304	0,10001635033113245	0,000384960498	-0,19393865810587539	0,0072361120872292762	0,18058563888530282
1	1	0	0	0	0	2	189927,22	0,100000001	3,85405493	0,00027782444762686886	0,10001678549682723	0,000385470194	-0,19116042181131939	0,0071324523557009651	0,18336387517985882
1	1	0	0	0	0	2	190027,22	0,100000001	3,85900044	0,00027782381699689565	0,1000165584700724	0,00038596394	-0,18838217905010653	0,007028792382892992	0,18614211794107171
1	1	0	0	0	0	2	190127,22	0,100000001	3,86400342	0,00027782377124536371	0,10001654199952349	0,000386464264	-0,18560394070528483	0,0069251325748665139	0,18892035628589341
1	1	0	0	0	0	2	190227,22	0,100000001	3,8690443	0,00027782308856604829	0,10001629623500838	0,000386967469	-0,18282570752882416	0,0068214729596785318	0,19169858946235408
1	1	0	0	0	0	2	190327,22	0,100000001	3,87408543	0,00027782311688239376	0,10001630642889117	0,000387471722	-0,18004747600295555	0,006717813406076361	0,19447682098822266
1	1	0	0	0	0	2	190427,22	0,100000001	3,87918377	0,00027782363865152003	0,10001649426574722	0,000387982349	-0,17726924578928115	0,0066141539014339187	0,19725505120189706
1	1	0	0	0	0	2	190527,22	0,100000001	3,88412929	0,00027782397486973146	0,10001661530428438	0,000388477463	-0,17449100988660752	0,0065104941845272666	0,20003328710457072
1	1	0	0	0	0	2	190627,22	0,100000001	3,88922763	0,00027782338282797066	0,10001640216928387	0,000388986547	-0,17171277580503165	0,0064068345355682202	0,20281152118614659
1	1	0	0	0	0	2	190727,22	0,100000001	3,8943069	0,00027782318815381984	0,10001633208660054	0,000389494293	-0,16893454142456042	0,0063031748754569869	0,20558975556661782
1	1	0	0	0	0	2	190827,22	0,100000001	3,89934802	0,00027782296125259661	0,10001625040217296	0,000389998168	-0,16615630907807328	0,0061995152912364339	0,20836798791310496
1	1	0	0	0	0	2	190927,22	0,100000001	3,90438914	0,00027782300833488509	0,10001626735179414	0,00039050242	-0,16337807740095418	0,006095855731990903	0,21114621959022406
1	1	0	0	0	0	2	191027,22	0,100000001	3,909621	0,00027782366926347219	0,10001650528604827	0,000391026639	-0,16059983959365882	0,0059921959440202534	0,21392445739751942
1	1	0	0	0	0	2	191127,22	0,100000001	3,91464305	0,00027782325917854909	0,10001635765549906	0,000391528331	-0,15782160400706237	0,0058885362389068672	0,21670269298411584
1	1	0	0	0	0	2	191227,22	0,100000001	3,91976047	0,00027782362245602739	0,10001648843537078	0,000392040674	-0,15504337148191197	0,0057848766480201472	0,21948092550926627
1	1	0	0	0	0	2	191327,22	0,100000001	3,92514515	0,00027782316649746563	0,10001632429031424	0,0003925786	-0,15226513681750368	0,0056812169773148403	0,22225916017367456
1	1	0	0	0	0	2	191427,22	0,100000001	3,93043447	0,00027782383631045616	0,10001656542295312	0,000393108552	-0,14948689995624	0,0055775572246419053	0,22503739703493821
1	1	0	0	0	0	2	191527,22	0,100000001	3,93574286	0,0002778237793979545	0,10001654493445571	0,000393639406	-0,14670866237510493	0,0054738974451096006	0,22781563461607328
1	1	0	0	0	0	2	191627,22	0,100000001	3,94103217	0,0002778241094474991	0,10001666375227318	0,000394168892	-0,14393042281535101	0,0053702375917523661	0,23059387417582723
1	1	0	0	0	0	2	191727,22	0,100000001	3,94645524	0,00027782300390551488	0,10001626575722112	0,000394709728	-0,14115218496238643	0,0052665778020777363	0,23337211202879181
1	1	0	0	0	0	2	191827,22	0,100000001	3,95182085	0,00027782266029260221	0,10001614205659192	0,000395245879	-0,13837395767659027	0,0051629184066783686	0,23615033931458797
1	1	0	0	0	0	2	191927,22	0,100000001	3,95722461	0,00027782344040233222	0,10001642289605078	0,000395787443	-0,13559572614255877	0,0050592588527716282	0,23892857084861946
1	1	0	0	0	0	2	192027,22	0,100000001	3,96268582	0,00027782286177534202	0,10001621459036688	0,000396332849	-0,1328174966723033	0,0049555993758671462	0,24170680031887491
1	1	0	0	0	0	2	192127,22	0,100000001	3,96814704	0,00027782260481226774	0,10001612208367466	0,000396878691	-0,13003927089697411	0,0048519400368253318	0,2444850260942041
1	1	0	0	0	0	2	192227,22	0,100000001	3,97360802	0,00027782249389381875	0,10001608215303925	0,000397424708	-0,12726104616382053	0,0047482807366684909	0,2472632508273577
1	1	0	0	0	0	2	192327,22	0,100000001	3,97927928	0,00027782261987609994	0,10001612750665338	0,000397992117	-0,12448281819656981	0,004644621315843136	0,25004147879460842
1	1	0	0	0	0	2	192427,22	0,100000001	3,98483586	0,00027782321083504294	0,10001634025183958	0,000398548698	-0,12170459069132093	0,0045409619122556922	0,25281970629985728
1	1	0	0	0	0	2	192527,22	0,100000001	3,99050713	0,00027782328550393382	0,1000163671326361	0,000399116019	-0,11892636222735662	0,004437302472897287	0,25559793476382163
1	1	0	0	0	0	2	192627,22	0,100000001	3,99625468	0,0002778230785379807	0,10001629262490462	0,000399690587	-0,11614813043407965	0,0043336429093177498	0,25837616655709859
1	1	0	0	0	0	2	192727,22	0,100000001	4,00198317	0,00027782319452861946	0,10001633438152803	0,0004002637	-0,11336990157283254	0,0042299834551361888	0,26115439541834566
1	1	0	0	0	0	2	192827,22	0,100000001	4,00776911	0,00027782293872493837	0,10001624229221725	0,000400841993	-0,11059167210824323	0,0041263239784431187	0,26393262488293494
1	1	0	0	0	0	2	192927,22	0,100000001	4,01363134	0,00027782290196625722	0,10001622905909411	0,00040142826	-0,10781344141171904	0,0040226644557849024	0,2667108555794591
1	1	0	0	0	0	2	193027,22	0,100000001	4,01947403	0,00027782309142789907	0,10001629726527451	0,000402012898	-0,10503521361216106	0,0039190050412163904	0,26948908337901699
1	1	0	0	0	0	2	193127,22	0,100000001	4,02510738	0,00027782333582763872	0,10001638524916701	0,000402576698	-0,10225698132229794	0,0038153454591085555	0,27226731566888019
1	1	0	0	0	0	2	193227,22	0,100000001	4,03116035	0,00027782312594312758	0,10001630969075483	0,000403181795	-0,099478749301794406	0,0037116858870508896	0,27504554768938371
1	1	0	0	0	0	2	193327,22	0,100000001	4,03698444	0,00027782260399353171	0,10001612178892971	0,000403763523	-0,096700522373523878	0,0036080265049912838	0,27782377461765418
1	1	0	0	0	0	2	193427,22	0,100000001	4,04280806	0,00027782316125101517	0,10001632240159235	0,000404346792	-0,093922289072306918	0,0035043668851484781	0,28060200791887123
1	1	0	0	0	0	2	193527,22	0,100000001	4,04876566	0,00027782321246051126	0,10001634083700808	0,000404942723	-0,09114405619750368	0,0034007072812157414	0,28338024079367446
1	1	0	0	0	0	2	193627,22	0,100000001	4,05468512	0,0002778226509694424	0,10001613870025491	0,000405533938	-0,088365828416483174	0,003297047867338887	0,28615846857469501
1	1	0	0	0	0	2	193727,22	0,100000001	4,06052828	0,00027782297047434579	0,10001625372200214	0,000406118837	-0,085587597328707469	0,0031933883300825504	0,28893669966247066
1	1	0	0	0	0	2	193827,22	0,100000001	4,06648588	0,0002778236964858241	0,10001651508609342	0,000406715757	-0,082809361908727936	0,003089728631185865	0,29171493508245018
1	1	0	0	0	0	2	193927,22	0,100000001	4,07242441	0,00027782334508332938	0,10001638858121514	0,000407309184	-0,080031123814778906	0,0029860688325197811	0,29449317317639904
1	1	0	0	0	0	2	194027,22	0,100000001	4,07832479	0,00027782405188182992	0,1000166430286355	0,000407900341	-0,077252886917419213	0,002882409078500055	0,29727141007375866
1	1	0	0	0	0	2	194127,22	0,100000001	4,08422518	0,0002778237757393056	0,1000165436173423	0,000408490072	-0,074474649006704806	0,0027787492866707021	0,30004964798447302
1	1	0	0	0	0	2	194227,22	0,100000001	4,08999157	0,00027782396854087712	0,1000166130258972	0,000409067114	-0,071696412554726733	0,0026750895492687626	0,30282788443645107
1	1	0	0	0	0	2	194327,22	0,100000001	4,09573936	0,00027782311854387325	0,10001630702702368	0,000409640721	-0,068918178349339213	0,0025714298956901376	0,30560611864183866
1	1	0	0	0	0	2	194427,22	0,100000001	4,1013341	0,00027782315034626259	0,10001631847588206	0,000410200329	-0,066139947018902246	0,002467770349379783	0,30838434997227565
1	1	0	0	0	0	2	194527,22	0,100000001	4,10704327	0,00027782325865990586	0,10001635746878752	0,000410771521	-0,063361715216550899	0,0023641107854616688	0,31116258177462694
1	1	0	0	0	0	2	194627,22	0,100000001	4,11259985	0,00027782311228248806	0,10001630477292536	0,000411327026	-0,06058348330159191	0,0022604512173420112	0,31394081368958592
1	1	0	0	0	0	2	194727,22	0,100000001	4,11813784	0,00027782315700170067	0,10001632087183939	0,000411880988	-0,057805252866861261	0,002156791704451664	0,31671904412431654
1	1	0	0	0	0	2	194827,22	0,100000001	4,12350321	0,00027782287429935398	0,10001621909901051	0,000412417197	-0,055027023823016595	0,0020531322434571424	0,31949727316816122
1	1	0	0	0	0	2	194927,22	0,100000001	4,12913609	0,00027782309583657318	0,10001629885239693	0,000412980909	-0,052248789511555142	0,0019494725859207565	0,32227550747962272
1	1	0	0	0	0	2	195027,22	0,100000001	4,13434935	0,00027782301173690291	0,1000162685765204	0,000413502188	-0,049470558122824422	0,0018458130374353837	0,32505373886835334
1	1	0	0	0	0	2	195127,22	0,100000001	4,1396575	0,00027782383398546112	0,10001656458595502	0,000414034323	-0,046692320465414022	0,0017421532550571434	0,32783197652576365
1	1	0	0	0	0	2	195227,22	0,100000001	4,14488935	0,00027782340023956368	0,10001640843745635	0,00041455694	-0,043914083579523661	0,0016384935014653533	0,33061021341165408
1	1	0	0	0	0	2	195327,22	0,100000001	4,15014076	0,00027782318642569917	0,10001633146447718	0,000415081857	-0,041135851496875258	0,0015348339270889786	0,33338844549430259
1	1	0	0	0	0	2	195427,22	0,100000001	4,15516281	0,0002778233137490849	0,10001637730088886	0,000415584334	-0,038357617641170784	0,0014311742865574984	0,33616667935000704
1	1	0	0	0	0	2	195527,22	0,100000001	4,16026115	0,00027782321311492058	0,10001634107259539	0,000416094088	-0,03557938394399936	0,001327514651941099	0,3389449130471785
1	1	0	0	0	0	2	195627,22	0,100000001	4,1650157	0,00027782287039524979	0,10001621769353322	0,000416569121	-0,032801153803184173	0,0012238551500171325	0,34172314318799366
1	1	0	0	0	0	2	195727,22	0,100000001	4,17005682	0,00027782258279042118	0,1000161141558111	0,000417072879	-0,030022928942977517	0,0011201958451197702	0,34450136804820045
1	1	0	0	0	0	2	195827,22	0,100000001	4,1746583	0,00027782203535818387	0,10001591708023651	0,000417532283	-0,027244705419155011	0,0010165365900846973	0,34727959157202298
1	1	0	0	0	0	2	195927,22	0,100000001	4,17931747	0,00027782191518652768	0,10001587381844707	0,00041799809	-0,024466484525106397	0,00091287743317002406	0,35005781246607168
1	1	0	0	0	0	2	196027,22	0,100000001	4,18382406	0,00027782225977008544	0,10001599786850845	0,000418449345	-0,021688261796072918	0,00080921820778959846	0,35283603519510515
1	1	0	0	0	0	2	196127,22	0,100000001	4,1883688	0,00027782236976176499	0,1000160374655069	0,000418904063	-0,018910039833904518	0,00070555901102193984	0,3556142571572736
1	1	0	0	0	0	2	196227,22	0,100000001	4,19289398	0,00027782206554296944	0,10001592794675762	0,000419356191	-0,016131822152615795	0,00060189997397965786	0,3583924748385623
1	1	0	0	0	0	2	196327,22	0,100000001	4,19659948	0,0002778215994499624	0,10001576015330134	0,000419726101	-0,013353603816738102	0,00049824091251378118	0,36117069317443987
1	1	0	0	0	0	2	196404,09	0,100000001	4,19994116	0,00019079156259281766	0,10001594747873656	0,000420061086	-0,011218057435063397	0,0004185608057408503	0,36330623955611456