File: Experimentelles/Rohdaten/Batteriemessungen/AlteZelle/Studenten_Batterietests/Sonstige/ECLab-Export/LiCoO2 vs Li_02_CV_C01_loop5.mpt
EC-Lab ASCII FILE
Nb header lines : 3
mode	ox/red	error	control changes	counter inc.	time/s	control/V	Ewe/V	<I>/mA	cycle number	(Q-Qo)/C	P/W
2	0	0	1	0	7200,62	3,10406637	3,10440207	-0,59053277969360346	6	0	0,00183325121
2	0	0	0	0	7201,80	3,09226489	3,09259295	-0,51288800220936627	6	-0,000622018531	0,00158615387
2	0	0	0	0	7203,00	3,08026385	3,08044291	-0,51083243358880282	6	-0,00123637181	0,0015735901
2	0	0	1	0	7204,20	3,06826258	3,06835341	-0,51102383388206451	6	-0,00185018952	0,00156800169
2	0	0	0	0	7205,40	3,05626082	3,05640244	-0,51089768991756525	6	-0,00246414938	0,00156150898
2	0	0	0	0	7206,60	3,0442605	3,04436493	-0,5112270819954583	6	-0,00307827257	0,00155636179
2	0	0	1	0	7207,80	3,03225923	3,03238535	-0,51160840783268301	6	-0,00369267724	0,00155139389
2	0	0	1	0	7209,00	3,02025795	3,0204463	-0,51203925892089952	6	-0,00430722069	0,0015465871
2	0	0	0	0	7210,20	3,00825715	3,0083065	-0,51190306401501216	6	-0,00492205331	0,00153996132
2	0	0	0	0	7211,40	2,99625587	2,99629736	-0,51234389996777094	6	-0,00553702796	0,00153513462
2	0	0	1	0	7212,60	2,9842546	2,9845283	-0,5123854721896368	6	-0,00615237979	0,00152922899
2	0	0	1	0	7213,80	2,97225356	2,97231841	-0,51289492147043347	6	-0,0067679463	0,00152448704
2	0	0	0	0	7215,00	2,96025252	2,96052957	-0,51287548725183021	6	-0,00738399057	0,00151838304
2	0	0	1	0	7216,20	2,94825149	2,94838977	-0,51354079275702522	6	-0,0080004679	0,0015141184
2	0	0	1	0	7217,40	2,93625021	2,93662119	-0,51377546275034726	6	-0,0086173676	0,00150876387
2	0	0	0	0	7218,60	2,92424941	2,92448139	-0,51443912119915328	6	-0,00923485402	0,00150446768
2	0	0	0	0	7219,80	2,91224813	2,91253233	-0,51467805976668979	6	-0,00985293742	0,00149901654
2	0	0	1	0	7221,00	2,90024686	2,90049267	-0,51529370170707622	6	-0,0104714604	0,00149460556
2	0	0	1	0	7222,20	2,88824606	2,88862371	-0,51575042384987136	6	-0,0110907368	0,0014898089
2	0	0	0	0	7223,40	2,87624478	2,8765142	-0,51651745894923872	6	-0,0117108254	0,00148576975
2	0	0	0	0	7224,60	2,86424446	2,86462498	-0,51692962804647379	6	-0,0123316366	0,00148080953
2	0	0	1	0	7225,80	2,85224247	2,85248518	-0,5177282630465929	6	-0,0129533755	0,00147681218
2	0	0	0	0	7227,00	2,84024119	2,84048581	-0,51875297337149818	6	-0,013576013	0,00147351041
2	0	0	0	0	7228,20	2,82824016	2,82823586	-0,51959516853093926	6	-0,0141994059	0,00146953773
2	0	0	1	0	7229,40	2,81623912	2,81649733	-0,52010820961246829	6	-0,0148237348	0,00146488333
2	0	0	1	0	7230,60	2,80423784	2,80434728	-0,52093004730219629	6	-0,0154487928	0,00146086875
2	0	0	0	0	7231,80	2,79223704	2,79258871	-0,52141915013392826	6	-0,0160747059	0,00145610922
2	0	0	0	0	7233,00	2,78023577	2,78065944	-0,52223782427609146	6	-0,0167012904	0,00145216554
2	0	0	1	0	7234,20	2,76823449	2,76851964	-0,52260655475159546	6	-0,017328782	0,00144684652
2	0	0	0	0	7235,40	2,75623369	2,75637031	-0,52344622105353619	6	-0,0179570578	0,00144281157
2	0	0	0	0	7236,60	2,74423242	2,74455118	-0,52412827359512269	6	-0,0185861848	0,00143849687
2	0	0	1	0	7237,80	2,73223114	2,73230124	-0,52486004168167712	6	-0,0192162041	0,00143407576
2	0	0	1	0	7239,00	2,7202301	2,72030163	-0,52534581751873331	6	-0,0198468696	0,00142909912
2	0	0	0	0	7240,20	2,70822883	2,70847273	-0,52612551115453421	6	-0,0204784404	0,00142499665
2	0	0	0	0	7241,40	2,69622779	2,69638324	-0,52652232209220531	6	-0,0211106315	0,00141970592
2	0	0	1	0	7242,60	2,68422699	2,68417335	-0,52719901579742598	6	-0,0217436012	0,00141509355
2	0	0	1	0	7243,80	2,67222548	2,67235446	-0,52740191257950195	6	-0,0223770197	0,00140940491
2	0	0	0	0	7245,00	2,66022468	2,66058564	-0,52796547021716832	6	-0,0230111089	0,00140469731
2	0	0	1	0	7246,20	2,6482234	2,64846587	-0,52855984913185242	6	-0,0236457195	0,00139987271
2	0	0	1	0	7247,40	2,63622212	2,63637638	-0,52902662645404506	6	-0,0242806152	0,0013947133
2	0	0	0	0	7248,60	2,62422132	2,62443709	-0,52895448620741805	6	-0,024915928	0,00138820778
2	0	0	0	0	7249,80	2,61222005	2,61251831	-0,52923147520050317	6	-0,0255512781	0,00138262694
2	0	0	1	0	7251,00	2,60021877	2,60075927	-0,52887714297200275	6	-0,0261867624	0,00137548218
2	0	0	1	0	7252,20	2,58821774	2,58831882	-0,52903198249017344	6	-0,0268219728	0,00136930344
2	0	0	0	0	7253,40	2,57621646	2,57671046	-0,52851158039023674	6	-0,0274571124	0,00136182131
2	0	0	0	0	7254,60	2,56421566	2,56445003	-0,52833707556218547	6	-0,0280917771	0,00135489402
2	0	0	1	0	7255,80	2,55221462	2,55245113	-0,52750583536302112	6	-0,0287258904	0,00134643284
2	0	0	0	0	7257,00	2,54021335	2,54052186	-0,52699321337665005	6	-0,0293592382	0,00133883778
2	0	0	0	0	7258,20	2,52821231	2,52854228	-0,52599386265501382	6	-0,0299916025	0,00132999767
2	0	0	1	0	7259,40	2,51621103	2,51652312	-0,5250201740612601	6	-0,0306228828	0,00132122543
2	0	0	1	0	7260,60	2,50420976	2,50435328	-0,52362052444368602	6	-0,0312526934	0,00131133082
2	0	0	0	0	7261,80	2,49220896	2,4925344	-0,52206242953737638	6	-0,0318807065	0,00130125857
2	0	0	0	0	7263,00	2,48020768	2,48027444	-0,52022373195116781	6	-0,0325068384	0,0012902976
2	0	0	1	0	7264,20	2,46820641	2,46861577	-0,51830351570000333	6	-0,0331308991	0,00127949228
2	0	0	0	0	7265,40	2,45620537	2,45660639	-0,51644520120074586	6	-0,0337525867	0,00126870256
2	0	0	0	0	7266,60	2,44420433	2,44452691	-0,51420163270086138	6	-0,0343714356	0,00125697977
2	0	0	1	0	7267,80	2,43220329	2,43245721	-0,51133577028910618	6	-0,0349873081	0,00124380237
2	0	0	1	0	7269,00	2,42020226	2,42043805	-0,50861383586501139	6	-0,0355997682	0,00123106828
2	0	0	0	0	7270,21	2,40820098	2,4085288	-0,505461587260168	6	-0,03620876	0,00121741882
2	0	0	0	0	7271,41	2,39619994	2,39634895	-0,50218942047407469	6	-0,0368137769	0,00120342104
2	0	0	1	0	7272,61	2,38419867	2,38424945	-0,49847308577349024	6	-0,0374147333	0,00118848414
2	0	0	1	0	7273,81	2,37219739	2,37242031	-0,49481433281128576	6	-0,0380113088	0,00117390754
2	0	0	0	0	7275,01	2,36019659	2,36046124	-0,49078455551837894	6	-0,0386032388	0,00115847797
2	0	0	1	0	7276,21	2,34819531	2,34823132	-0,48694104763368883	6	-0,0391904525	0,00114345027
2	0	0	1	0	7277,41	2,33619428	2,33618188	-0,48237961530685491	6	-0,0397725478	0,00112692651
2	0	0	0	0	7278,61	2,32419324	2,32446289	-0,47822772401074598	6	-0,0403496176	0,00111162255
2	0	0	0	0	7279,81	2,31219196	2,31245375	-0,47358958904321114	6	-0,0409213081	0,00109515397
2	0	0	1	0	7281,01	2,30019093	2,30031395	-0,46919772246231648	6	-0,0414876938	0,00107930205
2	0	0	1	0	7282,21	2,28818989	2,28866553	-0,46421534490461178	6	-0,0420484729	0,0010624337
2	0	0	0	0	7283,41	2,27618861	2,27661586	-0,45976624870672998	6	-0,0426038355	0,00104671111
2	0	0	1	0	7284,61	2,26418614	2,26421428	-0,45538045607513843	6	-0,0431536473	0,00103107898
2	0	0	1	0	7285,81	2,2521863	2,25250697	-0,45100111297021158	6	-0,0436978489	0,00101588317
2	0	0	0	0	7287,01	2,2401855	2,2405076	-0,44619287938500563	6	-0,0442366675	0,000999698532
2	0	0	0	0	7288,21	2,22818422	2,22841811	-0,44198421544085062	6	-0,0447700806	0,00098492566
2	0	0	1	0	7289,41	2,21618319	2,21659923	-0,43744936399161683	6	-0,0452983342	0,000969649933
2	0	0	1	0	7290,61	2,20418215	2,20440936	-0,43353454768657862	6	-0,0458213501	0,000955687603
2	0	0	0	0	7291,81	2,19218087	2,19242001	-0,4290963007758064	6	-0,0463395342	0,000940759317
2	0	0	0	0	7293,01	2,1801796	2,18040061	-0,42550285936643693	6	-0,046852801	0,000927766669
2	0	0	1	0	7294,21	2,16817856	2,16845131	-0,42159018494809696	6	-0,0473616607	0,000914197764
2	0	0	0	0	7295,41	2,15617681	2,15653133	-0,4181925794128176	6	-0,04786608	0,0009018454
2	0	0	0	0	7296,61	2,14417624	2,14458299	-0,41453173228849939	6	-0,0483663417	0,000888997689
2	0	0	1	0	7297,81	2,13217521	2,13239312	-0,41158146333570355	6	-0,0488627441	0,000877653481
2	0	0	1	0	7299,01	2,12017393	2,1204741	-0,40846296368787802	6	-0,0493554808	0,000866135117
2	0	0	0	0	7300,21	2,10817313	2,10822392	-0,40588570587958016	6	-0,0498447604	0,000855697959
2	0	0	0	0	7301,41	2,09617186	2,09636497	-0,40294559206813574	6	-0,0503308102	0,000844721042
2	0	0	1	0	7302,61	2,08417082	2,08445597	-0,40067989177380966	6	-0,0508138835	0,000835199608
2	0	0	1	0	7303,81	2,07217002	2,07247543	-0,39885695499651418	6	-0,0512942784	0,000826621254
2	0	0	0	0	7305,01	2,0601685	2,060467	-0,39705325678611827	6	-0,0517722853	0,000818115135
2	0	0	1	0	7306,21	2,04816747	2,0484376	-0,3950978976984816	6	-0,0522481278	0,000809333404
2	0	0	1	0	7307,41	2,03616619	2,03651857	-0,39375512286399859	6	-0,0527219102	0,000801889633
2	0	0	0	0	7308,61	2,02416515	2,02444887	-0,39228982912997523	6	-0,0531940758	0,000794170715
2	0	0	0	0	7309,81	2,01216412	2,01235938	-0,39127838875477549	6	-0,0536646843	0,000787392724
2	0	0	1	0	7311,01	2,00016284	2,00034976	-0,39017483405768826	6	-0,0541341007	0,000780486153
2	0	0	1	0	7312,21	1,9881618	1,98831046	-0,38938101559566938	6	-0,0546024702	0,000774210319
2	0	0	0	0	7313,41	1,97616088	1,97653174	-0,38873180095106317	6	-0,0550700016	0,000768340717
2	0	0	1	0	7314,61	1,96415961	1,96436191	-0,38858094749351379	6	-0,0555370748	0,000763313612
2	0	0	1	0	7315,81	1,95215845	1,95249295	-0,3881370449283481	6	-0,0560036562	0,000757834816
2	0	0	0	0	7317,01	1,94015741	1,9403832	-0,38827806982832678	6	-0,0564702488	0,00075340824
2	0	0	0	0	7318,21	1,92815614	1,92855418	-0,38820718585823942	6	-0,0569368303	0,000748678576
2	0	0	1	0	7319,41	1,91615522	1,91633439	-0,38867842592298982	6	-0,0574037954	0,00074483786
2	0	0	1	0	7320,61	1,90415394	1,90447545	-0,38881166939002918	6	-0,0578711592	0,000740482297
2	0	0	0	0	7321,81	1,89215291	1,89238572	-0,38948146215019098	6	-0,0583391748	0,000737049151
2	0	0	0	0	7323,01	1,88015175	1,88051677	-0,39032005371215475	6	-0,0588077456	0,000734003377
2	0	0	1	0	7324,21	1,86815047	1,86848724	-0,39128412989278874	6	-0,0592772625	0,000731109409
2	0	0	0	0	7325,41	1,85614944	1,85634768	-0,39191692353536742	6	-0,0597477853	0,000727534061
2	0	0	0	0	7326,61	1,84414852	1,8442781	-0,39327911008149382	6	-0,060219489	0,000725316058
2	0	0	1	0	7327,81	1,83214724	1,83240891	-0,39432989573106259	6	-0,0606926493	0,000722573604
2	0	0	1	0	7329,01	1,82014608	1,82060015	-0,39603670096645869	6	-0,0611673221	0,000721024466
2	0	0	0	0	7330,21	1,80814505	1,80830002	-0,39716426950569075	6	-0,0616438836	0,000718192139
2	0	0	0	0	7331,41	1,79614377	1,79638088	-0,39922403295834918	6	-0,0621223077	0,000717158429
2	0	0	1	0	7332,61	1,78414285	1,7844516	-0,400825779729832	6	-0,0626029447	0,000715254224
2	0	0	0	0	7333,81	1,77214253	1,77241242	-0,40300269011066624	6	-0,0630858392	0,000714286987
2	0	0	0	0	7335,01	1,76014054	1,76018226	-0,40501273330301088	6	-0,0635713413	0,000712896232
2	0	0	1	0	7336,21	1,74813938	1,74843347	-0,4073850087200608	6	-0,0640595257	0,000712285575
2	0	0	1	0	7337,41	1,73613834	1,73637414	-0,40970756548146528	6	-0,064550519	0,00071140565
2	0	0	0	0	7338,61	1,72413707	1,72456515	-0,41247427028914266	6	-0,0650445744	0,000711338769
2	0	0	0	0	7339,81	1,71213615	1,71242559	-0,41480698809027629	6	-0,0655418411	0,000710326072
2	0	0	1	0	7341,01	1,70013487	1,70032585	-0,41774434177205075	6	-0,0660424754	0,000710301509
2	0	0	1	0	7342,21	1,68813384	1,68829632	-0,42111550597474157	6	-0,0665465817	0,000710967754
2	0	0	0	0	7343,41	1,67613268	1,67630696	-0,42444637014220141	6	-0,0670544505	0,000711502391
2	0	0	1	0	7344,61	1,6641314	1,66430771	-0,42716359036664198	6	-0,0675660446	0,000710931665
2	0	0	1	0	7345,81	1,65213048	1,65258896	-0,43013222298274554	6	-0,0680810139	0,00071083178
2	0	0	0	0	7347,01	1,64012945	1,64035904	-0,43259732751175763	6	-0,0685992911	0,000709614949
2	0	0	0	0	7348,21	1,62812817	1,62848997	-0,43540577574943565	6	-0,0691206008	0,000709053944
2	0	0	1	0	7349,41	1,61612713	1,61645055	-0,43813318215931354	6	-0,0696453229	0,000708220643
2	0	0	1	0	7350,61	1,60412598	1,60443103	-0,44130175933241997	6	-0,0701736286	0,00070803822
2	0	0	0	0	7351,81	1,5921247	1,59241176	-0,44441526274507213	6	-0,0707058012	0,000707692117
2	0	0	0	0	7353,01	1,58012354	1,58029199	-0,44791599407507923	6	-0,0712418407	0,000707838044
2	0	0	1	0	7354,21	1,56812274	1,56839299	-0,45092151500284851	6	-0,0717817992	0,000707222149
2	0	0	0	0	7355,41	1,55612147	1,55647385	-0,45480003207921894	6	-0,0723261312	0,000707884377
2	0	0	0	0	7356,61	1,54412043	1,54437423	-0,45850330032408237	6	-0,0728748217	0,000708100677
2	0	0	1	0	7357,81	1,53211939	1,53247511	-0,46272349217906726	6	-0,0734283924	0,00070911221
2	0	0	1	0	7359,01	1,52011812	1,52045572	-0,46656264613072198	6	-0,0739868358	0,000709387823
2	0	0	0	0	7360,21	1,50811708	1,50837612	-0,47116102060923917	6	-0,0745506212	0,000710688008
2	0	0	0	0	7361,41	1,49611604	1,49615622	-0,47620982273171309	6	-0,0751198381	0,000712484296
2	0	0	1	0	7362,61	1,48411489	1,48440754	-0,48135159350931642	6	-0,0756949335	0,000714521913
2	0	0	0	0	7363,81	1,47211373	1,47239816	-0,48615775528053542	6	-0,0762760788	0,00071581779
2	0	0	0	0	7365,01	1,46011257	1,46045887	-0,49198375161116384	6	-0,0768635571	0,00071852206
2	0	0	1	0	7366,21	1,44811141	1,44847965	-0,49760348256677344	6	-0,077457957	0,000720768527
2	0	0	1	0	7367,41	1,43611038	1,43634987	-0,504173554324856	6	-0,0780595094	0,0007241696
2	0	0	0	0	7368,61	1,42410934	1,42424023	-0,51038499735295949	6	-0,0786688402	0,000726910832
2	0	0	0	0	7369,81	1,41210806	1,41243124	-0,51765929535031322	6	-0,0792862549	0,000731158187
2	0	0	1	0	7371,01	1,40010703	1,40037191	-0,52477358545486918	6	-0,0799123794	0,00073487818
2	0	0	1	0	7372,21	1,38810575	1,3882823	-0,53275627254818957	6	-0,0805474445	0,000739616109
2	0	0	0	0	7373,41	1,37610471	1,37622273	-0,5407785757755248	6	-0,0811922848	0,000744231744
2	0	0	1	0	7374,61	1,36410367	1,36451423	-0,54971327430879136	6	-0,0818473324	0,000750091567
2	0	0	1	0	7375,81	1,35210252	1,35228419	-0,5590217756107463	6	-0,0825133547	0,000755956338
2	0	0	0	0	7377,02	1,34010148	1,34023464	-0,56952793554713389	6	-0,0831913278	0,000763301039
2	0	0	0	0	7378,22	1,32810032	1,32845592	-0,58043701170633216	6	-0,0838821605	0,000771084975
2	0	0	1	0	7379,42	1,31609905	1,31639636	-0,59249780730655027	6	-0,0845870003	0,000779961934
2	0	0	1	0	7380,62	1,30409801	1,30449712	-0,60581118830790182	6	-0,0853067636	0,000790278951
2	0	0	0	0	7381,82	1,29209709	1,29231739	-0,62016634379203238	6	-0,0860428885	0,000801451737
2	0	0	0	0	7383,02	1,2800957	1,28044844	-0,63516529090702528	6	-0,0867965445	0,000813296414
2	0	0	1	0	7384,22	1,26809466	1,26824856	-0,65151602867990822	6	-0,087569207	0,000826284289
2	0	0	0	0	7385,42	1,25609362	1,25674033	-0,66909487731754598	6	-0,0883622542	0,000840878522
2	0	0	0	0	7386,62	1,24409235	1,24441028	-0,68808112697054822	6	-0,0891770273	0,000856255239
2	0	0	1	0	7387,82	1,23209131	1,23232067	-0,70782814097280602	6	-0,0900152251	0,000872271252
2	0	0	1	0	7389,02	1,22009027	1,22043145	-0,72907573434834829	6	-0,0908779949	0,000889786927
2	0	0	0	0	7390,22	1,20808911	1,20842206	-0,75136183869714573	6	-0,0917670354	0,00090796221
2	0	0	0	0	7391,42	1,19608796	1,19632256	-0,77491925936192358	6	-0,0926833823	0,000927053392
2	0	0	1	0	7392,62	1,1840868	1,18441331	-0,79900804813951258	6	-0,093628563	0,000946355751
2	0	0	1	0	7393,82	1,172086	1,17212343	-0,8248121356892	6	-0,0946037695	0,000966781634
2	0	0	0	0	7395,02	1,16008472	1,16055512	-0,85087559216966285	6	-0,09561003	0,000987488078
2	0	0	1	0	7396,22	1,14808345	1,14851546	-0,87868795699129626	6	-0,0966488123	0,00100918673
2	0	0	1	0	7397,42	1,13608241	1,13659632	-0,90659847886612083	6	-0,0977208465	0,00103043648
2	0	0	0	0	7398,62	1,12408125	1,12456703	-0,93593124641726707	6	-0,0988276973	0,00105251744
2	0	0	0	0	7399,82	1,11207998	1,11233699	-0,96635765116661837	6	-0,0999698639	0,0010749154
2	0	0	1	0	7401,06	1,09967899	1,09996676	-0,99771859000126643	6	-0,101188861	0,00109745725
2	0	0	1	0	7402,26	1,08767784	1,08791721	-1,0297189513221419	6	-0,102406114	0,00112024893
2	0	0	0	0	7403,46	1,07567668	1,07584763	-1,0632763098304459	6	-0,103662759	0,00114392326
2	0	0	1	0	7404,66	1,06367564	1,06378818	-1,0976782621194872	6	-0,104960114	0,00116769713
2	0	0	1	0	7405,86	1,05167449	1,05188906	-1,133857486148675	6	-0,106299616	0,00119269232
2	0	0	0	0	7407,06	1,03967333	1,04006016	-1,1715998717894176	6	-0,107683741	0,00121853431
2	0	0	0	0	7408,26	1,02767217	1,02778006	-1,2123745720212677	6	-0,109114803	0,00124605442
2	0	0	1	0	7409,46	1,01567113	1,0160414	-1,2559461891651189	6	-0,11059653	0,0012760933
2	0	0	1	0	7410,66	1,00366998	1,00379145	-1,3037980009491256	6	-0,112132706	0,00130874128
2	1	0	1	0	7411,81	1,00777042	1,00779116	-1,1777028633902482	6	-0,113581121	0,00118687854
2	1	0	1	0	7413,01	1,01977158	1,01999104	-1,0687238887573277	6	-0,114925049	0,00109008874
2	1	0	0	0	7414,21	1,03177261	1,03210068	-0,97599204567571366	6	-0,116150282	0,00100732211
2	1	0	1	0	7415,41	1,04377389	1,04403996	-0,89227792426943962	6	-0,11726974	0,000931573799
2	1	0	1	0	7416,61	1,05577493	1,05595911	-0,81585391983390029	6	-0,118293218	0,000861508364
2	1	0	0	0	7417,81	1,06777585	1,06816888	-0,74682788333545421	6	-0,119229451	0,000797738321
2	1	0	0	0	7419,01	1,07977712	1,08001792	-0,6840403527021417	6	-0,120086499	0,000738775823
2	1	0	1	0	7420,21	1,09177828	1,09212756	-0,62786607940991872	6	-0,120872356	0,000685709878
2	1	0	1	0	7421,41	1,10377932	1,10406685	-0,57681364410867302	6	-0,121593788	0,000636840821
2	1	0	0	0	7422,61	1,11578047	1,11603606	-0,53123193948219251	6	-0,122257255	0,000592874014
2	1	0	0	0	7423,85	1,1281817	1,12852657	-0,4891601293347776	6	-0,122888096	0,000552030222
2	1	0	1	0	7425,05	1,14018273	1,14046586	-0,45194224609682899	6	-0,123451486	0,000515424705
2	1	0	0	0	7426,25	1,15218389	1,1525954	-0,41802980611100794	6	-0,1239722	0,000481819239
2	1	0	0	0	7427,45	1,16418505	1,16450465	-0,38728540375207834	6	-0,124453969	0,000450995663
2	1	0	1	0	7428,65	1,17618608	1,17642379	-0,35916509642265734	6	-0,124900505	0,000422530371
2	1	0	1	0	7429,85	1,18818712	1,18842316	-0,3330046886888649	6	-0,125314534	0,000395750481
2	1	0	0	0	7431,05	1,2001884	1,20031226	-0,30914568117198906	6	-0,125699028	0,000371071364
2	1	0	0	0	7432,25	1,21218944	1,21239197	-0,28741100290790266	6	-0,12605606	0,000348454807
2	1	0	1	0	7433,45	1,22419059	1,2245717	-0,2671497437016417	6	-0,126387939	0,000327144022
2	1	0	1	0	7434,65	1,2361902	1,23631799	-0,24846762312170179	6	-0,126696378	0,000307184993
2	1	0	0	0	7435,85	1,24819279	1,24844015	-0,23094950111893286	6	-0,12698321	0,000288326642
2	1	0	1	0	7437,05	1,26019394	1,26050961	-0,21478105359710842	6	-0,127249837	0,000270733581
2	1	0	1	0	7438,25	1,2721951	1,2724489	-0,19991997039566499	6	-0,127497524	0,000254387938
2	1	0	0	0	7439,45	1,28419626	1,28447831	-0,18538833161195133	6	-0,127727747	0,000238127293
2	1	0	0	0	7440,65	1,2961973	1,29680836	-0,17180443776305722	6	-0,127941176	0,000222797433
2	1	0	1	0	7441,85	1,30819845	1,30856717	-0,15939223374395306	6	-0,128139123	0,000208575439
2	1	0	1	0	7443,05	1,32019949	1,32065678	-0,14740681221398243	6	-0,128322259	0,000194673805
2	1	0	0	0	7444,25	1,33220077	1,33247578	-0,13625622796826109	6	-0,128491566	0,00018155812
2	1	0	1	0	7445,45	1,3442018	1,34434474	-0,12544841536631157	6	-0,128647581	0,000168645915
2	1	0	1	0	7446,65	1,35620296	1,35631406	-0,1155475506093353	6	-0,128791139	0,000156718772
2	1	0	0	0	7447,85	1,368204	1,36844373	-0,10576050779006158	6	-0,128922716	0,00014472731
2	1	0	0	0	7449,05	1,38020515	1,38051331	-0,096275536130027149	6	-0,129042968	0,000132909656
2	1	0	1	0	7450,25	1,39220631	1,39256275	-0,087147703142060659	6	-0,129152313	0,000121358644
2	1	0	1	0	7451,45	1,40420747	1,40434158	-0,078806817298754995	6	-0,129251257	0,000110671688
2	1	0	0	0	7452,65	1,41620839	1,41655135	-0,070536002516746355	6	-0,129340142	9,99178665E-005
2	1	0	0	0	7453,85	1,42820966	1,42863095	-0,062785501242615501	6	-0,129419401	8,9697307E-005
2	1	0	1	0	7455,05	1,44021082	1,44050002	-0,054896316044808826	6	-0,129489347	7,90781414E-005
2	1	0	0	0	7456,29	1,45261192	1,45303071	-0,047291704007269344	6	-0,1295522	6,87162974E-005
2	1	0	0	0	7457,49	1,46461296	1,46504009	-0,04021288831912304	6	-0,12960422	5,89134943E-005
2	1	0	1	0	7458,69	1,47661412	1,47715974	-0,03325784244225369	6	-0,129647732	4,91271458E-005
2	1	0	1	0	7459,89	1,48861527	1,48891854	-0,026444592901195053	6	-0,129683003	3,93738446E-005
2	1	0	0	0	7461,09	1,50061631	1,50085771	-0,019516103275236646	6	-0,129710108	2,92908935E-005
2	1	0	0	0	7462,29	1,51261771	1,51292717	-0,013313192151448106	6	-0,129729316	2,01418898E-005
2	1	0	1	0	7463,49	1,52461863	1,52497673	-0,0066759291560932749	6	-0,129740685	1,01806363E-005
2	1	0	0	0	7464,73	1,53701985	1,53745735	-2,6847781728160374E-005	6	-0,129744425	4,12773176E-008
2	1	0	0	0	7465,93	1,54902089	1,5493865	0,0065032411730499046	6	-0,129740283	1,00760344E-005
2	1	0	1	0	7467,17	1,56142199	1,56174672	0,012643815275320464	6	-0,129728109	1,97464378E-005
2	1	0	1	0	7468,37	1,57342327	1,57398665	0,018545724926904483	6	-0,129708633	2,91907236E-005
2	1	0	0	0	7469,57	1,5854243	1,58580554	0,024811382347252221	6	-0,129681736	3,93460286E-005
2	1	0	0	0	7470,77	1,59742534	1,59781492	0,031381897841735315	6	-0,1296473	5,01424656E-005
2	1	0	1	0	7471,97	1,6094265	1,60981429	0,037856809455358022	6	-0,129605427	6,09424314E-005
2	1	0	1	0	7473,17	1,62142754	1,62161326	0,043848953675478643	6	-0,129556015	7,1106042E-005
2	1	0	0	0	7474,37	1,63342869	1,63372266	0,050276411173399315	6	-0,129499093	8,21377107E-005
2	1	0	1	0	7475,57	1,64542997	1,64563179	0,05648469468966727	6	-0,129434571	9,2953007E-005
2	1	0	1	0	7476,77	1,65743101	1,65762126	0,063017323186310541	6	-0,129362449	0,000104458857
2	1	0	0	0	7477,98	1,66943192	1,6697309	0,069195346887378611	6	-0,129282683	0,000115537609
2	1	0	0	0	7479,18	1,6814332	1,68151975	0,07594993632907671	6	-0,129195154	0,000127711319
2	1	0	1	0	7480,38	1,69343436	1,69364953	0,082172522864614848	6	-0,129099831	0,000139171461
2	1	0	1	0	7481,58	1,7054354	1,70573926	0,088925285555888077	6	-0,128996685	0,000151683344
2	1	0	0	0	7482,78	1,71743667	1,71764827	0,095333919646994394	6	-0,128885746	0,000163750141
2	1	0	1	0	7484,02	1,72983778	1,7301687	0,10194222484249648	6	-0,128762722	0,000176377245
2	1	0	1	0	7485,22	1,74183881	1,74209809	0,10848950218254072	6	-0,128635645	0,000188999358
2	1	0	0	0	7486,42	1,75383997	1,75415754	0,11529382477359186	6	-0,128500476	0,000202243536
2	1	0	0	0	7487,62	1,76584101	1,76607668	0,12176849467990269	6	-0,128357336	0,000215052496
2	1	0	1	0	7488,82	1,77784216	1,7780261	0,12853749418476013	6	-0,128206015	0,000228543024
2	1	0	1	0	7490,02	1,78984344	1,79023588	0,13553730739901403	6	-0,128046662	0,000242643757
2	1	0	0	0	7491,22	1,80184448	1,80207491	0,1425720878178256	6	-0,127879128	0,000256925588
2	1	0	0	0	7492,42	1,81384552	1,81402409	0,14920821525932637	6	-0,127703458	0,000270667311
2	1	0	1	0	7493,62	1,82584667	1,82611358	0,15609420475084314	6	-0,127519608	0,000285045739
2	1	0	0	0	7494,82	1,83784783	1,83812296	0,16271579517827651	6	-0,127327591	0,000299091625
2	1	0	0	0	7496,02	1,84984887	1,84984159	0,1697106357896697	6	-0,127127528	0,00031393778
2	1	0	1	0	7497,22	1,86185014	1,86222208	0,17612758500035808	6	-0,126919359	0,000327988673
2	1	0	1	0	7498,42	1,87385118	1,87423146	0,18288146351308886	6	-0,126703247	0,000342762185
2	1	0	0	0	7499,62	1,88585222	1,88619077	0,1892280473839487	6	-0,126479253	0,000356920209
2	1	0	0	0	7500,82	1,89785337	1,89800942	0,19578591315075712	6	-0,1262476	0,000371603499
2	1	0	1	0	7502,02	1,90985453	1,9101994	0,20182557916268752	6	-0,126008272	0,000385527092
2	1	0	1	0	7503,22	1,92185581	1,92214859	0,20799801778048189	6	-0,125761613	0,000399803102
2	1	0	0	0	7504,42	1,93385684	1,93428838	0,21382857145120672	6	-0,125507653	0,000413606118
2	1	0	1	0	7505,62	1,94585788	1,94612741	0,21970584491888669	6	-0,125246659	0,000427575578
2	1	0	1	0	7506,82	1,95785904	1,95827699	0,22504230992247654	6	-0,124978915	0,000440695178
2	1	0	0	0	7508,02	1,96986008	1,9702363	0,23041404155083046	6	-0,124704562	0,000453970104
2	1	0	0	0	7509,22	1,98186123	1,9823159	0,23586903465911734	6	-0,124423884	0,000467566948
2	1	0	1	0	7510,42	1,99386251	1,99411464	0,24106405217510928	6	-0,124137089	0,000480709365
2	1	0	1	0	7511,62	2,00586343	2,00621438	0,2456440519696721	6	-0,123844467	0,000492814637
2	1	0	0	0	7512,82	2,0178647	2,01809335	0,25028637905294547	6	-0,123546205	0,000505101285
2	1	0	1	0	7514,02	2,02986598	2,03023291	0,25463718610505158	6	-0,12324255	0,000516972796
2	1	0	1	0	7515,22	2,04186678	2,04229259	0,25885771618535002	6	-0,122933857	0,000528663222
2	1	0	0	0	7516,42	2,05386782	2,05429196	0,26264768396504269	6	-0,122620307	0,00053955504
2	1	0	0	0	7517,62	2,06586909	2,0661509	0,26635179078827264	6	-0,122302182	0,000550322991
2	1	0	1	0	7518,82	2,07787013	2,07812023	0,26984444679692342	6	-0,121979736	0,000560769229
2	1	0	1	0	7520,02	2,08987117	2,09003925	0,27332523022778333	6	-0,121653147	0,000571260462
2	1	0	0	0	7521,22	2,10187244	2,10196853	0,27618288776526835	6	-0,121322893	0,000580527761
2	1	0	0	0	7522,42	2,11387444	2,11414981	0,27927909045533149	6	-0,120988823	0,000590437849
2	1	0	1	0	7523,62	2,12587452	2,12617779	0,28194427800675338	6	-0,120651297	0,000599463645
2	1	0	0	0	7524,82	2,1378758	2,1380167	0,28460643851819078	6	-0,120310456	0,000608493341
2	1	0	0	0	7526,02	2,14987683	2,15012646	0,28691387789634336	6	-0,119966626	0,000616901147
2	1	0	1	0	7527,22	2,16187811	2,1619854	0,28926247001315206	6	-0,119619869	0,000625381246
2	1	0	1	0	7528,42	2,17387915	2,17404509	0,29163601862577082	6	-0,119270496	0,000634029857
2	1	0	0	0	7529,62	2,18588018	2,1861546	0,29384629847482022	6	-0,11891856	0,000642393425
2	1	0	0	0	7530,82	2,19788146	2,19816399	0,29547468340024352	6	-0,118564405	0,000649501802
2	1	0	1	0	7532,02	2,20988226	2,21011305	0,29740202915854707	6	-0,118208021	0,000657292083
2	1	0	0	0	7533,22	2,22188354	2,2222631	0,29889036311457408	6	-0,117849603	0,000664213032
2	1	0	0	0	7534,42	2,23388481	2,23411202	0,30061716958880422	6	-0,11748933	0,000671612448
2	1	0	1	0	7535,62	2,24588585	2,24627161	0,30185219319537306	6	-0,11712718	0,000678042008
2	1	0	1	0	7536,82	2,25788689	2,25820088	0,30345714945966938	6	-0,116763338	0,000685267209
2	1	0	0	0	7538,02	2,26988816	2,27017021	0,30466904956847475	6	-0,116397738	0,00069165061
2	1	0	0	0	7539,22	2,2818892	2,28217959	0,30606332460107802	6	-0,116030686	0,000698491465
2	1	0	1	0	7540,42	2,29389048	2,29413915	0,30710801769358342	6	-0,115662076	0,000704548554
2	1	0	1	0	7541,62	2,30589151	2,30613828	0,30826845710786733	6	-0,115292154	0,000710909662
2	1	0	0	0	7542,82	2,31789255	2,31807733	0,30923477552520762	6	-0,114920855	0,000716830138
2	1	0	1	0	7544,02	2,32989383	2,33007669	0,31023368984460787	6	-0,114548385	0,00072286831
2	1	0	1	0	7545,22	2,34189463	2,34203601	0,31103346062203219	6	-0,11417482	0,000728451589
2	1	0	0	0	7546,42	2,3538959	2,3541255	0,31200293040213434	6	-0,113800094	0,000734494068
2	1	0	0	0	7547,62	2,36589694	2,36606503	0,31310220869878867	6	-0,113424301	0,000740820193
2	1	0	1	0	7548,82	2,37789822	2,37797403	0,3140267482958743	6	-0,113047443	0,000746747479
2	1	0	1	0	7550,02	2,38989925	2,39017391	0,31480432107734214	6	-0,112669602	0,000752437103
2	1	0	0	0	7551,22	2,40190029	2,40198278	0,31562241787711686	6	-0,11229074	0,000758119626
2	1	0	1	0	7552,42	2,41390252	2,41414261	0,31639364326777632	6	-0,111910857	0,000763819378
2	1	0	1	0	7553,62	2,42590284	2,42625213	0,31730797615212602	6	-0,11153011	0,000769869133
2	1	0	0	0	7554,82	2,43790388	2,43816113	0,31798826879821632	6	-0,111148342	0,00077530666
2	1	0	0	0	7556,02	2,44990492	2,45041108	0,31873452275370573	6	-0,110765651	0,000781030627
2	1	0	1	0	7557,22	2,46190619	2,46228051	0,31948044407181485	6	-0,110382028	0,00078665046
2	1	0	1	0	7558,42	2,47390699	2,47445011	0,32025081594474656	6	-0,109997541	0,000792444684
2	1	0	0	0	7559,62	2,48590827	2,48610878	0,32085254144233843	6	-0,109612204	0,000797674293
2	1	0	0	0	7560,82	2,49790931	2,49786735	0,32166816651200224	6	-0,109225973	0,000803484407
2	1	0	1	0	7562,02	2,50991058	2,51013756	0,32224420590015693	6	-0,108839072	0,000808877288
2	1	0	0	0	7563,22	2,5219121	2,52192616	0,32304352519877632	6	-0,108451121	0,000814691943
2	1	0	0	0	7564,42	2,53391266	2,53406572	0,3236618406760199	6	-0,108062372	0,000820180401
2	1	0	1	0	7565,62	2,5459137	2,54617572	0,32451408985070995	6	-0,107672527	0,000826269912
2	1	0	1	0	7566,82	2,55791521	2,55814481	0,32552703904608896	6	-0,107281789	0,000832745282
2	1	0	0	0	7568,02	2,56991601	2,56998372	0,32651311353159398	6	-0,106889978	0,000839133398
2	1	0	0	0	7569,22	2,58191729	2,58207345	0,32718834211118515	6	-0,106497236	0,000844824302
2	1	0	1	0	7570,42	2,59391856	2,59410286	0,32831552073669946	6	-0,106103301	0,00085168425
2	1	0	1	0	7571,62	2,60591888	2,60599017	0,32918303747161958	6	-0,105708301	0,000857847743
2	1	0	0	0	7572,82	2,61792064	2,61816192	0,3304418836875511	6	-0,10531196	0,000865150359
2	1	0	1	0	7574,02	2,62992167	2,63009095	0,33144364560333363	6	-0,104914241	0,000871726952
2	1	0	1	0	7575,22	2,64192271	2,64220047	0,33287977597986675	6	-0,104515091	0,000879535102
2	1	0	0	0	7576,42	2,65392399	2,65417004	0,33417942142114042	6	-0,104114212	0,000886969035
2	1	0	0	0	7577,62	2,66592503	2,66589856	0,33583941776305459	6	-0,103711613	0,000895313802
2	1	0	1	0	7578,82	2,67792606	2,6780684	0,33753436144130822	6	-0,103306912	0,000903940119
2	1	0	1	0	7580,02	2,68992734	2,6900878	0,33950802249212851	6	-0,102900103	0,000913306372
2	1	0	0	0	7581,22	2,70192838	2,70205712	0,3415060682843127	6	-0,102490775	0,000922768901
2	1	0	0	0	7582,42	2,71392846	2,71426487	0,34374499482062182	6	-0,102078997	0,000933014962
2	1	0	1	0	7583,62	2,72593069	2,72612596	0,3459547949023545	6	-0,101664335	0,00094311632
2	1	0	0	0	7584,83	2,73793173	2,73794484	0,34849837236106432	6	-0,101246811	0,000954169314
2	1	0	0	0	7586,03	2,749933	2,75012469	0,35125788953155366	6	-0,100826271	0,00096600299
2	1	0	1	0	7587,23	2,7619338	2,76226473	0,35419609063925875	6	-0,100402474	0,000978383352
2	1	0	1	0	7588,43	2,77393508	2,77406335	0,35709210950881178	6	-0,0999752432	0,000990596134
2	1	0	0	0	7589,63	2,78593636	2,78634334	0,36042311570296582	6	-0,0995441526	0,00100426259
2	1	0	0	0	7590,83	2,79793739	2,7983427	0,36397075738447392	6	-0,0991090387	0,00101851486
2	1	0	1	0	7592,03	2,80993843	2,81018186	0,36793034469398214	6	-0,0986693799	0,00103395118
2	1	0	0	0	7593,23	2,82193971	2,82206082	0,37215902252743584	6	-0,0982247591	0,00105025538
2	1	0	0	0	7594,43	2,83394074	2,8339498	0,37704104643004576	6	-0,097774677	0,00106851535
2	1	0	1	0	7595,63	2,84594202	2,84608936	0,38255685567855782	6	-0,0973183215	0,00108879094
2	1	0	1	0	7596,83	2,85794306	2,85812902	0,38876911974512064	6	-0,0968550146	0,00111115235
2	1	0	0	0	7598,03	2,8699441	2,87022877	0,3950025651914375	6	-0,0963841379	0,00113374775
2	1	0	0	0	7599,23	2,88194537	2,88216782	0,40143730196481011	6	-0,0959055349	0,00115700962
2	1	0	1	0	7600,43	2,89394617	2,89415717	0,40716945411016422	6	-0,0954195485	0,00117841235
2	1	0	1	0	7601,63	2,90594745	2,90616655	0,41255368189751354	6	-0,0949270055	0,00119894976
2	1	0	0	0	7602,83	2,91794848	2,91825604	0,41714410871888141	6	-0,0944285244	0,00121733337
2	1	0	1	0	7604,03	2,92994976	2,92998481	0,42177330609410912	6	-0,0939243436	0,00123578939
2	1	0	1	0	7605,23	2,9419508	2,94228506	0,42656121589243411	6	-0,0934147537	0,00125506474
2	1	0	0	0	7606,43	2,95395184	2,9543345	0,43163962305212954	6	-0,09289933	0,00127520785
2	1	0	0	0	7607,63	2,96595287	2,96625352	0,43643777615701043	6	-0,0923780575	0,00129458506
2	1	0	1	0	7608,83	2,97795439	2,97817278	0,44173575829093536	6	-0,0918505266	0,00131556543
2	1	0	1	0	7610,03	2,98995543	2,99005175	0,44707104206706003	6	-0,0913166776	0,00133676559
2	1	0	0	0	7611,23	3,00195622	3,00202107	0,45283169237275891	6	-0,09077622	0,00135941023
2	1	0	0	0	7612,43	3,01395702	3,0142293	0,45833050264571629	6	-0,0902287215	0,0013815132
2	1	0	1	0	7613,63	3,02595854	3,0261302	0,46449695869038445	6	-0,0896743983	0,00140562828
2	1	0	0	0	7614,83	3,03795981	3,03812957	0,47035449789836902	6	-0,0891128629	0,00142899796
2	1	0	0	0	7616,03	3,04996085	3,05001855	0,47680735479419392	6	-0,0885440186	0,00145427126
2	1	0	1	0	7617,23	3,06196213	3,06232882	0,48294162563979514	6	-0,0879675895	0,00147892605
2	1	0	1	0	7618,43	3,07396317	3,07406735	0,48952494934201152	6	-0,0873835012	0,00150483265
2	1	0	0	0	7619,63	3,0859642	3,08586621	0,49635407530392154	6	-0,0867912024	0,00153168233
2	1	0	0	0	7620,83	3,09796596	3,09818816	0,50331879576393222	6	-0,086190708	0,00155937637
2	1	0	1	0	7622,03	3,10996675	3,11006546	0,51030551735311878	6	-0,0855817571	0,00158708356
2	1	0	0	0	7623,23	3,12196755	3,12207508	0,51775468622023802	6	-0,0849639997	0,001616469
2	1	0	0	0	7624,43	3,13396859	3,13404417	0,52545684017240954	6	-0,0843373761	0,00164680497
2	1	0	1	0	7625,63	3,14596987	3,14614344	0,53331238093475507	6	-0,0837015659	0,00167787727
2	1	0	1	0	7626,83	3,15797091	3,15815282	0,54113811471809894	6	-0,0830564797	0,00170899683
2	1	0	0	0	7628,03	3,16997194	3,17031288	0,54914397513493939	6	-0,0824017599	0,00174095819
2	1	0	0	0	7629,23	3,18197179	3,18220139	0,55730046587712678	6	-0,0817373917	0,00177344226
2	1	0	1	0	7630,43	3,19397402	3,19421124	0,56567196858425907	6	-0,08106298	0,00180687581
2	1	0	0	0	7631,63	3,20597506	3,20623064	0,57412266576041568	6	-0,0803784728	0,00184076966
2	1	0	0	0	7632,83	3,21797633	3,21816969	0,5825078507574903	6	-0,0796838477	0,00187460915
2	1	0	1	0	7634,03	3,22997737	3,23004889	0,59112484240904269	6	-0,0789788961	0,00190936215
2	1	0	1	0	7635,23	3,24197841	3,24196815	0,59992945396030746	6	-0,0782635882	0,00194495218
2	1	0	0	0	7636,43	3,25397992	3,25419855	0,60849581860626675	6	-0,0775378197	0,00198016618
2	1	0	0	0	7637,63	3,26598096	3,2662375	0,61716477960968947	6	-0,0768017843	0,00201580673
2	1	0	1	0	7638,83	3,277982	3,27817678	0,62589073786512243	6	-0,0760552287	0,00205178047
2	1	0	1	0	7640,03	3,2899828	3,29028535	0,63459812213524813	6	-0,0752981901	0,00208800891
2	1	0	0	0	7641,23	3,30198431	3,30210543	0,64299320289865139	6	-0,0745307654	0,0021232313
2	1	0	1	0	7642,43	3,31398535	3,31406474	0,65166076039895066	6	-0,0737529323	0,00215964601
2	1	0	1	0	7643,63	3,32598639	3,32603359	0,66033626471956544	6	-0,0729649216	0,00219630054
2	1	0	0	0	7644,83	3,33798742	3,33805323	0,66900163019696806	6	-0,0721666515	0,00223316299
2	1	0	0	0	7646,03	3,3499887	3,35023284	0,67708019617323955	6	-0,0713585019	0,00226837629
2	1	0	1	0	7647,23	3,36198974	3,36217237	0,68543081746126246	6	-0,0705401972	0,00230453652
2	1	0	1	0	7648,43	3,37399149	3,3740623	0,69345415151731866	6	-0,0697121397	0,00233975751
2	1	0	0	0	7649,63	3,38599229	3,38598061	0,70155913972606054	6	-0,0688744634	0,00237546558
2	1	0	1	0	7650,83	3,39799333	3,39819026	0,70939404920985267	6	-0,0680270866	0,00241065584
2	1	0	1	0	7652,03	3,40999436	3,41012955	0,71759120623270618	6	-0,0671702847	0,00244707894
2	1	0	0	0	7653,23	3,42199564	3,42224932	0,7253932454623264	6	-0,0663038343	0,00248247664
2	1	0	0	0	7654,43	3,43399668	3,43440914	0,7333920733071872	6	-0,0654279962	0,00251876842
2	1	0	1	0	7655,63	3,44599771	3,44622803	0,74119408413146726	6	-0,0645424724	0,00255432376
2	1	0	1	0	7656,83	3,45799875	3,45824718	0,7492690221406528	6	-0,0636475235	0,00259115756
2	1	0	0	0	7658,03	3,46999979	3,47015619	0,75730598128090432	6	-0,0627426803	0,00262796995
2	1	0	0	0	7659,23	3,48200083	3,48217583	0,76554082321333184	6	-0,0618281476	0,00266574766
2	1	0	1	0	7660,43	3,4940021	3,49423528	0,77371365592504307	6	-0,06090362	0,00270353747
2	1	0	0	0	7661,63	3,50600314	3,50606465	0,78238519281148915	6	-0,0599687807	0,00274309306
2	1	0	0	0	7662,83	3,51800418	3,5181942	0,79153223056346086	6	-0,0590236373	0,00278476416
2	1	0	1	0	7664,03	3,53000569	3,53000307	0,80088265178104384	6	-0,0580675267	0,00282711815
2	1	0	1	0	7665,23	3,54200673	3,54241347	0,81025268820424755	6	-0,0571003072	0,00287025003
2	1	0	0	0	7666,43	3,55400801	3,55433249	0,8201882584641353	6	-0,056121368	0,00291522173
2	1	0	0	0	7667,63	3,56600904	3,5663619	0,83047039403269722	6	-0,0551305003	0,00296175806
2	1	0	1	0	7668,83	3,57801008	3,57813072	0,84118667151778931	6	-0,0541268028	0,00300987577
2	1	0	0	0	7670,03	3,59001112	3,59009004	0,85216929359981824	6	-0,053110078	0,00305936439
2	1	0	0	0	7671,23	3,60201216	3,60238028	0,86367284941176512	6	-0,052079834	0,00311127794
2	1	0	1	0	7672,43	3,6140132	3,614259	0,87568951273957696	6	-0,0510353558	0,00316496869
2	1	0	1	0	7673,63	3,62601447	3,62615824	0,88839104026555661	6	-0,0499762371	0,00322144642
2	1	0	0	0	7674,83	3,63801551	3,63831806	0,90099849893401357	6	-0,0489017889	0,00327811902
2	1	0	0	0	7676,03	3,65001655	3,65006685	0,91455700031171008	6	-0,0478116721	0,00333819422
2	1	0	1	0	7677,23	3,66201806	3,66212606	0,92819257949789606	6	-0,0467050895	0,00339915813
2	1	0	0	0	7678,43	3,67401981	3,67432761	0,94274155203158643	6	-0,0455816127	0,00346394139
2	1	0	0	0	7679,63	3,68602014	3,68612504	0,95743670842299622	6	-0,0444406159	0,00352923153
2	1	0	1	0	7680,83	3,69802141	3,69818449	0,97294231504201536	6	-0,0432811789	0,00359812006
2	1	0	1	0	7682,03	3,71002245	3,71029449	0,98917258406678643	6	-0,042103041	0,00367012154
2	1	0	0	0	7683,27	3,72242355	3,72251415	1,0076730499664954	6	-0,0408641733	0,00375107722
2	1	0	0	0	7684,47	3,73442459	3,73449326	1,0249003491674885	6	-0,039644219	0,00382748339
2	1	0	1	0	7685,67	3,74642563	3,74657321	1,0423487368971096	6	-0,0384032093	0,00390523579
2	1	0	1	0	7686,87	3,75842667	3,75860238	1,0608454939598814	6	-0,0371407233	0,00398729648
2	1	0	0	0	7688,07	3,77042794	3,77074218	1,0794576086724774	6	-0,0358557068	0,00407035649
2	1	0	1	0	7689,27	3,78242874	3,78257108	1,0991502049541246	6	-0,0345479213	0,00415761396
2	1	0	1	0	7690,47	3,79443002	3,79451013	1,1189903309568763	6	-0,0332163461	0,00424602022
2	1	0	0	0	7691,68	3,80643153	3,80655003	1,1397821670398117	6	-0,0318600945	0,00433863793
2	1	0	0	0	7692,88	3,81843257	3,81855917	1,1612813419972837	6	-0,0304787587	0,00443442166
2	1	0	1	0	7694,08	3,83043361	3,8304584	1,1837328554441502	6	-0,0290708374	0,00453423942
2	1	0	1	0	7695,28	3,84243488	3,84255791	1,2062420916433112	6	-0,027636217	0,00463505508
2	1	0	0	0	7696,48	3,85443592	3,85447741	1,229860094686348	6	-0,0261734687	0,00474046776
2	1	0	0	0	7697,68	3,86643696	3,86649609	1,2539379354566336	6	-0,0246823449	0,00484834611
2	1	0	1	0	7698,88	3,878438	3,87872624	1,279031353071332	6	-0,0231615119	0,0049610124
2	1	0	0	0	7700,08	3,89043903	3,8905251	1,3043707190081512	6	-0,0216103289	0,00507468684
2	1	0	0	0	7701,28	3,90244031	3,90254474	1,3310153742010424	6	-0,0200278852	0,00519434689
2	1	0	1	0	7702,48	3,91444135	3,9146843	1,3590092944602166	6	-0,0184127968	0,0053200922
2	1	0	1	0	7703,68	3,92644238	3,92667389	1,3878549253568045	6	-0,0167641081	0,0054496536
2	1	0	0	0	7704,88	3,9384439	3,93878317	1,4172839811071754	6	-0,0150801428	0,00558237452
2	1	0	0	0	7706,08	3,95044494	3,95083308	1,4492179931451866	6	-0,0133597041	0,00572561845
2	1	0	1	0	7707,28	3,96244597	3,96244144	1,4814595828453677	6	-0,0116006294	0,00587019697
2	1	0	1	0	7708,48	3,97444654	3,97472072	1,5166080270085837	6	-0,00980119314	0,0060280934
2	1	0	0	0	7709,68	3,98644829	3,98658061	1,5530129211644307	6	-0,00795886572	0,00619121129
2	1	0	1	0	7710,88	3,99844933	3,99847913	1,5923490847150496	6	-0,00607075309	0,00636697467
2	1	0	1	0	7712,08	4,01045036	4,01054859	1,6342315332343168	6	-0,00413419539	0,00655416492
2	1	0	0	0	7713,28	4,0224514	4,02255821	1,6787801583607946	6	-0,00214562006	0,00675299112
2	1	0	0	0	7714,48	4,03445244	4,03458786	1,7254542609055859	6	-0,000102668317	0,00696149701
2	1	0	1	0	7715,68	4,04645348	4,04660702	1,7758553189535958	6	0,00199926388	0,00718618883
2	1	0	1	0	7716,88	4,05845451	4,05859566	1,8289782009106368	6	0,0041628168	0,00742308283
2	1	0	0	0	7718,08	4,07045603	4,07036543	1,885317367811993	6	0,00639245566	0,00767393084
2	1	0	0	0	7719,28	4,08245659	4,08279467	1,9445893901741629	6	0,00869131926	0,00793935917
2	1	0	1	0	7720,48	4,0944581	4,09458494	2,0077903351436045	6	0,0110638114	0,00822106842
2	1	0	0	0	7721,68	4,10645914	4,10659409	2,0747661963105203	6	0,0135143502	0,00852022227
2	1	0	0	0	7722,88	4,11846066	4,11888409	2,1454189574966733	6	0,0160465222	0,00883673225
2	1	0	1	0	7724,08	4,13046169	4,13055229	2,2194302280743939	6	0,0186660886	0,00916747283
2	1	0	1	0	7725,28	4,14246178	4,1425209	2,297915514939728	6	0,0213768035	0,00951916352
2	1	0	0	0	7726,48	4,15446377	4,15442133	2,3806803294767923	6	0,0241849385	0,00989034958
2	1	0	1	0	7727,68	4,16646481	4,16676092	2,4680792589982304	6	0,0270951111	0,0102838958
2	1	0	1	0	7728,88	4,17846584	4,17861032	2,5592971350997686	6	0,0301118176	0,0106943054
2	1	0	0	0	7730,08	4,19046688	4,19051933	2,6552975773811306	6	0,0332418457	0,0111270761
2	0	0	0	1	7731,21	4,1981678	4,19836855	2,6816048230975901	6	0,0362903439	0,0112583656
2	0	0	0	1	7732,41	4,18616772	4,18628836	2,4756985256248675	6	0,0393758751	0,0103639876
2	0	0	1	1	7733,61	4,17416573	4,17453051	2,3012444594254083	6	0,0422401838	0,00960661564
2	0	0	0	1	7734,81	4,16216469	4,16212988	2,1385448388755286	6	0,0449024253	0,0089009013
2	0	0	0	1	7736,01	4,15016365	4,15013075	1,9847993099441011	6	0,0473746061	0,00823717657
2	0	0	1	1	7737,21	4,13816261	4,13827181	1,8398800455033744	6	0,0496678576	0,00761392387
2	0	0	1	1	7738,41	4,1261611	4,12613201	1,7025500840196982	6	0,0517914481	0,00702494662
2	0	0	0	1	7739,61	4,11416006	4,11441326	1,5722597644974829	6	0,0537550002	0,00646892656
2	0	0	1	1	7740,81	4,10215807	4,1023612	1,449250214904591	6	0,0555664338	0,00594534772
2	0	0	1	1	7742,01	4,09015751	4,09036398	1,3322194544598424	6	0,0572335795	0,00544926245
2	0	0	0	1	7743,21	4,07815647	4,07824326	1,2211296218805536	6	0,0587640963	0,00498006353
2	0	0	0	1	7744,41	4,06615543	4,06629515	1,115908722393213	6	0,0601645596	0,00453761406
2	0	0	1	1	7745,61	4,0541544	4,05426598	1,0164888119325006	6	0,0614425279	0,0041211159
2	0	0	1	1	7746,81	4,04215336	4,04224682	0,92217815791567142	6	0,0626037791	0,00372767169
2	0	0	0	1	7748,01	4,03015232	4,03039789	0,83282628407080845	6	0,0636552349	0,00335662137
2	0	0	0	1	7749,21	4,01815128	4,01834774	0,74797030321011878	6	0,0646022931	0,00300560473
2	0	0	1	1	7750,41	4,00615025	4,00627899	0,66850583100070438	6	0,0654510409	0,00267822086
2	0	0	0	1	7751,61	3,99414897	3,9940486	0,59328866424038874	6	0,0662070215	0,00236962386
2	0	0	0	1	7752,81	3,98214793	3,98207927	0,52227972913533536	6	0,0668751821	0,00207975926
2	0	0	1	1	7754,05	3,96974683	3,96990943	0,45231939557318854	6	0,0674781278	0,00179566699
2	0	0	1	1	7755,25	3,95774531	3,95788026	0,38931643745551424	6	0,0679819137	0,00154086784
2	0	0	0	1	7756,45	3,94574428	3,94604111	0,33036701994327181	6	0,0684126541	0,00130364182
2	0	0	0	1	7757,65	3,93374324	3,93395162	0,27458473636458214	6	0,0687743649	0,0010802031
2	0	0	1	1	7758,85	3,9217422	3,92200232	0,22236161896338035	6	0,0690713823	0,000872102799
2	0	0	1	1	7760,05	3,90974164	3,9098525	0,17302566453976765	6	0,0693074092	0,000676504802
2	0	0	0	1	7761,25	3,89773989	3,89792395	0,12729370768647586	6	0,0694864541	0,000496181194
2	0	0	1	1	7762,45	3,88573885	3,88601422	0,084139987360685786	6	0,0696120933	0,000326969195
2	0	0	1	1	7763,69	3,87333775	3,8734436	0,042719616661391622	6	0,0696896687	0,000165472025
2	0	0	0	1	7764,89	3,86133623	3,86163473	0,0053598359033154918	6	0,0697174519	2,06977293E-005
2	0	0	0	1	7766,17	3,84853506	3,84858274	-0,03161487797236384	6	0,0696996376	0,00012167247
2	0	0	1	1	7767,37	3,83653402	3,83654308	-0,064149768790230272	6	0,0696411133	0,000246113341
2	0	0	1	1	7768,57	3,8245337	3,82472563	-0,094398140141173709	6	0,0695448294	0,000361046987
2	0	0	0	1	7769,81	3,81213188	3,81222367	-0,12411565795385605	6	0,0694080219	0,000473156659
2	0	0	1	1	7771,01	3,80013084	3,80016398	-0,15164053816503565	6	0,0692414343	0,000576258928
2	0	0	1	1	7772,21	3,78812981	3,78820467	-0,17770540613370666	6	0,0690430775	0,000673184462
2	0	0	0	1	7773,41	3,77612853	3,77625585	-0,20198915347767344	6	0,0688144714	0,000762762735
2	0	0	0	1	7774,61	3,76412749	3,76431632	-0,22561264224350518	6	0,0685571581	0,000849277363
2	0	0	1	1	7775,81	3,75212646	3,75249743	-0,24782041111029683	6	0,0682723448	0,00092994544
2	0	0	1	1	7777,01	3,74012423	3,74028587	-0,26944790182731014	6	0,0679613054	0,00100781221
2	0	0	0	1	7778,21	3,7281239	3,72847915	-0,28929654198388243	6	0,0676251128	0,00107863615
2	0	0	1	1	7779,41	3,7161231	3,71602845	-0,30962936013626586	6	0,0672648475	0,00115059153
2	0	0	1	1	7780,61	3,70412159	3,70422935	-0,3285504179075369	6	0,0668811947	0,00121702615
2	0	0	0	1	7781,81	3,69212055	3,69232035	-0,34722739675392678	6	0,0664748996	0,00128207484
2	0	0	0	1	7783,01	3,68011951	3,68041134	-0,36501085595227802	6	0,0660466775	0,00134339009
2	0	0	1	1	7784,21	3,66811848	3,66821122	-0,3826375625406704	6	0,0655971766	0,00140359544
2	0	0	1	1	7785,41	3,65611744	3,65626216	-0,39945360242078822	6	0,06512703	0,00146050705
2	0	0	0	1	7786,61	3,64411616	3,64429259	-0,41603534560029766	6	0,0646367595	0,0015161545
2	0	0	1	1	7787,81	3,63211393	3,63232446	-0,43177776567550464	6	0,0641269237	0,00156835699
2	0	0	1	1	7789,01	3,62011409	3,62042427	-0,44739740264291597	6	0,063598305	0,00161976845
2	0	0	0	1	7790,21	3,60811305	3,60845494	-0,4627871137733255	6	0,0630512014	0,00166994648
2	0	0	0	1	7791,41	3,59611154	3,5964756	-0,47733174124732794	6	0,0624865517	0,00171671191
2	0	0	1	1	7792,61	3,58411074	3,58414531	-0,49111551682775277	6	0,0619047321	0,00176022935
2	0	0	1	1	7793,81	3,57210922	3,57238674	-0,50476920527095629	6	0,0613064989	0,00180323084
2	0	0	0	1	7795,02	3,56010818	3,56045723	-0,5174815591114279	6	0,0606923737	0,00184247096
2	0	0	0	1	7796,22	3,54810715	3,54813743	-0,52994866420825293	6	0,0600632839	0,00188033073
2	0	0	1	1	7797,42	3,53610611	3,53626847	-0,54133069096133248	6	0,0594197512	0,00191429071
2	0	0	0	1	7798,62	3,52410483	3,52425814	-0,55232893585386656	6	0,0587626211	0,00194654975
2	0	0	0	1	7799,82	3,5121038	3,51241994	-0,56266425487896045	6	0,0580928698	0,00197631307
2	0	0	1	1	7801,02	3,50010276	3,50029039	-0,57252644111091834	6	0,0574109145	0,00200400874
2	0	0	1	1	7802,22	3,48810172	3,48795009	-0,58130096225067968	6	0,0567178689	0,00202754885
2	0	0	0	1	7803,42	3,47610068	3,47608089	-0,58986122440546752	6	0,05601421	0,00205040537
2	0	0	0	1	7804,62	3,46409917	3,4641819	-0,59737796336412518	6	0,0553010628	0,002069426
2	0	0	1	1	7805,82	3,45209837	3,45236301	-0,60457182954997005	6	0,054578945	0,00208720146
2	0	0	1	1	7807,02	3,44009733	3,44029307	-0,61054176868250035	6	0,0538489483	0,00210044254
2	0	0	0	1	7808,22	3,42809582	3,4282341	-0,61644590506330138	6	0,0531115346	0,00211332086
2	0	0	1	1	7809,42	3,41609478	3,41639519	-0,62163675576448525	6	0,05236765	0,0021237568
2	0	0	1	1	7810,62	3,40409374	3,40444589	-0,62631314387545306	6	0,0516182184	0,0021322493
2	0	0	0	1	7811,82	3,3920927	3,39238644	-0,62991619327415923	6	0,0508636907	0,00213691918
2	0	0	0	1	7813,02	3,38009143	3,38030672	-0,63342479787146112	6	0,050104972	0,0021411702
2	0	0	1	1	7814,22	3,36809039	3,36827731	-0,63608504754180826	6	0,0493424907	0,00214251084
2	0	0	1	1	7815,42	3,35608935	3,35639811	-0,63855253222088051	6	0,0485771373	0,00214323658
2	0	0	0	1	7816,62	3,34408832	3,34440875	-0,63990170027439834	6	0,0478093103	0,0021400929
2	0	0	0	1	7817,82	3,33208799	3,33207059	-0,64138968557605478	6	0,0470398627	0,00213715574
2	0	0	1	1	7819,02	3,320086	3,32013965	-0,64201559560994253	6	0,0462689921	0,00213158154
2	0	0	0	1	7820,22	3,30808496	3,30808997	-0,64260361483320768	6	0,0454973504	0,00212579058
2	0	0	0	1	7821,42	3,29608345	3,29623103	-0,6424481308398153	6	0,0447256342	0,00211765757
2	0	0	1	1	7822,62	3,28408241	3,28437185	-0,64210944343358272	6	0,0439540558	0,00210892619
2	0	0	1	1	7823,82	3,27208138	3,27268314	-0,64134748745709837	6	0,0431831554	0,00209892704
2	0	0	0	1	7825,02	3,26008034	3,26018286	-0,64041813261186317	6	0,0424131826	0,00208788016
2	0	0	0	1	7826,22	3,24807978	3,24818134	-0,63908590323062157	6	0,0416445956	0,0020758668
2	0	0	1	1	7827,42	3,23607802	3,23618388	-0,63762588333338406	6	0,0408774763	0,00206347462
2	0	0	0	1	7828,62	3,22407699	3,22398424	-0,63620543604095872	6	0,0401122421	0,0020511162
2	0	0	0	1	7829,82	3,21207595	3,2123754	-0,63455698701242726	6	0,0393492952	0,00203843531
2	0	0	1	1	7831,02	3,20007491	3,20034647	-0,63237073070680333	6	0,0385884829	0,0020238054
2	0	0	1	1	7832,22	3,18807364	3,18825674	-0,63028035561243814	6	0,0378303565	0,00200949563
2	0	0	0	1	7833,42	3,1760726	3,17619729	-0,62796894445394534	6	0,0370747261	0,00199455325
2	0	0	0	1	7834,62	3,16407156	3,16414785	-0,62579859917362765	6	0,0363219492	0,00198011938
2	0	0	1	1	7835,82	3,15207005	3,15236878	-0,62320740334689702	6	0,0355719179	0,00196457957
2	0	0	1	1	7837,02	3,1400702	3,14026904	-0,62068195051878221	6	0,0348249264	0,00194910832
2	0	0	0	1	7838,22	3,12806797	3,12826991	-0,61815569673975539	6	0,0340808704	0,00193375791
2	0	0	1	1	7839,42	3,11606693	3,11640096	-0,61581981477017408	6	0,0333398171	0,0019191415
2	0	0	0	1	7840,56	3,10466647	3,105124	-0,6134526783769783	6	0,0326403044	0,00190484663