File: Experimentelles/Rohdaten/Batteriemessungen/AlteZelle/Studenten_Batterietests/Sonstige/ECLab-Export/LiCoO2 vs Li_05_GCPL_C01_loop6.mpt
EC-Lab ASCII FILE
Nb header lines : 3
mode	ox/red	error	control changes	Ns changes	counter inc.	Ns	time/s	control/V/mA	Ewe/V	dq/mA.h	<I>/mA	P/W	(Q-Qo)/mA.h	x	Capacity/mA.h
1	0	0	1	1	0	1	221214,67	-0,100000001	4,19595051	0	0	0	0	0	0
1	0	0	1	0	0	1	221294,67	-0,100000001	3,8871665	-0,0002777152764917248	-0,099977483894324595	0,000388629123	-0,0022203459672780717	8,2844093326047885E-005	0,0022203459672780717
1	0	0	1	0	0	1	221374,67	-0,100000001	3,8526237	-0,00027771513817914662	-0,099977434101804237	0,00038517543	-0,004442068131410601	0,0001657395344070519	0,004442068131410601
1	0	0	1	0	0	1	221454,67	-0,100000001	3,83368158	-0,00027771594202311501	-0,099977723485587571	0,00038328275	-0,006663790802904489	0,00024863499441839043	0,006663790802904489
1	0	0	1	0	0	1	221534,67	-0,100000001	3,81968498	-0,00027771411318870058	-0,099977065105301402	0,000381880905	-0,008885509342998039	0,00033153030028162752	0,008885509342998039
1	0	0	1	0	0	1	221614,67	-0,100000001	3,80790353	-0,0002777146639873584	-0,099977263392787187	0,000380703772	-0,011107220017222669	0,00041442531265871949	0,011107220017222669
1	0	0	1	0	0	1	221694,67	-0,100000001	3,79747772	-0,00027771401919879846	-0,099977031268941926	0,000379660545	-0,013328935984754501	0,0004973205225362201	0,013328935984754501
1	0	0	1	0	0	1	221774,67	-0,100000001	3,78798747	-0,00027771417557117011	-0,099977087562986918	0,000378711964	-0,015550648320660186	0,0005802155969128663	0,015550648320660186
1	0	0	1	0	0	1	221854,67	-0,100000001	3,77929926	-0,00027771477045408554	-0,09997730172080297	0,000377844146	-0,017772365969497898	0,00066311086952214989	0,017772365969497898
1	0	0	1	0	0	1	221934,67	-0,100000001	3,77112675	-0,00027771480039921069	-0,099977312501046323	0,000377027114	-0,019994084358132733	0,00074600616973425882	0,019994084358132733
1	0	0	1	0	0	1	222014,67	-0,100000001	3,7633934	-0,00027771474961812298	-0,099977294219857626	0,000376253884	-0,022215803427563546	0,00082890149534778086	0,022215803427563546
1	0	0	1	0	0	1	222094,67	-0,100000001	3,75581264	-0,00027771549063755408	-0,099977560986811072	0,00037549698	-0,024437524236545981	0,00091179688586631283	0,024437524236545981
1	0	0	1	0	0	1	222174,67	-0,100000001	3,74872851	-0,00027771581632023059	-0,099977678232556262	0,000374789175	-0,026659248424049242	0,00099469240244199936	0,026659248424049242
1	0	0	1	0	0	1	222254,67	-0,100000001	3,74179697	-0,00027771516576326557	-0,099977444032085517	0,000374095311	-0,028880972233409043	0,001077587904908645	0,028880972233409043
1	0	0	1	0	0	1	222334,67	-0,100000001	3,73519015	-0,00027771540738725002	-0,099977531016706291	0,00037343509	-0,031102694769307328	0,0011604833598607293	0,031102694769307328
1	0	0	1	0	0	1	222414,67	-0,100000001	3,72858334	-0,0002777154694340295	-0,099977553353543411	0,000372774637	-0,033324422004019411	0,0012433789901318738	0,033324422004019411
1	0	0	1	0	0	1	222494,67	-0,100000001	3,72235823	-0,00027771597111928794	-0,099977733960208205	0,00037215295	-0,035546150361285216	0,001326274662287007	0,035546150361285216
1	0	0	1	0	0	1	222574,67	-0,100000001	3,71615243	-0,00027771622691758803	-0,099977826047581824	0,000371532835	-0,037767883326773203	0,0014091705063811059	0,037767883326773203
1	0	0	1	0	0	1	222654,67	-0,100000001	3,70992756	-0,00027771677592479517	-0,099978023690145472	0,000370911235	-0,039989614974610694	0,0014920663013118931	0,039989614974610694
1	0	0	1	0	0	1	222734,67	-0,100000001	3,70416093	-0,0002777167874082095	-0,09997802782417399	0,000370334717	-0,042211347692558528	0,001574962136169936	0,042211347692558528
1	0	0	1	0	0	1	222814,67	-0,100000001	3,6980505	-0,00027771623697918323	-0,09997782967441111	0,000369723071	-0,044433081362329626	0,001657858006541784	0,044433081362329626
1	0	0	1	0	0	1	222894,67	-0,100000001	3,69232202	-0,00027771726477021971	-0,099978199674470771	0,000369151705	-0,046654815461009523	0,0017407538929167968	0,046654815461009523
1	0	0	1	0	0	1	222974,67	-0,100000001	3,68642163	-0,00027771589186497862	-0,099977705428661299	0,000368559966	-0,048876545352687226	0,0018236496223229011	0,048876545352687226
1	0	0	1	0	0	1	223054,67	-0,100000001	3,6808269	-0,00027771575404041344	-0,0999776558118256	0,000368000445	-0,051098272359210784	0,0019065452440800253	0,051098272359210784
1	0	0	1	0	0	1	223134,67	-0,100000001	3,67498398	-0,00027771657644170854	-0,099977951876245517	0,000367417379	-0,053320003249259667	0,0019894410107367005	0,053320003249259667
1	0	0	1	0	0	1	223214,67	-0,100000001	3,66931272	-0,00027771696391825875	-0,099978091367781773	0,000366850873	-0,055541738397399379	0,0020723369362684694	0,055541738397399379
1	0	0	1	0	0	1	223294,67	-0,100000001	3,6636796	-0,0002777177624963224	-0,099978378855839693	0,000366288761	-0,057763479296231642	0,0021552330763663098	0,057763479296231642
1	0	0	1	0	0	1	223374,67	-0,100000001	3,65804672	-0,00027771708935913114	-0,099978136526488768	0,0003657247	-0,059985213946037197	0,0022381289833045613	0,059985213946037197
1	0	0	1	0	0	1	223454,67	-0,100000001	3,65241361	-0,00027771706861298944	-0,099978129057878925	0,000365161482	-0,062206950375673459	0,0023210249566506902	0,062206950375673459
1	0	0	1	0	0	1	223534,67	-0,100000001	3,64674258	-0,00027771670960759123	-0,099977999815955789	0,000364594016	-0,064428683329376294	0,0024039208003050688	0,064428683329376294
1	0	0	1	0	0	1	223614,67	-0,100000001	3,64114761	-0,00027771701354492042	-0,099978109233377178	0,000364035048	-0,066650423347840909	0,0024868169075552083	0,066650423347840909
1	0	0	1	0	0	1	223694,67	-0,100000001	3,6354382	-0,00027771729888725613	-0,099978211956601958	0,000363464613	-0,068872160866269414	0,0025697129215256397	0,068872160866269414
1	0	0	1	0	0	1	223774,67	-0,100000001	3,62970996	-0,00027771653735720448	-0,099977937805826253	0,000362890918	-0,07109389491238464	0,0026526088059393936	0,07109389491238464
1	0	0	1	0	0	1	223854,67	-0,100000001	3,62396216	-0,00027771726183758842	-0,099978198618723661	0,000362317223	-0,073315629580221005	0,002735504713550399	0,073315629580221005
1	0	0	1	0	0	1	223934,67	-0,100000001	3,61813831	-0,00027771672949939965	-0,099978006977005696	0,000361734245	-0,075537365294285696	0,0028184006601975901	0,075537365294285696
1	0	0	1	0	0	1	224014,67	-0,100000001	3,61235261	-0,00027771683598806464	-0,099978045312919091	0,000361155951	-0,077759099631988518	0,0029012965554908691	0,077759099631988518
1	0	0	1	0	0	1	224094,67	-0,100000001	3,60635686	-0,00027771674446306294	-0,099978012368579226	0,000360556383	-0,079980832434627507	0,0029841923935088525	0,079980832434627507
1	0	0	1	0	0	1	224174,67	-0,100000001	3,6005137	-0,00027771609840376506	-0,0999777797826128	0,000359971367	-0,082202563039533952	0,0030670881495264806	0,082202563039533952
1	0	0	1	0	0	1	224254,67	-0,100000001	3,59451795	-0,00027771608773991469	-0,099977775943627251	0,000359371916	-0,084424289850308826	0,0031499837639799578	0,084424289850308826
1	0	0	1	0	0	1	224334,67	-0,100000001	3,58842659	-0,00027771536384026211	-0,099977515339793101	0,000358761987	-0,086646015533022746	0,0032328793363439642	0,086646015533022746
1	0	0	1	0	0	1	224414,67	-0,100000001	3,58223987	-0,00027771554886425536	-0,09997758194842025	0,000358143676	-0,088867739561057075	0,0033157748469696506	0,088867739561057075
1	0	0	1	0	0	1	224494,67	-0,100000001	3,57603407	-0,00027771536646617782	-0,099977516285122611	0,000357523008	-0,091089465056975821	0,0033986704123640781	0,091089465056975821
1	0	0	1	0	0	1	224574,67	-0,100000001	3,56971359	-0,00027771624577086835	-0,099977832834761677	0,00035689224	-0,093311191601801818	0,0034815660168946451	0,093311191601801818
1	0	0	1	0	0	1	224654,67	-0,100000001	3,56341243	-0,00027771606937754483	-0,099977769333175142	0,000356262026	-0,095532919655192384	0,003564461677711785	0,095532919655192384
1	0	0	1	0	0	1	224734,67	-0,100000001	3,55726385	-0,00027771469682289494	-0,099977275213578496	0,000355645549	-0,097754639991414374	0,0036473570505909888	0,097754639991414374
1	0	0	1	0	0	1	224814,67	-0,100000001	3,55052328	-0,00027771496632405456	-0,099977372233980774	0,000354971999	-0,099976358595985677	0,0037302523588599776	0,099976358595985677
1	0	0	1	0	0	1	224894,67	-0,100000001	3,54401183	-0,00027771506269317536	-0,099977406926858829	0,000354321121	-0,10219807981365896	0,0038131477646273146	0,10219807981365896
1	0	0	1	0	0	1	224974,67	-0,100000001	3,53755784	-0,00027771514975031219	-0,099977438267423194	0,000353675976	-0,10441980101636072	0,0038960431698360435	0,10441980101636072
1	0	0	1	0	0	1	225054,67	-0,100000001	3,53083634	-0,00027771570837083789	-0,099977639370780979	0,000353004696	-0,10664152794030533	0,0039789387885120365	0,10664152794030533
1	0	0	1	0	0	1	225134,67	-0,100000001	3,52392411	-0,00027771518666711117	-0,099977451557468749	0,000352312956	-0,10886324679529933	0,004061834106124633	0,10886324679529933
1	0	0	1	0	0	1	225214,67	-0,100000001	3,51720262	-0,00027771486183504266	-0,099977334617942374	0,000351640541	-0,11108496627587469	0,0041447294470785114	0,11108496627587469
1	0	0	1	0	0	1	225294,67	-0,100000001	3,51011848	-0,00027771478932806189	-0,099977308515433382	0,000350932212	-0,11330668529086122	0,0042276247706606432	0,11330668529086122
1	0	0	1	0	0	1	225374,67	-0,100000001	3,50293875	-0,00027771457904949782	-0,099977232819817728	0,000350214134	-0,1155284019867796	0,004310520007715225	0,1155284019867796
1	0	0	1	0	0	1	225454,67	-0,100000001	3,49577808	-0,00027771358443134362	-0,099976874752682675	0,000349496957	-0,11775011268495288	0,0043934150209858739	0,11775011268495288
1	0	0	1	0	0	1	225534,67	-0,100000001	3,48848391	-0,00027771387935678163	-0,099976980925823744	0,000348768081	-0,1199718231570391	0,0044763100258209101	0,1199718231570391
1	0	0	1	0	0	1	225614,67	-0,100000001	3,48097968	-0,00027771373901640374	-0,099976930403295616	0,000348017667	-0,12219353149466606	0,0045592049510164006	0,12219353149466606
1	0	0	1	0	0	1	225694,67	-0,100000001	3,47353268	-0,00027771417643295395	-0,099977087873229056	0,000347273686	-0,12441524462911171	0,0046421000551876467	0,12441524462911171
1	0	0	1	0	0	1	225774,67	-0,100000001	3,46570373	-0,00027771473022426166	-0,099977287238068646	0,000346491666	-0,12663695785805141	0,0047249951628845933	0,12663695785805141
1	0	0	1	0	0	1	225854,67	-0,100000001	3,45795107	-0,00027771409016930397	-0,09997705681831991	0,000345715758	-0,12885867377930182	0,0048078903710352723	0,12885867377930182
1	0	0	1	0	0	1	225934,67	-0,100000001	3,4500649	-0,00027771469472762611	-0,09997727445928183	0,000344928092	-0,13108039220994717	0,0048907856728148486	0,13108039220994717
1	0	0	1	0	0	1	226014,67	-0,100000001	3,44204521	-0,00027771567062619661	-0,099977625782712243	0,000344127504	-0,13330211356031032	0,004973681083533024	0,13330211356031032
1	0	0	1	0	0	1	226094,67	-0,100000001	3,43402529	-0,00027771586730910669	-0,0999776965885488	0,000343325926	-0,1355238377888725	0,0050565766016406739	0,1355238377888725
1	0	0	1	0	0	1	226174,67	-0,100000001	3,42575717	-0,0002777152255980505	-0,09997746557260471	0,000342498533	-0,13774556074975974	0,0051394720724496678	0,13774556074975974
1	0	0	1	0	0	1	226254,67	-0,100000001	3,41729808	-0,00027771520419294634	-0,09997745786676841	0,000341652776	-0,13996728310282578	0,0052223675205800346	0,13996728310282578
1	0	0	1	0	0	1	226334,67	-0,100000001	3,40874362	-0,00027771464999889334	-0,099977258356940557	0,000340796832	-0,14218900447345206	0,0053052629320542541	0,14218900447345206
1	0	0	1	0	0	1	226414,67	-0,100000001	3,4001317	-0,00027771467927719155	-0,099977268897126259	0,000339935883	-0,14441072631504525	0,0053881583611008813	0,14441072631504525
1	0	0	1	0	0	1	226494,67	-0,100000001	3,3912909	-0,00027771548531038893	-0,09997755906903191	0,000339052989	-0,1466324475999919	0,005471053769378279	0,1466324475999919
1	0	0	1	0	0	1	226574,67	-0,100000001	3,38243079	-0,00027771557589413392	-0,099977591679175014	0,000338167272	-0,14885417538520755	0,0055539494201894509	0,14885417538520755
1	0	0	1	0	0	1	226654,67	-0,100000001	3,37326527	-0,00027771531856598125	-0,099977499045710118	0,000337250618	-0,15107590107166582	0,0056368449926931648	0,15107590107166582
1	0	0	1	0	0	1	226734,67	-0,100000001	3,36377501	-0,00027771538881543613	-0,099977524330854336	0,000336301891	-0,15329762567503398	0,0057197405247853299	0,15329762567503398
1	0	0	1	0	0	1	226814,67	-0,100000001	3,35426593	-0,00027771519412679808	-0,09997745424295561	0,000335350982	-0,15551934606767968	0,0058026358997697779	0,15551934606767968
1	0	0	1	0	0	1	226894,67	-0,100000001	3,34448934	-0,00027771497987334928	-0,099977377111726106	0,000334373268	-0,15774106410254275	0,0058855311867821862	0,15774106410254275
1	0	0	1	0	0	1	226974,67	-0,100000001	3,33457899	-0,00027771462205383514	-0,099977248296721165	0,00033338202	-0,15996278137072659	0,0059684264451887629	0,15996278137072659
1	0	0	1	0	0	1	227054,67	-0,100000001	3,32443953	-0,00027771506010244291	-0,099977405994195302	0,000332368829	-0,16218449882687578	0,0060513217106085786	0,16218449882687578
1	0	0	1	0	0	1	227134,67	-0,100000001	3,31430006	-0,00027771486322912906	-0,099977335119813414	0,00033135488	-0,16440621692940048	0,0061342170001455334	0,16440621692940048
1	0	0	1	0	0	1	227214,67	-0,100000001	3,30374074	-0,00027771542535763648	-0,099977537486044403	0,000330299867	-0,16662793810096506	0,0062171124041924915	0,16662793810096506
1	0	0	1	0	0	1	227294,67	-0,100000001	3,29331493	-0,00027771510642808346	-0,099977422671423283	0,000329257135	-0,16884965869549533	0,0063000077867095258	0,16884965869549533
1	0	0	1	0	0	1	227374,67	-0,100000001	3,28237343	-0,00027771609460189939	-0,099977778413941376	0,000328164402	-0,17107138490166058	0,0063829033786042048	0,17107138490166058
1	0	0	1	0	0	1	227454,67	-0,100000001	3,27131748	-0,00027771493942249149	-0,099977362549419584	0,0003270577	-0,1732931089071983	0,0064657988883905126	0,1732931089071983
1	0	0	1	0	0	1	227534,67	-0,100000001	3,26003242	-0,00027771604763757853	-0,099977761506788493	0,000325930741	-0,17551483182402819	0,0065486943575556672	0,17551483182402819
1	0	0	1	0	0	1	227614,67	-0,100000001	3,2485373	-0,00027771488003556931	-0,099977341170130944	0,000324780121	-0,17773655498082765	0,006631589835674409	0,17773655498082765
1	0	0	1	0	0	1	227694,67	-0,100000001	3,23669839	-0,00027771598012869558	-0,099977737203594445	0,000323597778	-0,17995827554511395	0,006714485217062999	0,17995827554511395
1	0	0	1	0	0	1	227774,67	-0,100000001	3,22484064	-0,00027771584264064829	-0,099977687707905165	0,000322412117	-0,18217999982541914	0,0067973807371012506	0,18217999982541914
1	0	0	1	0	0	1	227854,67	-0,100000001	3,21258163	-0,00027771549829964838	-0,099977563745164582	0,000321186089	-0,18440172073700304	0,0068802761314479808	0,18440172073700304
1	0	0	1	0	0	1	227934,67	-0,100000001	3,20015073	-0,00027771504977262682	-0,099977402280117658	0,000319942745	-0,18662344151072147	0,0069631715206507648	0,18662344151072147
1	0	0	1	0	0	1	228014,67	-0,100000001	3,18749094	-0,00027771499053181875	-0,099977380948774541	0,00031867699	-0,18884516664744976	0,0070460670726433152	0,18884516664744976
1	0	0	1	0	0	1	228094,67	-0,100000001	3,1745255	-0,00027771446561771958	-0,099977191979728384	0,000317380152	-0,19106688441627456	0,0071289623497294771	0,19106688441627456
1	0	0	1	0	0	1	228174,67	-0,100000001	3,16100621	-0,00027771467878462538	-0,099977268719802458	0,000316028774	-0,19328860103402643	0,007211857583867561	0,19328860103402643
1	0	0	1	0	0	1	228254,67	-0,100000001	3,1476016	-0,00027771480754431754	-0,09997731507328439	0,000314688747	-0,19551031716083139	0,0072947527996877568	0,19551031716083139
1	0	0	1	0	0	1	228334,67	-0,100000001	3,13370061	-0,00027771493611153629	-0,099977361357475917	0,000313299126	-0,19773203436464013	0,0073776480556924109	0,19773203436464013
1	0	0	1	0	0	1	228414,67	-0,100000001	3,11949396	-0,00027771414692327382	-0,099977077249745856	0,000311877899	-0,1999537506138519	0,0074605432760797696	0,1999537506138519
1	0	0	1	0	0	1	228494,67	-0,100000001	3,10488629	-0,00027771542842023901	-0,099977538588581146	0,000310418895	-0,20217546819315955	0,0075434385460947917	0,20217546819315955
1	0	0	1	0	0	1	228574,67	-0,100000001	3,08993506	-0,00027771476401885354	-0,099977299404119795	0,000308923365	-0,20439718663546509	0,0076263338483094272	0,20439718663546509
1	0	0	1	0	0	1	228654,67	-0,100000001	3,07471633	-0,00027771549916846886	-0,099977564057939904	0,000307402661	-0,2066189091281736	0,0077092293016500429	0,2066189091281736
1	0	0	1	0	0	1	228734,67	-0,100000001	3,05913496	-0,00027771516314852573	-0,099977443090779315	0,0003058445	-0,20884063126360448	0,0077921247416601498	0,20884063126360448
1	0	0	1	0	0	1	228814,67	-0,100000001	3,04309511	-0,00027771497496590019	-0,099977375345044723	0,000304240675	-0,21106235413437734	0,0078750202091068544	0,21106235413437734
1	0	0	1	0	0	1	228894,67	-0,100000001	3,02667356	-0,00027771513947637542	-0,099977434568806528	0,000302599045	-0,21328407409469603	0,0079579155679606016	0,21328407409469603
1	0	0	1	0	0	1	228974,67	-0,100000001	3,00987005	-0,00027771545175545741	-0,09997754698925847	0,000300919433	-0,21550579551451882	0,0080408109812704077	0,21550579551451882
1	0	0	1	0	0	1	229054,67	-0,100000001	2,99257016	-0,00027771468537052474	-0,099977271090725862	0,000299189007	-0,21772751473899286	0,0081237063126688026	0,21772751473899286
1	0	0	1	0	0	1	229134,67	-0,100000001	2,97484994	-0,00027771522336039277	-0,099977464767048064	0,000297417952	-0,21994923479206755	0,0082066016749833997	0,21994923479206755
1	0	0	1	0	0	1	229214,67	-0,100000001	2,95659518	-0,0002777143659351601	-0,099977156098668134	0,000295591977	-0,22217095270527872	0,0082894969574568115	0,22217095270527872
1	0	0	1	0	0	1	229294,67	-0,100000001	2,93782496	-0,00027771483142425613	-0,099977323670060941	0,000293715886	-0,22439266945313805	0,0083723921964493798	0,22439266945313805
1	0	0	1	0	0	1	229374,67	-0,100000001	2,91859651	-0,00027771420349470445	-0,099977097615457715	0,000291792821	-0,22661438638796512	0,0084552874424179674	0,22661438638796512
1	0	0	1	0	0	1	229454,67	-0,100000001	2,89887142	-0,00027771487183537747	-0,099977338218062349	0,000289821444	-0,2288361016916303	0,0085381826275257101	0,2288361016916303
1	0	0	1	0	0	1	229534,67	-0,100000001	2,87874532	-0,00027771528926698698	-0,099977488493418253	0,000287809729	-0,23105781768767587	0,0086210778384670976	0,23105781768767587
1	0	0	1	0	0	1	229614,67	-0,100000001	2,85802746	-0,00027771461803631648	-0,099977246850414694	0,000285737711	-0,23327953266434304	0,0087039730113741056	0,23327953266434304
1	0	0	1	0	0	1	229694,67	-0,100000001	2,83713746	-0,00027771444210824042	-0,09997718351631721	0,000283649017	-0,23550125242045952	0,0087868683626087936	0,23550125242045952
1	0	0	1	0	0	1	229774,67	-0,100000001	2,81567478	-0,00027771517330242525	-0,099977446746182554	0,000281503977	-0,23772297070239421	0,008869763658839776	0,23772297070239421
1	0	0	1	0	0	1	229854,67	-0,100000001	2,79381132	-0,00027771486139090525	-0,099977334458052941	0,000279317814	-0,23994469099608829	0,0089526590301322061	0,23994469099608829
1	0	0	1	0	0	1	229934,67	-0,100000001	2,77187109	-0,00027771408740720813	-0,099977055823965568	0,000277123501	-0,24216641018270179	0,0090355543601179725	0,24216641018270179
1	0	0	1	0	0	1	230014,67	-0,100000001	2,74956822	-0,00027771524110560618	-0,099977471155323878	0,000274894875	-0,24438812651258928	0,0091184495835154496	0,24438812651258928
1	0	0	1	0	0	1	230094,67	-0,100000001	2,7269218	-0,00027771418227503696	-0,099977089976378598	0,000272629695	-0,24660984199457507	0,009201344775276576	0,24660984199457507
1	0	0	1	0	0	1	230174,67	-0,100000001	2,70412254	-0,00027771461234407293	-0,099977244801207334	0,00027035072	-0,24883156020326144	0,0092842400687745638	0,24883156020326144
1	0	0	1	0	0	1	230254,67	-0,100000001	2,68099856	-0,00027771464479673242	-0,099977256484162918	0,000268038886	-0,25105327730321453	0,009367135320904224	0,25105327730321453
1	0	0	1	0	0	1	230334,67	-0,100000001	2,65806556	-0,00027771540730363792	-0,099977530986605939	0,000265746843	-0,25327500131030938	0,009450030830748631	0,25327500131030938
1	0	0	1	0	0	1	230414,67	-0,100000001	2,63478875	-0,00027771536847121187	-0,099977517006934758	0,000263419643	-0,25549672529566637	0,0095329263397819674	0,25549672529566637
1	0	0	1	0	0	1	230494,67	-0,100000001	2,61145496	-0,00027771521674551898	-0,099977462385693862	0,00026108665	-0,25771844524325117	0,0096158216981605952	0,25771844524325117
1	0	0	1	0	0	1	230574,67	-0,100000001	2,58817816	-0,0002777158568654623	-0,099977692828837414	0,00025876009	-0,25994016675999034	0,0096987171150864832	0,25994016675999034
1	0	0	1	0	0	1	230654,67	-0,100000001	2,56490135	-0,00027771551937568518	-0,099977571332536653	0,000256432599	-0,26216189098848291	0,0097816126331915354	0,26216189098848291
1	0	0	1	0	0	1	230734,67	-0,100000001	2,54149103	-0,00027771500000771549	-0,099977384360096819	0,000254091632	-0,26438360878606691	0,0098645079113507443	0,26438360878606691
1	0	0	1	0	0	1	230814,67	-0,100000001	2,51825261	-0,0002777145724222064	-0,099977230429337638	0,000251767924	-0,26660532759508627	0,0099474032272479642	0,26660532759508627
1	0	0	1	0	0	1	230894,67	-0,100000001	2,49497581	-0,00027771433927242957	-0,099977146495431104	0,000249440549	-0,26882704406885981	0,010030298456014024	0,26882704406885981
1	0	0	1	0	0	1	230974,67	-0,100000001	2,47162294	-0,00027771456431100768	-0,099977227509306547	0,000247106014	-0,27104876223047174	0,010113193747755603	0,27104876223047174
1	0	0	1	0	0	1	231054,67	-0,100000001	2,44849896	-0,00027771466806282602	-0,099977264859955302	0,000244794239	-0,27327047896505658	0,010196088986252882	0,27327047896505658
1	0	0	1	0	0	1	231134,67	-0,100000001	2,42510772	-0,00027771451627007789	-0,099977210214574528	0,000242455499	-0,27549219565258842	0,01027898422299455	0,27549219565258842
1	0	0	1	0	0	1	231214,67	-0,100000001	2,40165901	-0,00027771426235222154	-0,099977118804160538	0,000240110952	-0,27771391121047946	0,010361879417587802	0,27771391121047946
1	0	0	1	0	0	1	231294,67	-0,100000001	2,37796235	-0,00027771468279593523	-0,099977270163873779	0,000237742192	-0,27993562911838086	0,010444774699863101	0,27993562911838086
1	0	0	1	0	0	1	231374,67	-0,100000001	2,35392189	-0,00027771483810121811	-0,099977326073766886	0,000235338812	-0,2821573481136015	0,010527670022707741	0,2821573481136015
1	0	0	1	0	0	1	231454,67	-0,100000001	2,32906032	-0,0002777151264109545	-0,099977429865255731	0,000232853461	-0,28437906862959638	0,010610565402294514	0,28437906862959638
1	0	0	1	0	0	1	231534,67	-0,100000001	2,30307221	-0,00027771531969019107	-0,099977499445770035	0,000230255406	-0,28660078976653725	0,010693460805049616	0,28660078976653725
1	0	0	1	0	0	1	231614,67	-0,100000001	2,27553725	-0,00027771551838889718	-0,099977570977293018	0,000227502693	-0,28882251108888333	0,010776356214722437	0,28882251108888333
1	0	0	1	0	0	1	231694,67	-0,100000001	2,24561548	-0,00027771440412021344	-0,099977169840629645	0,000224510281	-0,29104423026295507	0,010859251544240253	0,29104423026295507
1	0	0	1	0	0	1	231774,67	-0,100000001	2,21269584	-0,00027771532037109136	-0,099977499690894093	0,000221219801	-0,29326594869319053	0,010942146846004538	0,29326594869319053
1	0	0	1	0	0	1	231854,67	-0,100000001	2,17582369	-0,0002777144955351121	-0,099977202749988006	0,000217532768	-0,29548766731736339	0,011025042155004886	0,29548766731736339
1	0	0	1	0	0	1	231934,67	-0,100000001	2,13406301	-0,00027771430093877843	-0,099977132695318835	0,000213357504	-0,2977093813545127	0,011107937292857218	0,2977093813545127
1	0	0	1	0	0	1	232014,67	-0,100000001	2,08762431	-0,00027771391668253475	-0,099976994363092762	0,000208714409	-0,29993109287109958	0,011190832336663979	0,29993109287109958
1	0	0	1	0	0	1	232094,67	-0,100000001	2,03602982	-0,00027771406838670371	-0,09997704897658505	0,00020355625	-0,30215280330230989	0,011273727339973878	0,30215280330230989
1	0	0	1	0	0	1	232174,67	-0,100000001	1,98073089	-0,00027771312313195734	-0,0999767086849296	0,000198026959	-0,30437451123621965	0,011356622250106141	0,30437451123621965
1	0	0	1	0	0	1	232254,67	-0,100000001	1,9232744	-0,00027771289732845293	-0,099976627395680717	0,000192282489	-0,3065962179650208	0,011439517115274178	0,3065962179650208
1	0	0	1	0	0	1	232334,67	-0,100000001	1,86539769	-0,00027771384633208317	-0,099976969036934157	0,000186496807	-0,30881792500166458	0,011522411991928237	0,30881792500166458
1	0	0	1	0	0	1	232414,67	-0,100000001	1,80866671	-0,00027771374247554275	-0,099976931648585472	0,000180824951	-0,3110396334098361	0,01160530691975584	0,3110396334098361
1	0	0	1	0	0	1	232494,67	-0,100000001	1,75497091	-0,00027771411127472915	-0,099977064416271795	0,000175456837	-0,31326134632699386	0,011688202015819784	0,31326134632699386
1	0	0	1	0	0	1	232574,67	-0,100000001	1,70509493	-0,0002777140402706961	-0,099977038854823885	0,000170470346	-0,31548305746608672	0,011771097045541734	0,31548305746608672
1	0	0	1	0	0	1	232654,67	-0,100000001	1,65705216	-0,00027771459550783037	-0,099977238740160947	0,000165667501	-0,31770477014108864	0,011853992132570517	0,31770477014108864
1	0	0	1	0	0	1	232734,67	-0,100000001	1,61271381	-0,00027771461339419085	-0,099977245179249715	0,000161234682	-0,31992648613159226	0,011936887343305123	0,31992648613159226
1	0	0	1	0	0	1	232814,67	-0,100000001	1,57295823	-0,00027771426838719184	-0,099977120976749517	0,000157259841	-0,32214820123149606	0,012019782520810258	0,32214820123149606
1	0	0	1	0	0	1	232894,67	-0,100000001	1,53854918	-0,00027771429489594368	-0,099977130519898688	0,000153819739	-0,32436991823915584	0,01210267776949633	0,32436991823915584
1	0	0	1	0	0	1	232974,67	-0,100000001	1,51019323	-0,00027771541658830314	-0,099977534329084902	0,00015098539	-0,32659163784772307	0,012185573115225757	0,32659163784772307
1	1	0	0	0	0	2	233038,00	0,100000001	2,0385685	0,00027782446597723498	0,10001679210295802	0,000203891075	-0,32668387296865082	0,01218901453159901	0,00083347869881904794
1	1	0	0	0	0	2	233118,00	0,100000001	2,52159333	0,00027782515842715898	0,10001704138489165	0,000252202299	-0,32446127295288474	0,012106086336693274	0,0030560787145851386
1	1	0	0	0	0	2	233198,00	0,100000001	2,68116927	0,00027782527793488566	0,10001708440766653	0,000268162723	-0,32223866824056685	0,012023157966552875	0,0052786834269029382
1	1	0	0	0	0	2	233278,00	0,100000001	2,7820859	0,00027782471157527632	0,10001688051823907	0,000278255553	-0,32001606730089446	0,011940229737174954	0,0075012843665753779
1	1	0	0	0	0	2	233358,00	0,100000001	2,85646057	0,00027782489822266832	0,10001694771128966	0,000285694463	-0,31779346609041165	0,011857301497692731	0,0097238855770582106
1	1	0	0	0	0	2	233438,00	0,100000001	2,91448998	0,00027782486300625738	0,10001693503338371	0,000291498349	-0,315570865701312	0,011774373288857416	0,011946485966157995
1	1	0	0	0	0	2	233518,00	0,100000001	2,9612534	0,00027782485891713037	0,10001693356129821	0,00029617548	-0,31334826414434771	0,011691445036447506	0,014169087523122214
1	1	0	0	0	0	2	233598,00	0,100000001	3,00018787	0,00027782516993871994	0,10001704552905296	0,000300069922	-0,31112566545446304	0,011608516891012186	0,016391686213006989
1	1	0	0	0	0	2	233678,00	0,100000001	3,03465438	0,00027782472967894538	0,1000168870355589	0,000303516688	-0,30890306765278758	0,011525588778717149	0,018614284014682381
1	1	0	0	0	0	2	233758,00	0,100000001	3,06692457	0,0002778245976799064	0,1000168395159123	0,000306744099	-0,3066804717409801	0,011442660736935626	0,020836879926489866
1	1	0	0	0	0	2	233838,00	0,100000001	3,0986414	0,00027782489493406477	0,10001694652739259	0,00030991665	-0,30445787182389568	0,011359732545711834	0,023059479843574262
1	1	0	0	0	0	2	233918,00	0,100000001	3,13108349	0,0002778245673175487	0,10001682858546525	0,000313161028	-0,30223527383063315	0,011276804426268426	0,02528207783683679
1	1	0	0	0	0	2	233998,00	0,100000001	3,16472888	0,00027782369097405008	0,10001651310185509	0,00031652514	-0,30001267986203098	0,011193876456990506	0,02750467180543889
1	1	0	0	0	0	2	234078,00	0,100000001	3,19967246	0,00027782413632091552	0,10001667342670158	0,000320020597	-0,29779008623178778	0,011110948500337213	0,029727265435681984
1	1	0	0	0	0	2	234158,00	0,100000001	3,23553276	0,00027782473034121926	0,10001688727397746	0,000323607906	-0,29556748859372704	0,011028020394146861	0,03194986307374263
1	1	0	0	0	0	2	234238,00	0,100000001	3,27137375	0,00027782499628886582	0,10001698301511525	0,000327192945	-0,2933448911889536	0,01094509229666077	0,034172460478516077
1	1	0	0	0	0	2	234318,00	0,100000001	3,30614567	0,00027782495951445565	0,10001696977632965	0,000330670679	-0,29112229317033216	0,010862164176271187	0,036395058497137485
1	1	0	0	0	0	2	234398,00	0,100000001	3,33916068	0,00027782456467052304	0,10001682763253616	0,000333972246	-0,28889969722700096	0,01077923613331347	0,038617654440468787
1	1	0	0	0	0	2	234478,00	0,100000001	3,36973166	0,00027782354134735136	0,10001645923625198	0,000337028643	-0,28667710418967546	0,010696308198782736	0,040840247477794266
1	1	0	0	0	0	2	234558,00	0,100000001	3,39793491	0,00027782447851573427	0,10001679661681706	0,00033985058	-0,28445450888865869	0,010613380179790635	0,043062842778811021
1	1	0	0	0	0	2	234638,00	0,100000001	3,42336941	0,00027782438818116986	0,10001676409637894	0,000342394342	-0,28223191555434147	0,010530452234178739	0,04528543611312823
1	1	0	0	0	0	2	234718,00	0,100000001	3,44656968	0,00027782445924066835	0,1000167896777944	0,000344714848	-0,2800093185022528	0,010447524149851794	0,047508033165216858
1	1	0	0	0	0	2	234798,00	0,100000001	3,46761227	0,00027782493874223696	0,10001696229833208	0,000346820045	-0,27778671908007728	0,010364595977093718	0,049730632587392307
1	1	0	0	0	0	2	234878,00	0,100000001	3,48664975	0,00027782537463638515	0,1000171192202009	0,000348724658	-0,27556411717175187	0,010281667711574051	0,051953234495717626
1	1	0	0	0	0	2	234958,00	0,100000001	3,50398803	0,0002778252929324905	0,10001708980680342	0,000350458693	-0,27334151424564995	0,010198739408079771	0,054175837421819578
1	1	0	0	0	0	2	235038,00	0,100000001	3,52000856	0,00027782512006122208	0,10001702757315651	0,000352060801	-0,27111891393393901	0,010115811202131934	0,056398437733530592
1	1	0	0	0	0	2	235118,00	0,100000001	3,53453994	0,00027782542805828982	0,10001713845674096	0,000353514566	-0,26889631205829485	0,010032882937831646	0,058621039609174771
1	1	0	0	0	0	2	235198,00	0,100000001	3,54819274	0,00027782537775817846	0,1000171203440463	0,00035488003	-0,26667371174197197	0,0099499547317117338	0,060843639925497702
1	1	0	0	0	0	2	235278,00	0,100000001	3,56077623	0,00027782448020742995	0,10001679722582741	0,000356137432	-0,26445111297876854	0,0098670265835407949	0,063066238688701158
1	1	0	0	0	0	2	235358,00	0,100000001	3,5724051	0,00027782463552802803	0,10001685314123395	0,000357300712	-0,26222851391323011	0,0097840984240893299	0,065288837754239642
1	1	0	0	0	0	2	235438,00	0,100000001	3,58340383	0,00027782486495458416	0,10001693573478123	0,00035840107	-0,2600059161375679	0,0097011703127648806	0,06751143552990176
1	1	0	0	0	0	2	235518,00	0,100000001	3,59356213	0,00027782470601797107	0,10001687851760947	0,000359416881	-0,25778331855905152	0,0096182422087962074	0,069734033108418176
1	1	0	0	0	0	2	235598,00	0,100000001	3,60330057	0,00027782461224744717	0,10001684476022614	0,000360390753	-0,25556072265916867	0,0095353141674596096	0,071956629008301005
1	1	0	0	0	0	2	235678,00	0,100000001	3,6122942	0,00027782485708014832	0,10001693289998478	0,000361290586	-0,25333812439812154	0,0094523860380247949	0,074179227269348173
1	1	0	0	0	0	2	235758,00	0,100000001	3,62109709	0,00027782511337639555	0,10001702516661936	0,000362171355	-0,2511155246671911	0,0093694578537466611	0,076401827000278566
1	1	0	0	0	0	2	235838,00	0,100000001	3,62932706	0,00027782496377329037	0,1000169713095099	0,000362994295	-0,24889292473066067	0,0092865296617973146	0,078624426936808973
1	1	0	0	0	0	2	235918,00	0,100000001	3,63711762	0,00027782528509861891	0,10001708698661008	0,000363773899	-0,24667032471533584	0,0092036014669080422	0,080847026952133837
1	1	0	0	0	0	2	235998,00	0,100000001	3,64466023	0,00027782610651643744	0,1000173826969785	0,000364529376	-0,24444771870740298	0,0091206730484265062	0,083069632960066611
1	1	0	0	0	0	2	236078,00	0,100000001	3,65185905	0,0002778257699554993	0,10001726153505971	0,000365248939	-0,24222511033998643	0,0090377445419094618	0,0852922413274832
1	1	0	0	0	0	2	236158,00	0,100000001	3,65884757	0,00027782606210269866	0,10001736670803502	0,000365948305	-0,24000250368507872	0,008954816099288425	0,087514847982390874
1	1	0	0	0	0	2	236238,00	0,100000001	3,66554999	0,00027782685191225677	0,10001765103943146	0,000366619701	-0,2377798898190985	0,0088718873876125798	0,089737461848371123
1	1	0	0	0	0	2	236318,00	0,100000001	3,67192769	0,0002778264597840607	0,10001750987330298	0,000367257075	-0,23555727883919629	0,0087889587836201818	0,09196007282827337
1	1	0	0	0	0	2	236398,00	0,100000001	3,67817163	0,00027782584127949344	0,10001728721635101	0,000367880741	-0,23333467019881814	0,0087060302669185741	0,09418268146865152
1	1	0	0	0	0	2	236478,00	0,100000001	3,68422484	0,00027782585598693952	0,10001729250637334	0,000368486188	-0,23111206417466336	0,0086231018478317786	0,09640528749280631
1	1	0	0	0	0	2	236558,00	0,100000001	3,69001055	0,00027782560060173274	0,1000172005677133	0,000369064539	-0,22888945932627187	0,0085401734726142912	0,098627892341197798
1	1	0	0	0	0	2	236638,00	0,100000001	3,69577718	0,0002778252853051656	0,10001708706096688	0,000369640882	-0,22666685326044182	0,0084572450519725338	0,10085049840702781
1	1	0	0	0	0	2	236718,00	0,100000001	3,70127654	0,00027782491205467117	0,10001695269080994	0,000370190392	-0,22444425268821299	0,008374316836304425	0,10307309897925667
1	1	0	0	0	0	2	236798,00	0,100000001	3,70673776	0,00027782533236717187	0,1000171040032865	0,000370737165	-0,22222164858686848	0,0082913884889602637	0,10529570308060118
1	1	0	0	0	0	2	236878,00	0,100000001	3,71195054	0,00027782577002545197	0,10001726156024269	0,000371259142	-0,21999904427917184	0,0082084601339168282	0,10751830738829782
1	1	0	0	0	0	2	236958,00	0,100000001	3,71714449	0,00027782457266334029	0,10001683050994992	0,000371777016	-0,21777644144755523	0,0081255318339479232	0,1097409102199144
1	1	0	0	0	0	2	237038,00	0,100000001	3,72218561	0,00027782526577222675	0,10001708002911	0,000372282142	-0,21555384143995123	0,0080426036393467251	0,11196351022751842
1	1	0	0	0	0	2	237118,00	0,100000001	3,72720742	0,00027782523321691485	0,10001706830919955	0,000372784358	-0,21333123830131114	0,0079596753279223629	0,11418611336615853
1	1	0	0	0	0	2	237198,00	0,100000001	3,73198128	0,00027782535129868323	0,10001711081862952	0,000373261981	-0,21110863753022464	0,0078767471048346048	0,11640871413724502
1	1	0	0	0	0	2	237278,00	0,100000001	3,73673582	0,00027782562649208634	0,10001720988823914	0,000373737887	-0,20888603651382694	0,0077938188725939584	0,1186313151536427
1	1	0	0	0	0	2	237358,00	0,100000001	3,74152875	0,00027782516484707594	0,10001704369606139	0,000374216645	-0,20666343522636429	0,0077108906302395136	0,12085391644110536
1	1	0	0	0	0	2	237438,00	0,100000001	3,74616861	0,00027782548759546541	0,10001715988546342	0,000374681142	-0,20444083155605776	0,007627962298977961	0,12307652011141184
1	1	0	0	0	0	2	237518,00	0,100000001	3,75063682	0,0002778257014159527	0,1000172368608268	0,000375128322	-0,2022182276940255	0,0075450339605628621	0,12529912397344414
1	1	0	0	0	0	2	237598,00	0,100000001	3,75527692	0,00027782548701018093	0,10001715967476106	0,000375592121	-0,19999562370840835	0,0074621056175366438	0,1275217279590613
1	1	0	0	0	0	2	237678,00	0,100000001	3,75987887	0,00027782532292024957	0,10001710060705238	0,000376052194	-0,19777302268502742	0,0073791773850354432	0,12974432898244222
1	1	0	0	0	0	2	237758,00	0,100000001	3,76427078	0,00027782531097282966	0,1000170963013245	0,000376491429	-0,19555042044400218	0,0072962491071022963	0,13196693122346747
1	1	0	0	0	0	2	237838,00	0,100000001	3,76860523	0,00027782545120517411	0,10001714678496061	0,000376925134	-0,19332782076990483	0,007213320924944681	0,13418953089756483
1	1	0	0	0	0	2	237918,00	0,100000001	3,77293968	0,00027782548496375485	0,10001715893804776	0,000377358694	-0,19110521914841565	0,0071303926701272576	0,13641213251905398
1	1	0	0	0	0	2	237998,00	0,100000001	3,77729344	0,00027782517257415587	0,10001704647780971	0,000377793738	-0,18888261906070883	0,0070474644725373158	0,13863473260676082
1	1	0	0	0	0	2	238078,00	0,100000001	3,78151345	0,0002778253978598449	0,10001712758064509	0,000378216122	-0,18666001849712269	0,0069645362571916762	0,14085733317034696
1	1	0	0	0	0	2	238158,00	0,100000001	3,78575253	0,00027782492888180742	0,10001695874857802	0,000378639466	-0,18443741789973526	0,0068816080405848666	0,14307993376773437
1	1	0	0	0	0	2	238238,00	0,100000001	3,78997231	0,00027782442542620829	0,10001677750459069	0,000379060803	-0,18221481976896979	0,0067986799160110374	0,14530253189849987
1	1	0	0	0	0	2	238318,00	0,100000001	3,79409695	0,00027782454083570176	0,10001681905200182	0,000379473495	-0,17999221909010406	0,0067157516963641626	0,14752513257736557
1	1	0	0	0	0	2	238398,00	0,100000001	3,7982595	0,00027782541988210541	0,10001713550865765	0,000379891047	-0,17776961883430794	0,006632823492502583	0,1497477328331617
1	1	0	0	0	0	2	238478,00	0,100000001	3,80238414	0,00027782592025730346	0,10001731564370074	0,000380304264	-0,17554701315169606	0,0065498950861592102	0,15197033851577357
1	1	0	0	0	0	2	238558,00	0,100000001	3,80671859	0,00027782548350054358	0,10001715841129179	0,000380737183	-0,17332440990456266	0,006466966770686816	0,15419294176290698
1	1	0	0	0	0	2	238638,00	0,100000001	3,81078577	0,00027782591850558918	0,10001731501308371	0,000381144549	-0,17110180185711539	0,0063840382761082547	0,15641554981035427
1	1	0	0	0	0	2	238718,00	0,100000001	3,81498671	0,00027782563134862323	0,10001721163659211	0,000381564343	-0,16887919725821363	0,0063011099101995648	0,15863815440925603
1	1	0	0	0	0	2	238798,00	0,100000001	3,81930208	0,00027782574598408406	0,10001725290535158	0,000381996098	-0,1666565924032023	0,0062181815347350835	0,16086075926426736
1	1	0	0	0	0	2	238878,00	0,100000001	3,8234458	0,00027782561480585075	0,10001720568119498	0,000382410362	-0,16443398749789786	0,0061352531573940966	0,16308336416957178
1	1	0	0	0	0	2	238958,00	0,100000001	3,82764673	0,0002778254356417391	0,10001714118678229	0,000382830272	-0,16221138709331494	0,0060523249479810816	0,16530596457415469
1	1	0	0	0	0	2	239038,00	0,100000001	3,83163738	0,00027782479318769437	0,10001690989870498	0,000383228529	-0,15998878531236352	0,0059693966872139072	0,16752856635510614
1	1	0	0	0	0	2	239118,00	0,100000001	3,83591485	0,00027782495790968339	0,10001696919861174	0,000383656588	-0,15776618465430938	0,0058864684683435405	0,16975116701316029
1	1	0	0	0	0	2	239198,00	0,100000001	3,84000111	0,00027782456406371459	0,10001682741408515	0,000384064741	-0,15554358640065027	0,0058035403391843853	0,17197376526681936
1	1	0	0	0	0	2	239278,00	0,100000001	3,84427834	0,00027782495576101875	0,10001696842509258	0,000384493062	-0,1533209841394216	0,0057206120604974214	0,17419636752804803
1	1	0	0	0	0	2	239358,00	0,100000001	3,84832644	0,00027782568325143725	0,10001723032160226	0,000384898944	-0,15109838121682598	0,0056376837571339667	0,17641897045064368
1	1	0	0	0	0	2	239438,00	0,100000001	3,8525846	0,00027782506256716118	0,10001700687529786	0,000385323976	-0,14887577952852832	0,0055547554998238285	0,17864157213894134
1	1	0	0	0	0	2	239518,00	0,100000001	3,85676646	0,00027782444129842848	0,10001678321858909	0,000385741383	-0,14665318171902941	0,005471827387236887	0,18086416994844022
1	1	0	0	0	0	2	239598,00	0,100000001	3,86102462	0,00027782536913040614	0,10001711723804875	0,00038616854	-0,14443057966326874	0,0053888991162162093	0,18308677200420093
1	1	0	0	0	0	2	239678,00	0,100000001	3,86516809	0,00027782461212037334	0,10001684471447958	0,000386581931	-0,14220797801675392	0,0053059708604650464	0,18530937365071574
1	1	0	0	0	0	2	239758,00	0,100000001	3,86956	0,00027782544182737664	0,10001714340895405	0,00038702233	-0,13998537687781198	0,0052230426236521088	0,18753197478965766
1	1	0	0	0	0	2	239838,00	0,100000001	3,87389445	0,00027782462646605242	0,10001684987892323	0,000387454726	-0,13776277796103922	0,0051401144697512922	0,18975457370643043
1	1	0	0	0	0	2	239918,00	0,100000001	3,87822914	0,00027782492124289277	0,10001695599856917	0,000387888664	-0,13554017846841854	0,0050571862943648134	0,1919771731990511
1	1	0	0	0	0	2	239998,00	0,100000001	3,88258266	0,00027782540541597536	0,10001713030085163	0,000388324785	-0,13331757521750312	0,0049742579787513069	0,19419977644996653
1	1	0	0	0	0	2	240078,00	0,100000001	3,88693643	0,0002778254716557761	0,10001715414717616	0,000388760323	-0,13109497250519888	0,0048913296832341062	0,19642237916227075
1	1	0	0	0	0	2	240158,00	0,100000001	3,89151907	0,00027782472829686272	0,10001688653800922	0,000389217632	-0,1288723703863264	0,0048084014098586432	0,19864498128114323
1	1	0	0	0	0	2	240238,00	0,100000001	3,89581537	0,00027782435114557542	0,10001675076822443	0,000389646797	-0,1266497720687264	0,004725473278313767	0,20086757959874323
1	1	0	0	0	0	2	240318,00	0,100000001	3,90030289	0,00027782459026740659	0,10001683684741278	0,000390095956	-0,12442717360885926	0,0046425451414607123	0,20309017805861037
1	1	0	0	0	0	2	240398,00	0,100000001	3,90477109	0,00027782486782347165	0,10001693676758058	0,000390543253	-0,12220457537934672	0,0045596170132024966	0,20531277628812294
1	1	0	0	0	0	2	240478,00	0,100000001	3,90935373	0,00027782429355175958	0,10001673002979658	0,000391000765	-0,11998197929086814	0,0044766889648291386	0,20753537237660147
1	1	0	0	0	0	2	240558,00	0,100000001	3,91382194	0,00027782519136203661	0,10001705324144573	0,000391448935	-0,11775937889962962	0,0043937607559140218	0,20975797276783994
1	1	0	0	0	0	2	240638,00	0,100000001	3,91846204	0,00027782557345181699	0,10001719079374517	0,000391913578	-0,11553677685990789	0,0043108324854917792	0,21198057480756166
1	1	0	0	0	0	2	240718,00	0,100000001	3,92300653	0,00027782524735853078	0,10001707340018048	0,000392367627	-0,11331417696003477	0,0042279042949101651	0,21420317470743478
1	1	0	0	0	0	2	240798,00	0,100000001	3,92760849	0,00027782553192062512	0,1000171758425184	0,000392828311	-0,11109157364462672	0,0041449759768903501	0,21642577802284278
1	1	0	0	0	0	2	240878,00	0,100000001	3,93240142	0,00027782418353151942	0,10001669042251632	0,000393305789	-0,10886897647375722	0,0040620478881315309	0,21864837519371229
1	1	0	0	0	0	2	240958,00	0,100000001	3,93711782	0,0002778245370110704	0,10001681767513475	0,000393777998	-0,1066463814624393	0,0039791198799484845	0,22087097020503014
1	1	0	0	0	0	2	241038,00	0,100000001	3,94189143	0,00027782453374688826	0,10001681650002938	0,000394255418	-0,10442378535930213	0,0038961918310281946	0,2230935663081673
1	1	0	0	0	0	2	241118,00	0,100000001	3,94676065	0,00027782440950348973	0,1000167717724129	0,000394742267	-0,10220119093741333	0,0038132638448375405	0,22531616073005613
1	1	0	0	0	0	2	241198,00	0,100000001	3,95162988	0,00027782472207148867	0,10001688429687491	0,000395229697	-0,099978596116445773	0,0037303358437567219	0,22753875555102371
1	1	0	0	0	0	2	241278,00	0,100000001	3,95657539	0,00027782445009797811	0,10001678638642643	0,000395723968	-0,097756003850379149	0,0036474079380026925	0,2297613478170903
1	1	0	0	0	0	2	241358,00	0,100000001	3,96163559	0,00027782436484470966	0,10001675569525459	0,000396229938	-0,095533408026318387	0,0035644798994951181	0,23198394364115101
1	1	0	0	0	0	2	241438,00	0,100000001	3,96663857	0,00027782407652172774	0,10001665189899734	0,000396729913	-0,093310814255422426	0,0034815519375938829	0,23420653741204698
1	1	0	0	0	0	2	241518,00	0,100000001	3,9719851	0,00027782422276048195	0,100016704549598	0,00039726487	-0,091088221649521984	0,0033986240191601965	0,23642913001794736
1	1	0	0	0	0	2	241598,00	0,100000001	3,97712159	0,00027782447550238835	0,10001679553201269	0,00039777896	-0,088865626907797133	0,0033156960210360294	0,23865172475967216
1	1	0	0	0	0	2	241678,00	0,100000001	3,98246813	0,00027782446341713267	0,10001679118132133	0,000398313685	-0,086643028815155034	0,0032327678978846355	0,24087432285231424
1	1	0	0	0	0	2	241758,00	0,100000001	3,98787212	0,00027782495607559875	0,10001696853834136	0,000398854871	-0,084420432472737536	0,0031498398400364736	0,24309691919473174
1	1	0	0	0	0	2	241838,00	0,100000001	3,99327588	0,00027782413727665942	0,10001667377076931	0,000399394165	-0,082197838083996774	0,0030669118550826182	0,24531951358347258
1	1	0	0	0	0	2	241918,00	0,100000001	3,99866056	0,00027782382752746339	0,10001656226107621	0,000399932294	-0,079975242561533466	0,0029839838278280493	0,2475421091059359
1	1	0	0	0	0	2	241998,00	0,100000001	4,00433207	0,00027782363263724582	0,10001649210060885	0,000400499237	-0,077752650603781798	0,0029010559335776659	0,24976470106368755
1	1	0	0	0	0	2	242078,00	0,100000001	4,00979328	0,00027782377175365882	0,1000165421825097	0,000401045661	-0,075530059690407834	0,0028181280782944182	0,2519872919770615
1	1	0	0	0	0	2	242158,00	0,100000001	4,01548338	0,0002778240243879457	0,10001663313083875	0,000401615136	-0,073307469163870899	0,0027352002374445802	0,25420988250359837
1	1	0	0	0	0	2	242238,00	0,100000001	4,02113533	0,00027782480351916618	0,10001691361803424	0,000402181555	-0,071084872069321408	0,0026522721515333626	0,2564324795981479
1	1	0	0	0	0	2	242318,00	0,100000001	4,02692127	0,00027782488890571728	0,10001694435718781	0,000402760372	-0,068862274856221158	0,0025693440611988576	0,25865507681124816
1	1	0	0	0	0	2	242398,00	0,100000001	4,03276443	0,00027782427640549014	0,10001672385714054	0,000403343874	-0,066639681121344205	0,0024864161006415392	0,26087767054612522
1	1	0	0	0	0	2	242478,00	0,100000001	4,03868389	0,00027782406075878275	0,10001664622433802	0,000403935614	-0,064417085143220339	0,002403488056385663	0,26310026652424906
1	1	0	0	0	0	2	242558,00	0,100000001	4,04452658	0,0002778242637088729	0,10001671928635907	0,00040452028	-0,062194490198393485	0,0023205600506834874	0,2653228614690759
1	1	0	0	0	0	2	242638,00	0,100000001	4,05058002	0,0002778249085168872	0,10001695141720787	0,000405126659	-0,059971892241941376	0,0022376319326135248	0,2675454594255281
1	1	0	0	0	0	2	242718,00	0,100000001	4,05674744	0,00027782470813890294	0,10001687928114485	0,000405743223	-0,057749293513279245	0,0021547037857313677	0,2697680581541903
1	1	0	0	0	0	2	242798,00	0,100000001	4,06278133	0,00027782447581821018	0,10001679564570851	0,000406346371	-0,055526697097247514	0,0020717757251365603	0,27199065457022205
1	1	0	0	0	0	2	242878,00	0,100000001	4,0689683	0,00027782507994977965	0,1000170131330395	0,00040696605	-0,05330409851308441	0,0019888475836458563	0,27421325315438506
1	1	0	0	0	0	2	242958,00	0,100000001	4,07515478	0,00027782511345835197	0,10001702519612366	0,000407584856	-0,051081497125622957	0,0019059193375603219	0,27643585454184643
1	1	0	0	0	0	2	243038,00	0,100000001	4,08139896	0,00027782428053104211	0,10001672534233904	0,000408208172	-0,048858899999713574	0,0018229912504790246	0,27865845166775587
1	1	0	0	0	0	2	243118,00	0,100000001	4,08750916	0,00027782452727191978	0,1000168141690411	0,000408819644	-0,046636302956483686	0,0017400631664826109	0,28088104871098579
1	1	0	0	0	0	2	243198,00	0,100000001	4,09375334	0,00027782440444082016	0,10001676994985214	0,000409443979	-0,044413706637958957	0,0016571351095259206	0,28310364502951053
1	1	0	0	0	0	2	243278,00	0,100000001	4,09992123	0,00027782503493875261	0,10001699692907232	0,000410061795	-0,042191109046329082	0,0015742070050679661	0,28532624262114042
1	1	0	0	0	0	2	243358,00	0,100000001	4,10603142	0,00027782475720387363	0,10001689694453154	0,00041067251	-0,039968511916448115	0,0014912789178384838	0,28754883975102147
1	1	0	0	0	0	2	243438,00	0,100000001	4,11231375	0,00027782462660223248	0,10001684992794806	0,000411300658	-0,037745915767909613	0,0014083508672242083	0,28977143589956006
1	1	0	0	0	0	2	243518,00	0,100000001	4,11844301	0,00027782448096531958	0,10001679749866762	0,000411913468	-0,035523318215959872	0,0013254227642467728	0,29199403345150982
1	1	0	0	0	0	2	243598,00	0,100000001	4,12443876	0,00027782477904235328	0,10001690480638294	0,000412513589	-0,033300721548096032	0,0012424946942557706	0,29421663011937363
1	1	0	0	0	0	2	243678,00	0,100000001	4,13062572	0,00027782475313130355	0,10001689547840651	0,000413132366	-0,03107812329911799	0,001159566565271272	0,29643922836835174
1	1	0	0	0	0	2	243758,00	0,100000001	4,13662148	0,00027782517117179098	0,10001704597295846	0,000413732661	-0,028855524485531232	0,0010766384152204629	0,29866182718193856
1	1	0	0	0	0	2	243838,00	0,100000001	4,14265537	0,00027782443385322886	0,10001678053831763	0,000414335052	-0,026632928007795024	0,00099371035232337843	0,30088442365967475
1	1	0	0	0	0	2	243918,00	0,100000001	4,1485939	0,00027782461234389078	0,10001684479494587	0,000414929265	-0,0244103326812112	0,00091078233237733722	0,30310701898625856
1	1	0	0	0	0	2	243998,00	0,100000001	4,15426493	0,00027782418381422758	0,10001669052429123	0,00041549583	-0,022187737662148835	0,00082785432390533517	0,30532961400532102
1	1	0	0	0	0	2	244078,00	0,100000001	4,1600318	0,00027782490890431734	0,1000169515566827	0,000416073686	-0,019965141193236602	0,00074492626133748506	0,30755221047423322
1	1	0	0	0	0	2	244158,01	0,100000001	4,16579866	0,00027782518911237523	0,10001705243156776	0,000416650902	-0,01774254379355024	0,00066199816404120077	0,30977480787391962
1	1	0	0	0	0	2	244238,01	0,100000001	4,17141247	0,0002778243697641624	0,10001675746625731	0,000417211151	-0,015519946718907462	0,0005790700788727296	0,31199740494856237
1	1	0	0	0	0	2	244318,01	0,100000001	4,17673969	0,00027782487305957411	0,10001693865257718	0,000417744712	-0,013297347441635472	0,00049614191152120115	0,31422000422583437
1	1	0	0	0	0	2	244398,01	0,100000001	4,18193388	0,00027782484835800198	0,10001692976001258	0,000418264186	-0,01107474518163695	0,00041321363288013549	0,31644260648583277
1	1	0	0	0	0	2	244478,01	0,100000001	4,18712759	0,00027782503010622333	0,10001699518936203	0,000418783922	-0,0088521441347895629	0,00033028539950336973	0,31866520753268013
1	1	0	0	0	0	2	244558,01	0,100000001	4,19216871	0,00027782534975144595	0,10001711026162419	0,000419288612	-0,006629542292504119	0,00024735713644774061	0,32088780937496557
1	1	0	0	0	0	2	244638,01	0,100000001	4,19623661	0,0002778240963195761	0,10001665902622165	0,000419693562	-0,0044069442550476474	0,00016442901535539606	0,32311040741242208
1	1	0	0	0	0	2	244700,47	0,100000001	4,19986486	6,849487444965376E-005	0,10001683676161101	0,000420057186	-0,002671502909343135	9,9677365421455347E-005	0,32484584875812666