File: Experimentelles/Rohdaten/Batteriemessungen/AlteZelle/Studenten_Batterietests/Sonstige/ECLab-Export/LiCoO2 vs Li_02_CV_C01_loop6.mpt
EC-Lab ASCII FILE
Nb header lines : 3
mode	ox/red	error	control changes	counter inc.	time/s	control/V	Ewe/V	<I>/mA	cycle number	(Q-Qo)/C	P/W
2	0	0	1	0	7840,73	3,10456657	3,10496354	-0,70543074607849126	7	0	0,00219033682
2	0	0	0	0	7841,91	3,09276485	3,09290338	-0,60920894130443418	7	-0,000740628166	0,00188422436
2	0	0	1	0	7843,11	3,08076262	3,08096385	-0,6048373686683881	7	-0,00146943179	0,00186348206
2	0	0	1	0	7844,31	3,06876278	3,06915545	-0,60229242965579123	7	-0,00219449331	0,00184852909
2	0	0	0	0	7845,51	3,05676174	3,0570457	-0,60028646824260787	7	-0,00291712815	0,00183510315
2	0	0	0	0	7846,71	3,04476047	3,04467559	-0,59848492266610176	7	-0,00363712781	0,00182219245
2	0	0	1	0	7847,91	3,03275919	3,03300691	-0,59655882231891328	7	-0,00435481779	0,00180936698
2	0	0	1	0	7849,11	3,02075815	3,02075696	-0,59462984402974502	7	-0,00507003441	0,00179623219
2	0	0	0	0	7850,31	3,00875711	3,00882769	-0,59272444729382912	7	-0,00578305405	0,00178340578
2	0	0	0	0	7851,51	2,99675584	2,9968183	-0,59096434060484173	7	-0,00649374072	0,00177101279
2	0	0	1	0	7852,71	2,9847548	2,98478889	-0,58920009139304333	7	-0,00720246229	0,00175863784
2	0	0	0	0	7853,91	2,97275257	2,97271657	-0,58748698481007232	7	-0,00790910237	0,00174643227
2	0	0	0	0	7855,11	2,96075249	2,96091056	-0,58593140387286797	7	-0,00861374475	0,00173489051
2	0	0	1	0	7856,31	2,94875145	2,94905138	-0,58457480541740736	7	-0,00931668933	0,00172394118
2	0	0	1	0	7857,51	2,93675041	2,93701196	-0,58332647538433587	7	-0,0100179473	0,00171323679
2	0	0	0	0	7858,71	2,92474937	2,92512298	-0,58175795028607168	7	-0,0107176388	0,00170171354
2	0	0	0	0	7859,91	2,9127481	2,91295314	-0,5808466761372992	7	-0,0114158774	0,00169197912
2	0	0	1	0	7861,11	2,90074682	2,90105414	-0,57939852541312666	7	-0,0121126771	0,00168086647
2	0	0	1	0	7862,31	2,88874578	2,88912487	-0,57870727793003136	7	-0,0128082922	0,00167195755
2	0	0	0	0	7863,51	2,87674475	2,87688494	-0,57743429175267917	7	-0,0135027738	0,00166121207
2	0	0	1	0	7864,71	2,86474371	2,86491537	-0,57671432243660096	7	-0,014196272	0,00165223773
2	0	0	1	0	7865,91	2,85274243	2,85313678	-0,57619385483364294	7	-0,0148886768	0,0016439599
2	0	0	0	0	7867,11	2,84074116	2,84089684	-0,57577592631181094	7	-0,0155804651	0,00163572002
2	0	0	0	0	7868,31	2,82874012	2,82888746	-0,5749940370830409	7	-0,0162713863	0,00162659341
2	0	0	1	0	7869,51	2,81673908	2,81694841	-0,57448516118650874	7	-0,0169617441	0,00161829509
2	0	0	1	0	7870,71	2,80473804	2,80500889	-0,57384955432886861	7	-0,0176513288	0,00160965312
2	0	0	0	0	7871,91	2,79273701	2,79308963	-0,57343713659793139	7	-0,0183403045	0,00160166132
2	0	0	0	0	7873,11	2,78073621	2,7809	-0,57276277590245875	7	-0,0190285482	0,00159279595
2	0	0	1	0	7874,31	2,76873446	2,76899076	-0,57239936338737606	7	-0,0197163541	0,00158496853
2	0	0	0	0	7875,51	2,75673342	2,75695133	-0,5718740082035465	7	-0,0204036217	0,00157662877
2	0	0	0	0	7876,71	2,74473238	2,74491191	-0,5716093792580055	7	-0,0210903268	0,00156901742
2	0	0	1	0	7877,91	2,73273134	2,733073	-0,57119791799535411	7	-0,0217767861	0,00156112562
2	0	0	1	0	7879,11	2,7207303	2,72085309	-0,57092785323038566	7	-0,0224627126	0,00155341078
2	0	0	0	0	7880,31	2,70872903	2,70893383	-0,57054806547239424	7	-0,0231484566	0,00154557696
2	0	0	0	0	7881,51	2,69672775	2,69683433	-0,5704019689001136	7	-0,0238337275	0,00153827958
2	0	0	1	0	7882,71	2,68472672	2,68505549	-0,56978042625511629	7	-0,0245187674	0,00152989209
2	0	0	0	0	7883,91	2,67272568	2,67279553	-0,5694425869733113	7	-0,0252033733	0,00152200356
2	0	0	0	0	7885,11	2,66072488	2,66087651	-0,56953100316847661	7	-0,025887534	0,0015154517
2	0	0	1	0	7886,31	2,64872336	2,64876652	-0,56921900405238189	7	-0,026571326	0,00150772824
2	0	0	1	0	7887,51	2,63672256	2,63710809	-0,56855074471483744	7	-0,0272544809	0,00149932981
2	0	0	0	0	7888,71	2,62472129	2,62503862	-0,5682696024887264	7	-0,0279372744	0,00149172964
2	0	0	0	0	7889,91	2,61272001	2,61283875	-0,56758750028287341	7	-0,0286192894	0,00148301467
2	0	0	1	0	7891,11	2,60071921	2,60092974	-0,56703235767781734	7	-0,0293007772	0,00147481135
2	0	0	1	0	7892,31	2,58871865	2,58903217	-0,5662841041353737	7	-0,0299813617	0,00146612781
2	0	0	0	0	7893,51	2,57671666	2,57701111	-0,56572785150880557	7	-0,0306613166	0,001457887
2	0	0	1	0	7894,71	2,56471562	2,56503177	-0,56466490759824864	7	-0,031340275	0,00144838344
2	0	0	1	0	7895,91	2,55271435	2,55294204	-0,5638047264268007	7	-0,0320180468	0,00143936079
2	0	0	0	0	7897,11	2,54071331	2,54082251	-0,56248281927158496	7	-0,0326945819	0,00142916897
2	0	0	0	0	7898,31	2,52871251	2,52903366	-0,56137595837935808	7	-0,0333696008	0,00141973875
2	0	0	1	0	7899,51	2,51671124	2,51671362	-0,55974997129912294	7	-0,0340431109	0,0014087304
2	0	0	1	0	7900,71	2,5047102	2,5048945	-0,55827280087396678	7	-0,0347147062	0,00139841449
2	0	0	0	0	7901,91	2,49270892	2,49298549	-0,55607349968825837	7	-0,0353841148	0,0013862832
2	0	0	0	0	7903,11	2,48070788	2,48095655	-0,55423985086511962	7	-0,0360513255	0,00137504505
2	0	0	1	0	7904,31	2,46870685	2,4692173	-0,55226099242766714	7	-0,0367159285	0,00136365241
2	0	0	0	0	7905,51	2,45670557	2,45713758	-0,54981519918267987	7	-0,0373778008	0,00135097164
2	0	0	0	0	7906,71	2,44470429	2,44487762	-0,54698014988874413	7	-0,0380364098	0,00133729947
2	0	0	1	0	7907,91	2,43270326	2,43306899	-0,5441429802837465	7	-0,0386917777	0,00132393744
2	0	0	1	0	7909,11	2,42070198	2,42087913	-0,54067390644922899	7	-0,0393432677	0,00130890612
2	0	0	0	0	7910,31	2,40870094	2,40881944	-0,53740344739829562	7	-0,0399908163	0,00129450788
2	0	0	0	0	7911,51	2,39670014	2,39702082	-0,53339057508856013	7	-0,0406339765	0,00127854827
2	0	0	1	0	7912,71	2,38469887	2,38477063	-0,52970611102258317	7	-0,0412725955	0,00126322755
2	0	0	1	0	7913,91	2,37269831	2,37300301	-0,52521710973485766	7	-0,0419062302	0,00124634174
2	0	0	0	0	7915,11	2,36069655	2,36096215	-0,52086979787175827	7	-0,0425346009	0,00122975383
2	0	0	1	0	7916,31	2,34869528	2,34880257	-0,5161334724786384	7	-0,0431575961	0,00121229561
2	0	0	1	0	7917,51	2,33669448	2,33705401	-0,51143072266131814	7	-0,0437747724	0,00119524123
2	0	0	0	0	7918,71	2,3246932	2,32484412	-0,50627124868333382	7	-0,0443861745	0,00117700174
2	0	0	0	0	7919,91	2,31269193	2,31301498	-0,50123997203385075	7	-0,0449913666	0,00115937553
2	0	0	1	0	7921,11	2,30069089	2,30095553	-0,49569747177883962	7	-0,0455904603	0,00114057784
2	0	0	1	0	7922,31	2,28868937	2,28912663	-0,49044503307601504	7	-0,0461831987	0,00112269074
2	0	0	0	0	7923,51	2,27668881	2,27693653	-0,48534743720665664	7	-0,0467695072	0,00110510527
2	0	0	1	0	7924,72	2,26468778	2,26498747	-0,48002804769202976	7	-0,0473493598	0,00108725752
2	0	0	1	0	7925,92	2,2526865	2,25293803	-0,47454737763231059	7	-0,047922723	0,00106912584
2	0	0	0	0	7927,12	2,24068546	2,24108911	-0,46942635579034688	7	-0,0484898128	0,00105202629
2	0	0	0	0	7928,32	2,22868419	2,22893929	-0,46410126332193792	7	-0,0490505099	0,00103445351
2	0	0	1	0	7929,52	2,21668291	2,21688986	-0,45918602651606125	7	-0,0496050939	0,00101796479
2	0	0	1	0	7930,72	2,20468211	2,20498061	-0,4540126267820601	7	-0,050153587	0,001001089
2	0	0	0	0	7931,92	2,19268084	2,19304132	-0,44921894340465498	7	-0,0506963059	0,000985155697
2	0	0	1	0	7933,12	2,18067861	2,18101144	-0,44447879931609434	7	-0,0512332544	0,000969413319
2	0	0	1	0	7934,32	2,16867852	2,16890216	-0,44022730970755309	7	-0,0517647378	0,000954809948
2	0	0	0	0	7935,52	2,15667748	2,15681267	-0,43580165629585613	7	-0,0522910766	0,000939942547
2	0	0	0	0	7936,72	2,14467645	2,14496374	-0,43193057536458035	7	-0,0528124459	0,000926475448
2	0	0	1	0	7937,92	2,13267541	2,13281417	-0,42795049166307034	7	-0,0533291847	0,000912738848
2	0	0	1	0	7939,12	2,12067413	2,120965	-0,42455775290727706	7	-0,0538414493	0,000900472165
2	0	0	0	0	7940,32	2,1086731	2,1089859	-0,42099677336712915	7	-0,0543496534	0,00088787626
2	0	0	0	0	7941,52	2,09667182	2,0967257	-0,41795884848882816	7	-0,0548540242	0,000876345031
2	0	0	1	0	7942,72	2,08467078	2,08491683	-0,41527355679621178	7	-0,0553547442	0,000865810842
2	0	0	0	0	7943,92	2,07266974	2,07301784	-0,41291729236642502	7	-0,0558522865	0,000855984923
2	0	0	0	0	7945,12	2,06066871	2,06093836	-0,41032246888304691	7	-0,0563467927	0,000845649338
2	0	0	1	0	7946,32	2,04866743	2,04894876	-0,40842242756237645	7	-0,0568387359	0,00083683664
2	0	0	1	0	7947,52	2,03666639	2,03703976	-0,40632533173387309	7	-0,0573282018	0,000827700831
2	0	0	0	0	7948,72	2,02466512	2,02503014	-0,40499047050252646	7	-0,0578156263	0,000820117886
2	0	0	0	0	7949,92	2,01266408	2,01288056	-0,40315528384720525	7	-0,0583011284	0,000811503443
2	0	0	1	0	7951,12	2,00066304	2,00089121	-0,40217994696771162	7	-0,0587850921	0,000804718293
2	0	0	0	0	7952,32	1,98866034	1,98880005	-0,40091515909099584	7	-0,0592676625	0,000797340064
2	0	0	0	0	7953,52	1,97666073	1,97694254	-0,40026849197844646	7	-0,0597489513	0,00079130783
2	0	0	1	0	7954,72	1,96465969	1,96499348	-0,39953559699157888	7	-0,0602296069	0,000785084849
2	0	0	1	0	7955,92	1,95265853	1,9531846	-0,3993392759002745	7	-0,0607096106	0,000779983355
2	0	0	0	0	7957,12	1,94065738	1,94085455	-0,39894115738570733	7	-0,0611893982	0,000774286746
2	0	0	0	0	7958,32	1,92865634	1,92892528	-0,39907031211381216	7	-0,061668992	0,000769776816
2	0	0	1	0	7959,52	1,9166553	1,91684544	-0,39895573832715494	7	-0,0621487945	0,000764736498
2	0	0	1	0	7960,72	1,90465403	1,90488636	-0,39930537482723603	7	-0,0626287535	0,000760631345
2	0	0	0	0	7961,92	1,89265287	1,8931576	-0,39991502541427872	7	-0,0631091818	0,000757102156
2	0	0	1	0	7963,12	1,88065183	1,88074744	-0,40046709574138182	7	-0,0635900646	0,000753177446
2	0	0	1	0	7964,32	1,86865067	1,86909878	-0,40095623582601728	7	-0,0640714914	0,000749426836
2	0	0	0	0	7965,52	1,85664964	1,85697913	-0,4017749462897575	7	-0,0645538196	0,000746087695
2	0	0	0	0	7966,72	1,84464836	1,84489954	-0,40263044834137101	7	-0,0650371015	0,000742812699
2	0	0	1	0	7967,92	1,83264732	1,83298039	-0,40385002984355098	7	-0,0655217022	0,000740249176
2	0	0	1	0	7969,12	1,82064617	1,82124162	-0,40496111847460179	7	-0,0660076439	0,000737532042
2	0	0	0	0	7970,32	1,80864501	1,80892134	-0,40640152416502675	7	-0,066495277	0,00073514838
2	0	0	0	0	7971,52	1,79664433	1,79702318	-0,40786066653179872	7	-0,0669845417	0,000732935092
2	0	0	1	0	7972,72	1,78464293	1,78508329	-0,40979755840574758	7	-0,0674759373	0,000731522799
2	0	0	0	0	7973,92	1,77264166	1,77304363	-0,41131849307566701	7	-0,0679693595	0,000729285646
2	0	0	0	0	7975,12	1,76064074	1,76113462	-0,41353735933080314	7	-0,0684651062	0,000728294952
2	0	0	1	0	7976,32	1,74863946	1,74899483	-0,41542733445142944	7	-0,0689633861	0,000726580271
2	0	0	1	0	7977,52	1,73663831	1,73681498	-0,41791341252004256	7	-0,0694642514	0,000725838298
2	0	0	0	0	7978,72	1,72463727	1,72478569	-0,4199344008229673	7	-0,0699679479	0,000724296842
2	0	0	0	0	7979,92	1,71263599	1,71299684	-0,4225824320067968	7	-0,0704745427	0,000723882345
2	0	0	1	0	7981,12	1,70063496	1,70094717	-0,42538632545620378	7	-0,0709842443	0,000723559642
2	0	0	0	0	7982,32	1,6886338	1,6890583	-0,42834301199764192	7	-0,0714971945	0,000723496312
2	0	0	0	0	7983,52	1,67663276	1,67676818	-0,43095581792294976	7	-0,0720134377	0,000722613011
2	0	0	1	0	7984,72	1,66463161	1,66486907	-0,43393457758551078	7	-0,072533153	0,000722444267
2	0	0	1	0	7985,92	1,65263057	1,65311015	-0,4363493217776231	7	-0,0730560049	0,00072133349
2	0	0	0	0	7987,12	1,64062929	1,64106095	-0,43914679624140352	7	-0,0735820159	0,000720666663
2	0	0	0	0	7988,32	1,62862837	1,62906134	-0,4412164636887623	7	-0,0741109252	0,000718768686
2	0	0	1	0	7989,52	1,6166271	1,61715221	-0,44429316092282714	7	-0,0746430606	0,000718489697
2	0	0	1	0	7990,72	1,60462606	1,60484195	-0,44709192371616877	7	-0,0751786232	0,000717511866
2	0	0	0	0	7991,92	1,5926249	1,59288299	-0,45035990777735878	7	-0,0757178366	0,000717370654
2	0	0	1	0	7993,12	1,58062387	1,58077323	-0,45315233276536083	7	-0,0762608051	0,000716331066
2	0	0	1	0	7994,32	1,56862259	1,56902444	-0,45653962421541472	7	-0,0768073797	0,000716321811
2	0	0	0	0	7995,52	1,55662167	1,55709529	-0,45978055583934016	7	-0,077358149	0,000715922157
2	0	0	0	0	7996,72	1,54462039	1,54530656	-0,46366109202305414	7	-0,077913098	0,000716498529
2	0	0	1	0	7997,92	1,53261924	1,53291619	-0,46719678305089472	7	-0,078472659	0,000716173497
2	0	0	1	0	7999,12	1,52061832	1,5207665	-0,47133285567785242	7	-0,0790369138	0,000716787239
2	0	0	0	0	8000,32	1,50861716	1,50860667	-0,47604243643582048	7	-0,0796063468	0,000718160823
2	0	0	0	0	8001,52	1,49661517	1,49679816	-0,4807147314079465	7	-0,0801810026	0,000719532953
2	0	0	1	0	8002,72	1,48461497	1,48497891	-0,48522696628545824	7	-0,0807611942	0,00072055182
2	0	0	0	0	8003,92	1,47261381	1,47289932	-0,49035858487089626	7	-0,0813473389	0,000722248806
2	0	0	0	0	8005,12	1,46061265	1,46108043	-0,49560548613468922	7	-0,0819396526	0,000724119483
2	0	0	1	0	8006,32	1,4486115	1,44897079	-0,50149875584368966	7	-0,0825386643	0,000726657046
2	0	0	1	0	8007,52	1,43661034	1,43679094	-0,50746694905683398	7	-0,0831446648	0,000729123945
2	0	0	0	0	8008,72	1,4246093	1,42484176	-0,51391423322881338	7	-0,0837583393	0,000732246437
2	0	0	0	0	8009,92	1,41260827	1,41272199	-0,52068420297776717	7	-0,0843798593	0,000735582027
2	0	0	1	0	8011,12	1,40060699	1,40088308	-0,52820259053260224	7	-0,0850100443	0,000739950046
2	0	0	1	0	8012,32	1,38860667	1,38889444	-0,53576863294958611	7	-0,0856492296	0,000744126097
2	0	0	0	0	8013,52	1,3766048	1,37681413	-0,54425863999252486	7	-0,086298123	0,000749342958
2	0	0	1	0	8014,72	1,36460364	1,36480474	-0,55290100940813504	7	-0,0869572684	0,000754601904
2	0	0	1	0	8015,92	1,3526026	1,3527354	-0,56268913252279296	7	-0,0876274779	0,000761169533
2	0	0	0	0	8017,12	1,34060144	1,34109676	-0,57286697858944557	7	-0,0883098468	0,000768270053
2	0	0	0	0	8018,32	1,32860041	1,32884681	-0,58438377873972275	7	-0,0890053585	0,000776556495
2	0	0	1	0	8019,52	1,31659925	1,31701791	-0,59685719665139866	7	-0,0897151008	0,000786071643
2	0	0	1	0	8020,72	1,30459809	1,30512881	-0,61043056100607091	7	-0,0904400349	0,000796690525
2	0	0	0	0	8021,92	1,29259694	1,29286885	-0,62450040100763226	7	-0,091181688	0,000807397126
2	0	0	1	0	8023,12	1,2805959	1,28059876	-0,64035354523609024	7	-0,0919414088	0,00082003593
2	0	0	1	0	8024,32	1,26859462	1,26884007	-0,65665500145405619	7	-0,0927203149	0,000833190163
2	0	0	0	0	8025,52	1,25659359	1,25683057	-0,67500643649449101	7	-0,0935200825	0,000848368742
2	0	0	0	0	8026,72	1,24459255	1,24492145	-0,69361418563251622	7	-0,0943419859	0,000863495166
2	0	0	1	0	8027,92	1,23259139	1,23284197	-0,71415007331719155	7	-0,095187515	0,000880434178
2	0	0	1	0	8029,12	1,22059023	1,22093272	-0,73522407251099328	7	-0,0960578173	0,000897659105
2	0	0	0	0	8030,32	1,2085892	1,208763	-0,75759606932600614	7	-0,0969543383	0,000915754121
2	0	0	0	0	8031,52	1,19658804	1,19697404	-0,78063074778765798	7	-0,0978780761	0,000934394717
2	0	0	1	0	8032,73	1,18458688	1,18482447	-0,80499727527300723	7	-0,0988304168	0,000953780487
2	0	0	0	0	8033,93	1,17258573	1,17280495	-0,82985935360193434	7	-0,0998124555	0,000973263173
2	0	0	0	0	8035,13	1,16058457	1,16098607	-0,85600092013676493	7	-0,100824893	0,000993805123
2	0	0	1	0	8036,33	1,14858353	1,14883637	-0,8825806540747543	7	-0,101869263	0,00101394078
2	0	0	1	0	8037,53	1,13658237	1,13673675	-0,91019038017839552	7	-0,102946125	0,00103464688
2	0	0	0	0	8038,73	1,12458122	1,12484765	-0,93888087601711411	7	-0,104056731	0,00105609791
2	0	0	0	0	8039,93	1,11258018	1,11286831	-0,96823643054813146	7	-0,105201609	0,00107751961
2	0	0	1	0	8041,17	1,10017908	1,10026741	-0,99853271680573786	7	-0,106422104	0,00109865295
2	0	0	1	0	8042,37	1,08817875	1,08840895	-1,0294040390592118	7	-0,107639603	0,00112041261
2	0	0	0	0	8043,57	1,07617676	1,0764091	-1,061798835483689	7	-0,108895048	0,00114292989
2	0	0	1	0	8044,77	1,06417572	1,06443965	-1,0947574355329042	7	-0,11018984	0,00116530317
2	0	0	1	0	8045,97	1,05217457	1,05258071	-1,1298801849285698	7	-0,111525238	0,00118929008
2	0	0	0	0	8047,17	1,04017341	1,04018056	-1,165975104706984	7	-0,11290355	0,0012128246
2	0	0	0	0	8048,37	1,02817237	1,02834141	-1,204687987454239	7	-0,114326447	0,0012388305
2	0	0	1	0	8049,57	1,01617122	1,01646245	-1,2451998951534389	7	-0,115797207	0,00126569893
2	0	0	1	0	8050,77	1,00417006	1,00443304	-1,2894429725905318	7	-0,117318459	0,00129515911
2	1	0	1	0	8051,92	1,00727034	1,00760067	-1,1639271623765488	7	-0,118754797	0,00117277377
2	1	0	1	0	8053,12	1,01927149	1,01948977	-1,0475109067435042	7	-0,120077007	0,00106792664
2	1	0	0	0	8054,32	1,03127265	1,03129864	-0,95175680083533005	7	-0,121274672	0,000981545541
2	1	0	0	0	8055,52	1,04327369	1,04356873	-0,86640633642673498	7	-0,122363612	0,000904154556
2	1	0	1	0	8056,72	1,05527472	1,05567825	-0,78979117609560576	7	-0,123355702	0,000833765371
2	1	0	0	0	8057,92	1,06727672	1,06742835	-0,72042709665539622	7	-0,124259993	0,000769004284
2	1	0	0	0	8059,12	1,07927704	1,07945657	-0,65841235903402048	7	-0,125085697	0,000710727531
2	1	0	1	0	8060,32	1,0912782	1,09147596	-0,6024581966921687	7	-0,125840813	0,000657568628
2	1	0	1	0	8061,52	1,10327935	1,10330486	-0,55247600345562112	7	-0,126532301	0,000609549461
2	1	0	0	0	8062,72	1,11528039	1,11550474	-0,50730348067979091	7	-0,127166763	0,00056589942
2	1	0	0	0	8063,96	1,12768149	1,12809551	-0,46610094110171117	7	-0,127769202	0,00052580639
2	1	0	1	0	8065,16	1,13968277	1,14003491	-0,4297121539711961	7	-0,128305495	0,00048988685
2	1	0	1	0	8066,36	1,15168381	1,15214431	-0,39624492141107661	7	-0,128799826	0,000456531328
2	1	0	0	0	8067,56	1,16368496	1,16398335	-0,36639080212141197	7	-0,129256174	0,000426472805
2	1	0	1	0	8068,76	1,17568612	1,17587245	-0,33873539355893901	7	-0,129677907	0,00039830961
2	1	0	1	0	8069,96	1,18768716	1,1880523	-0,31308007892221254	7	-0,130067825	0,00037195551
2	1	0	0	0	8071,16	1,1996882	1,19970083	-0,28971309385572838	7	-0,130428836	0,000347569032
2	1	0	0	0	8072,36	1,21168947	1,21201098	-0,26846303914984128	7	-0,130763009	0,000325380155
2	1	0	1	0	8073,56	1,22369051	1,22395015	-0,24851625769709606	7	-0,131072491	0,000304171524
2	1	0	1	0	8074,76	1,23569155	1,23590946	-0,23026717353301773	7	-0,131359011	0,000284589391
2	1	0	0	0	8075,96	1,24769294	1,24789882	-0,2130752049076064	7	-0,131624356	0,000265896291
2	1	0	0	0	8077,16	1,25969386	1,25986803	-0,19730679954712605	7	-0,131869853	0,000248580531
2	1	0	1	0	8078,36	1,2716949	1,27216816	-0,18287545628845715	7	-0,132096902	0,000232648337
2	1	0	0	0	8079,56	1,28369617	1,28404713	-0,16852318778789322	7	-0,132306844	0,000216391709
2	1	0	0	0	8080,76	1,29569733	1,29612672	-0,15528208304506986	7	-0,132500395	0,000201265255
2	1	0	1	0	8081,96	1,30769837	1,30800593	-0,14319175675821771	7	-0,132678717	0,000187295664
2	1	0	1	0	8083,16	1,31969953	1,32019567	-0,13133665500208779	7	-0,132842511	0,000173390086
2	1	0	0	0	8084,36	1,33170056	1,33175397	-0,12053519258430878	7	-0,132992759	0,000160523225
2	1	0	0	0	8085,56	1,3437016	1,34382343	-0,10983492305967957	7	-0,133130044	0,000147598737
2	1	0	1	0	8086,76	1,35570288	1,35591304	-0,1002176010515543	7	-0,133255139	0,000135886352
2	1	0	0	0	8087,96	1,36770391	1,36782217	-0,09064422049171616	7	-0,133368522	0,00012398517
2	1	0	0	0	8089,16	1,37970507	1,3801223	-0,081334903448199437	7	-0,133470893	0,000112252113
2	1	0	1	0	8090,36	1,39170623	1,39208162	-0,072474405266499674	7	-0,133562624	0,000100890291
2	1	0	1	0	8091,56	1,40370727	1,40395057	-0,064495689449055757	7	-0,133644208	9,05487614E-005
2	1	0	0	0	8092,76	1,41570854	1,41602004	-0,056342849915381741	7	-0,133716047	7,97826069E-005
2	1	0	0	0	8094,00	1,42810965	1,42834032	-0,048713971957719648	7	-0,133780509	6,95801282E-005
2	1	0	1	0	8095,20	1,4401108	1,44047999	-0,041015110745017094	7	-0,133833811	5,90814452E-005
2	1	0	1	0	8096,40	1,45211184	1,4525094	-0,034228074830025459	7	-0,133878395	4,97166002E-005
2	1	0	0	0	8097,60	1,464113	1,46446872	-0,027091181584789069	7	-0,13391459	3,96741889E-005
2	1	0	1	0	8098,80	1,47611403	1,47629762	-0,020606997005719107	7	-0,133942559	3,04220612E-005
2	1	0	1	0	8100,00	1,48811519	1,48845732	-0,013861377912689958	7	-0,133962676	2,06320692E-005
2	1	0	0	0	8101,20	1,50011635	1,5003165	-0,0077584924583789235	7	-0,133974984	1,16401943E-005
2	1	0	0	0	8102,44	1,51251757	1,51269662	-0,00080314699395482586	7	-0,133979812	1,2149178E-006
2	1	0	1	0	8103,64	1,52451861	1,5247463	0,005455517519294503	7	-0,133976951	8,31828038E-006
2	1	0	1	0	8104,88	1,53691971	1,53717661	0,010904664804305242	7	-0,133966431	1,67623948E-005
2	1	0	0	0	8106,08	1,54892087	1,54934645	0,017055359072401162	7	-0,133948922	2,64246592E-005
2	1	0	1	0	8107,28	1,56092203	1,56108522	0,022514321487202838	7	-0,13392435	3,51467752E-005
2	1	0	1	0	8108,48	1,57292306	1,5733552	0,028420537234827181	7	-0,133892789	4,47156017E-005
2	1	0	0	0	8109,68	1,5849241	1,58526421	0,034383694447266522	7	-0,133854374	5,45072398E-005
2	1	0	0	0	8110,88	1,59692538	1,59713328	0,040400866254155194	7	-0,133809015	6,45255714E-005
2	1	0	1	0	8112,08	1,60892642	1,60919273	0,045823202827402042	7	-0,133756831	7,37383671E-005
2	1	0	1	0	8113,28	1,62092757	1,62129247	0,051728899144412256	7	-0,133697778	8,38676715E-005
2	1	0	0	0	8114,48	1,63292861	1,63340211	0,057230130924532774	7	-0,1336319	9,34798154E-005
2	1	0	0	0	8115,68	1,64492977	1,64540148	0,06312663137214272	7	-0,133559152	0,000103868653
2	1	0	1	0	8116,88	1,65693104	1,65733051	0,068569474019265331	7	-0,13347955	0,00011364228
2	1	0	0	0	8118,08	1,66893208	1,66908944	0,074599209299776704	7	-0,133393049	0,00012451275
2	1	0	0	0	8119,28	1,68093312	1,68117893	0,080185080024723904	7	-0,133299634	0,000134805465
2	1	0	1	0	8120,48	1,69293427	1,69314826	0,086109673914810061	7	-0,1331992	0,000145796439
2	1	0	1	0	8121,68	1,70493543	1,70520782	0,091723619358769165	7	-0,133091837	0,000156407827
2	1	0	0	0	8122,88	1,71693647	1,71736753	0,097670294344425088	7	-0,132977515	0,000167735794
2	1	0	0	0	8124,12	1,72933757	1,72955739	0,10378498130012304	7	-0,132851928	0,00017950208
2	1	0	1	0	8125,32	1,74133861	1,74159658	0,10948976680325928	7	-0,132723182	0,000190687002
2	1	0	0	0	8126,52	1,75333989	1,75378668	0,1155839034666613	7	-0,132587299	0,000202709518
2	1	0	0	0	8127,72	1,76534104	1,76542509	0,1212721881456671	7	-0,132444307	0,000214096959
2	1	0	1	0	8128,92	1,77734208	1,77771521	0,1274005048520237	7	-0,132294044	0,000226481818
2	1	0	1	0	8130,12	1,78934336	1,78974473	0,13366107277882589	7	-0,132136643	0,000239219196
2	1	0	0	0	8131,32	1,80134428	1,80170405	0,13990588268885973	7	-0,13197194	0,000252069003
2	1	0	0	0	8132,52	1,81334555	1,81376338	0,14575590468787891	7	-0,131800026	0,00026436671
2	1	0	1	0	8133,73	1,82534659	1,82550204	0,1519674013058343	7	-0,131620809	0,00027741681
2	1	0	1	0	8134,93	1,83734775	1,83766186	0,15779976779594973	7	-0,131434351	0,000289982621
2	1	0	0	0	8136,13	1,84934902	1,84939075	0,16413020563777536	7	-0,131240636	0,000303540874
2	1	0	1	0	8137,33	1,86134994	1,86160028	0,16967337392270477	7	-0,131039694	0,000315863988
2	1	0	1	0	8138,53	1,87335098	1,8736099	0,17593368752083414	7	-0,130831704	0,00032963109
2	1	0	0	0	8139,73	1,88535225	1,88582981	0,18155658710747958	7	-0,130616575	0,000342384825
2	1	0	0	0	8140,93	1,89735329	1,89748824	0,18739583576098042	7	-0,130394623	0,000355581404
2	1	0	1	0	8142,13	1,90935445	1,9094975	0,1928021408772711	7	-0,130165786	0,000368155219
2	1	0	1	0	8143,33	1,92135572	1,92158723	0,19845625207138618	7	-0,129930362	0,000381351012
2	1	0	0	0	8144,53	1,93335664	1,93355656	0,20364206431743971	7	-0,129688323	0,000393753435
2	1	0	0	0	8145,73	1,94535804	1,94555652	0,20893240309491824	7	-0,129440024	0,000406489795
2	1	0	1	0	8146,93	1,95735896	1,95761538	0,21374082968880659	7	-0,129185528	0,000418422336
2	1	0	0	0	8148,13	1,96936011	1,96981514	0,21862170845270112	7	-0,12892507	0,000430644344
2	1	0	0	0	8149,33	1,98136115	1,98158395	0,2237089528546976	7	-0,128658846	0,000443298079
2	1	0	1	0	8150,53	1,99336231	1,99351323	0,22837815620005043	7	-0,128387108	0,000455274887
2	1	0	1	0	8151,73	2,00536346	2,00552249	0,23254959199887952	7	-0,128110006	0,000466383441
2	1	0	0	0	8152,93	2,0173645	2,01754212	0,23685801983810918	7	-0,127827749	0,000477871043
2	1	0	0	0	8154,13	2,02936578	2,02970171	0,24080782569944813	7	-0,127540544	0,000488768041
2	1	0	1	0	8155,33	2,04136705	2,0415709	0,24480782131043587	7	-0,127248555	0,000499792513
2	1	0	0	0	8156,53	2,05336809	2,05358005	0,24830985649799242	7	-0,126952067	0,000509924139
2	1	0	0	0	8157,73	2,06536889	2,06569004	0,25190866668708579	7	-0,126651287	0,000520365196
2	1	0	1	0	8158,93	2,07736993	2,07768917	0,25512831355445174	7	-0,12634638	0,000530077319
2	1	0	1	0	8160,13	2,0893712	2,08966851	0,25856284354813485	7	-0,126037523	0,000540310633
2	1	0	0	0	8161,33	2,10137224	2,10162783	0,26127199060283645	7	-0,125725091	0,000549096498
2	1	0	0	0	8162,53	2,11337352	2,11368728	0,26435880797604659	7	-0,125408992	0,000558771833
2	1	0	1	0	8163,73	2,12537456	2,12560654	0,26694647323650589	7	-0,125089496	0,00056742318
2	1	0	1	0	8164,93	2,13737464	2,13766599	0,26968020485795142	7	-0,124766782	0,000576486229
2	1	0	0	0	8166,13	2,14937663	2,14975548	0,27191770977030227	7	-0,124440923	0,000584556605
2	1	0	1	0	8167,33	2,16137815	2,1614542	0,27434729482047261	7	-0,124112107	0,00059298909
2	1	0	1	0	8168,53	2,17337918	2,17356396	0,27683004504069664	7	-0,123780623	0,000601707783
2	1	0	0	0	8169,73	2,18538022	2,18572354	0,27916420033822486	7	-0,123446532	0,000610175775
2	1	0	0	0	8170,93	2,19738126	2,19763255	0,28082143321322928	7	-0,123110086	0,000617142301
2	1	0	1	0	8172,13	2,2093823	2,20950174	0,2829188455361864	7	-0,122771271	0,000625109707
2	1	0	1	0	8173,33	2,22138357	2,22147107	0,28448594594374122	7	-0,12243031	0,00063197728
2	1	0	0	0	8174,53	2,23338461	2,23358083	0,28642946078131536	7	-0,122087196	0,00063976337
2	1	0	0	0	8175,73	2,24538469	2,24566793	0,28779548126434797	7	-0,1217421	0,000646293105
2	1	0	1	0	8176,93	2,25738692	2,25772977	0,28964602357397549	7	-0,121395066	0,000653942465
2	1	0	0	0	8178,13	2,26938796	2,269629	0,2909143901585287	7	-0,121046118	0,000660267717
2	1	0	0	0	8179,33	2,281389	2,28165817	0,2925039476249367	7	-0,120695561	0,000667394022
2	1	0	1	0	8180,53	2,29339027	2,29378796	0,2935261531577753	7	-0,12034326	0,000673286733
2	1	0	1	0	8181,73	2,30539131	2,30574751	0,29490556839543027	7	-0,119989537	0,000679977762
2	1	0	0	0	8182,93	2,31739259	2,31762648	0,29600121950109818	7	-0,119634263	0,000686020241
2	1	0	0	0	8184,13	2,32939363	2,32959557	0,29719522083177984	7	-0,119277723	0,000692344678
2	1	0	1	0	8185,33	2,34139466	2,34181547	0,29800907848402771	7	-0,11891976	0,000697882264
2	1	0	0	0	8186,53	2,35339594	2,35357428	0,29916792642325165	7	-0,118560538	0,000704113918
2	1	0	0	0	8187,73	2,36539698	2,36563396	0,30039649084210304	7	-0,118200094	0,00071062817
2	1	0	1	0	8188,93	2,37739801	2,37755299	0,30155325254114931	7	-0,117838442	0,000716958835
2	1	0	1	0	8190,13	2,38939929	2,38965273	0,30234903725795539	7	-0,117475651	0,000722509227
2	1	0	0	0	8191,33	2,40140033	2,40178251	0,30335793450164237	7	-0,117111713	0,000728599785
2	1	0	0	0	8192,53	2,41340137	2,41361141	0,30421632264430355	7	-0,116746671	0,000734260015
2	1	0	1	0	8193,73	2,42540264	2,42562056	0,3052234443991129	7	-0,11638049	0,000740356278
2	1	0	1	0	8194,93	2,43740439	2,43763995	0,3060847821290889	7	-0,116013221	0,000746124482
2	1	0	0	0	8196,13	2,44940495	2,44963932	0,30687363057707718	7	-0,11564488	0,000751729705
2	1	0	1	0	8197,33	2,46140599	2,46148849	0,30768760278199994	7	-0,115275502	0,000757369504
2	1	0	1	0	8198,53	2,47340703	2,47364831	0,30865354114212006	7	-0,114905141	0,000763500284
2	1	0	0	0	8199,73	2,48540831	2,48575783	0,30920046792986547	7	-0,114533789	0,000768597471
2	1	0	0	0	8200,93	2,49740911	2,49770689	0,3101970868495607	7	-0,114161469	0,000774781394
2	1	0	1	0	8202,13	2,50941038	2,50971651	0,31076402224910816	7	-0,113788359	0,000779929571
2	1	0	1	0	8203,33	2,52141166	2,52169585	0,31173956246736077	7	-0,113414206	0,000786112389
2	1	0	0	0	8204,53	2,53341269	2,53376532	0,31240603979677005	7	-0,113038987	0,000791563594
2	1	0	1	0	8205,73	2,54541373	2,5455842	0,31326901586726285	7	-0,112662733	0,000797452638
2	1	0	1	0	8206,93	2,55741501	2,55773401	0,31437881904033293	7	-0,11228551	0,000804097392
2	1	0	0	0	8208,13	2,56941605	2,56957293	0,31551130961937267	7	-0,11190711	0,00081072934
2	1	0	0	0	8209,33	2,58141732	2,58159232	0,31617835676297587	7	-0,111527689	0,000816243642
2	1	0	1	0	8210,53	2,59341836	2,59365177	0,31734293908812064	7	-0,111147016	0,000823077047
2	1	0	1	0	8211,73	2,6054194	2,60567117	0,3181957251702743	7	-0,110765241	0,000829113415
2	1	0	0	0	8212,93	2,61742067	2,61763072	0,31955868223061043	7	-0,110382102	0,000836486637
2	1	0	0	0	8214,13	2,629421	2,62959933	0,32055003513028614	7	-0,109997533	0,000842918176
2	1	0	1	0	8215,33	2,64142275	2,64172935	0,3220576843402041	7	-0,109611444	0,000850789249
2	1	0	0	0	8216,53	2,65342379	2,65356827	0,32334871217608365	7	-0,109223634	0,000858027895
2	1	0	0	0	8217,73	2,66542506	2,66563797	0,32511012613152435	7	-0,108834118	0,000866625924
2	1	0	1	0	8218,93	2,6774261	2,67770743	0,32668251171708083	7	-0,108442441	0,000874760211
2	1	0	1	0	8220,13	2,68942714	2,68979692	0,32871848399129914	7	-0,108048633	0,000884185953
2	1	0	0	0	8221,33	2,70142817	2,70166612	0,33064398130712448	7	-0,107652307	0,000893289631
2	1	0	0	0	8222,53	2,71342969	2,71374559	0,3330534917768073	7	-0,107253484	0,000903822423
2	1	0	1	0	8223,73	2,72543073	2,72576523	0,3351345617944985	7	-0,106851839	0,000913498108
2	1	0	0	0	8224,93	2,73743248	2,73757291	0,33759409124787936	7	-0,106447294	0,000924188411
2	1	0	0	0	8226,13	2,7494328	2,74948311	0,34049585647880986	7	-0,106039785	0,000936187629
2	1	0	1	0	8227,33	2,76143384	2,76180315	0,3433499225260057	7	-0,105629027	0,000948264904
2	1	0	1	0	8228,53	2,77343512	2,77372241	0,34620628420573894	7	-0,105214871	0,000960280129
2	1	0	0	0	8229,73	2,78543615	2,78567171	0,34956502984277907	7	-0,104796916	0,000973773422
2	1	0	0	0	8230,93	2,79743743	2,79774141	0,35306645114906176	7	-0,104374908	0,000987788662
2	1	0	1	0	8232,13	2,80943847	2,80971026	0,3571245354445033	7	-0,103948303	0,00100341649
2	1	0	1	0	8233,33	2,8214395	2,82187033	0,36146944272331802	7	-0,103516735	0,00102001987
2	1	0	0	0	8234,53	2,83344054	2,83364892	0,36648095531078618	7	-0,103079401	0,00103847834
2	1	0	1	0	8235,73	2,8454423	2,84563971	0,37214619304610566	7	-0,102635637	0,00105899398
2	1	0	1	0	8236,93	2,85744286	2,85771799	0,37873168700995571	7	-0,102184661	0,00108230836
2	1	0	0	0	8238,13	2,86944413	2,86971736	0,38508760704037971	7	-0,101725765	0,00110509258
2	1	0	0	0	8239,33	2,88144517	2,88156652	0,39163831512753997	7	-0,101259038	0,00112853188
2	1	0	1	0	8240,54	2,89344621	2,89386654	0,39717580828194701	7	-0,10078495	0,00114937383
2	1	0	1	0	8241,74	2,90544748	2,90568542	0,4024204174056649	7	-0,100304477	0,00116930716
2	1	0	0	0	8242,94	2,91744852	2,91773486	0,40665024022261286	7	-0,0998182967	0,00118649763
2	1	0	0	0	8244,14	2,92944908	2,92976499	0,41140380446880051	7	-0,0993266255	0,00120531651
2	1	0	1	0	8245,34	2,94145083	2,94152308	0,41619505686685357	7	-0,0988293365	0,00122424739
2	1	0	0	0	8246,54	2,95345187	2,95376277	0,42126455033818643	7	-0,0983263403	0,00124431553
2	1	0	0	0	8247,74	2,96545291	2,9659729	0,42613877790669542	7	-0,0978174657	0,00126391603
2	1	0	1	0	8248,94	2,97745419	2,97774172	0,43172076810151296	7	-0,0973022059	0,00128555298
2	1	0	1	0	8250,14	2,98945522	2,98959088	0,43716770612324288	7	-0,0967804119	0,00130695256
2	1	0	0	0	8251,34	3,0014565	3,0016098	0,44313021237030624	7	-0,0962517634	0,00133010396
2	1	0	0	0	8252,54	3,01345754	3,01354933	0,44872723612934349	7	-0,0957161188	0,00135226164
2	1	0	1	0	8253,74	3,02545857	3,02561879	0,45509244439502797	7	-0,0951732621	0,00137693621
2	1	0	0	0	8254,94	3,03745914	3,03763843	0,46126862068029517	7	-0,0946228951	0,00140116725
2	1	0	0	0	8256,14	3,04946089	3,04976797	0,46799350529908954	7	-0,0940648392	0,00142727164
2	1	0	1	0	8257,34	3,06146193	3,06156683	0,47457544459029856	7	-0,0934986547	0,00145294447
2	1	0	1	0	8258,54	3,0734632	3,07370663	0,48166940004254323	7	-0,0929242969	0,00148051046
2	1	0	0	0	8259,74	3,08546424	3,08589625	0,48882280585045555	7	-0,0923412666	0,00150845642
2	1	0	0	0	8260,94	3,09746528	3,09770513	0,49637370292717978	7	-0,091749534	0,00153761939
2	1	0	1	0	8262,14	3,10946655	3,10979486	0,50373824732378125	7	-0,0911486223	0,00156652264
2	1	0	0	0	8263,34	3,12146807	3,12171483	0,51165832910252538	7	-0,0905384123	0,00159725139
2	1	0	0	0	8264,54	3,13346863	3,1336329	0,52005432778969318	7	-0,0899187103	0,00162965932
2	1	0	1	0	8265,74	3,14546967	3,14556241	0,52854589605703949	7	-0,0892890319	0,00166257413
2	1	0	1	0	8266,94	3,15747094	3,1574614	0,53696691601847667	7	-0,0886492655	0,00169545226
2	1	0	0	0	8268,14	3,16947198	3,16947103	0,54582847266768384	7	-0,0879990235	0,00172998756
2	1	0	0	0	8269,34	3,18147302	3,18165064	0,55461042079453638	7	-0,087338306	0,00176457665
2	1	0	1	0	8270,54	3,19347405	3,19367003	0,56383325501034419	7	-0,0866666958	0,00180069741
2	1	0	1	0	8271,74	3,20547509	3,20563936	0,57288121711462867	7	-0,0859841704	0,00183645054
2	1	0	0	0	8272,94	3,21747613	3,21765876	0,5821608829622464	7	-0,0852904245	0,00187319505
2	1	0	1	0	8274,14	3,22947741	3,22969794	0,59151798021048307	7	-0,0845855176	0,00191042444
2	1	0	1	0	8275,34	3,24147844	3,24169755	0,60111356883620288	7	-0,0838694051	0,00194862834
2	1	0	0	0	8276,54	3,25347948	3,25376725	0,61029427979762381	7	-0,0831418559	0,00198575552
2	1	0	0	0	8277,74	3,265481	3,26560616	0,61983231827616512	7	-0,0824030936	0,00202412833
2	1	0	1	0	8278,94	3,27748203	3,27770543	0,62899739248678182	7	-0,0816529989	0,00206166808
2	1	0	1	0	8280,14	3,28948307	3,28967476	0,63858056968698662	7	-0,0808917359	0,0021007224
2	1	0	0	0	8281,34	3,30148435	3,30160427	0,64752364872644467	7	-0,0801191926	0,0021378668
2	1	0	1	0	8282,54	3,31348467	3,31355262	0,65674240543312922	7	-0,0793356374	0,00217615045
2	1	0	1	0	8283,74	3,32548642	3,32549238	0,66609116690233344	7	-0,0785411522	0,00221508113
2	1	0	0	0	8284,94	3,33748746	3,33763242	0,67503101720163981	7	-0,0777358711	0,00225300551
2	1	0	0	0	8286,14	3,3494885	3,34975195	0,68349206959828774	7	-0,0769202858	0,00228952896
2	1	0	1	0	8287,34	3,36148977	3,36175132	0,69213486850882867	7	-0,0760942921	0,00232678535
2	1	0	1	0	8288,54	3,37349081	3,37373042	0,7004315767747657	7	-0,0752582401	0,00236306735
2	1	0	0	0	8289,74	3,38549185	3,38565993	0,70879847944403546	7	-0,0744121671	0,00239975052
2	1	0	0	0	8290,94	3,39749289	3,39765882	0,71660893302842778	7	-0,073556371	0,0024347927
2	1	0	1	0	8292,14	3,4094944	3,40969849	0,72496197884902182	7	-0,0726907551	0,00247190171
2	1	0	0	0	8293,34	3,42149544	3,42176843	0,73256797886763981	7	-0,0718155205	0,00250667799
2	1	0	0	0	8294,54	3,43349671	3,43395805	0,74065412006651238	7	-0,0709310696	0,00254337513
2	1	0	1	0	8295,74	3,44549775	3,44568658	0,74841928839062579	7	-0,0700368211	0,00257881824
2	1	0	1	0	8296,94	3,45749879	3,45767617	0,75653790899862682	7	-0,0691331774	0,00261586299
2	1	0	0	0	8298,14	3,46949983	3,46973538	0,76448876612509235	7	-0,0682197288	0,00265257363
2	1	0	0	0	8299,34	3,48150086	3,48165464	0,77278739058722918	7	-0,0672966763	0,00269057881
2	1	0	1	0	8300,54	3,4935019	3,49362397	0,78104603011160998	7	-0,0663634092	0,00272868108
2	1	0	1	0	8301,74	3,50550222	3,50594473	0,78971484389236941	7	-0,0654200837	0,00276869652
2	1	0	0	0	8302,94	3,51750422	3,51764297	0,79904913591841869	7	-0,0644659549	0,00281076948
2	1	0	1	0	8304,14	3,52950525	3,52935147	0,80848009232431654	7	-0,0635009632	0,00285341032
2	1	0	1	0	8305,34	3,54150677	3,54175186	0,81790278696765389	7	-0,0625247434	0,00289680879
2	1	0	0	0	8306,54	3,5535078	3,55364084	0,82806241450210598	7	-0,0615365095	0,00294263638
2	1	0	0	0	8307,74	3,56550908	3,56573033	0,83852734634031731	7	-0,0605360493	0,00298996246
2	1	0	1	0	8308,94	3,57751012	3,57744908	0,84976411735017882	7	-0,0595224649	0,00303998776
2	1	0	1	0	8310,14	3,58951116	3,58976936	0,86105439842988928	7	-0,0584955104	0,00309098675
2	1	0	0	0	8311,34	3,60151219	3,6017282	0,87324547084669478	7	-0,0574541278	0,00314519275
2	1	0	0	0	8312,54	3,61351299	3,61359739	0,88574306300728627	7	-0,0563980564	0,0032007189
2	1	0	1	0	8313,74	3,62551427	3,62572742	0,89903995518882957	7	-0,0553265177	0,00325967371
2	1	0	0	0	8314,94	3,63751554	3,63762617	0,91215417285760128	7	-0,0542390645	0,00331807579
2	1	0	0	0	8316,14	3,64951658	3,64969587	0,9261494409292919	7	-0,0531353503	0,00338016381
2	1	0	1	0	8317,34	3,66151762	3,66162491	0,94033563137054272	7	-0,0520145074	0,00344315637
2	1	0	1	0	8318,54	3,67351913	3,67373466	0,95578304398804902	7	-0,0508761033	0,00351129333
2	1	0	0	0	8319,74	3,68552017	3,6858542	0,97108652194340902	7	-0,0497190021	0,00357928337
2	1	0	0	0	8320,94	3,69752169	3,69776416	0,98748850411987072	7	-0,0485426597	0,00365149952
2	1	0	1	0	8322,18	3,70992255	3,71024418	1,0064962850883638	7	-0,0473056063	0,00373434694
2	1	0	0	0	8323,38	3,72192359	3,72231364	1,0241229947035499	7	-0,0460864529	0,00381210702
2	1	0	0	0	8324,58	3,73392463	3,73423266	1,0417452892288566	7	-0,0448463671	0,00389011926
2	1	0	1	0	8325,78	3,74592566	3,74605203	1,0606509388114	7	-0,0435839333	0,00397325354
2	1	0	1	0	8326,98	3,7579267	3,75828171	1,0797363094364592	7	-0,0422990099	0,00405795313
2	1	0	0	0	8328,18	3,76992774	3,77012062	1,0998756460224541	7	-0,0409904942	0,00414666394
2	1	0	0	0	8329,38	3,78192902	3,78206992	1,1202273365731043	7	-0,0396577232	0,00423677824
2	1	0	1	0	8330,58	3,79393005	3,79422975	1,1416085983316107	7	-0,0382996723	0,00433152542
2	1	0	0	0	8331,78	3,80593181	3,80599833	1,163521362880651	7	-0,0369155668	0,00442836015
2	1	0	0	0	8332,98	3,81793261	3,81777716	1,1864119507372432	7	-0,035504926	0,00452945661
2	1	0	1	0	8334,18	3,82993364	3,82991719	1,2093210974708163	7	-0,0340665057	0,00463159988
2	1	0	1	0	8335,38	3,84193468	3,84196639	1,2331263124942814	7	-0,0326001085	0,00473763002
2	1	0	0	0	8336,58	3,85393596	3,854146	1,2576100835576645	7	-0,0311043654	0,00484701293
2	1	0	0	0	8337,78	3,86593699	3,86602521	1,2829331600417717	7	-0,0295790993	0,00495985197
2	1	0	1	0	8338,98	3,87793803	3,87795448	1,3088673722619824	7	-0,0280227438	0,00507572806
2	1	0	1	0	8340,18	3,88993907	3,89006424	1,3356165618946142	7	-0,0264348779	0,00519563444
2	1	0	0	0	8341,38	3,90194011	3,90207338	1,3636213184023874	7	-0,0248141121	0,00532095041
2	1	0	1	0	8342,58	3,91394138	3,91420341	1,3923797151073778	7	-0,0231595971	0,00545005733
2	1	0	1	0	8343,78	3,92594242	3,92624283	1,4218180033688723	7	-0,021470502	0,00558240293
2	1	0	0	0	8344,98	3,93794346	3,93819213	1,4525643888240048	7	-0,0197449047	0,00572047755
2	1	0	0	0	8346,18	3,94994497	3,94993043	1,4844864808643853	7	-0,017982062	0,00586361811
2	1	0	1	0	8347,39	3,96194601	3,96200037	1,5185369513928854	7	-0,0161792655	0,00601644395
2	1	0	1	0	8348,59	3,97394705	3,97388935	1,5542879868298733	7	-0,014334999	0,00617656857
2	1	0	0	0	8349,79	3,98594832	3,98603892	1,5921158107618538	7	-0,0124461465	0,00634623552
2	1	0	0	0	8350,99	3,99794865	3,99817848	1,6321528762049907	7	-0,0105109531	0,00652563851
2	1	0	1	0	8352,19	4,00995016	4,01006746	1,6751646734774077	7	-0,00852556434	0,00671752356
2	1	0	0	0	8353,39	4,0219512	4,022017	1,7200816397865565	7	-0,00648743007	0,0069181975
2	1	0	0	0	8354,59	4,03395224	4,03417683	1,768560062473025	7	-0,00439329073	0,0071346839
2	1	0	1	0	8355,79	4,04595375	4,04617596	1,8195339714487382	7	-0,00223923614	0,00736215478
2	1	0	1	0	8356,99	4,05795479	4,05814552	1,8736031875014269	7	-2,24251889E-005	0,00760335429
2	1	0	0	0	8358,19	4,06995583	4,0699544	1,9305126828451904	7	0,00226129522	0,00785709824
2	1	0	1	0	8359,39	4,08195877	4,08211613	1,991108527498552	7	0,00461565284	0,00812793616
2	1	0	1	0	8360,59	4,09395838	4,09436369	2,0550300429264752	7	0,00704406993	0,00841404032
2	1	0	0	0	8361,79	4,10595942	4,10612297	2,1227490839858797	7	0,00955167878	0,00871626846
2	1	0	0	0	8362,99	4,11796045	4,11814213	2,1940687571962698	7	0,0121423258	0,00903548673
2	1	0	1	0	8364,19	4,12996149	4,13000107	2,269314369186759	7	0,0148214391	0,00937227067
2	1	0	1	0	8365,39	4,14196253	4,1420207	2,3489626944065024	7	0,0175929181	0,00972945243
2	1	0	0	0	8366,59	4,15396357	4,1540699	2,4333430118858813	7	0,0204631146	0,0101082772
2	1	0	0	0	8367,79	4,16596413	4,16596937	2,5213081579871341	7	0,0234364141	0,0105036926
2	1	0	1	0	8368,99	4,17796564	4,17825937	2,6144502411286013	7	0,026519116	0,0109238513
2	1	0	1	0	8370,19	4,18996572	4,19013691	2,7116441476888832	7	0,0297152996	0,0113621606
2	0	0	0	1	8371,32	4,198668	4,19885969	2,7551547686258928	7	0,0328323171	0,0115685081
2	0	0	1	1	8372,52	4,18666697	4,18681002	2,5365116248528138	7	0,0359971225	0,0106198927
2	0	0	1	1	8373,72	4,17466545	4,17496109	2,3545894883573021	7	0,0389292724	0,00983031932
2	0	0	0	1	8374,92	4,16266441	4,16277122	2,1847682284812179	7	0,0416510776	0,00909468997
2	0	0	0	1	8376,12	4,15066338	4,15064192	2,0249181408435037	7	0,0441747233	0,00840471033
2	0	0	1	1	8377,32	4,13866234	4,13871241	1,8734772838652099	7	0,0465123355	0,00775378384
2	0	0	0	1	8378,52	4,12665939	4,12669134	1,7311027097360826	7	0,0486736633	0,00714372657
2	0	0	0	1	8379,72	4,11465979	4,11492443	1,5955185306568963	7	0,0506679229	0,00656543812
2	0	0	1	1	8380,92	4,10265875	4,10267496	1,4677959872046672	7	0,0525044166	0,00602188986
2	0	0	1	1	8382,12	4,09065819	4,09073496	1,3462767989064269	7	0,0541910157	0,00550726149
2	0	0	0	1	8383,32	4,07865667	4,07896662	1,2312673106789571	7	0,0557359308	0,00502229808
2	0	0	0	1	8384,52	4,06665564	4,06675625	1,1219900843376904	7	0,0571460202	0,00456286035
2	0	0	1	1	8385,72	4,0546546	4,05483723	1,0191131544609853	7	0,0584289804	0,00413233787
2	0	0	1	1	8386,92	4,04265356	4,04272747	0,92106582131236787	7	0,0595910251	0,00372361811
2	0	0	0	1	8388,12	4,03065205	4,03078842	0,82840065906445043	7	0,060639143	0,00333910785
2	0	0	0	1	8389,32	4,01865149	4,01913977	0,7404363011641673	7	0,0615791902	0,00297591696
2	0	0	1	1	8390,52	4,00664997	4,00683022	0,65856604355697715	7	0,0624173693	0,00263876235
2	0	0	0	1	8391,72	3,99464869	3,99493074	0,580160518021632	7	0,0631593168	0,002317701
2	0	0	0	1	8392,92	3,98264766	3,98270059	0,50653590681031347	7	0,0638100207	0,0020173809
2	0	0	1	1	8394,16	3,97024655	3,97028065	0,43370786324764294	7	0,064391315	0,00172194198
2	0	0	1	1	8395,36	3,95824528	3,95846128	0,36847269760134304	7	0,064871408	0,00145858491
2	0	0	0	1	8396,56	3,94624424	3,94664288	0,30682435375638285	7	0,0652754083	0,0012109261
2	0	0	0	1	8397,76	3,93424439	3,93429422	0,24876063023410387	7	0,0656074807	0,000978697557
2	0	0	1	1	8398,96	3,92224216	3,92229295	0,19396734396771821	7	0,0658719689	0,000760796771
2	0	0	0	1	8400,16	3,91024113	3,91036367	0,14254177811865998	7	0,0660726354	0,000557390216
2	0	0	0	1	8401,36	3,89824009	3,89832425	0,094180254013432666	7	0,066213429	0,00036714517
2	0	0	1	1	8402,56	3,88623881	3,88637519	0,048778848062890234	7	0,0662979037	0,000189572907
2	0	0	1	1	8403,80	3,87383771	3,87416506	0,0045881970230160186	7	0,0663297698	1,77754318E-005
2	0	0	0	1	8405,00	3,86183667	3,86184525	-0,035438683727988973	7	0,0663102642	0,000136858711
2	0	0	0	1	8406,20	3,84983563	3,84998608	-0,072740609815810317	7	0,0662442148	0,000280050328
2	0	0	1	1	8407,44	3,83743405	3,83748555	-0,10929012403357795	7	0,066129826	0,000419399265
2	0	0	0	1	8408,64	3,82543302	3,82554626	-0,14312006727171434	7	0,0659770891	0,000547512434
2	0	0	0	1	8409,84	3,81343198	3,81341648	-0,17525343453356378	7	0,0657850727	0,000668314344
2	0	0	1	1	8411,04	3,8014307	3,80154753	-0,20542346523143261	7	0,0655558035	0,000780927076
2	0	0	1	1	8412,24	3,78942966	3,78958821	-0,23438733761819718	7	0,0652909949	0,000888231501
2	0	0	0	1	8413,44	3,77742863	3,77744865	-0,26187500582697565	7	0,0649923608	0,000989219407
2	0	0	0	1	8414,64	3,76542759	3,76557946	-0,2884210061747584	7	0,0646613464	0,00108607218
2	0	0	1	1	8415,84	3,75342655	3,75373054	-0,31356250921574771	7	0,0642992184	0,00117702922
2	0	0	0	1	8417,04	3,74142528	3,74166107	-0,33810143915058342	7	0,0639073104	0,00126506097
2	0	0	0	1	8418,24	3,72942424	3,72956133	-0,36133776240361203	7	0,0634866282	0,00134763133
2	0	0	1	1	8419,44	3,7174232	3,71756196	-0,3842519284226	7	0,063038446	0,00142848038
2	0	0	1	1	8420,64	3,70542169	3,70579314	-0,40614590840414342	7	0,0625633299	0,00150509272
2	0	0	0	1	8421,84	3,69342065	3,69349289	-0,42747851631914682	7	0,0620621406	0,00157888886
2	0	0	0	1	8423,04	3,68141961	3,68156385	-0,44819193395475667	7	0,061535731	0,00165004726
2	0	0	1	1	8424,24	3,66941833	3,66956425	-0,46838501188904122	7	0,0609847233	0,00171876885
2	0	0	1	1	8425,44	3,6574173	3,65744472	-0,48799036256968973	7	0,0604098774	0,00178479776
2	0	0	0	1	8426,64	3,64541626	3,64548564	-0,50689788209274592	7	0,0598117225	0,00184788893
2	0	0	1	1	8427,84	3,63341522	3,63356614	-0,52571630050738528	7	0,0591909066	0,00191022491
2	0	0	1	1	8429,04	3,62141418	3,62174749	-0,54394869925454528	7	0,0585483536	0,0019700448
2	0	0	0	1	8430,24	3,60941315	3,60973835	-0,56134432818119763	7	0,0578844622	0,00202630623
2	0	0	0	1	8431,44	3,59741187	3,59772873	-0,57805107735718144	7	0,057200104	0,00207967102
2	0	0	1	1	8432,64	3,58541083	3,58556914	-0,5943454490043209	7	0,0564958118	0,00213106675
2	0	0	1	1	8433,84	3,5734098	3,57353973	-0,6098585957661271	7	0,0557725839	0,00217935396
2	0	0	0	1	8435,04	3,56140828	3,56170034	-0,62465502135455782	7	0,0550310425	0,00222483394
2	0	0	0	1	8436,24	3,54940772	3,54940057	-0,63860394009375642	7	0,054272335	0,00226666126
2	0	0	1	1	8437,44	3,53740621	3,53785229	-0,65198843010390733	7	0,053497076	0,00230663875
2	0	0	0	1	8438,64	3,52540493	3,52550173	-0,66457199212163686	7	0,0527061895	0,00234294962
2	0	0	0	1	8439,84	3,51340389	3,51358294	-0,67607017063225254	7	0,0519009791	0,00237542856
2	0	0	1	1	8441,04	3,50140285	3,50154328	-0,68703575090815411	7	0,0510820448	0,00240568537
2	0	0	1	1	8442,24	3,48940182	3,48943377	-0,69707719702273613	7	0,0502507351	0,00243240478
2	0	0	0	1	8443,44	3,47740078	3,47769499	-0,70626706319550835	7	0,049407661	0,00245618145
2	0	0	0	1	8444,64	3,4653995	3,46524453	-0,7145585299779977	7	0,0485542715	0,00247612013
2	0	0	1	1	8445,84	3,45339847	3,45361638	-0,72185707480336346	7	0,0476911888	0,00249301735
2	0	0	1	1	8447,04	3,44139814	3,44144797	-0,72860558006183936	7	0,0468199179	0,00250745821
2	0	0	0	1	8448,24	3,42939591	3,42959714	-0,73476164011905536	7	0,0459410176	0,00251993653
2	0	0	1	1	8449,45	3,41739488	3,41748762	-0,73951589378217971	7	0,0450557247	0,0025272863
2	0	0	1	1	8450,65	3,40539384	3,40553856	-0,74367246869951488	7	0,0441651419	0,00253260531
2	0	0	0	1	8451,85	3,39339256	3,39360929	-0,74691824568435366	7	0,0432699136	0,00253474875
2	0	0	0	1	8453,05	3,38139153	3,38155985	-0,74960415825868582	7	0,0423713028	0,00253483141
2	0	0	1	1	8454,25	3,36939049	3,36966062	-0,75142200741296256	7	0,0414698981	0,00253203721
2	0	0	1	1	8455,45	3,35738945	3,35758138	-0,75255143192286323	7	0,0405668505	0,00252675265
2	0	0	0	1	8456,65	3,34538841	3,34544134	-0,75311728287488218	7	0,0396625996	0,00251950976
2	0	0	0	1	8457,85	3,33338809	3,33341408	-0,7528895013533719	7	0,0387582034	0,00250969245
2	0	0	1	1	8459,05	3,3213861	3,32130218	-0,75234467505166963	7	0,0378542654	0,00249876408
2	0	0	0	1	8460,25	3,30938506	3,30970383	-0,7510672186811776	7	0,0369512923	0,00248581008
2	0	0	0	1	8461,45	3,29738402	3,29762435	-0,74934536156555213	7	0,0360502303	0,00247105956
2	0	0	1	1	8462,65	3,28538251	3,28568506	-0,74725186964496832	7	0,0351513736	0,00245523429
2	0	0	1	1	8463,85	3,27338147	3,27372575	-0,7446144946540407	7	0,0342554301	0,00243766373
2	0	0	0	1	8465,05	3,26138043	3,26162648	-0,74163023661822438	7	0,0333625935	0,00241892086
2	0	0	0	1	8466,25	3,24937868	3,24958611	-0,73860000287684442	7	0,0324734747	0,00240014424
2	0	0	1	1	8467,45	3,23737812	3,23758745	-0,73541688841457242	7	0,031588424	0,00238097645
2	0	0	0	1	8468,65	3,22537708	3,22541761	-0,73152952035888934	7	0,0307076275	0,00235948828
2	0	0	0	1	8469,85	3,21337605	3,2135489	-0,72754560038447552	7	0,029831633	0,00233800337
2	0	0	1	1	8471,05	3,20137501	3,20132875	-0,72340692098563059	7	0,0289604068	0,00231586327
2	0	0	1	1	8472,25	3,18937373	3,18951011	-0,71908557026957709	7	0,028094342	0,00229353062
2	0	0	0	1	8473,45	3,17737269	3,17754054	-0,71478527085855603	7	0,0272333454	0,0022712592
2	0	0	0	1	8474,65	3,16537166	3,16569161	-0,71027016763885696	7	0,0263777114	0,00224849628
2	0	0	1	1	8475,85	3,15337014	3,15353179	-0,70577196869999168	7	0,0255273394	0,00222567446
2	0	0	0	1	8477,05	3,1413691	3,14148235	-0,70122865835825715	7	0,0246823374	0,00220289757
2	0	0	0	1	8478,25	3,12936807	3,12959313	-0,69672242738306701	7	0,0238429587	0,00218045781
2	0	0	1	1	8479,45	3,11736703	3,11755395	-0,69218017890428736	7	0,0230087768	0,0021579091
2	0	0	1	1	8480,64	3,1054163	3,10565805	-0,68762709221078566	7	0,0221836939	0,00213553454
2	0	0	0	1	8480,67	3,10516667	3,10528445	-0,68774515106564467	7	0,0221669022	0,00213564443