File: Experimentelles/Rohdaten/Batteriemessungen/AlteZelle/Studenten_Batterietests/Sonstige/ECLab-Export/S vs Li_05_GCPL_C02_loop4.mpt
EC-Lab ASCII FILE
Nb header lines : 3
mode	ox/red	error	control changes	Ns changes	counter inc.	Ns	time/s	control/V/mA	Ewe/V	dq/mA.h	<I>/mA	P/W	(Q-Qo)/mA.h	x	Capacity/mA.h
1	0	0	1	1	0	1	276005,32	-0,100000001	2,44263697	0	0	0	0	0	0
1	0	0	1	0	0	1	276225,32	-0,100000001	2,19584656	-0,00027771159945635331	-0,099974250809288934	0,000219528112	-0,0061082806725893606	0,0002279081645650192	0,0061082806725893606
1	0	0	1	0	0	1	276445,33	-0,100000001	2,18156052	-0,00027771243108560643	-0,099974550190055514	0,000218100526	-0,01221793987556448	0,00045586776395218483	0,01221793987556448
1	0	0	1	0	0	1	276665,33	-0,100000001	2,17066956	-0,0002777116309739649	-0,099974262155410624	0,000217011082	-0,018327609723990416	0,00068382776053543334	0,018327609723990416
1	0	0	1	0	0	1	276885,34	-0,100000001	2,15979767	-0,00027771162233253322	-0,099974259044555123	0,00021592417	-0,024437272639120042	0,00091178749842807475	0,024437272639120042
1	0	0	1	0	0	1	277105,34	-0,100000001	2,14720941	-0,00027771274963931904	-0,099974664862528589	0,000214666536	-0,03054693994706439	0,0011397474002225395	0,03054693994706439
1	0	0	1	0	0	1	277325,34	-0,100000001	2,14150643	-0,00027771093396552733	-0,099974011233713037	0,000214094995	-0,036656605459159706	0,0013677072350114624	0,036656605459159706
1	0	0	1	0	0	1	277545,35	-0,100000001	2,13664269	-0,00027771174675391779	-0,099974303830735795	0,000213609368	-0,042766256821614426	0,0015956665418582701	0,042766256821614426
1	0	0	1	0	0	1	277765,35	-0,100000001	2,13277078	-0,00027771193098111283	-0,099974370155904333	0,000213222418	-0,048875917872173338	0,0018236262101812714	0,048875917872173338
1	0	0	1	0	0	1	277985,36	-0,100000001	2,12954736	-0,00027771347728413014	-0,099974926814272166	0,000212901345	-0,054985590407957459	0,0020515863070334669	0,054985590407957459
1	0	0	1	0	0	1	278205,36	-0,100000001	2,12666726	-0,00027771247583048211	-0,099974566297900582	0,000212612635	-0,061095264272394522	0,0022795464534594902	0,061095264272394522
1	0	0	1	0	0	1	278425,36	-0,100000001	2,12075448	-0,00027771231509827907	-0,099974508435421632	0,00021202139	-0,067204940261256998	0,0025075066791506819	0,067204940261256998
1	0	0	1	0	0	1	278645,37	-0,100000001	2,11842752	-0,00027771287720816	-0,099974710786427085	0,000211789171	-0,073314617962979405	0,0027354669687509808	0,073314617962979405
1	0	0	1	0	0	1	278865,37	-0,100000001	2,11579561	-0,0002777130339079433	-0,099974767198426726	0,000211526174	-0,079424298553707917	0,0029634273661439814	0,079424298553707917
1	0	0	1	0	0	1	279085,38	-0,100000001	2,11234331	-0,00027771252346452736	-0,099974583443499021	0,000211180639	-0,085533975360811366	0,0031913876223648448	0,085533975360811366
1	0	0	1	0	0	1	279305,38	-0,100000001	2,10883379	-0,0002777116673063073	-0,099974275230146726	0,000210829123	-0,091643643095410317	0,0034193475400783661	0,091643643095410317
1	0	0	1	0	0	1	279525,39	-0,100000001	2,10561037	-0,00027771234444528816	-0,099974519000141466	0,00021050738	-0,097753315905617101	0,0036473076471696403	0,097753315905617101
1	0	0	1	0	0	1	279745,39	-0,100000001	2,10168123	-0,0002777129225772288	-0,099974727123632717	0,000210115002	-0,10386300327359533	0,0038752682974309402	0,10386300327359533
1	0	0	1	0	0	1	279965,39	-0,100000001	2,09801912	-0,00027771294496167037	-0,099974735181876518	0,000209748905	-0,10997268545070267	0,0041032287540138682	0,10997268545070267
1	0	0	1	0	0	1	280185,40	-0,100000001	2,09153414	-0,00027771294043502874	-0,099974733547661555	0,000209100574	-0,11608237065923029	0,0043311893237031622	0,11608237065923029
1	0	0	1	0	0	1	280405,40	-0,100000001	2,08686113	-0,00027771257107622093	-0,099974600583378688	0,000208633108	-0,1221920480853425	0,0045591496030200742	0,1221920480853425
1	0	0	1	0	0	1	280625,41	-0,100000001	2,08422899	-0,00027771413851570752	-0,099975164850146995	0,000208371144	-0,12830174577620854	0,0047871106384421971	0,12830174577620854
1	0	0	1	0	0	1	280845,41	-0,100000001	2,0788312	-0,00027771308033209706	-0,099974783909636429	0,000207830701	-0,1344114321285869	0,0050150712508101005	0,1344114321285869
1	0	0	1	0	0	1	281065,42	-0,100000001	2,07120204	-0,0002777131077945232	-0,099974793800574835	0,000207067991	-0,14052111467160677	0,0052430317210457178	0,14052111467160677
1	0	0	1	0	0	1	281285,42	-0,100000001	2,06618571	-0,00027771306460185184	-0,099974778251512538	0,000206566459	-0,14663080326119584	0,0054709924168869606	0,14663080326119584
1	0	0	1	0	0	1	281505,42	-0,100000001	2,05783153	-0,00027771341729453869	-0,099974905218435059	0,000205731514	-0,15274049459895558	0,0056989532152661459	0,15274049459895558
1	0	0	1	0	0	1	281725,43	-0,100000001	2,04850459	-0,0002777114571204616	-0,099974199569354522	0,000204797601	-0,15885016375297338	0,0059269131859400934	0,15885016375297338
1	0	0	1	0	0	1	281945,43	-0,100000001	2,0411613	-0,00027771213039548858	-0,09997444193904201	0,000204063967	-0,16495982888065014	0,0061548730063858419	0,16495982888065014
1	0	0	1	0	0	1	282165,44	-0,100000001	2,03225422	-0,0002777120443686015	-0,099974410971122803	0,000203173418	-0,17106950017901869	0,0063828330570683994	0,17106950017901869
1	0	0	1	0	0	1	282385,44	-0,100000001	2,02424335	-0,00027771166852075194	-0,099974275669666035	0,000202372263	-0,17717916654536934	0,0066107929237307379	0,17717916654536934
1	0	0	1	0	0	1	282605,45	-0,100000001	2,01350498	-0,00027771245471760627	-0,099974558692756288	0,000201299277	-0,18328882600892195	0,0068387525328404006	0,18328882600892195
1	0	0	1	0	0	1	282825,45	-0,100000001	2,00635242	-0,00027771164653615821	-0,099974267757692339	0,000200583614	-0,18939849496790883	0,0070667124962374822	0,18939849496790883
1	0	0	1	0	0	1	283045,45	-0,100000001	1,9972353	-0,0002777134075069593	-0,099974901694974336	0,000199673406	-0,19550817351889562	0,0072946728175249754	0,19550817351889562
1	0	0	1	0	0	1	283265,46	-0,100000001	1,99031174	-0,0002777113228941129	-0,099974151248799411	0,000198979731	-0,20161783686717674	0,0075226325715790822	0,20161783686717674
1	0	0	1	0	0	1	283485,46	-0,100000001	1,98315918	-0,00027771229108795523	-0,099974499787216154	0,000198265348	-0,20772749743307283	0,0077505922218186624	0,20772749743307283
1	0	0	1	0	0	1	283705,47	-0,100000001	1,97783768	-0,00027771143539249894	-0,099974191745110925	0,000197732719	-0,21383715724826554	0,007978551844048489	0,21383715724826554
1	0	0	1	0	0	1	283925,47	-0,100000001	1,97369885	-0,00027771213861058157	-0,099974444898746202	0,000197319445	-0,21994682341080317	0,0082065117031062886	0,21994682341080317
1	0	0	1	0	0	1	284145,48	-0,100000001	1,96938825	-0,00027771284441732698	-0,099974698981954496	0,000196888999	-0,22605649271994653	0,0084344716795681779	0,22605649271994653
1	0	0	1	0	0	1	284365,48	-0,100000001	1,96444821	-0,00027771264074080518	-0,099974625664473792	0,000196394976	-0,23216616578620947	0,0086624317962132531	0,23216616578620947
1	0	0	1	0	0	1	284585,48	-0,100000001	1,96112943	-0,0002777109881080687	-0,099974030728144102	0,000196062014	-0,23827581848067366	0,0088903911527591258	0,23827581848067366
1	0	0	1	0	0	1	284805,49	-0,100000001	1,95830655	-0,00027771157516456314	-0,099974242064412851	0,000195780216	-0,24438547081844867	0,0091183504959964442	0,24438547081844867
1	0	0	1	0	0	1	285025,49	-0,100000001	1,95578885	-0,00027771089863363242	-0,099973998517967258	0,000195528031	-0,25049512235860054	0,0093463098094733722	0,25049512235860054
1	0	0	1	0	0	1	285245,50	-0,100000001	1,95473981	-0,00027771132934341824	-0,09997415356817696	0,000195423461	-0,25660477338654947	0,009574269103839319	0,25660477338654947
1	0	0	1	0	0	1	285465,50	-0,100000001	1,95584607	-0,00027771049308818246	-0,099973852522670605	0,000195533474	-0,26271442040240301	0,0098022282485085914	0,26271442040240301
1	0	0	1	0	0	1	285685,50	-0,100000001	1,95454907	-0,00027771032059523792	-0,099973790423496691	0,000195403685	-0,2688240638619905	0,010030187260488798	0,2688240638619905
1	0	0	1	0	0	1	285905,51	-0,100000001	1,95433927	-0,00027771157326880426	-0,099974241381952794	0,000195383589	-0,27493370545413082	0,01025814620279204	0,27493370545413082
1	0	0	1	0	0	1	286125,51	-0,100000001	1,95414853	-0,00027771119551277827	-0,099974105392401894	0,00019536425	-0,2810433635831992	0,010486105762110301	0,2810433635831992
1	0	0	1	0	0	1	286345,52	-0,100000001	1,95357645	-0,0002777116016095711	-0,09997425158443241	0,000195307337	-0,28715301635251338	0,010714065121448926	0,28715301635251338
1	0	0	1	0	0	1	286565,52	-0,100000001	1,95308053	-0,00027771159177232118	-0,099974248043090611	0,000195257759	-0,29326267717909594	0,010942024781415069	0,29326267717909594
1	0	0	1	0	0	1	286785,53	-0,100000001	1,95212686	-0,00027771100039242042	-0,099974035145770266	0,000195161992	-0,29937232190107994	0,011169983840496986	0,29937232190107994
1	0	0	1	0	0	1	287005,53	-0,100000001	1,95220315	-0,00027771168548737962	-0,0999742817775344	0,000195170112	-0,30548196669349478	0,011397942902206773	0,30548196669349478
1	0	0	1	0	0	1	287225,53	-0,100000001	1,95258462	-0,0002777117838656737	-0,099974317193038336	0,000195208311	-0,31159161591581434	0,011625902129202261	0,31159161591581434
1	0	0	1	0	0	1	287445,54	-0,100000001	1,95222223	-0,00027771087778194086	-0,099973991006847501	0,000195171451	-0,31770126793662931	0,011853861460613373	0,31770126793662931
1	0	0	1	0	0	1	287665,54	-0,100000001	1,95157373	-0,00027771030399451654	-0,099973784452007347	0,000195106215	-0,32381090638632294	0,012081820285667704	0,32381090638632294
1	0	0	1	0	0	1	287885,55	-0,100000001	1,95020044	-0,00027771134802616304	-0,099974160296163238	0,000194969645	-0,32992054720339187	0,01230977919905199	0,32992054720339187
1	0	0	1	0	0	1	288105,55	-0,100000001	1,95090616	-0,00027771109418570995	-0,099974068915359667	0,000195040033	-0,33603019721807558	0,012537738455611651	0,33603019721807558
1	0	0	1	0	0	1	288325,56	-0,100000001	1,95014322	-0,00027771157237266499	-0,099974241054693542	0,000194964086	-0,34213985207814861	0,012765697892959299	0,34213985207814861
1	0	0	1	0	0	1	288545,56	-0,100000001	1,94922769	-0,00027771112688258288	-0,099974080683679616	0,000194872249	-0,34824949635032525	0,012993656935258299	0,34824949635032525
1	0	0	1	0	0	1	288765,56	-0,100000001	1,94909418	-0,00027771124362117715	-0,099974122707600538	0,000194858978	-0,35435914171257542	0,013221616018229406	0,35435914171257542
1	0	0	1	0	0	1	288985,57	-0,100000001	1,94812143	-0,00027771102373343376	-0,099974043548373274	0,000194761582	-0,36046878585969082	0,013449575055862205	0,36046878585969082
1	0	0	1	0	0	1	289205,57	-0,100000001	1,94796884	-0,00027771055980937347	-0,099973876543582643	0,000194745997	-0,36657842027060288	0,013677533730224163	0,36657842027060288
1	0	0	1	0	0	1	289425,58	-0,100000001	1,94747293	-0,00027771076270689565	-0,099973949585284198	0,000194696564	-0,37268805551403763	0,013905492435648666	0,37268805551403763
1	0	0	1	0	0	1	289645,58	-0,100000001	1,94686258	-0,00027771021243391763	-0,099973751490826406	0,000194635155	-0,37879769436758304	0,014133451275771248	0,37879769436758304
1	0	0	1	0	0	1	289865,59	-0,100000001	1,94625223	-0,00027771143983511459	-0,099974193346749427	0,000194574997	-0,38490732969868973	0,014361409984466906	0,38490732969868973
1	0	0	1	0	0	1	290085,59	-0,100000001	1,94602334	-0,0002777121631420321	-0,099974453727570688	0,000194552616	-0,3910169917342336	0,014589369689541021	0,3910169917342336
1	0	0	1	0	0	1	290305,59	-0,100000001	1,94535577	-0,00027771120255026557	-0,099974107922357056	0,000194485212	-0,39712664965627802	0,014817329241134941	0,39712664965627802
1	0	0	1	0	0	1	290525,60	-0,100000001	1,94436395	-0,00027771071883456573	-0,099973933786894234	0,000194385706	-0,40323629103687565	0,015045288175545238	0,40323629103687565
1	0	0	1	0	0	1	290745,60	-0,100000001	1,94426858	-0,00027771087113022803	-0,099973988616932314	0,000194376291	-0,40934592213058995	0,01527324672613809	0,40934592213058995
1	0	0	1	0	0	1	290965,61	-0,100000001	1,94268548	-0,0002777099501974881	-0,09997365708752951	0,000194217369	-0,4154555539440871	0,015501205303587008	0,4154555539440871
1	0	0	1	0	0	1	291185,61	-0,100000001	1,94257104	-0,00027771049643970198	-0,099973853730940147	0,00019420631	-0,4215651733771673	0,01572916341910592	0,4215651733771673
1	0	0	1	0	0	1	291405,61	-0,100000001	1,94182718	-0,00027771122124708362	-0,099974114656573453	0,000194132459	-0,42767480834768614	0,015957122114347565	0,42767480834768614
1	0	0	1	0	0	1	291625,62	-0,100000001	1,94077814	-0,0002777115069967177	-0,099974217519805683	0,000194027773	-0,43378446251191974	0,016185081525732509	0,43378446251191974
1	0	0	1	0	0	1	291845,62	-0,100000001	1,94064462	-0,00027771072863746022	-0,099973937314704486	0,00019401389	-0,43989410706404602	0,016413040578476806	0,43989410706404602
1	0	0	1	0	0	1	292065,63	-0,100000001	1,93896616	-0,00027771117535647418	-0,099974098133944474	0,000193846397	-0,44600375269121555	0,01664099967133241	0,44600375269121555
1	0	0	1	0	0	1	292285,63	-0,100000001	1,93824136	-0,00027771098276269101	-0,099974028799189875	0,000193773798	-0,45211339744205568	0,016868958731490989	0,45211339744205568
1	0	0	1	0	0	1	292505,64	-0,100000001	1,93721139	-0,00027771078787619872	-0,099973958646058842	0,000193670698	-0,45822303050467808	0,017096917355546445	0,45822303050467808
1	0	0	1	0	0	1	292725,64	-0,100000001	1,93585718	-0,00027771094932614106	-0,099974016766918976	0,000193535423	-0,46433267983206336	0,01732487658646208	0,46433267983206336
1	0	0	1	0	0	1	292945,64	-0,100000001	1,9343313	-0,00027771092447928259	-0,099974007822222157	0,000193382846	-0,47044232645951104	0,017552835716639411	0,47044232645951104
1	0	0	1	0	0	1	293165,65	-0,100000001	1,93427408	-0,00027771050072088838	-0,099973855267482278	0,000193376836	-0,47655196957174298	0,017780794715659312	0,47655196957174298
1	0	0	1	0	0	1	293385,65	-0,100000001	1,93227148	-0,00027771023550546835	-0,099973759791769434	0,000193176442	-0,4826616029045273	0,018008753349794877	0,4826616029045273
1	0	0	1	0	0	1	293605,66	-0,100000001	1,929811	-0,00027771146672301824	-0,099974203022716864	0,000192931315	-0,48877123500168576	0,018236711937827578	0,48877123500168576
1	0	0	1	0	0	1	293825,66	-0,100000001	1,92841864	-0,00027771134451321434	-0,099974159026870746	0,000192792038	-0,49488088880214016	0,01846467133563943	0,49488088880214016
1	0	0	1	0	0	1	294045,67	-0,100000001	1,92715979	-0,00027771097806137469	-0,099974027111403904	0,000192665932	-0,5009905315552313	0,018692630321259309	0,5009905315552313
1	0	0	1	0	0	1	294265,67	-0,100000001	1,92553854	-0,00027770930970253219	-0,099973426513785062	0,000192502688	-0,50710016158833107	0,018920588832279206	0,50710016158833107
1	0	0	1	0	0	1	294485,67	-0,100000001	1,92389822	-0,00027771129544410445	-0,099974141366986637	0,00019234007	-0,5132097976343456	0,019148547567649037	0,5132097976343456
1	0	0	1	0	0	1	294705,68	-0,100000001	1,92237234	-0,00027770982938549584	-0,099973613596049715	0,000192186504	-0,51931941825872397	0,01937650572761689	0,51931941825872397
1	0	0	1	0	0	1	294925,68	-0,100000001	1,92042685	-0,00027771014333268006	-0,09997372661020457	0,000191992222	-0,52542903668070541	0,019604463805410349	0,52542903668070541
1	0	0	1	0	0	1	295145,69	-0,100000001	1,91876745	-0,00027771031838738256	-0,099973789629847872	0,000191826461	-0,53153866043300704	0,019832422082085222	0,53153866043300704
1	0	0	1	0	0	1	295365,69	-0,100000001	1,91726065	-0,00027770962137521968	-0,099973538711464499	0,000191675324	-0,53764827862593491	0,020060380151332387	0,53764827862593491
1	0	0	1	0	0	1	295585,70	-0,100000001	1,91546774	-0,00027770968893335926	-0,09997356302959881	0,000191496132	-0,5437579016541719	0,020288338400991437	0,5437579016541719
1	0	0	1	0	0	1	295805,70	-0,100000001	1,91323614	-0,00027770955888016355	-0,099973516216005146	0,000191272949	-0,54986751448725792	0,020516296270255693	0,54986751448725792
1	0	0	1	0	0	1	296025,70	-0,100000001	1,91138613	-0,00027770963958029949	-0,099973545267494694	0,000191088053	-0,55597712363709216	0,020744254002092877	0,55597712363709216
1	0	0	1	0	0	1	296245,71	-0,100000001	1,90936434	-0,00027770972813127773	-0,099973577145233037	0,000190885985	-0,56208672897444147	0,020972211591681117	0,56208672897444147
1	0	0	1	0	0	1	296465,71	-0,100000001	1,90780032	-0,00027771046975958678	-0,099973844121628314	0,000190730134	-0,56819634348653702	0,021200169523591482	0,56819634348653702
1	0	0	1	0	0	1	296685,72	-0,100000001	1,90585482	-0,00027770999129737418	-0,099973671880875942	0,000190535298	-0,57430596339664051	0,021428127656908778	0,57430596339664051
1	0	0	1	0	0	1	296905,72	-0,100000001	1,90417635	-0,0002777100811017056	-0,099973704209812787	0,000190367558	-0,58041558872486886	0,021656085992383597	0,58041558872486886
1	0	0	1	0	0	1	297125,72	-0,100000001	1,90190661	-0,00027770963315251798	-0,099973542948882624	0,000190140345	-0,58652520777141798	0,021884044093480512	0,58652520777141798
1	0	0	1	0	0	1	297345,73	-0,100000001	1,89956057	-0,00027770926034533312	-0,099973408745535526	0,00018990555	-0,59263482530652659	0,022112002138183558	0,59263482530652659
1	0	0	1	0	0	1	297565,73	-0,100000001	1,89679492	-0,00027771037895025478	-0,099973811435553549	0,00018962982	-0,59874444252979968	0,0223399601712516	0,59874444252979968
1	0	0	1	0	0	1	297785,74	-0,100000001	1,89582217	-0,00027771035735060774	-0,099973803659830349	0,000189532555	-0,60485405982045926	0,02256791820683392	0,60485405982045926
1	0	0	1	0	0	1	298005,74	-0,100000001	1,8937813	-0,00027771129938421978	-0,099974142785400832	0,000189329163	-0,61096369769413811	0,022795877010396365	0,61096369769413811
1	0	0	1	0	0	1	298225,75	-0,100000001	1,89088225	-0,000277712189335376	-0,099974463159320602	0,000189039944	-0,61707334682696038	0,023023836234052589	0,61707334682696038
1	0	0	1	0	0	1	298445,75	-0,100000001	1,88865066	-0,00027770955016215638	-0,09997351307409152	0,000188815044	-0,62318297317111437	0,02325179460743296	0,62318297317111437
1	0	0	1	0	0	1	298665,75	-0,100000001	1,88643813	-0,00027770994392078784	-0,099973654823305613	0,000188594116	-0,6292925927992329	0,023479752730229014	0,6292925927992329
1	0	0	1	0	0	1	298885,76	-0,100000001	1,88302398	-0,00027770960801798432	-0,099973533905280013	0,000188252568	-0,63540221026884032	0,023707710772488125	0,63540221026884032
1	0	0	1	0	0	1	299105,76	-0,100000001	1,88096404	-0,00027770981635277472	-0,099973608904360448	0,000188046761	-0,64151182846026394	0,023935668841679165	0,64151182846026394
1	0	0	1	0	0	1	299325,77	-0,100000001	1,87827468	-0,00027771042309411699	-0,099973827327037952	0,000187778307	-0,64762145321131456	0,024163627155618704	0,64762145321131456
1	0	0	1	0	0	1	299545,77	-0,100000001	1,87486053	-0,00027771095237135888	-0,099974017863176282	0,000187437341	-0,6537310858100521	0,024391585762365997	0,6537310858100521
1	0	0	1	0	0	1	299765,78	-0,100000001	1,87121761	-0,00027770964527295693	-0,099973547312156621	0,000187072263	-0,65984071789133594	0,024619544349806394	0,65984071789133594
1	0	0	1	0	0	1	299985,78	-0,100000001	1,86868083	-0,00027770887173049978	-0,099973268843397786	0,000186818128	-0,66595031896235994	0,024847501780212301	0,66595031896235994
1	0	0	1	0	0	1	300205,78	-0,100000001	1,86599147	-0,00027770867063187891	-0,099973196450452032	0,000186549136	-0,67205992588303859	0,025075459428876694	0,67205992588303859
1	0	0	1	0	0	1	300425,79	-0,100000001	1,86204326	-0,00027771051764819354	-0,09997386136119479	0,000186155652	-0,67816953866987162	0,02530341729641519	0,67816953866987162
1	0	0	1	0	0	1	300645,79	-0,100000001	1,85605419	-0,00027771051441257197	-0,099973860201048768	0,000185556899	-0,68427915284773901	0,025531375215855046	0,68427915284773901
1	0	0	1	0	0	1	300865,80	-0,100000001	1,85193431	-0,00027770964302826259	-0,09997354650873751	0,000185144439	-0,69038876808782874	0,025759333174927856	0,69038876808782874
1	0	0	1	0	0	1	301085,80	-0,100000001	1,84579277	-0,00027770890638770326	-0,099973281323242278	0,000184529956	-0,69649838307646515	0,025987291124618595	0,69649838307646515
1	0	0	1	0	0	1	301305,81	-0,100000001	1,84106255	-0,00027770961555879974	-0,099973536615265997	0,000184057528	-0,70260798739239885	0,026215248676096445	0,70260798739239885
1	0	0	1	0	0	1	301525,81	-0,100000001	1,83482552	-0,00027770987098250125	-0,099973628568355674	0,000183434167	-0,70871760773236813	0,026443206825452614	0,70871760773236813
1	0	0	1	0	0	1	301745,81	-0,100000001	1,82725346	-0,00027770989295012422	-0,099973636475383846	0,000182677177	-0,71482722854708774	0,026671164992522349	0,71482722854708774
1	0	0	1	0	0	1	301965,82	-0,100000001	1,81744969	-0,00027771039903081123	-0,099973818659759373	0,000181697382	-0,72093685320508698	0,026899123302990022	0,72093685320508698
1	0	0	1	0	0	1	302185,82	-0,100000001	1,80459428	-0,00027771049936819405	-0,099973854785177011	0,000180412244	-0,72704648097416192	0,027127081729536109	0,72704648097416192
1	0	0	1	0	0	1	302405,83	-0,100000001	1,7860359	-0,00027770985539298918	-0,09997362295856704	0,000178556482	-0,7331561059296873	0,027355040051104877	0,7331561059296873
1	0	0	1	0	0	1	302625,83	-0,100000001	1,75401163	-0,00027771033102605078	-0,099973794183172314	0,000175355191	-0,73926573269572864	0,027582998440226432	0,73926573269572864
1	0	0	1	0	0	1	302845,84	-0,100000001	1,64058232	-0,0002777104492874609	-0,099973836756460198	0,000164015306	-0,74537537389442995	0,027810957367849939	0,74537537389442995
1	0	0	1	0	0	1	303065,84	-0,100000001	1,48887265	-0,00027771062228538925	-0,099973899029859955	0,000148848398	-0,75148500498432192	0,02803891591830017	0,75148500498432192
1	0	0	1	0	0	1	303285,84	-0,100000001	1,38036418	-0,0002777098621175521	-0,099973625375871603	0,000138000018	-0,7575946301225184	0,028266874246684646	0,7575946301225184
1	0	0	1	0	0	1	303505,85	-0,100000001	1,29594553	-0,0002777103912602696	-0,099973815864745907	0,00012956062	-0,76370425391436109	0,028494832524834851	0,76370425391436109
1	0	0	1	0	0	1	303725,85	-0,100000001	1,21305263	-0,00027771006748783917	-0,09997369931124288	0,000121273362	-0,76981386924720806	0,02872279048736855	0,76981386924720806
1	0	0	1	0	0	1	303945,86	-0,100000001	1,1218437	-0,00027770973510833251	-0,099973579656924416	0,000112154732	-0,77592348653821709	0,02895074852296391	0,77592348653821709
1	0	0	1	0	0	1	304165,86	-0,100000001	1,01318264	-0,00027770993831588166	-0,099973652810233549	0,000101291567	-0,78203310125749043	0,029178706462604352	0,78203310125749043
1	1	0	0	0	0	2	304369,55	0,100000001	2,45305085	0,00027781188961822131	0,10001035457238677	0,000245330477	-0,77769019192683558	0,029016666676373926	0,0050006180936060858
1	1	0	0	0	0	2	304589,55	0,100000001	2,47395539	0,00027781164785929853	0,10001026754085035	0,000247420947	-0,77157833039262656	0,028788624905047357	0,011112479627814973
1	1	0	0	0	0	2	304809,56	0,100000001	2,46527696	0,00027781180851037306	0,10001032536946661	0,000246553158	-0,76546645796820262	0,028560582727392227	0,017224352052238662
1	1	0	0	0	0	2	305029,56	0,100000001	2,4549582	0,00027781212991269094	0,10001044107323746	0,000245521456	-0,75935459825868403	0,028332541024147309	0,023336211761757306
1	1	0	0	0	0	2	305249,57	0,100000001	2,44528818	0,00027781157350043456	0,10001024076984626	0,00024455387	-0,7532427266246313	0,028104498875981994	0,029448083395810163
1	1	0	0	0	0	2	305469,57	0,100000001	2,43865061	0,00027781212401514256	0,10001043894899664	0,000243890521	-0,74713086567307456	0,027876457126394963	0,035559944347367091
1	1	0	0	0	0	2	305689,57	0,100000001	2,43487406	0,00027781228350020112	0,10001049636716926	0,000243512957	-0,74101899433911232	0,027648414989426429	0,041671815681329165
1	1	0	0	0	0	2	305909,58	0,100000001	2,43115473	0,00027781203149176307	0,10001040564587838	0,000243140777	-0,73490711542403494	0,027420372569596294	0,047783694596406445
1	1	0	0	0	0	2	306129,58	0,100000001	2,43039179	0,00027781309791737133	0,1000107895517053	0,000243065399	-0,72879523214623859	0,027192329986987251	0,053895577874202662
1	1	0	0	0	0	2	306349,59	0,100000001	2,42745447	0,00027781323406721155	0,10001083856004701	0,000242771755	-0,72268335125571277	0,026964287493450474	0,060007458764728538
1	1	0	0	0	0	2	306569,59	0,100000001	2,42783594	0,00027781174816605117	0,1000103036482575	0,000242808615	-0,71657148325487091	0,026736245480845142	0,066119326765570355
1	1	0	0	0	0	2	306789,59	0,100000001	2,42850351	0,00027781237653601504	0,10001052985592461	0,000242875918	-0,71045962513733299	0,026508203836999162	0,072231184883108518
1	1	0	0	0	0	2	307009,60	0,100000001	2,42774057	0,00027781219913686314	0,10001046599229534	0,000242799462	-0,7043477590808864	0,026280161896941834	0,078343050939554893
1	1	0	0	0	0	2	307229,60	0,100000001	2,43012476	0,00027781125020484131	0,10001012438800214	0,000243037081	-0,69823589612635251	0,026052120072621034	0,084454913894088627
1	1	0	0	0	0	2	307449,61	0,100000001	2,42903757	0,00027781090529428592	0,10001000022259299	0,000242928043	-0,69212404919442957	0,025824078846125392	0,090566760826011405
1	1	0	0	0	0	2	307669,61	0,100000001	2,4318223	0,00027781066860962243	0,10000991501775475	0,000243206348	-0,68601220794341926	0,02559603783159224	0,096678602077021709
1	1	0	0	0	0	2	307889,62	0,100000001	2,43426371	0,00027781113413390182	0,10001008260326851	0,000243450908	-0,67990036033518118	0,025367996579862371	0,10279044968525978
1	1	0	0	0	0	2	308109,62	0,100000001	2,43655252	0,00027781138375360106	0,10001017245997293	0,000243680042	-0,67378851572728346	0,025139955440079235	0,10890229429315731
1	1	0	0	0	0	2	308329,62	0,100000001	2,43594217	0,0002778109951834712	0,10001003257858387	0,000243618662	-0,66767667125987994	0,024911914305538125	0,11501413876056088
1	1	0	0	0	0	2	308549,63	0,100000001	2,43676233	0,00027781153232480086	0,10001022594923203	0,000243701157	-0,66156482293420954	0,024683873027039891	0,12112598708623147
1	1	0	0	0	0	2	308769,63	0,100000001	2,43727732	0,00027781113277748224	0,10001008211496685	0,000243752307	-0,6554529778455785	0,024455831869319949	0,1272378321748624
1	1	0	0	0	0	2	308989,64	0,100000001	2,44113016	0,00027781131226776378	0,10001014673022403	0,000244137787	-0,64934111982609805	0,024227790229132624	0,13334969019434312
1	1	0	0	0	0	2	309209,64	0,100000001	2,44483042	0,00027781212511451706	0,10001043934942088	0,000244508556	-0,64322925923385536	0,02399974849295209	0,13946155078658587
1	1	0	0	0	0	2	309429,65	0,100000001	2,4454217	0,00027781185830343104	0,10001034329927933	0,000244567462	-0,63711739410083059	0,023771706587348867	0,14557341591961062
1	1	0	0	0	0	2	309649,65	0,100000001	2,44660401	0,00027781222899258134	0,10001047674014696	0,000244686031	-0,6310055293836631	0,02354366469726184	0,1516852806367783
1	1	0	0	0	0	2	309869,65	0,100000001	2,44252253	0,00027781280055931872	0,10001068250253901	0,000244278344	-0,62489365430121408	0,023315622420432221	0,15779715571922726
1	1	0	0	0	0	2	310089,66	0,100000001	2,4470427	0,00027781204016713632	0,10001040876895262	0,000244729745	-0,61878177847807283	0,023087580115966378	0,16390903154236816
1	1	0	0	0	0	2	310309,66	0,100000001	2,44936967	0,00027781208075665766	0,10001042337624195	0,000244962488	-0,61266992018584781	0,022859538465602589	0,17002088983459315
1	1	0	0	0	0	2	310529,67	0,100000001	2,44778657	0,00027781236040509411	0,10001052405239765	0,000244804425	-0,60655806211260531	0,022631496823409338	0,17613274790783555
1	1	0	0	0	0	2	310749,67	0,100000001	2,44895005	0,00027781040799783334	0,10000982119931715	0,000244919065	-0,60044619194902016	0,022403454730109146	0,1822446180714207
1	1	0	0	0	0	2	310969,68	0,100000001	2,45083833	0,00027781139498286781	0,10001017650708814	0,000245108764	-0,59433435024677581	0,022175413698739846	0,18835645977366506
1	1	0	0	0	0	2	311189,68	0,100000001	2,45003724	0,00027781088906154038	0,10000999437891712	0,000245028205	-0,58822249458063462	0,021947372146358771	0,19446831543980662
1	1	0	0	0	0	2	311409,68	0,100000001	2,45160127	0,00027781128005476458	0,10001013513143914	0,000245184987	-0,58211064569796173	0,021719330847078029	0,20058016432247974
1	1	0	0	0	0	2	311629,69	0,100000001	2,45181108	0,00027781060897558928	0,10000989354816982	0,00024520536	-0,57599879727193606	0,021491289564835405	0,20669201274850554
1	1	0	0	0	0	2	311849,69	0,100000001	2,45093369	0,0002778110213470128	0,10001004199611325	0,00024511799	-0,56988694952013683	0,021263248307749078	0,2128038605003047
1	1	0	0	0	0	2	312069,70	0,100000001	2,45129609	0,00027781161106543408	0,10001025429531421	0,000245154748	-0,56377509230220934	0,021035206697468778	0,21891571771823254
1	1	0	0	0	0	2	312289,70	0,100000001	2,45163941	0,00027781272181330454	0,10001065415684826	0,000245190051	-0,55766322105864787	0,020807164563873216	0,22502758896179424
1	1	0	0	0	0	2	312509,71	0,100000001	2,45141053	0,00027781223102907344	0,10001047747792699	0,000245166739	-0,55155135884684128	0,02057912276726457	0,23113945117360115
1	1	0	0	0	0	2	312729,71	0,100000001	2,44837785	0,00027781206435544621	0,10001041747657653	0,000244863302	-0,54543948984366419	0,020351080717260762	0,23725132017677824
1	1	0	0	0	0	2	312949,71	0,100000001	2,44889283	0,0002778118549618456	0,10001034209167474	0,000244914612	-0,53932762228584038	0,020123038721185027	0,24336318773460192
1	1	0	0	0	0	2	313169,72	0,100000001	2,44980836	0,0002778111549537215	0,10001009009476651	0,000245005562	-0,5332157724443536	0,019894997386129645	0,24947503757608854
1	1	0	0	0	0	2	313389,72	0,100000001	2,45060945	0,00027781076824251146	0,1000099508825757	0,000245085335	-0,52710393080119136	0,019666956356964778	0,25558687921925101
1	1	0	0	0	0	2	313609,73	0,100000001	2,45261216	0,00027781077027031117	0,10000995161024104	0,000245285628	-0,52099209490558419	0,019438915542248912	0,26169871511485805
1	1	0	0	0	0	2	313829,73	0,100000001	2,4518683	0,00027781116463989021	0,10001009358521286	0,000245211588	-0,51488026271605978	0,019210874865811984	0,26781054730438237
1	1	0	0	0	0	2	314049,73	0,100000001	2,45171571	0,00027781120635362141	0,10001010860186693	0,000245196366	-0,50876841995624179	0,018982833794983184	0,27392239006420016
1	1	0	0	0	0	2	314269,74	0,100000001	2,45385194	0,00027781148561379974	0,10001020913359542	0,00024541025	-0,50265656397591494	0,01875479223087943	0,28003424604452698
1	1	0	0	0	0	2	314489,74	0,100000001	2,45396638	0,00027781189985531898	0,10001035825301397	0,000245422067	-0,49654470189922093	0,018526750439312016	0,28614610812122099
1	1	0	0	0	0	2	314709,75	0,100000001	2,45739961	0,00027781209156951965	0,10001042727112582	0,000245765579	-0,49043284016342822	0,01829870866046409	0,29225796985701376
1	1	0	0	0	0	2	314929,75	0,100000001	2,4553206	0,00027781192573366896	0,10001036756787632	0,000245557516	-0,48432098665291597	0,018070667188512432	0,29836982336752602
1	1	0	0	0	0	2	315149,76	0,100000001	2,45547318	0,00027781157067790624	0,10001023975142714	0,000245572475	-0,47820913793183392	0,017842625895260864	0,304481672088608
1	1	0	0	0	0	2	315369,76	0,100000001	2,45512986	0,00027781082572622429	0,10000997157864235	0,000245537463	-0,47209728850081267	0,017614584575520502	0,31059352151962925
1	1	0	0	0	0	2	315589,76	0,100000001	2,45678926	0,00027781184474089078	0,10001033841685885	0,000245704316	-0,4659854376047943	0,01738654320111913	0,31670537241564768
1	1	0	0	0	0	2	315809,77	0,100000001	2,45900178	0,00027781227329414752	0,1000104926930607	0,00024592597	-0,45987357299020416	0,017158501314859402	0,32281723703023776
1	1	0	0	0	0	2	316029,77	0,100000001	2,46087098	0,00027781221292954352	0,10001047096222168	0,000246112875	-0,45376171424112294	0,016930459647449696	0,32892909577931898
1	1	0	0	0	0	2	316249,78	0,100000001	2,46134782	0,00027781194125157264	0,10001037315537834	0,000246160314	-0,44764986154917619	0,016702418206039821	0,33504094847126573
1	1	0	0	0	0	2	316469,78	0,100000001	2,46504807	0,00027781226888340384	0,10001049109940227	0,000246530661	-0,44153800835103194	0,016474376745743037	0,34115280166941005
1	1	0	0	0	0	2	316689,79	0,100000001	2,4675467	0,00027781162111668118	0,10001025790903648	0,000246779993	-0,43542615189940256	0,016246335164054352	0,34726465812103936
1	1	0	0	0	0	2	316909,79	0,100000001	2,46830964	0,00027781166064449482	0,10001027214343238	0,000246856333	-0,4293142900927497	0,016018293382562534	0,35337651992769229
1	1	0	0	0	0	2	317129,79	0,100000001	2,46842408	0,00027781021238283974	0,10000975077927539	0,00024686649	-0,42320246381622432	0,015790252926747549	0,3594883462042176
1	1	0	0	0	0	2	317349,80	0,100000001	2,46964478	0,00027781085282522771	0,10000998133409574	0,000246989133	-0,41709062264046118	0,015562211915021968	0,36560018737998074
1	1	0	0	0	0	2	317569,80	0,100000001	2,47160935	0,00027781069850424925	0,1000099257796132	0,000247185468	-0,41097878596854291	0,015334171071340896	0,37171202405189901
1	1	0	0	0	0	2	317789,81	0,100000001	2,47151399	0,00027781167941499088	0,10001027889602387	0,000247176795	-0,40486694114985734	0,015106129923692979	0,37782386887058464
1	1	0	0	0	0	2	318009,81	0,100000001	2,47290635	0,00027781128688694701	0,10001013758748469	0,000247315707	-0,39875509082845184	0,014878088570731187	0,38393571919199008
1	1	0	0	0	0	2	318229,82	0,100000001	2,4745276	0,0002778104564895233	0,1000098386536609	0,000247477117	-0,392643254282216	0,014650047731739491	0,39004755573822598
1	1	0	0	0	0	2	318449,82	0,100000001	2,47614884	0,0002778110529569288	0,1000100533754639	0,000247639779	-0,38653141733479642	0,014422006877779098	0,39615939268564557
1	1	0	0	0	0	2	318669,82	0,100000001	2,47780824	0,00027781169350735018	0,10001028397383253	0,000247806311	-0,38041957187818342	0,014193965706329254	0,4022712381422585
1	1	0	0	0	0	2	318889,83	0,100000001	2,47654939	0,00027781153434266646	0,10001022667564965	0,000247680262	-0,37430772089786176	0,013965924328782413	0,40838308912258022
1	1	0	0	0	0	2	319109,83	0,100000001	2,47780824	0,00027781125433411859	0,10001012587451336	0,000247805903	-0,36819587260279654	0,013737883051426102	0,41449493741764538
1	1	0	0	0	0	2	319329,84	0,100000001	2,47817063	0,00027781049984941878	0,10000985426059424	0,000247841497	-0,36208402708573606	0,013509841877720878	0,42060678293470586
1	1	0	0	0	0	2	319549,84	0,100000001	2,48120332	0,00027781197634297939	0,10001038579037002	0,000248146098	-0,35597217709766432	0,013281800537196216	0,4267186329227776
1	1	0	0	0	0	2	319769,84	0,100000001	2,47983003	0,00027781077290823059	0,10000995256162013	0,00024800768	-0,34986033119581242	0,01305375934913391	0,4328304788246295
1	1	0	0	0	0	2	319989,85	0,100000001	2,48341584	0,00027781117150601414	0,10001009605231286	0,000248366647	-0,34374847947731987	0,012825717944044918	0,43894233054312211
1	1	0	0	0	0	2	320209,85	0,100000001	2,47736955	0,00027781142822487488	0,10001018847398026	0,000247762189	-0,33763662229208608	0,012597676334984464	0,44505418772835584
1	1	0	0	0	0	2	320429,86	0,100000001	2,47881913	0,00027781153199200832	0,10001022582942902	0,000247907272	-0,33152474876578202	0,012369634116216707	0,4511660612546599
1	1	0	0	0	0	2	320649,86	0,100000001	2,48003983	0,00027781148290303021	0,10001020815773717	0,000248029304	-0,3254128828959639	0,012141592183122736	0,45727792712447802
1	1	0	0	0	0	2	320869,87	0,100000001	2,48065019	0,00027781219012621376	0,10001046275318104	0,000248090975	-0,31930101483613536	0,011913550168316528	0,46338979518430656
1	1	0	0	0	0	2	321089,87	0,100000001	2,48221421	0,0002778113354187873	0,10001015505977502	0,000248246623	-0,31318916076317094	0,011685508675379026	0,46950164925727098
1	1	0	0	0	0	2	321309,87	0,100000001	2,48635316	0,00027781248621021712	0,10001056933787712	0,000248661585	-0,307077299831288	0,011457466926526054	0,47561351018915392
1	1	0	0	0	0	2	321529,88	0,100000001	2,48559022	0,00027781230327445597	0,10001050348343542	0,000248585129	-0,30096543447020973	0,011229425012413848	0,48172537555023219
1	1	0	0	0	0	2	321749,88	0,100000001	2,48711586	0,00027781250808512166	0,10001057721618392	0,000248737895	-0,2948535678185584	0,011001383050148629	0,48783724220188352
1	1	0	0	0	0	2	321969,89	0,100000001	2,48858452	0,00027781316366005277	0,1000108132186149	0,000248885364	-0,28874169099856621	0,010773340708488938	0,49394911902187571
1	1	0	0	0	0	2	322189,89	0,100000001	2,49110222	0,00027781212040988938	0,1000104376557875	0,00024913621	-0,2826298171223129	0,010545298476664102	0,50006099289812902
1	1	0	0	0	0	2	322409,90	0,100000001	2,49180794	0,00027781260938735472	0,1000106136842856	0,000249207253	-0,27651794676390778	0,010317256376094915	0,50617286325653389
1	1	0	0	0	0	2	322629,90	0,100000001	2,49360085	0,00027781230793851942	0,10001050516013744	0,00024938627	-0,2704060835573225	0,010089214542369738	0,51228472646311898
1	1	0	0	0	0	2	322849,90	0,100000001	2,49539375	0,00027781229416405162	0,10001050020375301	0,000249565579	-0,26429421715277008	0,0098611725893241101	0,51839659286767149
1	1	0	0	0	0	2	323069,91	0,100000001	2,49459267	0,00027781210324126813	0,10001043147287435	0,000249485282	-0,2581823545805687	0,0096331307792686515	0,52450845543987302
1	1	0	0	0	0	2	323289,91	0,100000001	2,49684334	0,00027781198936783603	0,10001039047689962	0,000249710283	-0,25207049624407251	0,009405089127253047	0,53062031377636909
1	1	0	0	0	0	2	323509,92	0,100000001	2,49798775	0,00027781271069579654	0,10001065015462243	0,000249825389	-0,24595861475583622	0,0091770466114148941	0,53673219526460512
1	1	0	0	0	0	2	323729,92	0,100000001	2,49871254	0,00027781177851723299	0,10001031457680109	0,000249897013	-0,23984675082761005	0,0089490047507643251	0,54284405919283117
1	1	0	0	0	0	2	323949,93	0,100000001	2,49945641	0,00027781147600048115	0,10001020567286736	0,000249971141	-0,23373490819940506	0,0087209636848461888	0,54895590182103603
1	1	0	0	0	0	2	324169,93	0,100000001	2,50151634	0,00027781257527073219	0,10001060140253802	0,000250178156	-0,22762304645448179	0,0084929219056575872	0,55506776356595942
1	1	0	0	0	0	2	324389,93	0,100000001	2,50235558	0,00027781189507287408	0,10001035653369547	0,000250261481	-0,22151117732200445	0,0082648798508294118	0,56117963269843654
1	1	0	0	0	0	2	324609,94	0,100000001	2,50388145	0,0002778119117278192	0,100010362528196	0,000250414101	-0,21539930304928006	0,0080368376042117082	0,56729150697116083
1	1	0	0	0	0	2	324829,94	0,100000001	2,50466347	0,0002778110687699583	0,1000100590680449	0,000250491546	-0,2092874430008047	0,0078087958883198605	0,5734033670196361
1	1	0	0	0	0	2	325049,95	0,100000001	2,50613213	0,0002778118263843159	0,10001033180861912	0,000250639103	-0,20317557967887616	0,0075807540502910733	0,57951523034156454
1	1	0	0	0	0	2	325269,95	0,100000001	2,50645638	0,00027781223576971229	0,10001047918452413	0,000250671903	-0,1970637129114647	0,0073527120837066854	0,585627097108976
1	1	0	0	0	0	2	325489,96	0,100000001	2,50681877	0,0002778121937914855	0,10001046407265347	0,000250708108	-0,19095184538799104	0,0071246700889126003	0,59173896463244941
1	1	0	0	0	0	2	325709,96	0,100000001	2,50748634	0,00027781188538836102	0,1000103530496664	0,000250774581	-0,18483998792952374	0,0068966284696574362	0,59785082209091661
1	1	0	0	0	0	2	325929,96	0,100000001	2,51070976	0,00027781127517422042	0,10001013337214854	0,000251096411	-0,17872813117911165	0,0066685868768207629	0,60396267884132864
1	1	0	0	0	0	2	326149,97	0,100000001	2,51320839	0,0002778119915301601	0,10001039125648555	0,000251346966	-0,17261626582423514	0,0064405449629399539	0,61007454419620544
1	1	0	0	0	0	2	326369,97	0,100000001	2,51420021	0,00027781143255076474	0,10001019002894213	0,000251445628	-0,16650439687991347	0,006212502915132119	0,61618641314052698
1	1	0	0	0	0	2	326589,98	0,100000001	2,51591682	0,00027781139732235002	0,10001017734462853	0,000251617283	-0,16039253385162061	0,0059844610880592742	0,62229827616881997
1	1	0	0	0	0	2	326809,98	0,100000001	2,51599312	0,00027781271106294458	0,10001065028679318	0,000251626101	-0,15428066485122714	0,0057564190381593254	0,62841014516921318
1	1	0	0	0	0	2	327029,98	0,100000001	2,51742363	0,00027781244280147882	0,10001055371452501	0,000251768943	-0,14816878877637622	0,0055283767243018573	0,63452202124406413
1	1	0	0	0	0	2	327249,99	0,100000001	2,52404213	0,00027781149558888541	0,1000102127245571	0,000252429978	-0,14205691321985222	0,005300334429783865	0,64063389680058803
1	1	0	0	0	0	2	327469,99	0,100000001	2,52652168	0,00027781265791381398	0,10001063114881757	0,000252679019	-0,13594504909273038	0,005072292561712233	0,64674576092770995
1	1	0	0	0	0	2	327690,00	0,100000001	2,52875304	0,00027781173440731235	0,1000102986998639	0,000252901344	-0,12983319469650301	0,0048442510567133562	0,65285761532393715
1	1	0	0	0	0	2	327910,00	0,100000001	2,52949691	0,0002778117448488871	0,10001030245293718	0,000252975762	-0,12372133951133162	0,0046162095222779187	0,65896947050910861
1	1	0	0	0	0	2	328130,01	0,100000001	2,52991652	0,00027781184532865885	0,10001033862379427	0,000253017817	-0,11760949332634155	0,0043881683236513466	0,66508131669409882
1	1	0	0	0	0	2	328350,01	0,100000001	2,53153777	0,00027781309672320883	0,10001078912181507	0,00025318109	-0,11149762789568722	0,0041601264069431648	0,67119318212475315
1	1	0	0	0	0	2	328570,01	0,100000001	2,53046966	0,00027781217409711747	0,10001045698281747	0,000253073435	-0,1053857601470016	0,0039320844037461197	0,67730504987343859
1	1	0	0	0	0	2	328790,02	0,100000001	2,53348327	0,00027781143439519738	0,1000101906952536	0,000253374135	-0,099273893345458214	0,003704042435888224	0,68341691667498189
1	1	0	0	0	0	2	329010,02	0,100000001	2,5348947	0,00027781102291701565	0,10001004256596038	0,00025351494	-0,093162042132337472	0,0034760010496553363	0,68952876788810253
1	1	0	0	0	0	2	329230,03	0,100000001	2,53676391	0,00027781187493271296	0,10001034928570557	0,00025370263	-0,087050178993181632	0,0032479592184460435	0,6956406310272585
1	1	0	0	0	0	2	329450,03	0,100000001	2,53979659	0,00027781247610226275	0,10001056569908362	0,000254006503	-0,080938302674987686	0,0030199168955091206	0,70175250734545267
1	1	0	0	0	0	2	329670,04	0,100000001	2,54176116	0,00027781260360115104	0,10001061159663538	0,0002542031	-0,07482643732948023	0,0027918749819778832	0,70786437269095987
1	1	0	0	0	0	2	329890,04	0,100000001	2,54435515	0,00027781280450895424	0,10001068392670896	0,000254462706	-0,068714560323612979	0,0025638326333829443	0,71397624969682701
1	1	0	0	0	0	2	330110,04	0,100000001	2,54689193	0,00027781268960444467	0,10001064256188195	0,000254716288	-0,062602688233854438	0,0023357904682146314	0,7200881217865856
1	1	0	0	0	0	2	330330,05	0,100000001	2,54816985	0,00027781232628060707	0,10001051176781885	0,000254843762	-0,056490821984876755	0,0021077485209737053	0,72619998803556314
1	1	0	0	0	0	2	330550,05	0,100000001	2,55110717	0,00027781214742900595	0,10001044738248221	0,000255137362	-0,050378964823837037	0,0018797069128159635	0,73231184519660275
1	1	0	0	0	0	2	330770,06	0,100000001	2,55244231	0,00027781137401734784	0,10001016895964629	0,000255270192	-0,044267114561155821	0,0016516655620452522	0,73842369545928384
1	1	0	0	0	0	2	330990,06	0,100000001	2,55314803	0,00027781144516418378	0,1000101945685213	0,000255340827	-0,038155262089048378	0,0014236241288378778	0,74453554793139136
1	1	0	0	0	0	2	331210,07	0,100000001	2,55496001	0,00027781192129022541	0,10001036597176021	0,000255522493	-0,032043416863980774	0,0011955829660273037	0,75064739315645875
1	1	0	0	0	0	2	331430,07	0,100000001	2,55658126	0,00027781342647928333	0,1000109078270591	0,000255685998	-0,025931541410028902	0,00096754067533641421	0,75675926861041062
1	1	0	0	0	0	2	331650,07	0,100000001	2,55764937	0,00027781219046480128	0,10001046287507019	0,000255791703	-0,019819666601755517	0,00073949840873665728	0,7628711434186839
1	1	0	0	0	0	2	331870,08	0,100000001	2,55944228	0,00027781265841051936	0,10001063133228509	0,000255971448	-0,013707796005982874	0,00051145629931096672	0,76898301401445645
1	1	0	0	0	0	2	332090,08	0,100000001	2,56134963	0,000277811614582936	0,1000102555615905	0,000256161235	-0,0075959273980959142	0,00028341426405596384	0,77509488262234342
1	1	0	0	0	0	2	332310,09	0,100000001	2,5633142	0,00027781266313667101	0,10001063302900989	0,000256358675	-0,0014840607818960867	5,5372303113485696E-005	0,7812067492385431
1	1	0	0	0	0	2	332530,09	0,100000001	2,56524062	0,00027781040765469274	0,10000982107346042	0,000256549247	0,0046277854154495181	-0,00017266889597408797	0,7873185954358889
1	1	0	0	0	0	2	332750,09	0,100000001	2,56707168	0,00027781076421547274	0,10000994943228752	0,000256732717	0,010739631571811547	-0,00040071009353250938	0,79343044159225101
1	1	0	0	0	0	2	332970,10	0,100000001	2,56722426	0,00027781086948058672	0,10000998732525256	0,000256748055	0,016851476920725597	-0,00062875126096396096	0,79954228694116506
1	1	0	0	0	0	2	333190,10	0,100000001	2,56812072	0,00027781048899309501	0,10000985035704994	0,000256837375	0,022963323261714253	-0,00085679246541104998	0,80565413328215347
1	1	0	0	0	0	2	333410,11	0,100000001	2,57206869	0,00027781007384426064	0,10000970090634722	0,000257231819	0,029075158735937984	-0,001084833264404529	0,81176596875637734
1	1	0	0	0	0	2	333630,11	0,100000001	2,57523489	0,00027781043049527542	0,10000982929824035	0,000257548789	0,035186989132425466	-0,0013128738739408418	0,8178777991528649
1	1	0	0	0	0	2	333850,12	0,100000001	2,57634115	0,00027781107939738362	0,10001006289850134	0,000257660053	0,041298820271123226	-0,0015409145111700179	0,8239896302915625
1	1	0	0	0	0	2	334070,12	0,100000001	2,57761908	0,00027781226555258035	0,10001048990149317	0,000257788954	0,047410655680211085	-0,0017689553077331901	0,83010146570065037
1	1	0	0	0	0	2	334290,12	0,100000001	2,57800055	0,00027781059749176106	0,1000098894123249	0,000257825537	0,053522507727686746	-0,0019969967250969818	0,83621331774812608
1	1	0	0	0	0	2	334510,13	0,100000001	2,57910681	0,00027781130152816576	0,10001014286171469	0,00025793683	0,059634352486102963	-0,0022250378704961651	0,84232516250654221
1	1	0	0	0	0	2	334730,13	0,100000001	2,58156729	0,00027781148596273526	0,10001020925455278	0,000258183078	0,065746201785460531	-0,002453079185323976	0,84843701180589965
1	1	0	0	0	0	2	334950,14	0,100000001	2,58357	0,0002778120413699912	0,10001040920197205	0,000258383894	0,071858062075083021	-0,0026811209102133472	0,85454887209552218
1	1	0	0	0	0	2	335170,14	0,100000001	2,58490515	0,00027781149256105219	0,10001021163455814	0,000258516899	0,07796992242565417	-0,0029091626373767955	0,86066073244609344
1	1	0	0	0	0	2	335390,15	0,100000001	2,58582067	0,0002778115869541135	0,1000102456154059	0,000258608547	0,084081775133309248	-0,0031372040793727693	0,86677258515374835
1	1	0	0	0	0	2	335610,15	0,100000001	2,58789968	0,00027781083469713728	0,10000997480345186	0,000258815795	0,090193632450618278	-0,003365245693361129	0,87288444247105702
1	1	0	0	0	0	2	335830,15	0,100000001	2,59070349	0,0002778126034517255	0,10001061154517174	0,00025909784	0,096305491707098586	-0,0035932873797025766	0,87899630172753728
1	1	0	0	0	0	2	336050,16	0,100000001	2,58812857	0,00027781196839610733	0,10001038292838693	0,000258839718	0,10241735776843296	-0,0038213293199422784	0,88510816778887155
1	1	0	0	0	0	2	336270,16	0,100000001	2,56371474	0,0002778119672420952	0,1000103825117863	0,000256398082	0,10852921726076966	-0,0040493710150838451	0,89122002728120832
1	1	0	0	0	0	2	336490,17	0,100000001	2,56264663	0,00027781185803396835	0,10001034320227462	0,000256291183	0,11464107517845725	-0,004277412651473136	0,897331885198896
1	1	0	0	0	0	2	336710,17	0,100000001	2,56350493	0,0002778131465651095	0,10001080706455382	0,000256378204	0,12075294426000658	-0,00450545470440112	0,90344375428044531
1	1	0	0	0	0	2	336930,18	0,100000001	2,56369567	0,00027781185163350566	0,10001034089815243	0,000256396073	0,12686481796646365	-0,0047334969298906285	0,90955562798690253
1	1	0	0	0	0	2	337150,18	0,100000001	2,56602263	0,00027781246270239354	0,10001056087871637	0,00025662937	0,13297668773262827	-0,004961539008362528	0,91566749775306726
1	1	0	0	0	0	2	337370,18	0,100000001	2,56829238	0,0002778125622206264	0,10001059670226186	0,000256856467	0,13908856203974659	-0,0051895812562635162	0,92177937206018547
1	1	0	0	0	0	2	337590,19	0,100000001	2,57077169	0,00027781244847178454	0,10001055575288515	0,000257104315	0,14520042955301206	-0,00541762325067672	0,92789123957345114
1	1	0	0	0	0	2	337810,19	0,100000001	2,57307959	0,00027781263380580483	0,10001062247010136	0,000257335283	0,15131229333632608	-0,0056456651059204186	0,93400310335676506
1	1	0	0	0	0	2	338030,20	0,100000001	2,57279348	0,00027781071892380717	0,1000099331305125	0,000257304899	0,15742414316162138	-0,0058737064403716736	0,94011495318206029
1	1	0	0	0	0	2	338250,20	0,100000001	2,57599783	0,00027781183312709133	0,10001033423597155	0,000257626409	0,16353598507660211	-0,0061017474796784563	0,94622679509704128
1	1	0	0	0	0	2	338470,20	0,100000001	2,57811499	0,00027781153489442333	0,10001022687427832	0,000257837877	0,1696478456138761	-0,0063297892138080384	0,95233865563431539
1	1	0	0	0	0	2	338690,21	0,100000001	2,57998419	0,00027781242729764845	0,10001054813325354	0,000258025626	0,17575971284558413	-0,0065578311977159539	0,9584505228660233
1	1	0	0	0	0	2	338910,21	0,100000001	2,58109045	0,00027781224441818064	0,10001048229325578	0,000258136104	0,18187157100706003	-0,0067858728432013158	0,96456238102749939
1	1	0	0	0	0	2	339130,22	0,100000001	2,58295965	0,00027781214680646858	0,10001044715488029	0,000258322951	0,18798343293560086	-0,0070139146292409331	0,97067424295604032
1	1	0	0	0	0	2	339350,22	0,100000001	2,58555365	0,00027781249755703741	0,10001057342381806	0,000258582702	0,19409530615936051	-0,0072419568367203533	0,97678611617979968
1	1	0	0	0	0	2	339570,23	0,100000001	2,5886054	0,0002778112553887897	0,10001012624953064	0,00025888675	0,2002071732568136	-0,0074699988156190374	0,98289798327725312
1	1	0	0	0	0	2	339790,23	0,100000001	2,59253454	0,00027781152499260179	0,10001022330969118	0,000259279972	0,20631903607474381	-0,0076980406348429683	0,98900984609518349
1	1	0	0	0	0	2	340010,23	0,100000001	2,59472799	0,00027781189340146048	0,10001035593432666	0,000259499677	0,21243089489221069	-0,0079260823048042355	0,9951217049126505
1	1	0	0	0	0	2	340189,52	0,100000001	2,59676886	0,00025780908559345536	0,1000100643881233	0,000259703025	0,21741150683095965	-0,0081119156327429312	1,0001023168513992