File: Experimentelles/Rohdaten/Batteriemessungen/AlteZelle/Studenten_Batterietests/Sonstige/ECLab-Export/S vs Li_05_GCPL_C02_loop3.mpt
EC-Lab ASCII FILE
Nb header lines : 3
mode	ox/red	error	control changes	Ns changes	counter inc.	Ns	time/s	control/V/mA	Ewe/V	dq/mA.h	<I>/mA	P/W	(Q-Qo)/mA.h	x	Capacity/mA.h
1	0	0	1	1	0	1	211904,02	-0,100000001	2,41948175	0	0	0	0	0	0
1	0	0	1	0	0	1	212124,02	-0,100000001	2,19779205	-0,00027770916284744941	-0,099975282982729818	0,000219724883	-0,0061082132990155072	0,00022790565076639398	0,0061082132990155072
1	0	0	1	0	0	1	212344,02	-0,100000001	2,18215179	-0,00027770771414000128	-0,099974761448130099	0,000218160101	-0,01221780234190633	0,00045586263238648326	0,01221780234190633
1	0	0	1	0	0	1	212564,02	-0,100000001	2,1684761	-0,00027770826273287338	-0,099974958941533133	0,000216793313	-0,018327390434908966	0,00068381957856496717	0,018327390434908966
1	0	0	1	0	0	1	212784,02	-0,100000001	2,16304016	-0,00027770837737412918	-0,099975000212378765	0,000216249944	-0,024436976634499696	0,00091177645409770714	0,024436976634499696
1	0	0	1	0	0	1	213004,02	-0,100000001	2,14299417	-0,00027770834198718272	-0,099974987473080038	0,000214245811	-0,030546560109012006	0,0011397332279541074	0,030546560109012006
1	0	0	1	0	0	1	213224,02	-0,100000001	2,13353372	-0,00027770758364473776	-0,099974714469842573	0,000213299427	-0,036656144575719392	0,0013676900388306398	0,036656144575719392
1	0	0	1	0	0	1	213444,02	-0,100000001	2,12949014	-0,00027770823248972496	-0,099974948054001408	0,000212895669	-0,042765722700651936	0,0015956466130870266	0,042765722700651936
1	0	0	1	0	0	1	213664,02	-0,100000001	2,12378716	-0,00027770739696133466	-0,099974647263827968	0,000212324871	-0,048875297114295456	0,0018236030488702298	0,048875297114295456
1	0	0	1	0	0	1	213884,02	-0,100000001	2,11995339	-0,00027770805358969501	-0,099974883650000717	0,000211942097	-0,054984868292942419	0,0020515593639513619	0,054984868292942419
1	0	0	1	0	0	1	214104,02	-0,100000001	2,11629152	-0,00027770653730134166	-0,099974337786278912	0,00021157485	-0,06109443339719104	0,0022795154523885248	0,06109443339719104
1	0	0	1	0	0	1	214324,02	-0,100000001	2,11262941	-0,00027770798805314634	-0,099974860056846874	0,00021120983	-0,067204002473784192	0,0025074716890392032	0,067204002473784192
1	0	0	1	0	0	1	214544,02	-0,100000001	2,10847139	-0,00027770833652549322	-0,099974985506872128	0,000210794402	-0,073313566665382208	0,0027354277434241446	0,073313566665382208
1	0	0	1	0	0	1	214764,02	-0,100000001	2,10475206	-0,00027770824120359283	-0,09997495119099337	0,000210422484	-0,079423146161286131	0,0029633843688333171	0,079423146161286131
1	0	0	1	0	0	1	214984,02	-0,100000001	2,10082293	-0,00027770689409184787	-0,09997446623084105	0,000210028651	-0,085532713705207949	0,0031913405482979667	0,085532713705207949
1	0	0	1	0	0	1	215204,02	-0,100000001	2,09777117	-0,00027770834632880157	-0,099974989036062579	0,000209724647	-0,091642286140944986	0,0034192969102828198	0,091642286140944986
1	0	0	1	0	0	1	215424,02	-0,100000001	2,0930028	-0,00027770883271180922	-0,099975164133917939	0,000209248305	-0,09775187852044297	0,0036472540163962086	0,09775187852044297
1	0	0	1	0	0	1	215644,02	-0,100000001	2,09019899	-0,00027770871674890317	-0,099975122387278298	0,000208967904	-0,10386147370505722	0,0038752112271722566	0,10386147370505722
1	0	0	1	0	0	1	215864,02	-0,100000001	2,08132982	-0,00027770848662116464	-0,099975039541305382	0,000208081037	-0,10997106677362422	0,004103168358995737	0,10997106677362422
1	0	0	1	0	0	1	216084,02	-0,100000001	2,07587504	-0,00027770860308781264	-0,099975081469292109	0,000207535777	-0,1160806490539732	0,004331125088296297	0,1160806490539732
1	0	0	1	0	0	1	216304,02	-0,100000001	2,06685328	-0,00027770860494466294	-0,099975082137758106	0,00020663382	-0,12219024409316208	0,0045590822936463302	0,12219024409316208
1	0	0	1	0	0	1	216524,02	-0,100000001	2,05857539	-0,0002777076916777425	-0,099974753361718195	0,000205805569	-0,12829982120055725	0,0047870388299370285	0,12829982120055725
1	0	0	1	0	0	1	216744,02	-0,100000001	2,05140376	-0,00027770734323437014	-0,099974627922123776	0,000205088334	-0,13440939342176558	0,0050149951839175277	0,13440939342176558
1	0	0	1	0	0	1	216964,02	-0,100000001	2,04159999	-0,000277707863756352	-0,09997481531000791	0,000204108583	-0,14051896150117299	0,005242951383361865	0,14051896150117299
1	0	0	1	0	0	1	217184,02	-0,100000001	2,03257847	-0,000277708727641652	-0,099975126308667251	0,000203207295	-0,1466285411953568	0,0054709080161691251	0,1466285411953568
1	0	0	1	0	0	1	217404,02	-0,100000001	2,02472019	-0,00027770675385867552	-0,099974415746906893	0,000202420211	-0,15273810371293808	0,0056988640080942522	0,15273810371293808
1	0	0	1	0	0	1	217624,02	-0,100000001	2,01697636	-0,00027770639379198352	-0,099974286122918054	0,000201645773	-0,15884765945824838	0,0059268197473368435	0,15884765945824838
1	0	0	1	0	0	1	217844,02	-0,100000001	2,01115894	-0,00027770676285649338	-0,099974418986120819	0,000201064453	-0,16495720801519379	0,0061547752183718746	0,16495720801519379
1	0	0	1	0	0	1	218064,02	-0,100000001	2,00248051	-0,0002777067429150144	-0,099974411807189517	0,00020019681	-0,17106675771964362	0,0063827307322218394	0,17106675771964362
1	0	0	1	0	0	1	218284,02	-0,100000001	1,99578571	-0,00027770721298083667	-0,099974581030859059	0,000199527844	-0,17717630813112707	0,0066106862724521805	0,17717630813112707
1	0	0	1	0	0	1	218504,02	-0,100000001	1,98964417	-0,00027770683165391286	-0,099974443753187955	0,000198913564	-0,18328587036479155	0,0068386422537839885	0,18328587036479155
1	0	0	1	0	0	1	218724,02	-0,100000001	1,98333085	-0,00027770655340742733	-0,099974343584468838	0,0001982822	-0,18939542083849235	0,0070665977963357414	0,18939542083849235
1	0	0	1	0	0	1	218944,02	-0,100000001	1,97911561	-0,00027770656351910698	-0,099974347224672947	0,000197860791	-0,19550496273226515	0,0072945530187588442	0,19550496273226515
1	0	0	1	0	0	1	219164,02	-0,100000001	1,97648346	-0,00027770670393937165	-0,09997439777596032	0,00019759775	-0,20161451111042058	0,0075225084831229824	0,20161451111042058
1	0	0	1	0	0	1	219384,02	-0,100000001	1,97383237	-0,00027770781352164016	-0,099974797225514483	0,000197333487	-0,2077240727566999	0,0077504644425386611	0,2077240727566999
1	0	0	1	0	0	1	219604,02	-0,100000001	1,97356534	-0,00027770724167509206	-0,099974591360789389	0,000197306392	-0,21383362827262947	0,0079784201732227482	0,21383362827262947
1	0	0	1	0	0	1	219824,02	-0,100000001	1,97144818	-0,00027770742285913891	-0,099974656587036045	0,000197094851	-0,21994319496441264	0,0082063763208929613	0,21994319496441264
1	0	0	1	0	0	1	220044,02	-0,100000001	1,9696362	-0,00027770721134460634	-0,09997458044181623	0,000196913548	-0,2260527551640463	0,0084343322263323443	0,2260527551640463
1	0	0	1	0	0	1	220264,02	-0,100000001	1,96910214	-0,00027770637499251302	-0,099974279355109747	0,000196859561	-0,23216230230763149	0,0086622876446330061	0,23216230230763149
1	0	0	1	0	0	1	220484,02	-0,100000001	1,96479154	-0,00027770693022261066	-0,099974479237913613	0,000196429013	-0,23827184585483373	0,008890242928747785	0,23827184585483373
1	0	0	1	0	0	1	220704,02	-0,100000001	1,96446729	-0,00027770640477786461	-0,099974290077834637	0,000196396228	-0,24438139041068029	0,0091181982504964403	0,24438139041068029
1	0	0	1	0	0	1	220924,02	-0,100000001	1,96471524	-0,00027770664001007875	-0,09997437476141847	0,000196421184	-0,25049093550553091	0,0093461535923560614	0,25049093550553091
1	0	0	1	0	0	1	221144,02	-0,100000001	1,96511579	-0,00027770633947683706	-0,099974266569468403	0,000196461013	-0,25660047145992061	0,0095741085931727936	0,25660047145992061
1	0	0	1	0	0	1	221364,02	-0,100000001	1,9656117	-0,00027770578245901402	-0,099974066043083482	0,000196510198	-0,26270999629163578	0,0098020631789875866	0,26270999629163578
1	0	0	1	0	0	1	221584,02	-0,100000001	1,96492505	-0,00027770540877307459	-0,099973931516166336	0,00019644128	-0,2688195248110936	0,010030017902397016	0,2688195248110936
1	0	0	1	0	0	1	221804,02	-0,100000001	1,9633801	-0,00027770601572468877	-0,099974150018713254	0,000196287263	-0,27492904383999949	0,010257972271701194	0,27492904383999949
1	0	0	1	0	0	1	222024,02	-0,100000001	1,96318936	-0,00027770572463257443	-0,099974045225568486	0,000196267982	-0,28103857355470886	0,010485927039707064	0,28103857355470886
1	0	0	1	0	0	1	222244,02	-0,100000001	1,96297956	-0,00027770595322094029	-0,099974127517367309	0,000196247172	-0,28714810764715754	0,010713881971052277	0,28714810764715754
1	0	0	1	0	0	1	222464,02	-0,100000001	1,96238828	-0,00027770646859332918	-0,099974313051398298	0,000196188426	-0,29325764741055962	0,010941837113988382	0,29325764741055962
1	0	0	1	0	0	1	222684,02	-0,100000001	1,96145368	-0,00027770671936538486	-0,099974403329324211	0,000196095163	-0,2993671931043575	0,011169792478195531	0,2993671931043575
1	0	0	1	0	0	1	222904,02	-0,100000001	1,96069074	-0,00027770688257531987	-0,099974462084891622	0,000196018998	-0,30547674830943699	0,011397748197281386	0,30547674830943699
1	0	0	1	0	0	1	223124,02	-0,100000001	1,96006131	-0,00027770760265944733	-0,099974721315136947	0,000195956585	-0,3115863017972864	0,011625703852295075	0,3115863017972864
1	0	0	1	0	0	1	223344,02	-0,100000001	1,95931745	-0,00027770783184510141	-0,099974803821959501	0,00019588237	-0,31769586808607373	0,01185365998492897	0,31769586808607373
1	0	0	1	0	0	1	223564,02	-0,100000001	1,96305585	-0,0002777078362595704	-0,099974805411168102	0,000196256122	-0,32380543537482682	0,01208161615487293	0,32380543537482682
1	0	0	1	0	0	1	223784,02	-0,100000001	1,96225476	-0,00027770749591415123	-0,099974682886836365	0,000196175795	-0,32991500166258074	0,01230957228746827	0,32991500166258074
1	0	0	1	0	0	1	224004,02	-0,100000001	1,96160626	-0,00027770708697661757	-0,099974535669347277	0,000196110675	-0,33602456076688422	0,012537528152039411	0,33602456076688422
1	0	0	1	0	0	1	224224,02	-0,100000001	1,96240735	-0,00027770683287746374	-0,099974444193666202	0,00019619058	-0,34213410934211392	0,012765483623756654	0,34213410934211392
1	0	0	1	0	0	1	224444,02	-0,100000001	1,96158719	-0,00027770686137220925	-0,099974454451772979	0,000196108609	-0,34824366215969824	0,012993439253761851	0,34824366215969824
1	0	0	1	0	0	1	224664,02	-0,100000001	1,96046185	-0,00027770706247289978	-0,09997452684801024	0,000195996239	-0,35435320980908416	0,013221394690934621	0,35435320980908416
1	0	0	1	0	0	1	224884,02	-0,100000001	1,95971799	-0,00027770668143447901	-0,09997438967420023	0,000195921617	-0,36046275422662426	0,013449350007522875	0,36046275422662426
1	0	0	1	0	0	1	225104,02	-0,100000001	1,95954633	-0,00027770644735213782	-0,099974305404570598	0,000195904286	-0,3665723039874295	0,013677305523475536	0,3665723039874295
1	0	0	1	0	0	1	225324,02	-0,100000001	1,95908856	-0,00027770670886048016	-0,099974399547559117	0,000195858709	-0,37268185048760813	0,01390526091776983	0,37268185048760813
1	0	0	1	0	0	1	225544,02	-0,100000001	1,95842099	-0,000277705165753348	-0,099973844029078438	0,000195790868	-0,37879137695597325	0,014133215564650237	0,37879137695597325
1	0	0	1	0	0	1	225764,02	-0,100000001	1,95729566	-0,00027770646725677782	-0,099974312570239885	0,000195679284	-0,38490090432708301	0,014361170245213256	0,38490090432708301
1	0	0	1	0	0	1	225984,02	-0,100000001	1,95578885	-0,00027770614729200803	-0,099974197382940774	0,000195528424	-0,39101043922098394	0,014589125206461728	0,39101043922098394
1	0	0	1	0	0	1	226204,02	-0,100000001	1,95630383	-0,00027770585358763731	-0,099974091649383859	0,000195579705	-0,39711998375768762	0,014817080527496134	0,39711998375768762
1	0	0	1	0	0	1	226424,02	-0,100000001	1,95626569	-0,0002777062893890672	-0,099974248537874061	0,000195576198	-0,40322953354825005	0,015045036044559075	0,40322953354825005
1	0	0	1	0	0	1	226644,02	-0,100000001	1,95411038	-0,00027770740789630346	-0,099974651200416128	0,000195361499	-0,40933909587405997	0,015272992029328957	0,40933909587405997
1	0	0	1	0	0	1	226864,02	-0,100000001	1,95338571	-0,00027770644454864992	-0,099974304395315098	0,000195288376	-0,4154486402356304	0,015500947343828909	0,4154486402356304
1	0	0	1	0	0	1	227084,02	-0,100000001	1,95119226	-0,0002777061246310671	-0,099974189225003315	0,00019506886	-0,42155818076840768	0,01572890251547144	0,42155818076840768
1	0	0	1	0	0	1	227304,02	-0,100000001	1,94968545	-0,00027770676171572675	-0,099974418575444915	0,00019491867	-0,42766772508884947	0,015956857828436822	0,42766772508884947
1	0	0	1	0	0	1	227524,02	-0,100000001	1,94890344	-0,00027770766550675037	-0,099974743940162509	0,000194841123	-0,43377727513039546	0,016184813354864298	0,43377727513039546
1	0	0	1	0	0	1	227744,02	-0,100000001	1,9472059	-0,00027770645084852976	-0,099974306663271488	0,00019467056	-0,4398868198420233	0,016412768682425363	0,4398868198420233
1	0	0	1	0	0	1	227964,02	-0,100000001	1,94672906	-0,00027770631418170198	-0,099974257463221197	0,000194622786	-0,44599635787174669	0,016640723760675587	0,44599635787174669
1	0	0	1	0	0	1	228184,02	-0,100000001	1,94485986	-0,00027770575893835888	-0,099974057575648947	0,000194435532	-0,45210588981051814	0,016868678611664208	0,45210588981051814
1	0	0	1	0	0	1	228404,02	-0,100000001	1,94381082	-0,00027770614384528666	-0,09997419614212128	0,000194330918	-0,45821542247641638	0,017096633489782902	0,45821542247641638
1	0	0	1	0	0	1	228624,02	-0,100000001	1,94178903	-0,00027770660142186614	-0,099974360869664115	0,000194129112	-0,46432495435023571	0,017324588338348067	0,46432495435023571
1	0	0	1	0	0	1	228844,02	-0,100000001	1,94072092	-0,00027770582734503683	-0,099974082202049165	0,000194021792	-0,47043449620066925	0,017552543559154125	0,47043449620066925
1	0	0	1	0	0	1	229064,02	-0,100000001	1,93902338	-0,00027770627706994611	-0,099974244102991155	0,000193852393	-0,47654403650003718	0,01778049872208784	0,47654403650003718
1	0	0	1	0	0	1	229284,02	-0,100000001	1,93789804	-0,00027770587621670627	-0,099974099795847411	0,000193739615	-0,48265357323793242	0,018008453752138221	0,48265357323793242
1	0	0	1	0	0	1	229504,02	-0,100000001	1,93662012	-0,00027770504635655216	-0,099973801046238682	0,000193611268	-0,48876309697612506	0,018236408297152218	0,48876309697612506
1	0	0	1	0	0	1	229724,02	-0,100000001	1,93436944	-0,00027770578188076614	-0,099974065834914266	0,000193386775	-0,49487262229556634	0,018464362901164726	0,49487262229556634
1	0	0	1	0	0	1	229944,02	-0,100000001	1,93280554	-0,00027770554315298797	-0,099973979892927565	0,000193230255	-0,50098214909368301	0,018692317560348602	0,50098214909368301
1	0	0	1	0	0	1	230164,03	-0,100000001	1,93152761	-0,00027770545681938528	-0,099973948812835456	0,000193102445	-0,50709168574735366	0,018920272587256451	0,50709168574735366
1	0	0	1	0	0	1	230384,03	-0,100000001	1,93047857	-0,0002777060002498329	-0,09997414444776599	0,000192997948	-0,5132012093442624	0,019148227126998954	0,5132012093442624
1	0	0	1	0	0	1	230604,03	-0,100000001	1,92927694	-0,00027770662453398109	-0,099974369190024179	0,000192878244	-0,51931073489176902	0,01937618173952089	0,51931073489176902
1	0	0	1	0	0	1	230824,03	-0,100000001	1,92752218	-0,00027770591240334845	-0,099974112823036557	0,000192702326	-0,52542026673726458	0,019604136587029261	0,52542026673726458
1	0	0	1	0	0	1	231044,03	-0,100000001	1,92569113	-0,00027770599361136554	-0,099974142057918131	0,000192519321	-0,53152979084185882	0,019832091145714189	0,53152979084185882
1	0	0	1	0	0	1	231264,03	-0,100000001	1,92481375	-0,00027770545379320781	-0,09997394772341175	0,000192431224	-0,53763931823775302	0,020060045827201952	0,53763931823775302
1	0	0	1	0	0	1	231484,03	-0,100000001	1,9222579	-0,00027770544904925757	-0,099973946015589939	0,000192175707	-0,54374884211424691	0,020288000377376154	0,54374884211424691
1	0	0	1	0	0	1	231704,03	-0,100000001	1,92105627	-0,00027770528103369805	-0,099973885529997978	0,000192055464	-0,5498583611658023	0,020515954747525418	0,5498583611658023
1	0	0	1	0	0	1	231924,03	-0,100000001	1,91872931	-0,00027770550876897242	-0,099973967514683917	0,000191822983	-0,5559678944947081	0,020743909650381811	0,5559678944947081
1	0	0	1	0	0	1	232144,03	-0,100000001	1,91706991	-0,00027770606085699466	-0,099974166266340813	0,000191657469	-0,56207741830800352	0,020971864198197997	0,56207741830800352
1	0	0	1	0	0	1	232364,03	-0,100000001	1,91480017	-0,00027770435818077789	-0,099973553302998694	0,000191429383	-0,56818693104543162	0,021199818332758678	0,56818693104543162
1	0	0	1	0	0	1	232584,03	-0,100000001	1,90966952	-0,00027770508480072022	-0,099973814886137011	0,000190916951	-0,57429643927333862	0,021427772299063062	0,57429643927333862
1	0	0	1	0	0	1	232804,03	-0,100000001	1,90776217	-0,00027770595017448064	-0,099974126420642022	0,00019072686	-0,58040595248283085	0,021655726451237094	0,58040595248283085
1	0	0	1	0	0	1	233024,03	-0,100000001	1,90530169	-0,00027770468377239171	-0,099973670515961331	0,000190480001	-0,58651546954853197	0,021883680747291459	0,58651546954853197
1	0	0	1	0	0	1	233244,03	-0,100000001	1,90360415	-0,00027770578891287248	-0,099974068366472154	0,000190311053	-0,59262499500720563	0,022111635356498918	0,59262499500720563
1	0	0	1	0	0	1	233464,03	-0,100000001	1,90120089	-0,00027770615772654614	-0,099974201139373901	0,000190071034	-0,59873452276503219	0,022339590051490864	0,59873452276503219
1	0	0	1	0	0	1	233684,03	-0,100000001	1,8998276	-0,00027770678932882019	-0,099974428516156992	0,000189934173	-0,60484407943162522	0,022567545825107747	0,60484407943162522
1	0	0	1	0	0	1	233904,03	-0,100000001	1,89772952	-0,00027770711391833098	-0,099974545368362586	0,00018972464	-0,61095363272761702	0,022795501472962973	0,61095363272761702
1	0	0	1	0	0	1	234124,03	-0,100000001	1,89545977	-0,00027770628478874762	-0,099974246881759283	0,000189497165	-0,61706317771020198	0,023023456810633811	0,61706317771020198
1	0	0	1	0	0	1	234344,03	-0,100000001	1,89345706	-0,0002777064146262904	-0,099974293623267379	0,000189297032	-0,62317272119519437	0,023251412092427456	0,62317272119519437
1	0	0	1	0	0	1	234564,03	-0,100000001	1,89040542	-0,00027770761154095331	-0,099974724512478605	0,000188992766	-0,62928226887962765	0,023479367530907888	0,62928226887962765
1	0	0	1	0	0	1	234784,03	-0,100000001	1,88750625	-0,00027770662331001626	-0,099974368749396928	0,000188702252	-0,63539182323531072	0,023707323218301619	0,63539182323531072
1	0	0	1	0	0	1	235004,03	-0,100000001	1,88535094	-0,00027770625573231117	-0,099974236421443789	0,00018848652	-0,64150136797335782	0,023935278546848422	0,64150136797335782
1	0	0	1	0	0	1	235224,03	-0,100000001	1,88260436	-0,00027770610126935776	-0,099974180814789274	0,000188211823	-0,6476108973779872	0,02416323330328479	0,6476108973779872
1	0	0	1	0	0	1	235444,03	-0,100000001	1,88022017	-0,00027770655608384141	-0,099974344552633178	0,000187973783	-0,65372043914935872	0,024391188521140938	0,65372043914935872
1	0	0	1	0	0	1	235664,03	-0,100000001	1,87648177	-0,00027770651894062758	-0,099974331176422874	0,000187600017	-0,65982998018133197	0,024619143711409139	0,65982998018133197
1	0	0	1	0	0	1	235884,03	-0,100000001	1,87344909	-0,00027770669528221088	-0,099974394659382938	0,000187296944	-0,665939531982304	0,024847099303483171	0,665939531982304
1	0	0	1	0	0	1	236104,03	-0,100000001	1,86946285	-0,00027770564651447866	-0,099974017103058406	0,000186897712	-0,6720490568602871	0,025075053891024275	0,6720490568602871
1	0	0	1	0	0	1	236324,03	-0,100000001	1,86524761	-0,00027770548544327418	-0,099973959117433856	0,000186476187	-0,67815857402639898	0,025303008190825107	0,67815857402639898
1	0	0	1	0	0	1	236544,03	-0,100000001	1,86120403	-0,00027770506264559098	-0,099973806910291725	0,000186071658	-0,68426809524340122	0,025530962641770096	0,68426809524340122
1	0	0	1	0	0	1	236764,03	-0,100000001	1,856264	-0,00027770601194144954	-0,099974148656747341	0,000185578407	-0,690377620845632	0,025758917256333866	0,690377620845632
1	0	0	1	0	0	1	236984,03	-0,100000001	1,85149574	-0,00027770620830936563	-0,099974219349186086	0,000185101846	-0,69648715227792	0,025986872088424909	0,69648715227792
1	0	0	1	0	0	1	237204,03	-0,100000001	1,84584999	-0,00027770656433246202	-0,099974347517480717	0,000184537654	-0,70259669347992602	0,026214827285037261	0,70259669347992602
1	0	0	1	0	0	1	237424,03	-0,100000001	1,84047127	-0,0002777064707817303	-0,099974313839222566	0,000183999859	-0,7087062392073993	0,02644278265050088	0,7087062392073993
1	0	0	1	0	0	1	237644,03	-0,100000001	1,8321743	-0,00027770462939308749	-0,099973650939414874	0,000183169148	-0,71481577870650752	0,02667073778357583	0,71481577870650752
1	0	0	1	0	0	1	237864,03	-0,100000001	1,82395375	-0,0002777061452000505	-0,099974196629836186	0,000182348303	-0,72092530930896307	0,026898692584704704	0,72092530930896307
1	0	0	1	0	0	1	238084,03	-0,100000001	1,81294835	-0,00027770704423098099	-0,099974520280920525	0,000181248644	-0,72703485885358234	0,027126648092591178	0,72703485885358234
1	0	0	1	0	0	1	238304,03	-0,100000001	1,79650712	-0,00027770757589696182	-0,099974711680643661	0,000179605282	-0,7331444074912672	0,027354603566638707	0,7331444074912672
1	0	0	1	0	0	1	238524,03	-0,100000001	1,77100599	-0,00027770541447235475	-0,09997393356790688	0,000177054433	-0,73925394123149453	0,02758255848484207	0,73925394123149453
1	0	0	1	0	0	1	238744,03	-0,100000001	1,67590618	-0,00027770577353363238	-0,099974062829946586	0,000167547143	-0,74536346947269235	0,027810513197869245	0,74536346947269235
1	0	0	1	0	0	1	238964,03	-0,100000001	1,48095727	-0,00027770693764421674	-0,099974481909691392	0,000148057938	-0,75147302174299597	0,028038468807454662	0,75147302174299597
1	0	0	1	0	0	1	239184,03	-0,100000001	1,36106193	-0,00027770694055573808	-0,099974482957838912	0,000136071467	-0,75758257268094118	0,028266424367327997	0,75758257268094118
1	0	0	1	0	0	1	239404,03	-0,100000001	1,27338171	-0,00027770522904064918	-0,099973866812503309	0,000127304898	-0,76369209172002854	0,028494378737012058	0,76369209172002854
1	0	0	1	0	0	1	239624,03	-0,100000001	1,18526268	-0,000277705574888736	-0,099973991317795085	0,000118495438	-0,76980162051289088	0,028722333470622579	0,76980162051289088
1	0	0	1	0	0	1	239844,03	-0,100000001	1,08569968	-0,00027770594270237616	-0,099974123730684826	0,000108541877	-0,77591114598733786	0,02895028808041856	0,77591114598733786
1	1	0	0	0	0	2	240045,27	0,100000001	2,09378481	0,00027780493763089174	0,10000976189937442	0,000209398917	-0,77927786511315302	0,029075904897604723	0,0011112235413533117
1	1	0	0	0	0	2	240265,27	0,100000001	2,45766664	0,00027780618342550262	0,10001021038536416	0,000245791744	-0,77316615061652941	0,028847868612448166	0,0072229380379770355
1	1	0	0	0	0	2	240485,27	0,100000001	2,45289826	0,00027780529250370134	0,10000988965356586	0,000245314091	-0,7670544231029335	0,028619831841610867	0,013334665551572621
1	1	0	0	0	0	2	240705,27	0,100000001	2,44006205	0,00027780618616855808	0,10001021137286395	0,000244031122	-0,76094268848480512	0,02839179480569391	0,019446400169700797
1	1	0	0	0	0	2	240925,27	0,100000001	2,43006754	0,00027780621375888582	0,1000102213053804	0,000243031594	-0,75483095173954253	0,02816375769041071	0,025558136914963523
1	1	0	0	0	0	2	241145,27	0,100000001	2,4246316	0,00027780641130275197	0,10001029242116109	0,00024248811	-0,74871920959102285	0,02793572037352473	0,031669879063482918
1	1	0	0	0	0	2	241365,27	0,100000001	2,42049265	0,00027780597008392211	0,1000101335824072	0,000242073787	-0,74260747472100595	0,027707683328209469	0,037781613933499904
1	1	0	0	0	0	2	241585,27	0,100000001	2,41726923	0,00027780581495331392	0,10001007773539698	0,000241751288	-0,73649574519321574	0,027479646482219869	0,04389334346129001
1	1	0	0	0	0	2	241805,27	0,100000001	2,41820383	0,00027780593113932346	0,10001011956235387	0,000241844857	-0,73038402244964685	0,027251609889358691	0,050005066204858739
1	1	0	0	0	0	2	242025,27	0,100000001	2,41866159	0,00027780594679796035	0,10001012519946226	0,000241890652	-0,72427229687181773	0,027023573190747453	0,056116791782687942
1	1	0	0	0	0	2	242245,27	0,100000001	2,41986322	0,00027780667940775555	0,10001038893894728	0,000242011462	-0,7181605590191159	0,026795536034144211	0,062228529635389658
1	1	0	0	0	0	2	242465,27	0,100000001	2,41868067	0,00027780608208187757	0,10001017390166483	0,000241892674	-0,71204882735093094	0,0265674991082936	0,068340261303574682
1	1	0	0	0	0	2	242685,27	0,100000001	2,42054987	0,00027780650555135475	0,10001032635065277	0,000242079986	-0,70593709556815949	0,026339462178167629	0,074451993086346355
1	1	0	0	0	0	2	242905,28	0,100000001	2,41808939	0,00027780660158230202	0,10001036092178838	0,000241833986	-0,69982535549888909	0,026111424938861229	0,080563733155616499
1	1	0	0	0	0	2	243125,28	0,100000001	2,41782236	0,00027780630507485738	0,10001025417912501	0,000241807022	-0,69371361650894976	0,025883387739826125	0,086675472145555802
1	1	0	0	0	0	2	243345,28	0,100000001	2,42230463	0,00027780671688127846	0,10001040242941341	0,000242255657	-0,68760187491557146	0,025655350443653213	0,092787213738934118
1	1	0	0	0	0	2	243565,28	0,100000001	2,42222834	0,00027780631139626106	0,10001025645482998	0,000242247683	-0,68149013032833075	0,025427313035775267	0,098898958326175066
1	1	0	0	0	0	2	243785,28	0,100000001	2,42623377	0,00027780624484105245	0,10001023249495862	0,00024264821	-0,6753783893893376	0,025199275764018346	0,10501069926516803
1	1	0	0	0	0	2	244005,28	0,100000001	2,42783594	0,00027780677555335898	0,10001042355135907	0,000242808906	-0,66926664590328038	0,024971238397227043	0,11112244275122515
1	1	0	0	0	0	2	244225,28	0,100000001	2,42890406	0,0002778065081511935	0,10001032728659456	0,000242915485	-0,66315490204946394	0,024743201016714141	0,11723418660504133
1	1	0	0	0	0	2	244445,28	0,100000001	2,42657709	0,00027780731632974413	0,10001061823082726	0,000242683469	-0,65704315221266803	0,024515163412968237	0,12334593644183718
1	1	0	0	0	0	2	244665,28	0,100000001	2,42352533	0,00027780600617163712	0,10001014657398256	0,000242377122	-0,65093141059013965	0,024287126115707696	0,1294576780643655
1	1	0	0	0	0	2	244885,28	0,100000001	2,42703485	0,00027780685680111251	0,10001045280054576	0,000242728856	-0,64481967102181875	0,024059088895092397	0,13556941763268677
1	1	0	0	0	0	2	245105,28	0,100000001	2,42550898	0,00027780675015681322	0,10001041440860405	0,000242576163	-0,63870792309496998	0,023831051362609187	0,14168116555953541
1	1	0	0	0	0	2	245325,28	0,100000001	2,42394495	0,00027780692492508227	0,10001047732517106	0,00024241989	-0,63259618163285952	0,023603014071334051	0,14779290702164608
1	1	0	0	0	0	2	245545,28	0,100000001	2,4265008	0,00027780635387450458	0,10001027174699525	0,000242675	-0,62648442858282381	0,02337497634769785	0,15390466007168157
1	1	0	0	0	0	2	245765,28	0,100000001	2,42844629	0,00027780714135617018	0,10001055524035051	0,000242870257	-0,62037267445605786	0,023146938583887392	0,16001641419844758
1	1	0	0	0	0	2	245985,28	0,100000001	2,42837	0,00027780690524147619	0,10001047023907397	0,000242862428	-0,61426091587051072	0,022918900653713814	0,16612817278399462
1	1	0	0	0	0	2	246205,28	0,100000001	2,42838907	0,00027780730659266314	0,10001061472547867	0,000242864684	-0,60814915738948992	0,022690862727440256	0,17223993126501536
1	1	0	0	0	0	2	246425,28	0,100000001	2,43149805	0,00027780676707832352	0,10001042050034678	0,000243175149	-0,60203740755219302	0,022462825123675658	0,17835168110231203
1	1	0	0	0	0	2	246645,28	0,100000001	2,43319559	0,00027780734480627709	0,10001062848237755	0,000243345421	-0,5959256525815159	0,022234787328377738	0,18446343607298922
1	1	0	0	0	0	2	246865,28	0,100000001	2,43348169	0,00027780714102337757	0,1000105551205452	0,000243373855	-0,58981389786392691	0,02200674954252288	0,19057519079057802
1	1	0	0	0	0	2	247085,28	0,100000001	2,43214655	0,00027780718806965482	0,10001057205720235	0,000243240371	-0,58370214882039181	0,021778711968374602	0,19668693983411312
1	1	0	0	0	0	2	247305,28	0,100000001	2,43296671	0,00027780655465895936	0,10001034402938766	0,000243321832	-0,57759040029922624	0,021550674413716634	0,20279868835527878
1	1	0	0	0	0	2	247525,28	0,100000001	2,43323374	0,00027780672088762125	0,10001040387169659	0,000243348695	-0,57147865774014573	0,021322637081512074	0,20891043091435914
1	1	0	0	0	0	2	247745,28	0,100000001	2,43464518	0,00027780710500064822	0,10001054215236466	0,000243490183	-0,56536690245785568	0,021094599274587459	0,21502218619664899
1	1	0	0	0	0	2	247965,28	0,100000001	2,43382502	0,000277806825645268	0,10001044158444349	0,000243407922	-0,55925515789756096	0,020866561867714906	0,22113393075694365
1	1	0	0	0	0	2	248185,28	0,100000001	2,43496943	0,00027780693016118474	0,10001047921016765	0,00024352246	-0,55314341761977069	0,020638524620628352	0,22724567103473402
1	1	0	0	0	0	2	248405,28	0,100000001	2,43292856	0,00027780629372306998	0,10001025009248218	0,000243317787	-0,54703167355181248	0,020410487232125536	0,23335741510269222
1	1	0	0	0	0	2	248625,28	0,100000001	2,43544626	0,00027780670254429181	0,10001039726809904	0,000243569943	-0,54091992429474413	0,020182449650010045	0,23946916435976051
1	1	0	0	0	0	2	248845,28	0,100000001	2,43619013	0,00027780698103126557	0,10001049752339387	0,000243644594	-0,53480817737066701	0,019954412154941594	0,24558091128383757
1	1	0	0	0	0	2	249065,28	0,100000001	2,43920374	0,00027780683922477894	0,10001044647306669	0,000243945862	-0,52869641846933267	0,019726374212985571	0,251692670185172
1	1	0	0	0	0	2	249285,28	0,100000001	2,43895578	0,00027780691421073344	0,10001047346800608	0,000243921124	-0,52258466800969926	0,019498336586000758	0,25780442064480531
1	1	0	0	0	0	2	249505,28	0,100000001	2,43792582	0,00027780798674085072	0,10001085958344501	0,000243819057	-0,51647291257512115	0,019270298773394074	0,26391617607938346
1	1	0	0	0	0	2	249725,28	0,100000001	2,43699121	0,0002778068623985681	0,10001045481562949	0,0002437246	-0,5103611572600455	0,019042260965246182	0,2700279313944593
1	1	0	0	0	0	2	249945,28	0,100000001	2,43918467	0,00027780705903222163	0,10001052560373368	0,000243944145	-0,50424940679052813	0,018814223337892586	0,27613968186397674
1	1	0	0	0	0	2	250165,28	0,100000001	2,44074869	0,00027780709191660083	0,10001053744210835	0,000244100593	-0,49813764989341216	0,018586185470716646	0,28225143876109264
1	1	0	0	0	0	2	250385,28	0,100000001	2,44294214	0,00027780648820640317	0,10001032010647118	0,000244319439	-0,49202589668248166	0,018358147741077242	0,28836319197202317
1	1	0	0	0	0	2	250605,28	0,100000001	2,44540262	0,00027780689465088973	0,10001046642646346	0,000244565861	-0,48591414586933856	0,018130110100902509	0,29447494278516621
1	1	0	0	0	0	2	250825,28	0,100000001	2,44544077	0,00027780664416733712	0,10001037625239862	0,000244569441	-0,47980240223635558	0,017902072728629203	0,30058668641814925
1	1	0	0	0	0	2	251045,28	0,100000001	2,44660401	0,00027780655152516237	0,10001034290122091	0,000244685711	-0,47369065701900787	0,017674035297241123	0,3066984316354969
1	1	0	0	0	0	2	251265,28	0,100000001	2,44660401	0,00027780660372558566	0,10001036169337037	0,00024468574	-0,46757890961588544	0,017445997784298845	0,31281017903861933
1	1	0	0	0	0	2	251485,28	0,100000001	2,447119	0,00027780664833593699	0,10001037775309434	0,000244737283	-0,46146716988275642	0,017217960557534336	0,31892191877174835
1	1	0	0	0	0	2	251705,28	0,100000001	2,45011353	0,00027780671844217514	0,10001040299133613	0,000245036848	-0,45535542953745626	0,016989923307928899	0,32503365911704851
1	1	0	0	0	0	2	251925,28	0,100000001	2,4493506	0,00027780601056913533	0,10001014815708166	0,000244959927	-0,44924369893222125	0,016761886421738384	0,33114538972228352
1	1	0	0	0	0	2	252145,28	0,100000001	2,45074296	0,00027780585478328995	0,1000100920741861	0,000245099043	-0,44313196311319328	0,016533849341014243	0,33725712554131155
1	1	0	0	0	0	2	252365,28	0,100000001	2,44942689	0,00027780687878156701	0,10001046071350816	0,000244968309	-0,43702021782723674	0,016305811907066275	0,34336887082726803
1	1	0	0	0	0	2	252585,28	0,100000001	2,45055223	0,00027780623569132554	0,10001022920105746	0,0002450803	-0,43090846863863354	0,016077774327505312	0,3494806200158713
1	1	0	0	0	0	2	252805,28	0,100000001	2,45097184	0,00027780780535688006	0,10001079428056867	0,000245123636	-0,42479671468985197	0,015849736570335693	0,3555923739646528
1	1	0	0	0	0	2	253025,28	0,100000001	2,45139146	0,00027780672622761792	0,10001040579409509	0,000245164643	-0,41868496754104723	0,015621699066882349	0,36170412111345754
1	1	0	0	0	0	2	253245,28	0,100000001	2,45293641	0,00027780622730776669	0,10001022618297674	0,000245318719	-0,41257322070255053	0,015393661575007021	0,36781586795195424
1	1	0	0	0	0	2	253465,28	0,100000001	2,45423341	0,00027780639956767357	0,10001028819653354	0,00024544858	-0,40646147905458605	0,015165624276797421	0,37392760959991878
1	1	0	0	0	0	2	253685,28	0,100000001	2,45595002	0,00027780691461058131	0,10001047361195128	0,000245620729	-0,40034973305904218	0,014937586816373792	0,38003935559546259
1	1	0	0	0	0	2	253905,28	0,100000001	2,46022248	0,00027780720764522755	0,10001057910440742	0,000246048265	-0,39423798215419053	0,01470954917277729	0,38615110650031424
1	1	0	0	0	0	2	254125,28	0,100000001	2,46008897	0,00027780824168026445	0,10001095135696246	0,000246035837	-0,38812622838308173	0,014481511422236883	0,39226286027142304
1	1	0	0	0	0	2	254345,28	0,100000001	2,46188188	0,00027780634826007818	0,10001026972580208	0,000246213458	-0,38201448125186739	0,014253473919439859	0,39837460740263744
1	1	0	0	0	0	2	254565,28	0,100000001	2,4622252	0,00027780666729186973	0,10001038457722906	0,000246248092	-0,37590273385018202	0,014025436406551203	0,40448635480432275
1	1	0	0	0	0	2	254785,28	0,100000001	2,46487641	0,00027780549891955325	0,10000996396326094	0,000246512209	-0,36979100382517651	0,013797399542009834	0,41059808482932832
1	1	0	0	0	0	2	255005,28	0,100000001	2,46594453	0,00027780540454429059	0,10000992998817168	0,000246618933	-0,36367927250749152	0,013569362629236856	0,41670981614701325
1	1	0	0	0	0	2	255225,28	0,100000001	2,46693635	0,00027780624806177286	0,10001023365441781	0,000246718875	-0,3575675423737303	0,013341325760637662	0,42282154628077453
1	1	0	0	0	0	2	255445,28	0,100000001	2,46497178	0,0002778080951107873	0,10001089859195894	0,000246524054	-0,35145580304800736	0,013113288549074022	0,42893328560649747
1	1	0	0	0	0	2	255665,28	0,100000001	2,4653914	0,00027780601682265597	0,10001015040834875	0,000246564159	-0,34534405659075968	0,012885251071423603	0,43504503206374509
1	1	0	0	0	0	2	255885,28	0,100000001	2,46325517	0,00027780613486924102	0,10001019290511272	0,000246350624	-0,33923232163782637	0,012657214023014622	0,44115676701667846
1	1	0	0	0	0	2	256105,28	0,100000001	2,46439958	0,00027780666630632346	0,10001038422243246	0,000246465555	-0,33312058359375526	0,012429176859271134	0,44726850506074957
1	1	0	0	0	0	2	256325,28	0,100000001	2,4634459	0,00027780680815709965	0,10001043528870389	0,000246370299	-0,32700883667757421	0,012201139364497296	0,45338025197693062
1	1	0	0	0	0	2	256545,28	0,100000001	2,46335053	0,00027780680660986237	0,10001043473169856	0,000246360752	-0,32089708922099878	0,011973101849560618	0,45949199943350598
1	1	0	0	0	0	2	256765,28	0,100000001	2,46672654	0,00027780646801408794	0,10001031283723882	0,000246698095	-0,31478535373047066	0,011745064781093248	0,46560373492403411
1	1	0	0	0	0	2	256985,28	0,100000001	2,46785188	0,00027780695090898211	0,10001048667937354	0,000246811076	-0,30867360587469677	0,011517027251261938	0,471715482779808
1	1	0	0	0	0	2	257205,28	0,100000001	2,47069383	0,00027780612981691955	0,10001019108627728	0,000247094547	-0,30256186139191206	0,011288989847281386	0,47782722726259277
1	1	0	0	0	0	2	257425,28	0,100000001	2,47187638	0,00027780681141258944	0,10001043646068003	0,000247213437	-0,29645012329902362	0,011060952681716458	0,48393896535548122
1	1	0	0	0	0	2	257645,28	0,100000001	2,47111344	0,00027780711151452528	0,10001054449736003	0,000247137388	-0,29033837493007373	0,010832915132737861	0,49005071372443104
1	1	0	0	0	0	2	257865,28	0,100000001	2,4728682	0,0002778064587165912	0,10001030949014053	0,000247312302	-0,28422662663287744	0,010604877586436486	0,49616246202162733
1	1	0	0	0	0	2	258085,28	0,100000001	2,47483277	0,00027780554183862278	0,10000997941412355	0,000247507967	-0,27811489144807056	0,01037684052937599	0,5022741972064343
1	1	0	0	0	0	2	258305,28	0,100000001	2,47731233	0,00027780572999806874	0,10001004715151349	0,000247756136	-0,27200315185799651	0,010148803307949053	0,5083859367965081
1	1	0	0	0	0	2	258525,28	0,100000001	2,47530961	0,00027780672294563718	0,10001040461258221	0,000247556716	-0,26589140354678893	0,0099207657611248986	0,51449768510771565
1	1	0	0	0	0	2	258745,28	0,100000001	2,4767592	0,00027780649598563712	0,10001032290699498	0,000247701479	-0,2597796602588896	0,0096927284017271283	0,5206094283956151
1	1	0	0	0	0	2	258965,28	0,100000001	2,47477555	0,00027780646725868192	0,1000103125652927	0,000247503078	-0,2536679172882479	0,0094646910541666662	0,52672117136625696
1	1	0	0	0	0	2	259185,28	0,100000001	2,46094728	0,0002778072921737201	0,10001060953465998	0,00024612085	-0,24755616772361062	0,0092366534605753664	0,53283292093089453
1	1	0	0	0	0	2	259405,28	0,100000001	2,45995545	0,00027780739846163325	0,10001064779830274	0,000246021751	-0,24144440698398653	0,009008615450030281	0,53894468167051859
1	1	0	0	0	0	2	259625,28	0,100000001	2,46476197	0,00027780663683306838	0,10001037361206229	0,000246501761	-0,23533264721013235	0,0087805774755193702	0,5450564414443728
1	1	0	0	0	0	2	259845,28	0,100000001	2,46859574	0,0002778067334170143	0,10001040838227738	0,000246885262	-0,22922090123030554	0,008552540015682167	0,55116818742419994
1	1	0	0	0	0	2	260065,28	0,100000001	2,47208619	0,00027780670111295254	0,10001039675281694	0,000247234333	-0,22310915954625037	0,0083245027161259789	0,5572799291082553
1	1	0	0	0	0	2	260285,28	0,100000001	2,47494721	0,00027780689150467517	0,10001046529382637	0,000247520627	-0,216997418628564	0,0080964654451640397	0,5633916700259417
1	1	0	0	0	0	2	260505,28	0,100000001	2,47895265	0,00027780716770763194	0,10001056472687526	0,000247921445	-0,21088565766935805	0,0078684274264260621	0,56950343098514778
1	1	0	0	0	0	2	260725,28	0,100000001	2,48019242	0,00027780762483469318	0,10001072929259155	0,000248045864	-0,20477389534571235	0,0076403893567790003	0,57561519330879315
1	1	0	0	0	0	2	260945,28	0,100000001	2,48269105	0,00027780652396546467	0,1000103329797313	0,00024829476	-0,19866214789652707	0,0074123518421180557	0,5817269407579785
1	1	0	0	0	0	2	261165,28	0,100000001	2,48415971	0,0002778061403855681	0,10001019489099016	0,000248441298	-0,19255040440409011	0,007184314475088713	0,58783868425041523
1	1	0	0	0	0	2	261385,28	0,100000001	2,4861815	0,00027780686956395709	0,10001045739516912	0,000248644152	-0,18643866225162726	0,0069562771580556045	0,59395042640287782
1	1	0	0	0	0	2	261605,28	0,100000001	2,48843193	0,00027780737469924822	0,10001063924384546	0,000248869677	-0,18032690478773002	0,0067282392697322931	0,6000621838667753
1	1	0	0	0	0	2	261825,28	0,100000001	2,49102592	0,00027780674828382	0,10001041373432661	0,000249128527	-0,17421514732578477	0,0065002013814818125	0,60617394132872038
1	1	0	0	0	0	2	262045,28	0,100000001	2,49907494	0,00027780676647482643	0,10001042028308789	0,000249933539	-0,16810338788294704	0,0062721634193215706	0,61228570077155814
1	1	0	0	0	0	2	262265,28	0,100000001	2,49732018	0,00027781250419012374	0,10001057581051888	0,000249758421	-0,1619915611071744	0,0060441229448789965	0,61839752754733107
1	1	0	0	0	0	2	262485,28	0,100000001	2,50079155	0,00027781337590639789	0,10001088962349941	0,000250106386	-0,15587967015058755	0,0058160800757639514	0,6245094185039177
1	1	0	0	0	0	2	262705,29	0,100000001	2,5070858	0,00027781357276729411	0,10001096048972898	0,000250736048	-0,14976778287206752	0,0055880373438825261	0,63062130578243789
1	1	0	0	0	0	2	262925,29	0,100000001	2,51103401	0,00027781254463932576	0,10001059037544402	0,000251129997	-0,14365590256756533	0,0053599948722110835	0,63673318608694003
1	1	0	0	0	0	2	263145,30	0,100000001	2,51595497	0,0002778131095903615	0,10001079375390083	0,000251622667	-0,13754402059814077	0,0051319523384191482	0,64284506805636467
1	1	0	0	0	0	2	263365,30	0,100000001	2,51872063	0,00027781298971838422	0,10001075060081992	0,000251899153	-0,13143213621674104	0,0049039097146331763	0,64895695243776474
1	1	0	0	0	0	2	263585,31	0,100000001	2,52024651	0,00027781355090108182	0,10001095261804413	0,000252052239	-0,12532025154513122	0,0046758670800190752	0,65506883710937485
1	1	0	0	0	0	2	263805,31	0,100000001	2,52051353	0,00027781256204388205	0,1000105966386351	0,000252078054	-0,11920837065778962	0,0044478245866011091	0,66118071799671642
1	1	0	0	0	0	2	264025,31	0,100000001	2,52228737	0,00027781314738839866	0,10001080735743946	0,000252255995	-0,11309648595400611	0,0042197819507865658	0,66729260270049984
1	1	0	0	0	0	2	264245,32	0,100000001	2,52318382	0,00027781291645392771	0,1000107242214664	0,000252345431	-0,10698460425906096	0,0039917394272358259	0,67340448439544499
1	1	0	0	0	0	2	264465,32	0,100000001	2,52486229	0,00027781235816412506	0,1000105232456643	0,000252512807	-0,10087272788703987	0,0037636971022905389	0,67951636076746611
1	1	0	0	0	0	2	264685,33	0,100000001	2,52449989	0,00027781261439455882	0,10001061548684438	0,000252476777	-0,094760849370488768	0,0035356546973299552	0,6856282392840169
1	1	0	0	0	0	2	264905,33	0,100000001	2,52642632	0,00027781393230002787	0,100011089923678	0,000252670638	-0,088648962897033818	0,0033076119954865894	0,69174012575747162
1	1	0	0	0	0	2	265125,34	0,100000001	2,52774239	0,00027781234394096662	0,10001051812542589	0,000252800819	-0,082537080877266522	0,0030795694598162989	0,69785200777723891
1	1	0	0	0	0	2	265345,34	0,100000001	2,52861953	0,00027781271247482963	0,10001065079040499	0,000252888887	-0,076425203144368294	0,002851527084094857	0,70396388551013696
1	1	0	0	0	0	2	265565,34	0,100000001	2,53025985	0,00027781230734868182	0,10001050494896424	0,000253052567	-0,070313323084613645	0,002623484621555273	0,71007576556989171
1	1	0	0	0	0	2	265785,35	0,100000001	2,53266311	0,00027781215673022797	0,10001045072620064	0,00025329279	-0,064201446673590822	0,0023954422951547798	0,71618764198091456
1	1	0	0	0	0	2	266005,35	0,100000001	2,5074482	0,00027781289352683552	0,10001071597252917	0,0002507717	-0,058089564131290227	0,0021673997399880694	0,72229952452321523
1	1	0	0	0	0	2	266225,36	0,100000001	2,50857353	0,00027781244806655574	0,10001055560991621	0,000250883837	-0,05197768141322055	0,0019393571782631779	0,72841140724128499
1	1	0	0	0	0	2	266445,36	0,100000001	2,5096035	0,00027781268213358189	0,10001063987242315	0,000250987039	-0,045865800437010099	0,0017113146815293958	0,73452328821749542
1	1	0	0	0	0	2	266665,37	0,100000001	2,51078606	0,00027781254963328442	0,10001059217323451	0,000251105201	-0,03975391506868777	0,0014832720209200147	0,74063517358581786
1	1	0	0	0	0	2	266885,37	0,100000001	2,51200676	0,00027781231756880877	0,10001050862697485	0,000251227088	-0,03364204062855463	0,0012552297680560656	0,7467470480259511
1	1	0	0	0	0	2	267105,37	0,100000001	2,51458168	0,0002778117411153184	0,10001030110887834	0,000251484074	-0,02753017864442216	0,0010271879799422482	0,75285891001008371
1	1	0	0	0	0	2	267325,38	0,100000001	2,51690865	0,00027781291339918973	0,10001072312411042	0,000251717865	-0,021418313575382579	0,00079914607672639898	0,7589707750791232
1	1	0	0	0	0	2	267545,38	0,100000001	2,5181675	0,00027781337679508659	0,10001088994109267	0,000251844176	-0,015306437647076666	0,00057110376833672256	0,76508265100742912
1	1	0	0	0	0	2	267765,39	0,100000001	2,51889229	0,00027781226664947139	0,10001049030102334	0,000251915655	-0,0091945585324446861	0,00034306134106093638	0,77119453012206106
1	1	0	0	0	0	2	267985,39	0,100000001	2,52093315	0,00027781201243773101	0,10001039878655893	0,000252119527	-0,0030826907910768013	0,00011501933813692523	0,77730639786342886
1	1	0	0	0	0	2	268205,39	0,100000001	2,52278328	0,00027781197059858179	0,10001038372475522	0,000252304511	0,0030291767046619962	-0,00011302265562233443	0,78341826535916787
1	1	0	0	0	0	2	268425,40	0,100000001	2,5199604	0,00027781276830989456	0,10001067089064133	0,000252022932	0,0091410460788515226	-0,00034106471946911642	0,78953013473335757
1	1	0	0	0	0	2	268645,40	0,100000001	2,5180912	0,00027781257435472477	0,10001060107045315	0,000251835823	0,015252925131966954	-0,00056910714444963725	0,79564201378647309
1	1	0	0	0	0	2	268865,41	0,100000001	2,52203941	0,00027781253831502467	0,1000105880958288	0,000252230646	0,021364809635308752	-0,00079714977278543194	0,80175389828981478
1	1	0	0	0	0	2	269085,41	0,100000001	2,52152443	0,00027781191274979046	0,10001036289493432	0,000252178579	0,027476690049699485	-0,0010251922485569648	0,80786577870420557
1	1	0	0	0	0	2	269305,42	0,100000001	2,52209663	0,00027781212146414653	0,10001043803531277	0,000252236001	0,033588558084326349	-0,0012532342624228629	0,81397764673883238
1	1	0	0	0	0	2	269525,42	0,100000001	2,52388954	0,00027781228235074218	0,100010495953372	0,000252415455	0,039700426704883008	-0,0014812762981505891	0,82008951535938918
1	1	0	0	0	0	2	269745,42	0,100000001	2,51606941	0,00027781309205914538	0,10001078744278456	0,000251634076	0,04581230259587271	-0,0017093186051479475	0,82620139125037888
1	1	0	0	0	0	2	269965,43	0,100000001	2,51551628	0,00027781205799140867	0,1000104151855671	0,000251577818	0,051924177460376877	-0,0019373608738457507	0,83231326611488294
1	1	0	0	0	0	2	270185,43	0,100000001	2,51746178	0,00027781262825801968	0,10001062047293718	0,000251772901	0,058036045584894182	-0,0021654028910655818	0,83842513423940045
1	1	0	0	0	0	2	270405,44	0,100000001	2,5178051	0,00027781294705056483	0,10001073523720792	0,000251807534	0,06414793134662249	-0,0023934455663534691	0,84453702000112883
1	1	0	0	0	0	2	270625,44	0,100000001	2,51692772	0,0002778122746464279	0,10001049317754374	0,000251719175	0,070259806555298778	-0,0026214878478927965	0,85064889520980531
1	1	0	0	0	0	2	270845,45	0,100000001	2,5183773	0,00027781302606728346	0,10001076368617168	0,00025186484	0,076371692897872678	-0,0028495305448528141	0,85676078155237901
1	1	0	0	0	0	2	271065,45	0,100000001	2,52095222	0,0002778128338340256	0,10001069448353136	0,000252122176	0,082483574912140672	-0,0030775730803179181	0,86287266356664666
1	1	0	0	0	0	2	271285,45	0,100000001	2,52259254	0,00027781306222081184	0,10001077670119131	0,000252286438	0,088595458920534618	-0,0033056156901865427	0,8689845475750409
1	1	0	0	0	0	2	271505,46	0,100000001	2,52385139	0,00027781324393219418	0,10001084211602939	0,000252412516	0,094707346994146227	-0,0035336584517339046	0,87509643564865242
1	1	0	0	0	0	2	271725,46	0,100000001	2,52579689	0,00027781306999797619	0,10001077949625955	0,000252606929	0,10081923744417062	-0,0037617013019484224	0,88120832609867674
1	1	0	0	0	0	2	271945,47	0,100000001	2,52709389	0,00027781226058387094	0,10001048811512074	0,000252735888	0,10693111630451141	-0,0039897437197362624	0,88732020495901747
1	1	0	0	0	0	2	272165,47	0,100000001	2,52522469	0,00027781320769836509	0,10001082906977355	0,000252549828	0,11304299927870141	-0,0042177862910173466	0,89343208793320755
1	1	0	0	0	0	2	272385,48	0,100000001	2,5260067	0,00027781197360489107	0,1000103848023487	0,000252626895	0,11915487929084027	-0,0044458287517803219	0,89954396794534643
1	1	0	0	0	0	2	272605,48	0,100000001	2,52997375	0,00027781220765246288	0,10001046906250923	0,000253023871	0,12526675332142165	-0,004673870989363344	0,90565584197592755
1	1	0	0	0	0	2	272825,48	0,100000001	2,53193831	0,00027781249461612768	0,10001057236743944	0,000253220613	0,1313786265337164	-0,0049019131964149926	0,91176771518822246
1	1	0	0	0	0	2	273045,49	0,100000001	2,53258681	0,00027781282966004483	0,1000106929809272	0,000253285776	0,1374904968704588	-0,0051299552961759168	0,91787958552496486
1	1	0	0	0	0	2	273265,49	0,100000001	2,52995467	0,00027781254136355386	0,10001058919618883	0,00025302227	0,1436023625133773	-0,005357997220803959	0,92399145116788378
1	1	0	0	0	0	2	273485,50	0,100000001	2,53279662	0,00027781229093381101	0,10001049904088877	0,000253306265	0,14971423893906992	-0,0055860395477518022	0,93010332759357658
1	1	0	0	0	0	2	273705,50	0,100000001	2,5374887	0,00027781168967402643	0,10001028259036981	0,000253774953	0,15582610474758371	-0,0058140814785584282	0,93621519340209062
1	1	0	0	0	0	2	273925,50	0,100000001	2,54109359	0,00027781288485270406	0,10001071284524493	0,000254136568	0,16193797440525581	-0,006042123552982327	0,94232706305976269
1	1	0	0	0	0	2	274145,51	0,100000001	2,54242873	0,00027781224107825094	0,10001048109556125	0,000254269515	0,16804985297922605	-0,0062701659600852966	0,94843894163373274
1	1	0	0	0	0	2	274365,51	0,100000001	2,54984832	0,00027781253252633747	0,10001058601485219	0,000255011837	0,1741617297185521	-0,0064982082987352243	0,95455081837305882
1	1	0	0	0	0	2	274585,52	0,100000001	2,55167937	0,00027781344980870685	0,1000109162301469	0,000255195802	0,18027360781577626	-0,0067262506880501568	0,96066269647028288
1	1	0	0	0	0	2	274805,52	0,100000001	2,55404449	0,00027781294613662694	0,10001073491168939	0,000255431863	0,18638548607589539	-0,0069542930834429197	0,96677457473040179
1	1	0	0	0	0	2	275025,53	0,100000001	2,55688643	0,0002778131853002641	0,10001082100428397	0,000255716324	0,19249736752426531	-0,0071823355977936064	0,97288645617877184
1	1	0	0	0	0	2	275245,53	0,100000001	2,55934691	0,00027781287167593837	0,10001070810286486	0,000255962106	0,1986092481664737	-0,007410378082065321	0,97899833682097997
1	1	0	0	0	0	2	275465,53	0,100000001	2,56037688	0,00027781186936754317	0,10001034728228301	0,000256064173	0,20472112303448416	-0,0076384203508939507	0,98511021168899021
1	1	0	0	0	0	2	275685,54	0,100000001	2,56291366	0,0002778129746255775	0,1000107451628571	0,00025631889	0,21083299431288768	-0,0078664624857895155	0,99122208296739405
1	1	0	0	0	0	2	275905,54	0,100000001	2,56119704	0,00027781158345399632	0,100010244355388	0,000256145955	0,21694486786095952	-0,0080945047053694579	0,99733395651546547
1	1	0	0	0	0	2	276005,27	0,100000001	2,5648973	0,00027011160401130714	0,10001054194614619	0,000256516767	0,21971528986726771	-0,0081978728752968218	1,0001043785217738