File: Experimentelles/Rohdaten/Batteriemessungen/AlteZelle/Studenten_Batterietests/Sonstige/ECLab-Export/S vs Li_05_GCPL_C02_loop10.mpt
EC-Lab ASCII FILE
Nb header lines : 3
mode	ox/red	error	control changes	Ns changes	counter inc.	Ns	time/s	control/V/mA	Ewe/V	dq/mA.h	<I>/mA	P/W	(Q-Qo)/mA.h	x	Capacity/mA.h
1	0	0	1	1	0	1	663161,84	-0,100000001	2,8098948	0	0	0	0	0	0
1	0	0	1	0	0	1	663381,85	-0,100000001	2,21358466	-0,00027771290226860179	-0,099974767483433882	0,000221302616	-0,0061083168419567821	0,0002279095140927479	0,0061083168419567821
1	0	0	1	0	0	1	663601,85	-0,100000001	2,19821167	-0,00027771339577022525	-0,099974945140682266	0,000219766094	-0,012218013899717205	0,00045587052589284954	0,012218013899717205
1	0	0	1	0	0	1	663821,86	-0,100000001	2,19094467	-0,00027771373643229408	-0,099975067776724173	0,000219039837	-0,018327717478895072	0,00068383178101580416	0,018327717478895072
1	0	0	1	0	0	1	664041,86	-0,100000001	2,18405914	-0,00027771451886743309	-0,099975349448084979	0,00021835207	-0,024437421286237869	0,00091179304465189901	0,024437421286237869
1	0	0	1	0	0	1	664261,86	-0,100000001	2,17887115	-0,00027771200803667306	-0,099974445565984512	0,000217831432	-0,030547110390995654	0,0011397537597147792	0,030547110390995654
1	0	0	1	0	0	1	664481,87	-0,100000001	2,17349243	-0,00027771318812047446	-0,099974870383520333	0,000217294626	-0,036656810301532045	0,001367714877955788	0,036656810301532045
1	0	0	1	0	0	1	664701,87	-0,100000001	2,16975403	-0,00027771326824029283	-0,099974899228441024	0,000216920947	-0,042766499581862355	0,0015956755995695152	0,042766499581862355
1	0	0	1	0	0	1	664921,88	-0,100000001	2,16536713	-0,00027771287130274707	-0,099974756332444006	0,000216482047	-0,048876191197226963	0,0018236364083065117	0,048876191197226963
1	0	0	1	0	0	1	665141,88	-0,100000001	2,16147614	-0,00027771334202463427	-0,099974925787977485	0,000216093409	-0,0549858771731544	0,0020515970066285251	0,0549858771731544
1	0	0	1	0	0	1	665361,88	-0,100000001	2,1583674	-0,00027771385282691984	-0,099975109678002637	0,000215783017	-0,061095562047522189	0,0022795575638498669	0,061095562047522189
1	0	0	1	0	0	1	665581,89	-0,100000001	2,15533471	-0,00027771303088963034	-0,099974813786134682	0,000215479187	-0,067205260857800333	0,0025075186410387606	0,067205260857800333
1	0	0	1	0	0	1	665801,89	-0,100000001	2,15178704	-0,00027771300830319523	-0,099974805655170726	0,000215124484	-0,073314952011691725	0,0027354794325575709	0,073314952011691725
1	0	0	1	0	0	1	666021,90	-0,100000001	2,14934564	-0,00027771313224111997	-0,09997485027198583	0,000214880507	-0,07942463977788151	0,0029634400976766797	0,07942463977788151
1	0	0	1	0	0	1	666241,90	-0,100000001	2,14610314	-0,00027771261755956544	-0,099974664990105434	0,000214555941	-0,085534323281098675	0,0031914006037385478	0,085534323281098675
1	0	0	1	0	0	1	666461,90	-0,100000001	2,14343286	-0,00027771290919557213	-0,099974769977096384	0,000214289204	-0,091644010981207206	0,0034193612663920762	0,091644010981207206
1	0	0	1	0	0	1	666681,91	-0,100000001	2,140095	-0,0002777129774615169	-0,099974794552375014	0,000213955558	-0,097753691795810342	0,0036473216721381395	0,097753691795810342
1	0	0	1	0	0	1	666901,91	-0,100000001	2,1385119	-0,00027771427091749181	-0,099975260187782259	0,000213798281	-0,10386336785990093	0,0038752819006361939	0,10386336785990093
1	0	0	1	0	0	1	667121,92	-0,100000001	2,13654733	-0,00027771428015207251	-0,099975263512168883	0,000213601888	-0,1099730638251703	0,0041032428716739853	0,1099730638251703
1	0	0	1	0	0	1	667341,92	-0,100000001	2,13330483	-0,00027771378347815741	-0,099975084712916954	0,000213277337	-0,11608276595879022	0,0043312040728612294	0,11608276595879022
1	0	0	1	0	0	1	667561,93	-0,100000001	2,1296618	-0,00027771383793403706	-0,099975104316665498	0,000212913161	-0,12219245173958902	0,0045591646639027309	0,12219245173958902
1	0	0	1	0	0	1	667781,93	-0,100000001	2,12735391	-0,0002777127025032209	-0,099974695564591821	0,000212681553	-0,12830213722993891	0,0047871252441071923	0,12830213722993891
1	0	0	1	0	0	1	668001,93	-0,100000001	2,12363458	-0,00027771320700521274	-0,099974877184226138	0,0002123101	-0,13441182040141442	0,0050150857377913338	0,13441182040141442
1	0	0	1	0	0	1	668221,94	-0,100000001	2,12098336	-0,00027771333581664496	-0,099974923555470963	0,000212045154	-0,1405215129340221	0,0052430465807519027	0,1405215129340221
1	0	0	1	0	0	1	668441,94	-0,100000001	2,1178174	-0,00027771335701603024	-0,099974931184778675	0,000211728649	-0,14663120349056362	0,0054710073499827859	0,14663120349056362
1	0	0	1	0	0	1	668661,95	-0,100000001	2,11346865	-0,00027771332605348698	-0,09997492004312777	0,000211293853	-0,15274088563030547	0,0056989678051715571	0,15274088563030547
1	0	0	1	0	0	1	668881,95	-0,100000001	2,10965395	-0,00027771295443135834	-0,099974786261673613	0,0002109122	-0,15885057364552061	0,0059269284795821363	0,15885057364552061
1	0	0	1	0	0	1	669101,95	-0,100000001	2,10627794	-0,0002777129378107687	-0,099974780278373709	0,000210574668	-0,16496024517589901	0,0061548885389212928	0,16496024517589901
1	0	0	1	0	0	1	669321,96	-0,100000001	2,10221529	-0,00027771346451590461	-0,099974969888662118	0,000210168917	-0,17106993484141814	0,0063828492749069325	0,17106993484141814
1	0	0	1	0	0	1	669541,96	-0,100000001	2,09826708	-0,00027771307584891718	-0,099974829971174016	0,000209773891	-0,17717962769018826	0,0066108101296639475	0,17717962769018826
1	0	0	1	0	0	1	669761,97	-0,100000001	2,09403276	-0,00027771324239257309	-0,099974889925764326	0,000209350692	-0,18328931696773328	0,0068387708511737523	0,18328931696773328
1	0	0	1	0	0	1	669981,97	-0,100000001	2,0882535	-0,0002777123459176057	-0,099974567200836211	0,000208772239	-0,18939899932465258	0,007066731314465705	0,18939899932465258
1	0	0	1	0	0	1	670201,98	-0,100000001	2,08258867	-0,00027771295852462451	-0,099974787735221786	0,000208206358	-0,19550866715459907	0,0072946912357367731	0,19550866715459907
1	0	0	1	0	0	1	670421,98	-0,100000001	2,07749605	-0,00027771283578044838	-0,099974743548148109	0,000207697129	-0,20161834550161718	0,00752265154941392	0,20161834550161718
1	0	0	1	0	0	1	670641,98	-0,100000001	2,07091594	-0,00027771218533482816	-0,09997450939212183	0,0002070388	-0,20772801517617843	0,0077506115395100442	0,20772801517617843
1	0	0	1	0	0	1	670861,99	-0,100000001	2,06389689	-0,00027771248031987085	-0,099974615584743104	0,000206337296	-0,21383768236865907	0,0079785714369964032	0,21383768236865907
1	0	0	1	0	0	1	671081,99	-0,100000001	2,0566299	-0,00027771164208485024	-0,099974313825802125	0,000205610166	-0,21994734538485709	0,008206531178660041	0,21994734538485709
1	0	0	1	0	0	1	671302,00	-0,100000001	2,04909587	-0,00027771236682103741	-0,099974574721274982	0,000204857482	-0,2260570038439447	0,0084344907502917658	0,2260570038439447
1	0	0	1	0	0	1	671522,00	-0,100000001	2,03992152	-0,00027771147429239418	-0,099974253418160742	0,000203939635	-0,23216666352801411	0,0086624503676292058	0,23216666352801411
1	0	0	1	0	0	1	671742,00	-0,100000001	2,03103352	-0,00027771232775184845	-0,099974560656631053	0,000203051677	-0,2382763365170319	0,0088904104813921587	0,2382763365170319
1	0	0	1	0	0	1	671962,01	-0,100000001	2,02048588	-0,00027771163756234778	-0,099974312197731827	0,000201996692	-0,24438600418432765	0,0091183703965945075	0,24438600418432765
1	0	0	1	0	0	1	672182,01	-0,100000001	2,01089191	-0,00027771190740375053	-0,099974409338812685	0,000201037736	-0,25049566262178714	0,009346329967419255	0,25049566262178714
1	0	0	1	0	0	1	672402,02	-0,100000001	2,00167942	-0,00027771214892466867	-0,099974496284710541	0,00020011689	-0,25660532666129466	0,0095742897472639488	0,25660532666129466
1	0	0	1	0	0	1	672622,02	-0,100000001	1,9927913	-0,00027771207230165603	-0,099974468700943962	0,000199228249	-0,26271499499045158	0,0098022496871612275	0,26271499499045158
1	0	0	1	0	0	1	672842,02	-0,100000001	1,98436081	-0,00027771299511732323	-0,099974800908345946	0,000198386071	-0,26882466286147926	0,01003020960996509	0,26882466286147926
1	0	0	1	0	0	1	673062,03	-0,100000001	1,97791398	-0,00027771180397727424	-0,099974372105980378	0,000197740708	-0,27493433216166618	0,010258169586092803	0,27493433216166618
1	0	0	1	0	0	1	673282,03	-0,100000001	1,97203946	-0,00027771271140832038	-0,099974698775022784	0,000197154048	-0,28104400751155024	0,010486129787942848	0,28104400751155024
1	0	0	1	0	0	1	673502,04	-0,100000001	1,96635556	-0,00027771327723893853	-0,099974902470220314	0,000196586203	-0,2871536817432248	0,010714089948070998	0,2871536817432248
1	0	0	1	0	0	1	673722,04	-0,100000001	1,96261716	-0,0002777132129735417	-0,099974879335111885	0,000196212408	-0,29326336073615571	0,010942050285848022	0,29326336073615571
1	0	0	1	0	0	1	673942,05	-0,100000001	1,95901227	-0,00027771298232343462	-0,099974796302632538	0,000195851855	-0,29937304895304237	0,011170010967783238	0,29937304895304237
1	0	0	1	0	0	1	674162,05	-0,100000001	1,95674253	-0,00027771337757839098	-0,099974938591744896	0,000195625209	-0,30548273913403827	0,011397971723002008	0,30548273913403827
1	0	0	1	0	0	1	674382,05	-0,100000001	1,95596051	-0,00027771239980434378	-0,099974586599697638	0,000195546338	-0,31159242720315578	0,011625932399423757	0,31159242720315578
1	0	0	1	0	0	1	674602,06	-0,100000001	1,95432019	-0,0002777125871727864	-0,09997465404641504	0,000195382483	-0,31770209923430502	0,011853892477447347	0,31770209923430502
1	0	0	1	0	0	1	674822,06	-0,100000001	1,95391977	-0,0002777125636583401	-0,099974645582537178	0,000195342436	-0,32381177709931072	0,012081852773139963	0,32381177709931072
1	0	0	1	0	0	1	675042,07	-0,100000001	1,95292795	-0,00027771278322239715	-0,099974724625277286	0,00019524344	-0,32992144611449197	0,012309812738633733	0,32992144611449197
1	0	0	1	0	0	1	675262,07	-0,100000001	1,95245111	-0,0002777127023484144	-0,099974695508862528	0,000195195709	-0,33603112375165504	0,012537773025825238	0,33603112375165504
1	0	0	1	0	0	1	675482,07	-0,100000001	1,95214593	-0,00027771237911242576	-0,099974579150747034	0,000195164961	-0,34214079308391642	0,012765733003149691	0,34214079308391642
1	0	0	1	0	0	1	675702,08	-0,100000001	1,95220315	-0,00027771239864412282	-0,099974586182025946	0,000195170709	-0,34825045915083565	0,012993692858639842	0,34825045915083565
1	0	0	1	0	0	1	675922,08	-0,100000001	1,95279443	-0,00027771223336416816	-0,099974526682359552	0,000195229703	-0,35436012748080006	0,01322165279856725	0,35436012748080006
1	0	0	1	0	0	1	676142,09	-0,100000001	1,95168817	-0,00027771169763927658	-0,099974333825020083	0,00019511873	-0,36046978752343008	0,013449612429283067	0,36046978752343008
1	0	0	1	0	0	1	676362,09	-0,100000001	1,95082986	-0,00027771174756478931	-0,099974351797867149	0,000195032946	-0,36657944726821958	0,013677572048886054	0,36657944726821958
1	0	0	1	0	0	1	676582,10	-0,100000001	1,95021951	-0,00027771173997430339	-0,099974349065343539	0,00019497193	-0,37268910261448454	0,013905531504374182	0,37268910261448454
1	0	0	1	0	0	1	676802,10	-0,100000001	1,94987619	-0,00027771176626574662	-0,099974358530085389	0,000194937616	-0,37879875588820045	0,014133490882532714	0,37879875588820045
1	0	0	1	0	0	1	677022,10	-0,100000001	1,95010507	-0,00027771108249036803	-0,099974112375571392	0,000194960026	-0,3849084093857104	0,014361450269041302	0,3849084093857104
1	0	0	1	0	0	1	677242,11	-0,100000001	1,9494375	-0,00027771163889682954	-0,099974312678136243	0,00019489367	-0,39101805922852461	0,014589409519188282	0,39101805922852461
1	0	0	1	0	0	1	677462,11	-0,100000001	1,94772089	-0,0002777122887319161	-0,099974546614374515	0,00019472251	-0,39712772618482688	0,014817369407862509	0,39712772618482688
1	0	0	1	0	0	1	677682,12	-0,100000001	1,94901788	-0,0002777118750069704	-0,099974397676190848	0,000194851891	-0,4032373923535705	0,015045329267151859	0,4032373923535705
1	0	0	1	0	0	1	677902,12	-0,100000001	1,94854105	-0,00027771187825418182	-0,09997439884050967	0,000194804219	-0,40934704027859507	0,015273288445743526	0,40934704027859507
1	0	0	1	0	0	1	678122,12	-0,100000001	1,94806421	-0,00027771194095619853	-0,099974421413975667	0,000194756591	-0,41545670159521133	0,015501248123993485	0,41545670159521133
1	0	0	1	0	0	1	678342,13	-0,100000001	1,94621408	-0,00027771232484446634	-0,099974559612320806	0,000194571898	-0,42156636095654022	0,01572920772928904	0,42156636095654022
1	0	0	1	0	0	1	678562,13	-0,100000001	1,94604242	-0,00027771127801885206	-0,09997418275984855	0,000194553999	-0,42767603141921222	0,01595716774879064	0,42767603141921222
1	0	0	1	0	0	1	678782,14	-0,100000001	1,94522226	-0,00027771083510874042	-0,099974023319857741	0,000194471693	-0,43378567641945152	0,016185126818254637	0,43378567641945152
1	0	0	1	0	0	1	679002,14	-0,100000001	1,94478357	-0,00027771091456255978	-0,09997405192269559	0,000194427892	-0,4398953239799607	0,016413085983245744	0,4398953239799607
1	0	0	1	0	0	1	679222,14	-0,100000001	1,94455469	-0,0002777109208682345	-0,099974054192695885	0,000194405016	-0,44600498092747757	0,01664104549847873	0,44600498092747757
1	0	0	1	0	0	1	679442,15	-0,100000001	1,94316232	-0,00027771060451120138	-0,099973940306302528	0,000194265594	-0,45211463535550675	0,016869004919706243	0,45211463535550675
1	0	0	1	0	0	1	679662,15	-0,100000001	1,94314325	-0,0002777120831468039	-0,099974472605123891	0,000194264721	-0,45822429919880461	0,017096964692230086	0,45822429919880461
1	0	0	1	0	0	1	679882,16	-0,100000001	1,9425329	-0,00027771173905125926	-0,099974348733053901	0,000194203458	-0,46433396193758406	0,017324924423542867	0,46433396193758406
1	0	0	1	0	0	1	680102,16	-0,100000001	1,94300973	-0,00027771177430989018	-0,099974361425922688	0,000194251159	-0,47044362114266483	0,017552884023008595	0,47044362114266483
1	0	0	1	0	0	1	680322,17	-0,100000001	1,94148386	-0,00027771183085234627	-0,09997438178082464	0,000194098655	-0,47655327908166592	0,017780843575235194	0,47655327908166592
1	0	0	1	0	0	1	680542,17	-0,100000001	1,94114053	-0,00027771221530437469	-0,099974520180955981	0,000194064589	-0,48266294560256493	0,018008803447663933	0,48266294560256493
1	0	0	1	0	0	1	680762,17	-0,100000001	1,94007242	-0,0002777114288893839	-0,099974237076875456	0,000193957254	-0,48877260861857331	0,018236763189320499	0,48877260861857331
1	0	0	1	0	0	1	680982,18	-0,100000001	1,94016778	-0,00027771146439305613	-0,09997424985795744	0,000193966815	-0,4948822625829408	0,018464722593248173	0,4948822625829408
1	0	0	1	0	0	1	681202,18	-0,100000001	1,94009149	-0,00027771223006480272	-0,099974525489954957	0,000193959728	-0,50099192831583194	0,018692682436275286	0,50099192831583194
1	0	0	1	0	0	1	681422,19	-0,100000001	1,93909967	-0,00027771204355027939	-0,099974458347151232	0,00019386044	-0,50710159334956365	0,018920642253215814	0,50710159334956365
1	0	0	1	0	0	1	681642,19	-0,100000001	1,93917596	-0,00027771250318114957	-0,099974623812321242	0,000193868385	-0,51321125215752685	0,019148601837864557	0,51321125215752685
1	0	0	1	0	0	1	681862,19	-0,100000001	1,93915689	-0,00027771129725956253	-0,099974189686374259	0,000193865635	-0,51932089975411923	0,019376561004201978	0,51932089975411923
1	0	0	1	0	0	1	682082,20	-0,100000001	1,93854654	-0,00027771210828878816	-0,099974481656068262	0,000193805186	-0,52543055604983136	0,019604520495115251	0,52543055604983136
1	0	0	1	0	0	1	682302,20	-0,100000001	1,93801248	-0,00027771168004017738	-0,099974327489463334	0,00019375149	-0,53154021295469587	0,019832480008756822	0,53154021295469587
1	0	0	1	0	0	1	682522,21	-0,100000001	1,93574274	-0,0002777114303443167	-0,099974237600641421	0,000193524407	-0,53764985430764813	0,020060438942135632	0,53764985430764813
1	0	0	1	0	0	1	682742,21	-0,100000001	1,93534219	-0,0002777109671971864	-0,099974070870805389	0,00019348404	-0,54375949990109619	0,020288398033733046	0,54375949990109619
1	0	0	1	0	0	1	682962,21	-0,100000001	1,93454111	-0,00027771146610213651	-0,099974250473214848	0,000193404296	-0,54986914873275072	0,020516357246152298	0,54986914873275072
1	0	0	1	0	0	1	683182,22	-0,100000001	1,9336828	-0,00027771136722341181	-0,099974214877542362	0,000193318425	-0,55597879930057293	0,020744316523350301	0,55597879930057293
1	0	0	1	0	0	1	683402,22	-0,100000001	1,93316793	-0,00027771146338267462	-0,099974249494226918	0,000193267013	-0,5620884467797801	0,02097227568530792	0,5620884467797801
1	0	0	1	0	0	1	683622,23	-0,100000001	1,9323287	-0,00027771183648374349	-0,099974383808089562	0,000193183369	-0,56819809922960749	0,021200235032726064	0,56819809922960749
1	0	0	1	0	0	1	683842,23	-0,100000001	1,93179464	-0,00027771195766371155	-0,099974427432058906	0,000193130065	-0,57430775882448557	0,021428194646735654	0,57430775882448557
1	0	0	1	0	0	1	684062,24	-0,100000001	1,93086004	-0,00027771172040162816	-0,099974342019312768	0,000193036467	-0,58041741157422541	0,021656154005343936	0,58041741157422541
1	0	0	1	0	0	1	684282,24	-0,100000001	1,92977285	-0,00027771175571944979	-0,099974354733489818	0,000192927793	-0,58652706402771456	0,021884113352898707	0,58652706402771456
1	0	0	1	0	0	1	684502,24	-0,100000001	1,9288764	-0,00027771204023435712	-0,099974457152277798	0,000192838372	-0,59263672060699302	0,022112072854392221	0,59263672060699302
1	0	0	1	0	0	1	684722,25	-0,100000001	1,92803717	-0,00027771085530602269	-0,099974030588415168	0,00019275365	-0,59874637154765325	0,022340032145501309	0,59874637154765325
1	0	0	1	0	0	1	684942,25	-0,100000001	1,92679739	-0,00027771082608525952	-0,099974020069137958	0,000192629683	-0,60485600828326784	0,022567990906601043	0,60485600828326784
1	0	0	1	0	0	1	685162,26	-0,100000001	1,92525244	-0,00027770993919711971	-0,099973700793075328	0,000192474618	-0,61096564439539098	0,022795949644437475	0,61096564439539098
1	0	0	1	0	0	1	685382,26	-0,100000001	1,9232688	-0,00027771027004594602	-0,099973819901071565	0,000192276522	-0,6170752720045577	0,023023908065017174	0,6170752720045577
1	0	0	1	0	0	1	685602,26	-0,100000001	1,92138052	-0,00027770988552437888	-0,099973681475906765	0,000192087478	-0,62318489311605722	0,02325186624316017	0,62318489311605722
1	0	0	1	0	0	1	685822,27	-0,100000001	1,92015982	-0,00027771143058770237	-0,099974237688258624	0,000191966508	-0,62929453543493158	0,023479825212578832	0,62929453543493158
1	0	0	1	0	0	1	686042,27	-0,100000001	1,91790915	-0,00027771157704873219	-0,099974290413239283	0,000191741608	-0,63540417965022272	0,02370778425275536	0,63540417965022272
1	0	0	1	0	0	1	686262,28	-0,100000001	1,91575384	-0,00027771080213909344	-0,099974011451007706	0,0001915256	-0,64151382608287104	0,023935743375664464	0,64151382608287104
1	0	0	1	0	0	1	686482,28	-0,100000001	1,91249239	-0,00027771060384561616	-0,099973940066696346	0,000191199404	-0,64762346816801856	0,024163702336362464	0,64762346816801856
1	0	0	1	0	0	1	686702,29	-0,100000001	1,90955508	-0,0002777113398156232	-0,09997420501092375	0,000190906256	-0,65373311736593075	0,024391661562447283	0,65373311736593075
1	0	0	1	0	0	1	686922,29	-0,100000001	1,90572131	-0,00027771118368125622	-0,099974148803607078	0,000190522871	-0,659842767233984	0,024619620813535958	0,659842767233984
1	0	0	1	0	0	1	687142,29	-0,100000001	1,90108645	-0,00027771173867748842	-0,099974348598498906	0,000190059873	-0,66595241512685594	0,024847579990927974	0,66595241512685594
1	0	0	1	0	0	1	687362,30	-0,100000001	1,89677584	-0,00027771175535395744	-0,099974354601915034	0,000189628947	-0,67206207298571354	0,025075539540164307	0,67206207298571354
1	0	0	1	0	0	1	687582,30	-0,100000001	1,89124465	-0,00027771231639799142	-0,099974556573974605	0,000189076352	-0,67817173771297101	0,025303499345669875	0,67817173771297101
1	0	0	1	0	0	1	687802,31	-0,100000001	1,88357711	-0,00027771169469381373	-0,099974332760018035	0,000188309365	-0,68428139454577818	0,025531458856622886	0,68428139454577818
1	0	0	1	0	0	1	688022,31	-0,100000001	1,87539458	-0,00027771219311489002	-0,09997451219056384	0,000187491663	-0,69039104981078528	0,025759418309079168	0,69039104981078528
1	0	0	1	0	0	1	688242,31	-0,100000001	1,86335933	-0,00027771143839922218	-0,099974240496861466	0,000186287929	-0,69650071402662182	0,025987378095502938	0,69650071402662182
1	0	0	1	0	0	1	688462,32	-0,100000001	1,8463459	-0,0002777118985441824	-0,099974406144772723	0,000184587334	-0,70261038046435418	0,026215337964828621	0,70261038046435418
1	0	0	1	0	0	1	688682,32	-0,100000001	1,82162678	-0,00027771241426592074	-0,099974591805767578	0,00018211639	-0,70872004712340902	0,026443297842412147	0,70872004712340902
1	0	0	1	0	0	1	688902,33	-0,100000001	1,77823484	-0,00027771240695565939	-0,099974589174122918	0,000177778304	-0,7148297100167319	0,026671257579491149	0,7148297100167319
1	0	0	1	0	0	1	689122,33	-0,100000001	1,72151065	-0,00027771135773882272	-0,099974211463154394	0,000172106666	-0,7209393820326441	0,026899217656946224	0,7209393820326441
1	0	0	1	0	0	1	689342,33	-0,100000001	1,66389	-0,00027771308771727818	-0,099974834243703744	0,000166347134	-0,72704904681452992	0,027127177464490045	0,72704904681452992
1	0	0	1	0	0	1	689562,34	-0,100000001	1,59762907	-0,00027771218361829722	-0,099974508774182298	0,000159722185	-0,73315872258728243	0,027355137682117888	0,73315872258728243
1	0	0	1	0	0	1	689782,34	-0,100000001	1,51830292	-0,0002777120587983065	-0,099974463839829414	0,000151791523	-0,73926838806771648	0,027583097515725485	0,73926838806771648
1	0	0	1	0	0	1	690002,35	-0,100000001	1,44597661	-0,00027771164845178525	-0,099974316117855706	0,00014456053	-0,7453780588903369	0,027811057548657242	0,7453780588903369
1	0	0	1	0	0	1	690222,35	-0,100000001	1,39506984	-0,00027771206583206854	-0,099974466371936205	0,000139471362	-0,75148772903597107	0,028039017556329728	0,75148772903597107
1	0	0	1	0	0	1	690442,36	-0,100000001	1,34753895	-0,00027771166243818074	-0,099974321152863526	0,000134719288	-0,75759739095414272	0,028266977257024525	0,75759739095414272
1	0	0	1	0	0	1	690662,36	-0,100000001	1,28484476	-0,00027771237897872925	-0,099974579102617203	0,000128451808	-0,76370704770033933	0,028494936764745984	0,76370704770033933
1	0	0	1	0	0	1	690882,36	-0,100000001	1,22216964	-0,00027771156108089619	-0,099974284664926259	0,000122185535	-0,7698167103728919	0,028722896493587747	0,7698167103728919
1	0	0	1	0	0	1	691102,37	-0,100000001	1,14833665	-0,00027771217571447293	-0,099974505924203648	0,000114804388	-0,77592637396089331	0,028950856256586138	0,77592637396089331
1	0	0	1	0	0	1	691322,37	-0,100000001	1,05653644	-0,00027771200340282589	-0,099974443895503194	0,000105626641	-0,78203603497464461	0,029178815923535795	0,78203603497464461
1	1	0	0	0	0	2	691531,75	0,100000001	2,35558605	0,00027781111052963469	0,10001012179002723	0,000235582454	-0,78285090846370074	0,029209219949021542	0,0025003091446608307
1	1	0	0	0	0	2	691751,76	0,100000001	2,4804976	0,00027781141803123885	0,10001023248736178	0,000248075143	-0,77673904615839834	0,028981178148924442	0,0086121714499634176
1	1	0	0	0	0	2	691971,76	0,100000001	2,48677254	0,00027781126788010205	0,10001017843862454	0,000248702563	-0,7706271911502185	0,028753136621092797	0,01472402645814336
1	1	0	0	0	0	2	692191,76	0,100000001	2,47588181	0,00027781237279127046	0,100010576199176	0,000247614371	-0,76451532660565018	0,028525094737445674	0,020835891002711744
1	1	0	0	0	0	2	692411,77	0,100000001	2,46508622	0,00027781196689274576	0,10001043007845098	0,000246534328	-0,75840345922932966	0,028297052748142077	0,026947758379032224
1	1	0	0	0	0	2	692631,77	0,100000001	2,45675111	0,0002778120655467113	0,10001046559321165	0,000245700823	-0,75229159550780672	0,028069010895203885	0,033059622100555251
1	1	0	0	0	0	2	692851,78	0,100000001	2,44978929	0,00027781117823719978	0,10001014616778573	0,000245003786	-0,74617973402445965	0,02784096912577504	0,039171483583902746
1	1	0	0	0	0	2	693071,78	0,100000001	2,44601274	0,0002778125711509751	0,10001064760732877	0,000244627328	-0,74006786752335334	0,027612927169126854	0,045283350085008915
1	1	0	0	0	0	2	693291,78	0,100000001	2,44191217	0,00027781242981511683	0,1000105967273752	0,000244217081	-0,73395599427708339	0,027384884960807546	0,051395223331278829
1	1	0	0	0	0	2	693511,79	0,100000001	2,43847895	0,00027781233344020112	0,10001056203305706	0,000243873656	-0,72784411757831437	0,027156842623670854	0,057507100030048026
1	1	0	0	0	0	2	693731,79	0,100000001	2,43495035	0,00027781204330755606	0,10001045758726613	0,000243520495	-0,72173224156531776	0,026928800312121258	0,063618976043044288
1	1	0	0	0	0	2	693951,80	0,100000001	2,43372965	0,00027781306748133565	0,10001082628290339	0,000243399307	-0,715620365579056	0,026700758001569174	0,069730852029306189
1	1	0	0	0	0	2	694171,80	0,100000001	2,43266153	0,0002778125775758591	0,10001064992024358	0,000243292059	-0,70950847976515341	0,026472715324334592	0,075842737843208845
1	1	0	0	0	0	2	694391,80	0,100000001	2,43435907	0,00027781237785187034	0,10001057801630072	0,000243461662	-0,70339660292105344	0,026244672981775408	0,081954614687309094
1	1	0	0	0	0	2	694611,81	0,100000001	2,43495035	0,00027781224859298934	0,10001053148397736	0,000243520684	-0,69728473618287629	0,026016631016281789	0,088066481425486054
1	1	0	0	0	0	2	694831,81	0,100000001	2,43390131	0,00027781244196080499	0,10001060109741232	0,00024341594	-0,69117286219993178	0,025788588780476163	0,094178355408430848
1	1	0	0	0	0	2	695051,82	0,100000001	2,4337678	0,00027781339864970909	0,10001094549662208	0,000243403425	-0,68506098123936602	0,025560546284326106	0,1002902363689967
1	1	0	0	0	0	2	695271,82	0,100000001	2,43298578	0,00027781276900486813	0,10001071883339277	0,000243324655	-0,67894909682578496	0,025332503659339405	0,10640212078257763
1	1	0	0	0	0	2	695491,83	0,100000001	2,43348169	0,0002778120873827073	0,10001047345402262	0,000243373652	-0,67283722535374298	0,025104461517218928	0,1125139922546197
1	1	0	0	0	0	2	695711,83	0,100000001	2,43418741	0,00027781216646110022	0,1000105019217095	0,000243444301	-0,66672534967925581	0,024876419218299571	0,11862586792910707
1	1	0	0	0	0	2	695931,83	0,100000001	2,43447351	0,00027781169806876115	0,10001033330363376	0,000243472503	-0,66061348515764288	0,024648377335508944	0,12473773245072018
1	1	0	0	0	0	2	696151,84	0,100000001	2,43599939	0,00027781212925000323	0,10001048852596613	0,000243625487	-0,65450161704906381	0,024420335318883792	0,1308496005592995
1	1	0	0	0	0	2	696371,84	0,100000001	2,43744898	0,00027781233109657968	0,10001056118936917	0,000243770643	-0,64838974120829427	0,024192293013760214	0,13696147640006894
1	1	0	0	0	0	2	696591,85	0,100000001	2,43840265	0,00027781188008685907	0,10001039882891856	0,000243865623	-0,64227786560562675	0,023964250717520544	0,1430733520027365
1	1	0	0	0	0	2	696811,85	0,100000001	2,43956614	0,00027781316879350278	0,10001086275459869	0,000243983115	-0,6361659877070423	0,02373620833561713	0,14918522990132077
1	1	0	0	0	0	2	697031,85	0,100000001	2,44126368	0,00027781258389105398	0,10001065219367106	0,000244152383	-0,63005410381454643	0,023508165730072813	0,15529711379381683
1	1	0	0	0	0	2	697251,86	0,100000001	2,44240808	0,00027781197862327094	0,10001043430136075	0,000244266295	-0,62394222865398963	0,02328012345032889	0,1614089889543735
1	1	0	0	0	0	2	697471,86	0,100000001	2,44133997	0,00027781261703827312	0,10001066412644586	0,000244160037	-0,61783035822235866	0,023052081347027546	0,16752085938600451
1	1	0	0	0	0	2	697691,87	0,100000001	2,44360971	0,00027781166405851645	0,10001032106017555	0,000244386203	-0,6117184922559552	0,022824039410329843	0,17363272535240774
1	1	0	0	0	0	2	697911,87	0,100000001	2,4415307	0,0002778124009540511	0,10001058633292963	0,000244178926	-0,60560662242923136	0,022595997329598397	0,17974459517913142
1	1	0	0	0	0	2	698131,88	0,100000001	2,44353342	0,00027781261628493667	0,10001066384942854	0,000244379393	-0,59949475044519258	0,022367955168374627	0,1858564671631704
1	1	0	0	0	0	2	698351,88	0,100000001	2,44395304	0,00027781284767720435	0,10001074715024496	0,000244421564	-0,59338288019022515	0,022139913071664842	0,19196833741813779
1	1	0	0	0	0	2	698571,88	0,100000001	2,44578385	0,00027781196194556019	0,10001042829749763	0,0002446039	-0,58727101385709734	0,02191187112128416	0,19808020375126566
1	1	0	0	0	0	2	698791,89	0,100000001	2,44490671	0,00027781164437449642	0,10001031397406141	0,00024451589	-0,58115915625275981	0,021683829496586381	0,20419206135560336
1	1	0	0	0	0	2	699011,89	0,100000001	2,43857431	0,00027781173028589949	0,10001034490158578	0,000243882663	-0,57504728938273888	0,021455787526173494	0,21030392822562413
1	1	0	0	0	0	2	699231,90	0,100000001	2,43922281	0,00027781165661414461	0,10001031838025206	0,000243947448	-0,56893542759526784	0,021227745745397382	0,21641579001309523
1	1	0	0	0	0	2	699451,90	0,100000001	2,43836451	0,00027781192716666397	0,10001041577733008	0,000243861854	-0,56282356604747821	0,020999703973564102	0,22252765156088486
1	1	0	0	0	0	2	699671,90	0,100000001	2,42981958	0,00027781187223643062	0,10001039600281741	0,00024300722	-0,55671170034731245	0,020771662046800086	0,22863951726105069
1	1	0	0	0	0	2	699891,91	0,100000001	2,43277597	0,00027781200350489885	0,10001044325857859	0,000243303002	-0,55059984147929043	0,020543620374952541	0,23475137612907264
1	1	0	0	0	0	2	700111,91	0,100000001	2,42941904	0,00027781153985154301	0,10001027634650478	0,000242966868	-0,54448798389837696	0,020315578751128742	0,24086323370998598
1	1	0	0	0	0	2	700331,92	0,100000001	2,42844629	0,00027781291613810592	0,10001077180036376	0,000242870781	-0,53837611579514355	0,020087536734703043	0,24697510181321949
1	1	0	0	0	0	2	700551,92	0,100000001	2,42869425	0,00027781247639159366	0,10001061349459202	0,000242895199	-0,53226424864139296	0,019859494753703824	0,25308696896697008
1	1	0	0	0	0	2	700771,92	0,100000001	2,42880869	0,00027781225852958029	0,10001053506573994	0,000242906463	-0,52615238789392435	0,0196314530117316	0,25919882971443859
1	1	0	0	0	0	2	700991,93	0,100000001	2,43012476	0,00027781248458557658	0,10001061644437048	0,000243038274	-0,52004051599328627	0,019403410853619622	0,26531070161507696
1	1	0	0	0	0	2	701211,93	0,100000001	2,43029642	0,00027781227675618394	0,10001054162253706	0,000243055256	-0,51392864113196237	0,01917536858504048	0,27142257647640106
1	1	0	0	0	0	2	701431,94	0,100000001	2,43039179	0,00027781240625845066	0,10001058824364187	0,000243064918	-0,5078167692657216	0,018947326428211917	0,27753444834264173
1	1	0	0	0	0	2	701651,94	0,100000001	2,43262339	0,00027781221725833085	0,10001052020371213	0,000243287926	-0,50170489864078579	0,018719284317698109	0,28364631896757747
1	1	0	0	0	0	2	701871,95	0,100000001	2,43233728	0,00027781249725818634	0,10001062100176733	0,000243259565	-0,49559302735771827	0,018491242182628522	0,28975819025064506
1	1	0	0	0	0	2	702091,95	0,100000001	2,43332911	0,00027781322192814611	0,10001088188271109	0,000243359391	-0,48948114231841901	0,018263199534295434	0,29587007528994438
1	1	0	0	0	0	2	702311,95	0,100000001	2,43401575	0,00027781404835979142	0,10001117939251674	0,000243428789	-0,48336925252162502	0,018035156708453824	0,3019819650867383
1	1	0	0	0	0	2	702531,96	0,100000001	2,43279505	0,00027781260383087728	0,10001065937187262	0,000243305432	-0,47725736974939034	0,017807114144707958	0,30809384785897306
1	1	0	0	0	0	2	702751,96	0,100000001	2,43407297	0,00027781263894753322	0,10001067201363139	0,000243433271	-0,47114548226997235	0,017579071405330762	0,31420573533839104
1	1	0	0	0	0	2	702971,97	0,100000001	2,43426371	0,00027781327751320269	0,10001090189295571	0,000243452901	-0,46503359855092218	0,017351028806257942	0,32031761905744115
1	1	0	0	0	0	2	703191,97	0,100000001	2,43741083	0,00027781307689431645	0,10001082967151283	0,000243767485	-0,45892171294479232	0,017122986136775642	0,32642950466357101
1	1	0	0	0	0	2	703411,97	0,100000001	2,44204569	0,000277812771493776	0,10001071972938275	0,00024423076	-0,45280982345222637	0,016894943322285187	0,33254139415613696
1	1	0	0	0	0	2	703631,98	0,100000001	2,44174051	0,00027781263332193091	0,10001066998845259	0,000244200113	-0,44669793420693146	0,016666900517020746	0,33865328340143194
1	1	0	0	0	0	2	703851,98	0,100000001	2,44326639	0,00027781326469820406	0,10001089727964283	0,000244353258	-0,44058603944363392	0,016438857505872211	0,34476517816472941
1	1	0	0	0	0	2	704071,99	0,100000001	2,44227457	0,00027781382733749021	0,10001109982598242	0,000244254566	-0,43447414521102758	0,016210814514524474	0,35087707239733581
1	1	0	0	0	0	2	704291,99	0,100000001	2,44393396	0,00027781316035530637	0,10001085971690499	0,000244419934	-0,42836224396442157	0,015982771261474976	0,35698897364394176
1	1	0	0	0	0	2	704511,99	0,100000001	2,44622254	0,00027781289960733718	0,10001076584474173	0,000244648603	-0,4222503559868151	0,015754728503509699	0,36310086162154822
1	1	0	0	0	0	2	704732,00	0,100000001	2,44938874	0,00027781180446222426	0,10001037160106851	0,000244964293	-0,41613848224988109	0,015526686276883053	0,36921273535848224
1	1	0	0	0	0	2	704952,00	0,100000001	2,44788194	0,00027781308304311498	0,10001083188038173	0,000244814699	-0,41002660439767507	0,015298643896710077	0,37532461321068826
1	1	0	0	0	0	2	705172,01	0,100000001	2,44952226	0,00027781345681515008	0,10001096643578765	0,000244979077	-0,40391473030062912	0,015070601656647174	0,38143648730773421
1	1	0	0	0	0	2	705392,01	0,100000001	2,44858766	0,00027781287841043536	0,10001075821865741	0,000244885101	-0,39780284821180768	0,014842559118400378	0,38754836939655571
1	1	0	0	0	0	2	705612,02	0,100000001	2,45062852	0,00027781216345851619	0,10001050084079955	0,000245088595	-0,39169095924318893	0,014614516323459098	0,3936602583651744
1	1	0	0	0	0	2	705832,02	0,100000001	2,45167756	0,00027781334058692061	0,10001092459906779	0,000245194533	-0,38557907461948051	0,014386473690632261	0,39977214298888288
1	1	0	0	0	0	2	706052,02	0,100000001	2,45230699	0,00027781298906107741	0,10001079805214054	0,000245257164	-0,37946717704238099	0,014158430574496989	0,4058840405659824
1	1	0	0	0	0	2	706272,03	0,100000001	2,45377564	0,00027781266707761418	0,10001068214027038	0,000245403789	-0,37335529663983251	0,013930388099167306	0,41199592096853082
1	1	0	0	0	0	2	706492,03	0,100000001	2,45516801	0,00027781325731219517	0,10001089462072955	0,000245543546	-0,36724340734023744	0,013702345291876856	0,41810781026812589
1	1	0	0	0	0	2	706712,04	0,100000001	2,45434785	0,00027781268479633661	0,10001068851889066	0,000245461008	-0,36113152672945984	0,013474302808777864	0,42421969087890349
1	1	0	0	0	0	2	706932,04	0,100000001	2,45583558	0,00027781262300618819	0,10001066627485493	0,000245609757	-0,35501964175444781	0,013246260162843418	0,43033157585391552
1	1	0	0	0	0	2	707152,04	0,100000001	2,45635056	0,00027781295944708915	0,10001078739130496	0,000245661562	-0,34890775178281382	0,01301821733047829	0,43644346582554957
1	1	0	0	0	0	2	707372,05	0,100000001	2,45593095	0,00027781221567797994	0,10001051963945349	0,000245618925	-0,34279586926626624	0,012790174776272458	0,44255534834209709
1	1	0	0	0	0	2	707592,05	0,100000001	2,45684648	0,00027781285539228051	0,10001074993227725	0,000245711068	-0,33668398542648768	0,012562132172695101	0,44866723218187565
1	1	0	0	0	0	2	707812,06	0,100000001	2,45509171	0,0002778122425323559	0,1000105293021903	0,000245535019	-0,33057210411657037	0,012334089663510264	0,45477911349179302
1	1	0	0	0	0	2	708032,06	0,100000001	2,45638871	0,00027781230680478941	0,10001055243866762	0,000245664793	-0,32446022875789274	0,012106047376374187	0,46089098885047066
1	1	0	0	0	0	2	708252,07	0,100000001	2,45955491	0,00027781318803918032	0,10001086968058397	0,000245982228	-0,31834834938746547	0,011878004939554338	0,46700286822089786
1	1	0	0	0	0	2	708472,07	0,100000001	2,46260667	0,00027781252568173741	0,10001063123405354	0,000246286858	-0,31223646885738957	0,011649962459466432	0,47311474875097382
1	1	0	0	0	0	2	708692,07	0,100000001	2,46331239	0,00027781303605023357	0,1000108149679191	0,000246357871	-0,30612458921773747	0,011421920012601442	0,47922662839062586
1	1	0	0	0	0	2	708912,08	0,100000001	2,46367478	0,00027781190976086592	0,10001040951136045	0,000246393116	-0,30001271100900992	0,011193877619126168	0,48533850659935341
1	1	0	0	0	0	2	709132,08	0,100000001	2,46439958	0,00027781260700316893	0,10001066051387618	0,000246466225	-0,29390083362001062	0,010965835256236056	0,4914503839883527
1	1	0	0	0	0	2	709352,09	0,100000001	2,46565843	0,00027781362365186214	0,10001102650053323	0,00024659303	-0,28778894716331254	0,010737792555017914	0,49756227044505082
1	1	0	0	0	0	2	709572,09	0,100000001	2,46674562	0,00027781300201060042	0,10001080271388128	0,000246701209	-0,28167705463626387	0,010509749627306826	0,50367416297209978
1	1	0	0	0	0	2	709792,09	0,100000001	2,46838593	0,00027781303888683517	0,10001081598907651	0,000246865297	-0,27556516850215933	0,010281706938125083	0,50978604910620448
1	1	0	0	0	0	2	710012,10	0,100000001	2,46964478	0,00027781170853268768	0,10001033707057658	0,000246990006	-0,26945330277255875	0,010053665010262813	0,51589791483580493
1	1	0	0	0	0	2	710232,10	0,100000001	2,47159028	0,00027781153788169226	0,10001027563737181	0,00024718442	-0,2633414374003985	0,0098256230957371251	0,52200978020796506
1	1	0	0	0	0	2	710452,11	0,100000001	2,47050309	0,00027781209376371565	0,1000104757511425	0,000247076183	-0,25722956869684045	0,009597581056912503	0,52812164891152358
1	1	0	0	0	0	2	710672,11	0,100000001	2,47124696	0,00027781149703802336	0,10001026093392712	0,000247150048	-0,25111769350807578	0,009369538776116105	0,53423352410028813
1	1	0	0	0	0	2	710892,11	0,100000001	2,47191453	0,00027781212982411181	0,10001048873264134	0,000247217395	-0,24500582512596707	0,0091414967492851942	0,54034539248239699
1	1	0	0	0	0	2	711112,12	0,100000001	2,47447038	0,00027781177480684384	0,10001036092416778	0,000247472664	-0,23889395578732022	0,0089134546867645555	0,54645726182104384
1	1	0	0	0	0	2	711332,12	0,100000001	2,47418427	0,00027781265948298899	0,10001067940392814	0,000247444841	-0,23278208275855011	0,0086854124865604582	0,55256913484981376
1	1	0	0	0	0	2	711552,13	0,100000001	2,47597718	0,00027781352783118688	0,10001099199991658	0,000247624936	-0,22667019313509814	0,0084573696671864704	0,55868102447326554
1	1	0	0	0	0	2	711772,13	0,100000001	2,47485185	0,00027781402891543178	0,10001117238802166	0,000247512828	-0,22055830317902122	0,0082293268354017971	0,5647929144293424
1	1	0	0	0	0	2	711992,14	0,100000001	2,47361207	0,0002778133123860591	0,10001091444694826	0,000247388205	-0,21444641165535331	0,0080012839451281958	0,5709048059530105
1	1	0	0	0	0	2	712212,14	0,100000001	2,46998811	0,00027781232584392032	0,10001055929844731	0,000247024902	-0,20833453434620109	0,0077732415852172877	0,57701668326216282
1	1	0	0	0	0	2	712432,14	0,100000001	2,47893357	0,00027781193225209914	0,10001041760805237	0,000247919175	-0,2022226583730112	0,0075451992751529293	0,58312855923535258
1	1	0	0	0	0	2	712652,15	0,100000001	2,47777009	0,00027781259323118461	0,10001065555605493	0,0002478034	-0,19611077531022675	0,0073171567005662656	0,58924044229813696
1	1	0	0	0	0	2	712872,15	0,100000001	2,47138047	0,00027781312009319664	0,10001084522281768	0,000247164862	-0,18999888990837267	0,0070891140387057702	0,5953523276999913
1	1	0	0	0	0	2	713092,16	0,100000001	2,47332597	0,00027781219481883776	0,10001051213030333	0,000247358606	-0,18388700053204483	0,0068610712285523136	0,60146421707631898
1	1	0	0	0	0	2	713312,16	0,100000001	2,46953034	0,00027781305121257901	0,10001082042626096	0,000246979762	-0,17777512346326986	0,0066330288776102029	0,60757609414509389
1	1	0	0	0	0	2	713532,16	0,100000001	2,47262025	0,00027781432414675754	0,10001127867396022	0,000247289921	-0,17166323260627363	0,0064049860122110208	0,61368798500208986
1	1	0	0	0	0	2	713752,17	0,100000001	2,47069383	0,00027781358526936835	0,10001101268309493	0,000247096585	-0,16555133336362707	0,0061769428339319475	0,61979988424473664
1	1	0	0	0	0	2	713972,17	0,100000001	2,47160935	0,00027781296939816742	0,10001079097362587	0,000247187592	-0,15943944374376218	0,0059489000146917978	0,62591177386460186
1	1	0	0	0	0	2	714192,18	0,100000001	2,47117066	0,00027781459566247133	0,10001137641778174	0,000247145188	-0,15332754661673856	0,0057208569153494611	0,63202367099162522
1	1	0	0	0	0	2	714412,18	0,100000001	2,47473741	0,00027781274478468634	0,10001071010963402	0,000247500255	-0,14721565768127408	0,0054928141216452096	0,63813555992708966
1	1	0	0	0	0	2	714632,18	0,100000001	2,47523332	0,0002778123091682792	0,10001055329300072	0,00024754944	-0,1411037829131651	0,0052647718565440422	0,64424743469519859
1	1	0	0	0	0	2	714852,19	0,100000001	2,47334504	0,0002778124656329552	0,10001060961806214	0,000247360731	-0,13499190466024955	0,0050367294614200531	0,65035931294811405
1	1	0	0	0	0	2	715072,19	0,100000001	2,47174287	0,00027781152708000608	0,10001027174418082	0,00024719967	-0,12888001957064971	0,0048086868112101837	0,65647119803771354
1	1	0	0	0	0	2	715292,20	0,100000001	2,47504258	0,00027781277052520051	0,10001071938070214	0,000247530785	-0,12276814058332578	0,0045806443886844307	0,66258307702503744
1	1	0	0	0	0	2	715512,20	0,100000001	2,47025514	0,00027781273022997709	0,10001070487469411	0,000247051968	-0,11665626146039382	0,0043526019610989626	0,66869495614796928
1	1	0	0	0	0	2	715732,21	0,100000001	2,47061753	0,00027781274950462909	0,10001071181343854	0,000247088232	-0,11054437398693146	0,0041245592219439763	0,67480684362143155
1	1	0	0	0	0	2	715952,21	0,100000001	2,47366929	0,00027781306597217917	0,10001082573961725	0,000247393706	-0,10443248362960019	0,0038965163751879642	0,68091873397876262
1	1	0	0	0	0	2	716172,21	0,100000001	2,47315431	0,00027781295219932992	0,10001078478216062	0,000247342105	-0,098320596262914598	0,0036684736400169626	0,68703062134544819
1	1	0	0	0	0	2	716392,22	0,100000001	2,47506166	0,00027781196098857456	0,10001042795298926	0,000247531978	-0,09220871324138775	0,0034404310669696755	0,69314250436697498
1	1	0	0	0	0	2	716612,22	0,100000001	2,47519517	0,00027781245992456877	0,10001060756657437	0,000247545773	-0,08609684329755991	0,0032123889818689229	0,69925437431080269
1	1	0	0	0	0	2	716832,23	0,100000001	2,47515702	0,000277811874497268	0,10001039681670357	0,000247541437	-0,0799849757868016	0,002984346987549264	0,70536624182156122
1	1	0	0	0	0	2	717052,23	0,100000001	2,47597718	0,00027781266126698918	0,10001068004848464	0,00024762415	-0,073873106026295757	0,0027563049092885011	0,71147811158206707
1	1	0	0	0	0	2	717272,23	0,100000001	2,47811341	0,00027781169339186614	0,10001033161998318	0,000247836957	-0,067761225909819392	0,0025282624446325542	0,71758999169854349
1	1	0	0	0	0	2	717492,24	0,100000001	2,47822785	0,00027781385951530602	0,10001111140977858	0,000247850316	-0,061649347913438886	0,0023002200590802336	0,72370186969492403
1	1	0	0	0	0	2	717712,24	0,100000001	2,48091722	0,00027781304958504112	0,10001081983570128	0,000248118566	-0,055537449656959418	0,0020721769175963818	0,72981376795140365
1	1	0	0	0	0	2	717932,25	0,100000001	2,48335862	0,00027781400638404822	0,10001116427687589	0,000248363591	-0,049425556810851942	0,0018441339779807827	0,73592566079751117
1	1	0	0	0	0	2	718152,25	0,100000001	2,48560929	0,00027781306566049658	0,1000108256250851	0,000248587836	-0,043313666162526637	0,0016160911203673917	0,74203755144583642
1	1	0	0	0	0	2	718372,26	0,100000001	2,48772621	0,00027781352817970842	0,10001099212654624	0,000248799974	-0,037201770572085952	0,0013880480783570304	0,74814944703627725
1	1	0	0	0	0	2	718592,26	0,100000001	2,48719215	0,00027781342005895248	0,10001095320846202	0,000248746452	-0,031089877625201914	0,0011600051349813227	0,75426133998316109
1	1	0	0	0	0	2	718812,26	0,100000001	2,48850822	0,00027781413404312403	0,10001121023793725	0,000248878729	-0,024977978662145827	0,00093196196713414656	0,76037323894621722
1	1	0	0	0	0	2	719032,27	0,100000001	2,49238014	0,00027781376541985408	0,10001107753605195	0,000249265635	-0,018866091321619219	0,0007039192329391721	0,76648512628674381
1	1	0	0	0	0	2	719252,27	0,100000001	2,49512672	0,00027781393332944973	0,10001113798237134	0,000249540462	-0,012754188212383736	0,00047587591039246829	0,77259702939597952
1	1	0	0	0	0	2	719472,28	0,100000001	2,49993324	0,00027781397732802566	0,10001115382156123	0,000250021199	-0,0066422784115458867	0,00024783233817308314	0,77870893919681754
1	1	0	0	0	0	2	719692,28	0,100000001	2,5011158	0,00027781366356213891	0,10001104086796306	0,000250139186	-0,00053037137697615558	1,9788869166880797E-005	0,78482084623138752
1	1	0	0	0	0	2	719912,28	0,100000001	2,49793053	0,00027781436248868701	0,10001129247679566	0,000249821256	0,0055815378406455622	-0,0002082546812919263	0,79093275544900902
1	1	0	0	0	0	2	720132,29	0,100000001	2,50164986	0,00027781467624753718	0,1000114054278607	0,000250193523	0,011693453099366494	-0,00043629845715226746	0,79704467070772979
1	1	0	0	0	0	2	720352,29	0,100000001	2,5057888	0,00027781424790579408	0,10001125122772878	0,00025060706	0,017805366137814822	-0,00066434215017125261	0,80315658374617779
1	1	0	0	0	0	2	720572,30	0,100000001	2,50681877	0,00027781381808386906	0,10001109649474134	0,00025070968	0,023917276830160582	-0,00089238575565399654	0,80926849443852352
1	1	0	0	0	0	2	720792,30	0,100000001	2,50540733	0,0002778137102143632	0,10001105766244845	0,000250568439	0,03002917816997879	-0,0011204290121813627	0,81538039577834163
1	1	0	0	0	0	2	721012,30	0,100000001	2,50819206	0,00027781405294107066	0,10001118103708925	0,000250847253	0,036141080507781984	-0,0013484723059448906	0,82149229811614477
1	1	0	0	0	0	2	721232,31	0,100000001	2,50954628	0,00027781397125663027	0,10001115163357142	0,000250982615	0,04225297705794023	-0,0015765153837636042	0,82760419466630285
1	1	0	0	0	0	2	721452,31	0,100000001	2,51496315	0,0002778136723103623	0,1000110440126073	0,000251524092	0,048364878490319078	-0,0018045586437445325	0,83371609609868186
1	1	0	0	0	0	2	721672,32	0,100000001	2,51709938	0,00027781413828416003	0,1000112117600245	0,000251738151	0,054476784086745856	-0,0020326020590916874	0,83982800169510835
1	1	0	0	0	0	2	721892,32	0,100000001	2,52234459	0,00027781308307208947	0,10001083189546938	0,000252261787	0,060588686865642867	-0,0022606453693130189	0,8459399044740055
1	1	0	0	0	0	2	722112,33	0,100000001	2,52093315	0,00027781353320595293	0,10001099394061731	0,000252121041	0,066700581365366963	-0,0024886883706272774	0,85205179897372954
1	1	0	0	0	0	2	722332,33	0,100000001	2,52440453	0,00027781297665461894	0,10001079358589936	0,000252467697	0,072812470067707379	-0,0027167311556333562	0,85816368767606963
1	1	0	0	0	0	2	722552,33	0,100000001	2,5292871	0,00027781223771224419	0,10001052757163968	0,000252955331	0,078924350342371174	-0,0029447736261914886	0,86427556795073344
1	1	0	0	0	0	2	722772,34	0,100000001	2,53535247	0,00027781226457324294	0,10001053724141765	0,000253561971	0,08503621963310135	-0,0031728156869242899	0,87038743724146394
1	1	0	0	0	0	2	722992,34	0,100000001	2,53708816	0,00027781328240947587	0,10001090365558096	0,000253736478	0,091148102719649843	-0,0034008582623976218	0,87649932032801216
1	1	0	0	0	0	2	723212,35	0,100000001	2,54260039	0,00027781306294269037	0,10001082464902174	0,000254287559	0,097259986651074342	-0,0036289008693944128	0,88261120425943667
1	1	0	0	0	0	2	723432,35	0,100000001	2,54944777	0,00027781382352941568	0,10001109845510133	0,000254973071	0,10337187354850374	-0,0038569435870568346	0,8887230911568663
1	1	0	0	0	0	2	723652,35	0,100000001	2,55557036	0,00027781256162457997	0,10001064417789091	0,000255584251	0,10948375653112245	-0,0040849861586524058	0,89483497413948518
1	1	0	0	0	0	2	723872,36	0,100000001	2,56279922	0,00027781257125073011	0,1000106476432399	0,000256307219	0,11559563418910298	-0,0043130285315785683	0,9009468517974656
1	1	0	0	0	0	2	724092,36	0,100000001	2,57147741	0,00027781288315397168	0,1000107599262984	0,000257175416	0,1217075187292875	-0,0045410711612890144	0,90705873633765005
1	1	0	0	0	0	2	724312,37	0,100000001	2,58412313	0,00027781376256752346	0,10001107650923222	0,000258440938	0,12781940037644216	-0,0047691136830566259	0,91317061798480461
1	1	0	0	0	0	2	724532,37	0,100000001	2,60230017	0,00027781269925832746	0,10001069372045259	0,000260257832	0,13393127961851429	-0,0049971561150873754	0,91928249722687654
1	1	0	0	0	0	2	724752,37	0,100000001	2,64201093	0,00027781191535376842	0,10001041152127478	0,000264228613	0,14004314236914259	-0,005225197931800183	0,9253943599775049
1	1	0	0	0	0	2	724972,38	0,100000001	2,69608378	0,00027781157276862195	0,10001028819177366	0,000269636104	0,14615499943006675	-0,0054532395362224781	0,93150621703842918
1	1	0	0	0	0	2	725192,38	0,100000001	2,74138308	0,00027781184005281994	0,1000103844169351	0,000274166785	0,15226684656987434	-0,005681280770474576	0,9376180641782368
1	1	0	0	0	0	2	725412,39	0,100000001	2,7743609	0,00027781283878783389	0,1000107439547887	0,000277465908	0,15837871989951462	-0,005909322981904544	0,94372993750787699
1	1	0	0	0	0	2	725632,39	0,100000001	2,80623269	0,00027781276723535523	0,1000107181963801	0,000280653359	0,1644906046495799	-0,0061373656194459238	0,94984182225794227
1	1	0	0	0	0	2	725852,40	0,100000001	2,83715057	0,00027781335028136768	0,10001092808900318	0,000283746049	0,17060249308128045	-0,0063654083943540659	0,9559537106896425
1	1	0	0	0	0	2	726072,40	0,100000001	2,86864066	0,00027781283182526627	0,10001074144831142	0,00028689488	0,17671437660856883	-0,0065934509862719949	0,96206559421693082
1	1	0	0	0	0	2	726292,40	0,100000001	2,90213346	0,00027781263145183526	0,1000106693152308	0,000290244323	0,18282625395730845	-0,0068214933476599616	0,96817747156567053
1	1	0	0	0	0	2	726512,41	0,100000001	2,93396711	0,00027781237526569098	0,10001057708995066	0,000293427758	0,18893813229077107	-0,0070495357457892698	0,97428934989913344
1	1	0	0	0	0	2	726732,41	0,100000001	2,96978688	0,0002778125593604313	0,1000106433628127	0,000297010294	0,19505001496822771	-0,0072775783059988339	0,98040123257659008
1	1	0	0	0	0	2	726952,42	0,100000001	2,99917889	0,00027781314320241408	0,10001085354197974	0,00029995045	0,20116189669823699	-0,0075056208308578637	0,98651311430659942
1	1	0	0	0	0	2	727172,42	0,100000001	3,02725482	0,00027781249025339882	0,10001061848474818	0,000302757631	0,20727378245625738	-0,0077336635060074035	0,9926250000646199
1	1	0	0	0	0	2	727392,42	0,100000001	3,05170703	0,00027781243788989053	0,10001059963423915	0,000305203052	0,21338566105456784	-0,0079617059140185395	0,99873687866293043
1	1	0	0	0	0	2	727441,71	0,100000001	3,05622745	0,00025781087945029142	0,10001080780009622	0,000305655762	0,21475472162677981	-0,0080127874046892838	1,0001059392351424