File: Experimentelles/Rohdaten/Batteriemessungen/AlteZelle/Studenten_Batterietests/Sonstige/ECLab-Export/S vs Li_05_GCPL_C02_loop6.mpt
EC-Lab ASCII FILE
Nb header lines : 3
mode	ox/red	error	control changes	Ns changes	counter inc.	Ns	time/s	control/V/mA	Ewe/V	dq/mA.h	<I>/mA	P/W	(Q-Qo)/mA.h	x	Capacity/mA.h
1	0	0	1	1	0	1	404756,21	-0,100000001	2,48772621	0	0	0	0	0	0
1	0	0	1	0	0	1	404976,22	-0,100000001	2,19910812	-0,0002777098381366167	-0,099973616744064922	0,000219852795	-0,0061082519525212416	0,00022790709298066314	0,0061082519525212416
1	0	0	1	0	0	1	405196,22	-0,100000001	2,18890381	-0,0002777091120837463	-0,099973355368900506	0,000218832065	-0,012217872357736598	0,00045586524477124787	0,012217872357736598
1	0	0	1	0	0	1	405416,22	-0,100000001	2,18148422	-0,00027771028240811494	-0,099973776676397107	0,000218091212	-0,01832749686574496	0,0006838235496425559	0,01832749686574496
1	0	0	1	0	0	1	405636,23	-0,100000001	2,17316818	-0,00027770966878740323	-0,099973555781849587	0,000217259352	-0,024437124980478387	0,00091178198908562547	0,024437124980478387
1	0	0	1	0	0	1	405856,23	-0,100000001	2,1653862	-0,00027771055573804512	-0,099973875077932646	0,000216482047	-0,030546754623166131	0,0011397404855387248	0,030546754623166131
1	0	0	1	0	0	1	406076,24	-0,100000001	2,16084671	-0,00027771039795958333	-0,09997381827878007	0,0002160281	-0,036656377720303168	0,0013676987377685269	0,036656377720303168
1	0	0	1	0	0	1	406296,24	-0,100000001	2,15710855	-0,00027771040728771024	-0,099973821636841101	0,000215654378	-0,042766010352360877	0,001595657345759039	0,042766010352360877
1	0	0	1	0	0	1	406516,25	-0,100000001	2,15436196	-0,00027771065653570826	-0,099973911359737382	0,000215379987	-0,048875639434319149	0,001823615821290568	0,048875639434319149
1	0	0	1	0	0	1	406736,25	-0,100000001	2,15108132	-0,00027770973196956845	-0,099973578521172006	0,000215051303	-0,054985266544645197	0,0020515742232578477	0,054985266544645197
1	0	0	1	0	0	1	406956,25	-0,100000001	2,14827752	-0,00027771036070833606	-0,099973804863933952	0,000214771484	-0,061094878964066253	0,0022795320770877104	0,061094878964066253
1	0	0	1	0	0	1	407176,26	-0,100000001	2,14436746	-0,0002777105790881647	-0,099973883483813837	0,000214380736	-0,067204515195701862	0,0025074908193833136	0,067204515195701862
1	0	0	1	0	0	1	407396,26	-0,100000001	2,14064813	-0,00027771042547126611	-0,099973828182795149	0,000214008789	-0,073314135003706842	0,0027354489488911757	0,073314135003706842
1	0	0	1	0	0	1	407616,27	-0,100000001	2,13660455	-0,00027771023830895626	-0,099973760805660954	0,000213604391	-0,079423767953821978	0,0029634075687488378	0,079423767953821978
1	0	0	1	0	0	1	407836,27	-0,100000001	2,13271356	-0,00027770895531525213	-0,099973298936820723	0,000213214415	-0,085533374355601574	0,003191365198052407	0,085533374355601574
1	0	0	1	0	0	1	408056,28	-0,100000001	2,12804055	-0,0002777099170357817	-0,099973645144889766	0,000212747967	-0,091642982561373683	0,0034193228946653619	0,091642982561373683
1	0	0	1	0	0	1	408276,28	-0,100000001	2,1258471	-0,00027770914628149734	-0,099973367677526182	0,000212528088	-0,097752599232502093	0,0036472809071321421	0,097752599232502093
1	0	0	1	0	0	1	408496,28	-0,100000001	2,12119317	-0,0002777096729601423	-0,099973557281679091	0,000212063227	-0,1038622178184045	0,0038752389910417146	0,1038622178184045
1	0	0	1	0	0	1	408716,29	-0,100000001	2,11846566	-0,00027771034593507645	-0,099973799545662886	0,000211791063	-0,10997183561081382	0,0041031970453449939	0,10997183561081382
1	0	0	1	0	0	1	408936,29	-0,100000001	2,11673021	-0,00027770925483231741	-0,099973406760888077	0,000211616731	-0,1160814520295124	0,0043311550483932781	0,1160814520295124
1	0	0	1	0	0	1	409156,30	-0,100000001	2,11209536	-0,00027771025496141779	-0,099973766800431667	0,000211154125	-0,12219106305006917	0,0045591128500296326	0,12219106305006917
1	0	0	1	0	0	1	409376,30	-0,100000001	2,10881472	-0,00027771032789887654	-0,099973793057411251	0,000210826212	-0,12830069640042166	0,004787071484820688	0,12830069640042166
1	0	0	1	0	0	1	409596,31	-0,100000001	2,10488558	-0,00027770986477533978	-0,099973626331492941	0,000210433049	-0,1344103149651247	0,0050150295679392838	0,1344103149651247
1	0	0	1	0	0	1	409816,31	-0,100000001	2,10170031	-0,00027771065849314134	-0,099973912064399718	0,000210115206	-0,14051994256932656	0,0052429879883337344	0,14051994256932656
1	0	0	1	0	0	1	410036,31	-0,100000001	2,09901094	-0,0002777103813841111	-0,099973812308815398	0,000209846126	-0,14662957675843478	0,005470946654419895	0,14662957675843478
1	0	0	1	0	0	1	410256,32	-0,100000001	2,09403276	-0,00027771102658079734	-0,099974044573404416	0,000209348931	-0,15273919591071907	0,0056989047594619373	0,15273919591071907
1	0	0	1	0	0	1	410476,32	-0,100000001	2,09187746	-0,00027771014087481635	-0,099973725730045965	0,000209132777	-0,15884882914165078	0,0059268633897972429	0,15884882914165078
1	0	0	1	0	0	1	410696,33	-0,100000001	2,08457232	-0,00027771031288719837	-0,099973787653311168	0,000208402591	-0,16495845356993296	0,0061548216916938598	0,16495845356993296
1	0	0	1	0	0	1	410916,33	-0,100000001	2,08073854	-0,00027770969952022035	-0,099973566845450726	0,000208018857	-0,171068077082776	0,0063827799594342118	0,171068077082776
1	0	0	1	0	0	1	411136,33	-0,100000001	2,07358623	-0,00027771060908296042	-0,099973894281732378	0,000207304489	-0,17717771046370189	0,0066107385953660032	0,17717771046370189
1	0	0	1	0	0	1	411356,34	-0,100000001	2,06687236	-0,00027771116312634614	-0,099974093728855501	0,000206633689	-0,18328734214180221	0,006838697167763081	0,18328734214180221
1	0	0	1	0	0	1	411576,34	-0,100000001	2,05966258	-0,00027771013342671923	-0,099973723045291162	0,000205912133	-0,18939696877570995	0,0070666555519545549	0,18939696877570995
1	0	0	1	0	0	1	411796,35	-0,100000001	2,05287242	-0,00027771024904400109	-0,099973764667875034	0,000205233388	-0,19550659147517306	0,0072946137893466061	0,19550659147517306
1	0	0	1	0	0	1	412016,35	-0,100000001	2,04514766	-0,00027771056230324835	-0,099973877441360307	0,000204461336	-0,20161621699233104	0,0075225721318706432	0,20161621699233104
1	0	0	1	0	0	1	412236,36	-0,100000001	2,03601146	-0,00027770975362054179	-0,099973586321191437	0,000203547374	-0,20772584410162966	0,0077505305337995904	0,20772584410162966
1	0	0	1	0	0	1	412456,36	-0,100000001	2,02702808	-0,00027771037263837123	-0,099973809163319232	0,000202649724	-0,21383546625728365	0,0079784887509013926	0,21383546625728365
1	0	0	1	0	0	1	412676,36	-0,100000001	2,0170145	-0,00027770977566929328	-0,099973594258589133	0,000201648189	-0,21994509349117712	0,0082064471574791398	0,21994509349117712
1	0	0	1	0	0	1	412896,37	-0,100000001	2,00900364	-0,00027771035867970851	-0,099973804133642112	0,000200847731	-0,22605471667499878	0,0084344054129432614	0,22605471667499878
1	0	0	1	0	0	1	413116,37	-0,100000001	2,00066853	-0,00027771014433188573	-0,099973726972239334	0,000200014285	-0,23216434172619712	0,0086623637380817178	0,23216434172619712
1	0	0	1	0	0	1	413336,38	-0,100000001	1,99374497	-0,00027770971711931955	-0,099973573178676787	0,000199321803	-0,23827395689350198	0,0088903216944388186	0,23827395689350198
1	0	0	1	0	0	1	413556,38	-0,100000001	1,98697388	-0,00027771010479248234	-0,099973712736000525	0,000198645153	-0,24438357450508608	0,0091182797419952653	0,24438357450508608
1	0	0	1	0	0	1	413776,39	-0,100000001	1,98146164	-0,00027771008347844086	-0,099973705067748646	0,000198094058	-0,25049319308755619	0,0093462378257767757	0,25049319308755619
1	0	0	1	0	0	1	413996,39	-0,100000001	1,97636902	-0,0002777093639481399	-0,099973446041827827	0,000197584421	-0,25660281733797414	0,0095741961210370381	0,25660281733797414
1	0	0	1	0	0	1	414216,39	-0,100000001	1,97398496	-0,00027771044553733536	-0,099973835406440998	0,000197346846	-0,26271243929203965	0,0098021543306173043	0,26271243929203965
1	0	0	1	0	0	1	414436,40	-0,100000001	1,97184873	-0,00027771072811343606	-0,099973937131878541	0,000197133486	-0,26882207332500314	0,010030112990877494	0,26882207332500314
1	0	0	1	0	0	1	414656,40	-0,100000001	1,96889234	-0,00027771001518724694	-0,099973680481064563	0,000196837413	-0,27493168745291181	0,010258070908453328	0,27493168745291181
1	0	0	1	0	0	1	414876,41	-0,100000001	1,96509671	-0,00027771000991182192	-0,099973678580784294	0,000196457942	-0,28104129879127722	0,010486028721947549	0,28104129879127722
1	0	0	1	0	0	1	415096,41	-0,100000001	1,96425748	-0,00027770970070817405	-0,099973567268450522	0,000196373832	-0,28715090693041507	0,010713986416074291	0,28715090693041507
1	0	0	1	0	0	1	415316,42	-0,100000001	1,96322751	-0,00027770997130912211	-0,099973664687571405	0,000196271052	-0,29326051962681421	0,010941944280238578	0,29326051962681421
1	0	0	1	0	0	1	415536,42	-0,100000001	1,96257901	-0,00027770973339676858	-0,099973579040773248	0,000196206049	-0,2993701353731728	0,011169902258200952	0,2993701353731728
1	0	0	1	0	0	1	415756,42	-0,100000001	1,96160626	-0,00027770941254662144	-0,099973463536944307	0,000196108565	-0,30547973597567859	0,011397859671125821	0,30547973597567859
1	0	0	1	0	0	1	415976,43	-0,100000001	1,96147275	-0,00027770930905722909	-0,09997342628148041	0,000196095149	-0,31158934266759757	0,011625817311254878	0,31158934266759757
1	0	0	1	0	0	1	416196,43	-0,100000001	1,96185422	-0,00027770997059055498	-0,099973664424236928	0,000196133755	-0,31769896298607456	0,011853775459809136	0,31769896298607456
1	0	0	1	0	0	1	416416,44	-0,100000001	1,96128201	-0,00027771004812212451	-0,099973692336228365	0,000196076609	-0,32380857783339405	0,012081733404227157	0,32380857783339405
1	0	0	1	0	0	1	416636,44	-0,100000001	1,96084332	-0,00027770950792647069	-0,099973497870701261	0,000196032372	-0,32991819499406746	0,012309691434959517	0,32991819499406746
1	0	0	1	0	0	1	416856,44	-0,100000001	1,96082425	-0,00027770963874459264	-0,099973544961990733	0,000196030553	-0,33602779761112134	0,012537648923049882	0,33602779761112134
1	0	0	1	0	0	1	417076,45	-0,100000001	1,95897412	-0,00027770968830833834	-0,099973562809250918	0,000195845627	-0,34213740146933222	0,012765606457449482	0,34213740146933222
1	0	0	1	0	0	1	417296,45	-0,100000001	1,95924115	-0,00027770997144654394	-0,099973664737042304	0,000195872519	-0,34824700970517946	0,012993564155184579	0,34824700970517946
1	0	0	1	0	0	1	417516,46	-0,100000001	1,95788693	-0,00027770965681100886	-0,099973551470430618	0,00019573691	-0,35435661460771354	0,013221521728549282	0,35435661460771354
1	0	0	1	0	0	1	417736,46	-0,100000001	1,95658994	-0,00027771008089267546	-0,099973704132235725	0,000195607543	-0,36046622093572102	0,013449479355100314	0,36046622093572102
1	0	0	1	0	0	1	417956,47	-0,100000001	1,95552182	-0,00027770933568353453	-0,099973435864438157	0,000195500237	-0,36657582769135482	0,013677436997606661	0,36657582769135482
1	0	0	1	0	0	1	418176,47	-0,100000001	1,95622754	-0,00027770900031055014	-0,099973315131324646	0,000195570552	-0,37268542902330534	0,013905394437748088	0,37268542902330534
1	0	0	1	0	0	1	418396,47	-0,100000001	1,95531201	-0,00027770944750764304	-0,099973476118014451	0,000195479341	-0,37879502801529472	0,014133351790582421	0,37879502801529472
1	0	0	1	0	0	1	418616,48	-0,100000001	1,95538831	-0,00027771000584339101	-0,099973677119668838	0,000195487359	-0,3849046392554407	0,014361309600411947	0,3849046392554407
1	0	0	1	0	0	1	418836,48	-0,100000001	1,95462537	-0,00027771038001817136	-0,099973811819996122	0,000195411354	-0,39101426674531123	0,014589268016540541	0,39101426674531123
1	0	0	1	0	0	1	419056,49	-0,100000001	1,95454907	-0,0002777099111965961	-0,099973643047478733	0,000195403394	-0,39712389036861325	0,014817226288402266	0,39712389036861325
1	0	0	1	0	0	1	419276,49	-0,100000001	1,95277536	-0,00027770988628599376	-0,099973634079834547	0,00019522605	-0,40323350169441702	0,015045184101427795	0,40323350169441702
1	0	0	1	0	0	1	419496,50	-0,100000001	1,95264184	-0,00027771013563167718	-0,099973723837896922	0,00019521288	-0,409343116772064	0,015273142054439638	0,409343116772064
1	0	0	1	0	0	1	419716,50	-0,100000001	1,95165002	-0,00027771019944424429	-0,099973746811142566	0,000195113767	-0,41545273134858925	0,015501099988753962	0,41545273134858925
1	0	0	1	0	0	1	419936,50	-0,100000001	1,95222223	-0,00027771017290651802	-0,099973737256581235	0,000195170956	-0,42156235344883936	0,015729058203788573	0,42156235344883936
1	0	0	1	0	0	1	420156,51	-0,100000001	1,95113504	-0,00027770925600536995	-0,099973407183178867	0,000195061613	-0,42767197314643827	0,015957016329177037	0,42767197314643827
1	0	0	1	0	0	1	420376,51	-0,100000001	1,95067728	-0,00027770994379619757	-0,099973654783109286	0,000195016342	-0,43378158645944762	0,016184974216347878	0,43378158645944762
1	0	0	1	0	0	1	420596,52	-0,100000001	1,95052469	-0,00027771101648608848	-0,099974040944034522	0,000195001834	-0,43989121503224442	0,016412932672881907	0,43989121503224442
1	0	0	1	0	0	1	420816,52	-0,100000001	1,94920862	-0,00027770981555928787	-0,099973608618710682	0,000194869426	-0,44600084407578086	0,016640891146979866	0,44600084407578086
1	0	0	1	0	0	1	421036,53	-0,100000001	1,94777811	-0,00027771124887342256	-0,099974124601863974	0,000194727414	-0,45211047316937907	0,016868849622945699	0,45211047316937907
1	0	0	1	0	0	1	421256,53	-0,100000001	1,94724405	-0,00027771089039618768	-0,099973995549052762	0,000194673761	-0,45822011510201472	0,017096808577953277	0,45822011510201472
1	0	0	1	0	0	1	421476,53	-0,100000001	1,94724405	-0,00027771002715080979	-0,099973684787864256	0,000194673165	-0,46432973830946048	0,017324766834298848	0,46432973830946048
1	0	0	1	0	0	1	421696,54	-0,100000001	1,94617593	-0,00027770981830524074	-0,099973609602579392	0,000194566237	-0,47043935688236198	0,017552724917723338	0,47043935688236198
1	0	0	1	0	0	1	421916,54	-0,100000001	1,9459852	-0,00027770927536280618	-0,099973414151721728	0,000194546781	-0,47654897477127322	0,017780682975627235	0,47654897477127322
1	0	0	1	0	0	1	422136,55	-0,100000001	1,94325769	-0,00027771004617338378	-0,099973691638186688	0,000194274646	-0,48265859100717517	0,01800864097185513	0,48265859100717517
1	0	0	1	0	0	1	422356,55	-0,100000001	1,94142663	-0,00027770996038615706	-0,099973660755379699	0,000194091524	-0,48876820900998733	0,018236599034008822	0,48876820900998733
1	0	0	1	0	0	1	422576,56	-0,100000001	1,9405874	-0,00027771077270847226	-0,099973953185782464	0,0001940082	-0,49487782340499904	0,018464556961550627	0,49487782340499904
1	0	0	1	0	0	1	422796,56	-0,100000001	1,93963373	-0,00027770890782400963	-0,099973281837974963	0,000193911546	-0,50098742922142125	0,018692514569013725	0,50098742922142125
1	0	0	1	0	0	1	423016,56	-0,100000001	1,93791711	-0,00027770864989277386	-0,099973188983936064	0,000193739761	-0,50709702593022701	0,018920471836659405	0,50709702593022701
1	0	0	1	0	0	1	423236,57	-0,100000001	1,93570459	-0,0002777101911476089	-0,099973743823247501	0,000193519634	-0,51320662298658656	0,01914842911727279	0,51320662298658656
1	0	0	1	0	0	1	423456,57	-0,100000001	1,93065023	-0,00027770929688960314	-0,099973421901219418	0,000193013708	-0,51931623656095782	0,019376387014195395	0,51931623656095782
1	0	0	1	0	0	1	423676,58	-0,100000001	1,92893362	-0,00027770859690590042	-0,099973169911938458	0,000192841602	-0,52542583884705843	0,019604344489937446	0,52542583884705843
1	0	0	1	0	0	1	423896,58	-0,100000001	1,92820883	-0,00027770826631991398	-0,099973050903274854	0,000192768915	-0,53153542640954285	0,019832301416321584	0,53153542640954285
1	0	0	1	0	0	1	424116,58	-0,100000001	1,9270072	-0,0002777083545116087	-0,099973082651673638	0,000192648848	-0,53764501727848122	0,020060258466073962	0,53764501727848122
1	0	0	1	0	0	1	424336,59	-0,100000001	1,9267211	-0,00027770898988056515	-0,099973311375438528	0,00019262069	-0,54375460992449357	0,02028821558213136	0,54375460992449357
1	0	0	1	0	0	1	424556,59	-0,100000001	1,92555761	-0,00027770898938965466	-0,09997331119987799	0,000192504376	-0,54986421498445536	0,020516173161369901	0,54986421498445536
1	0	0	1	0	0	1	424776,60	-0,100000001	1,92332602	-0,00027770867600581712	-0,09997319838503255	0,000192281048	-0,55597381337343142	0,020744130491704998	0,55597381337343142
1	0	0	1	0	0	1	424996,60	-0,100000001	1,92277288	-0,00027770876936862864	-0,099973231992669901	0,000192225823	-0,56208339779232563	0,020972087300797558	0,56208339779232563
1	0	0	1	0	0	1	425216,61	-0,100000001	1,92138052	-0,00027770896126578253	-0,099973301078970419	0,000192086751	-0,5681929975411424	0,021200044681870138	0,5681929975411424
1	0	0	1	0	0	1	425436,61	-0,100000001	1,91951132	-0,00027770831642465459	-0,09997306894063415	0,000191899439	-0,57430258912212384	0,021428001758189802	0,57430258912212384
1	0	0	1	0	0	1	425656,61	-0,100000001	1,91882467	-0,00027770847617669235	-0,099973126450260403	0,000191830899	-0,58041218633254259	0,021655959044551338	0,58041218633254259
1	0	0	1	0	0	1	425876,62	-0,100000001	1,91672659	-0,00027770864959888992	-0,09997318887639415	0,000191621264	-0,5865217810873385	0,021883916239290288	0,5865217810873385
1	0	0	1	0	0	1	426096,62	-0,100000001	1,91632605	-0,00027770939661231302	-0,09997345779837609	0,000191581741	-0,5926313783118217	0,022111873526176586	0,5926313783118217
1	0	0	1	0	0	1	426316,63	-0,100000001	1,91354132	-0,0002777097222742935	-0,099973575033267853	0,000191303567	-0,59874098161694387	0,022339831039939706	0,59874098161694387
1	0	0	1	0	0	1	426536,63	-0,100000001	1,9111954	-0,00027770857119187715	-0,099973160650413043	0,000191068248	-0,60485058363282496	0,022567788505599501	0,60485058363282496
1	0	0	1	0	0	1	426756,64	-0,100000001	1,90986025	-0,00027770925505045386	-0,09997340683941568	0,000190935243	-0,61096017642966835	0,022795745627284608	0,61096017642966835
1	0	0	1	0	0	1	426976,64	-0,100000001	1,90736163	-0,00027770926635546819	-0,099973410909142464	0,000190685445	-0,61706977524149568	0,023023702973396851	0,61706977524149568
1	0	0	1	0	0	1	427196,64	-0,100000001	1,90501559	-0,00027770955624638333	-0,099973515267862515	0,000190451101	-0,62317937732641062	0,023251660441632397	0,62317937732641062
1	0	0	1	0	0	1	427416,65	-0,100000001	1,90255511	-0,00027770928794849254	-0,099973418682481574	0,000190204941	-0,6292889795508	0,023479617915071923	0,6292889795508
1	0	0	1	0	0	1	427636,65	-0,100000001	1,90099108	-0,00027770868004610141	-0,09997319983950688	0,000190048158	-0,63539857205953715	0,023707575026007398	0,63539857205953715
1	0	0	1	0	0	1	427856,66	-0,100000001	1,89843524	-0,0002777095819889671	-0,099973524532104678	0,000189793267	-0,64150816870773274	0,023935532291391632	0,64150816870773274
1	0	0	1	0	0	1	428076,66	-0,100000001	1,89380038	-0,00027770911211313475	-0,099973355378316314	0,000189329585	-0,6476177759362423	0,024163489951541606	0,6476177759362423
1	0	0	1	0	0	1	428296,67	-0,100000001	1,89366686	-0,00027770912644639613	-0,099973360542846336	0,000189316241	-0,65372738183438618	0,024391447562053853	0,65372738183438618
1	0	0	1	0	0	1	428516,67	-0,100000001	1,88844085	-0,00027770827842048474	-0,099973055259396442	0,000188793201	-0,6598369819196169	0,02461940495567849	0,6598369819196169
1	0	0	1	0	0	1	428736,67	-0,100000001	1,88529372	-0,00027771006951770851	-0,09997370004198176	0,000188479782	-0,66594659695906739	0,024847362907265174	0,66594659695906739
1	0	0	1	0	0	1	428956,68	-0,100000001	1,88094497	-0,00027770998856425286	-0,099973670899298867	0,000188044971	-0,67205621433601856	0,025075320946067149	0,67205621433601856
1	0	0	1	0	0	1	429176,68	-0,100000001	1,87749267	-0,00027770906705988781	-0,099973339159459699	0,000187699217	-0,67816582110412954	0,02530327858903903	0,67816582110412954
1	0	0	1	0	0	1	429396,69	-0,100000001	1,87322021	-0,0002777099170324703	-0,09997364514486153	0,000187272657	-0,68427542821302618	0,025531236244726093	0,68427542821302618
1	0	0	1	0	0	1	429616,69	-0,100000001	1,868204	-0,00027770953728589747	-0,099973508439891392	0,000186770907	-0,69038504042254694	0,025759194090724291	0,69038504042254694
1	0	0	1	0	0	1	429836,69	-0,100000001	1,86387432	-0,00027771011716831062	-0,099973717191212928	0,000186338439	-0,69649465997609702	0,025987152210738099	0,69649465997609702
1	0	0	1	0	0	1	430056,70	-0,100000001	1,85876262	-0,00027770991693395706	-0,099973645112888909	0,000185827274	-0,70260427868005555	0,026215110299052506	0,70260427868005555
1	0	0	1	0	0	1	430276,70	-0,100000001	1,85170543	-0,00027770923810121085	-0,099973400737805683	0,000185121287	-0,70871389442985587	0,026443068277143296	0,70871389442985587
1	0	0	1	0	0	1	430496,71	-0,100000001	1,84392357	-0,00027770955256455478	-0,09997351394242976	0,000184343517	-0,71482349653723418	0,026671025746216979	0,71482349653723418
1	0	0	1	0	0	1	430716,71	-0,100000001	1,83579826	-0,00027771130266247526	-0,099974143960894771	0,000183532364	-0,72093311475376064	0,026898983816344637	0,72093311475376064
1	0	0	1	0	0	1	430936,72	-0,100000001	1,82599461	-0,00027771113734071453	-0,099974084448534515	0,000182552132	-0,72704274986251046	0,027126942516743859	0,72704274986251046
1	0	0	1	0	0	1	431156,72	-0,100000001	1,8129102	-0,00027771151678222752	-0,09997422104368521	0,000181244279	-0,73315239123353971	0,027354901450797152	0,73315239123353971
1	0	0	1	0	0	1	431376,72	-0,100000001	1,79425645	-0,00027771129209837981	-0,099974140157893632	0,000179379247	-0,73926204589282189	0,027582860880653024	0,73926204589282189
1	0	0	1	0	0	1	431596,73	-0,100000001	1,76261377	-0,00027771140025804442	-0,09997417909927849	0,000176215864	-0,74537169895639859	0,027810820250970976	0,74537169895639859
1	0	0	1	0	0	1	431816,73	-0,100000001	1,66657937	-0,0002777121485753192	-0,099974448488310362	0,000166615355	-0,75148134567888038	0,028038779384694157	0,75148134567888038
1	0	0	1	0	0	1	432036,74	-0,100000001	1,54510093	-0,00027771228237284554	-0,099974496654492403	0,00015447069	-0,75759100634060134	0,028266739038509094	0,75759100634060134
1	0	0	1	0	0	1	432256,74	-0,100000001	1,42738008	-0,00027771134040380518	-0,099974157552167245	0,000142701116	-0,76370066102287846	0,028494698469222938	0,76370066102287846
1	0	0	1	0	0	1	432476,75	-0,100000001	1,34763432	-0,00027771081115057072	-0,099973967020016128	0,000134728354	-0,76981031373324582	0,028722657826362179	0,76981031373324582
1	0	0	1	0	0	1	432696,75	-0,100000001	1,27767324	-0,00027771118144318464	-0,099974100323954227	0,000127734238	-0,77591995723104845	0,028950616839768243	0,77591995723104845
1	0	0	1	0	0	1	432916,75	-0,100000001	1,20698726	-0,00027771114530248774	-0,09997408731704535	0,00012066745	-0,7820296030413984	0,02917857593945856	0,7820296030413984
1	0	0	1	0	0	1	433136,76	-0,100000001	1,12014616	-0,00027771152438968422	-0,099974223785808397	0,000111985741	-0,7881392533747497	0,029406535207908134	0,7881392533747497
1	0	0	1	0	0	1	433356,76	-0,100000001	1,01463223	-0,00027771094190660448	-0,099974014095937242	0,000101436854	-0,79424890538554406	0,029634494538945363	0,79424890538554406
1	1	0	0	0	0	2	433564,60	0,100000001	2,45375657	0,00027781109683215616	0,10001006917489861	0,000245400355	-0,79002131616389133	0,029476757501031341	0,0050006121147639219
1	1	0	0	0	0	2	433784,61	0,100000001	2,48539948	0,00027781178325083523	0,10001031628086507	0,0002485656	-0,78390945320541709	0,02924871567656352	0,011112475073238213
1	1	0	0	0	0	2	434004,61	0,100000001	2,47775102	0,00027781280857986877	0,10001068539220994	0,000247801567	-0,77779757890728038	0,029020673428997651	0,017224349371374893
1	1	0	0	0	0	2	434224,62	0,100000001	2,46724153	0,00027781310818385744	0,10001079324756912	0,000246750773	-0,77168569389797018	0,028792630781783491	0,0233362343806852
1	1	0	0	0	0	2	434444,62	0,100000001	2,45575929	0,00027781342878647974	0,10001090865763382	0,000245602714	-0,7655737973223977	0,028564587703016541	0,029448130956257786
1	1	0	0	0	0	2	434664,62	0,100000001	2,450495	0,00027781316185328698	0,10001081256469898	0,000245075993	-0,7594618966317993	0,028336544470712438	0,03556003164685641
1	1	0	0	0	0	2	434884,63	0,100000001	2,44843507	0,00027781304961235987	0,10001077215990747	0,00024486988	-0,75335000675393216	0,028108501641845875	0,041671921524723354
1	1	0	0	0	0	2	435104,63	0,100000001	2,44525003	0,00027781274059580429	0,10001066091376096	0,000244551076	-0,74723811653801229	0,027880458800366115	0,047783811740643418
1	1	0	0	0	0	2	435324,64	0,100000001	2,44399118	0,00027781231596569219	0,10001050805452099	0,000244424795	-0,74112623922095782	0,027652416440160365	0,05389568905769783
1	1	0	0	0	0	2	435544,64	0,100000001	2,43928003	0,00027781273050523469	0,10001065728588286	0,000243953997	-0,73501435572765734	0,027424373849510566	0,060007572550998349
1	1	0	0	0	0	2	435764,65	0,100000001	2,44437265	0,00027781274712251296	0,10001066326798784	0,000244463328	-0,7289024787117015	0,027196331500539213	0,066119449566954125
1	1	0	0	0	0	2	435984,65	0,100000001	2,44244623	0,00027781221343204374	0,10001047113846128	0,000244270195	-0,72279059848497907	0,026968289031769834	0,072231329793676723
1	1	0	0	0	0	2	436204,65	0,100000001	2,4453454	0,00027781241679274371	0,10001054434923216	0,000244560331	-0,7166787138065271	0,026740246396900445	0,078343214472128678
1	1	0	0	0	0	2	436424,66	0,100000001	2,44614625	0,00027781260834054813	0,10001061330394973	0,0002446406	-0,71056684136181248	0,02651220421848824	0,0844550869168432
1	1	0	0	0	0	2	436644,66	0,100000001	2,445822	0,00027781316806582944	0,10001081480000694	0,000244608644	-0,70445496308251763	0,02628416182238001	0,090566965196137997
1	1	0	0	0	0	2	436864,67	0,100000001	2,44643235	0,00027781232069763875	0,10001050975798896	0,000244668947	-0,69834308215848358	0,026056119327592998	0,096678846120172019
1	1	0	0	0	0	2	437084,67	0,100000001	2,44671845	0,00027781221672892573	0,10001047232997294	0,000244697469	-0,69223121151931571	0,02582807721654817	0,10279071675934016
1	1	0	0	0	0	2	437304,67	0,100000001	2,44828248	0,00027781205934451686	0,1000104156726767	0,000244853756	-0,68611934126198554	0,025600035119750227	0,10890258701667022
1	1	0	0	0	0	2	437524,68	0,100000001	2,44790101	0,0002778121224724584	0,10001043839829808	0,000244815659	-0,68000746777583334	0,025371992902480586	0,11501446050282234
1	1	0	0	0	0	2	437744,68	0,100000001	2,44889283	0,00027781463665349613	0,10001134348138722	0,000244917057	-0,67389558411390758	0,025143950305539155	0,12112634416474811
1	1	0	0	0	0	2	437964,69	0,100000001	2,450495	0,00027781291513310541	0,10001072374714378	0,000245075789	-0,6677836965668055	0,024915907563636573	0,12723823171185034
1	1	0	0	0	0	2	438184,69	0,100000001	2,45251679	0,00027781303668518861	0,10001076750388693	0,00024527809	-0,66167180790260992	0,024687864780053731	0,13335012037604586
1	1	0	0	0	0	2	438404,70	0,100000001	2,45375657	0,00027781308741701978	0,1000107857716515	0,000245402131	-0,65555992292861926	0,024459822134157395	0,13946200535003627
1	1	0	0	0	0	2	438624,70	0,100000001	2,45423341	0,00027781292118752995	0,10001072593018742	0,000245449657	-0,64944804394460813	0,024231779711755245	0,14557388433404758
1	1	0	0	0	0	2	438844,70	0,100000001	2,45633149	0,0002778133442186647	0,10001087821846363	0,000245659874	-0,6433361518184823	0,024003736799003133	0,15168577646017318
1	1	0	0	0	0	2	439064,71	0,100000001	2,45657945	0,00027781274062105347	0,10001066092750752	0,000245684147	-0,63722426222865242	0,023775693980883626	0,1577976660500032
1	1	0	0	0	0	2	439284,71	0,100000001	2,45751405	0,00027781266577790182	0,10001063397983467	0,000245777541	-0,63111237878613414	0,023547651392128582	0,16390954949252134
1	1	0	0	0	0	2	439504,72	0,100000001	2,460356	0,00027781417982404432	0,10001117902711538	0,000246063108	-0,62500049155505306	0,023319608662017171	0,17002143672360221
1	1	0	0	0	0	2	439724,72	0,100000001	2,45860124	0,0002778128757696185	0,1000107095777256	0,000245886447	-0,61888860774255962	0,023091566059457856	0,17613332053609555
1	1	0	0	0	0	2	439944,73	0,100000001	2,45883012	0,00027781201073610118	0,10001039816932699	0,000245908566	-0,61277673366414707	0,022863523820090186	0,18224519461450842
1	1	0	0	0	0	2	440164,73	0,100000001	2,45743775	0,00027781323665504659	0,10001083949630669	0,00024577041	-0,60666484967520806	0,022635481210947453	0,18835707860344768
1	1	0	0	0	0	2	440384,73	0,100000001	2,45635056	0,00027781265210650035	0,10001062906288192	0,000245661155	-0,6005529593189376	0,022407438364231018	0,19446896895971811
1	1	0	0	0	0	2	440604,74	0,100000001	2,45116258	0,00027781271365988586	0,10001065122167406	0,000245142379	-0,59444107460305139	0,022179395727964909	0,20058085367560419
1	1	0	0	0	0	2	440824,74	0,100000001	2,45299363	0,0002778133854025768	0,10001089303972949	0,000245326082	-0,58832918243820326	0,021951352813768013	0,20669274584045254
1	1	0	0	0	0	2	441044,75	0,100000001	2,45217347	0,00027781255049506819	0,10001059248114219	0,000245243311	-0,58221729843778829	0,021723310204197091	0,21280462984086774
1	1	0	0	0	0	2	441264,75	0,100000001	2,4536612	0,00027781308320495818	0,10001078425184578	0,000245392584	-0,57610542134753062	0,021495267852453434	0,21891650693112515
1	1	0	0	0	0	2	441484,76	0,100000001	2,45390916	0,00027781264564270774	0,10001062673130438	0,000245417003	-0,56999354478822726	0,021267225520520394	0,22502838349042813
1	1	0	0	0	0	2	441704,76	0,100000001	2,45478654	0,00027781288546116816	0,1000107130689448	0,000245504954	-0,56388166126801939	0,02103918292886665	0,23114026701063597
1	1	0	0	0	0	2	441924,76	0,100000001	2,45755219	0,0002778127507497039	0,10001066457375146	0,000245781441	-0,55776978154216928	0,020811140478785491	0,23725214673648576
1	1	0	0	0	0	2	442144,77	0,100000001	2,45638871	0,00027781283400249152	0,1000106945441779	0,000245665142	-0,55165789251592781	0,020583097681694227	0,24336403576272739
1	1	0	0	0	0	2	442364,77	0,100000001	2,45516801	0,00027781241462296909	0,10001054357045683	0,000245542673	-0,54554601319232422	0,02035505524662143	0,24947591508633072
1	1	0	0	0	0	2	442584,78	0,100000001	2,45717072	0,0002778127984926104	0,10001068175620984	0,000245743315	-0,53943414777950029	0,020127013330578525	0,25558778049915459
1	1	0	0	0	0	2	442804,78	0,100000001	2,45799088	0,00027781302299350502	0,10001076257614	0,000245825533	-0,53332226746715885	0,019898970858614589	0,26169966081149603
1	1	0	0	0	0	2	443024,78	0,100000001	2,45652223	0,00027781253478924429	0,10001058682715446	0,000245678239	-0,52721038839907066	0,019670928433075414	0,26781153987958435
1	1	0	0	0	0	2	443244,79	0,100000001	2,4571898	0,00027781268564901418	0,10001064113329738	0,000245745119	-0,52109850792584576	0,019442885955108701	0,27392342035280899
1	1	0	0	0	0	2	443464,79	0,100000001	2,45656037	0,00027781280855172211	0,10001068538207734	0,000245682284	-0,51498662175189805	0,019214843264440355	0,2800353065267568
1	1	0	0	0	0	2	443684,80	0,100000001	2,46058488	0,00027781278113606902	0,10001067551263229	0,000246084761	-0,50887474115423782	0,01898680078183079	0,28614718712441677
1	1	0	0	0	0	2	443904,80	0,100000001	2,45989823	0,00027781218935300909	0,1000104624748327	0,000246015552	-0,50276286696396909	0,018758758538289619	0,2922590613146857
1	1	0	0	0	0	2	444124,81	0,100000001	2,46010804	0,00027781319383738774	0,10001082407758928	0,000246037438	-0,49665098744919584	0,018530716096084022	0,29837094082945907
1	1	0	0	0	0	2	444344,81	0,100000001	2,46123338	0,00027781304980028003	0,10001077222755744	0,000246149837	-0,49053910670100864	0,018302673607858096	0,30448282157764627
1	1	0	0	0	0	2	444564,81	0,100000001	2,46163392	0,00027781230210719837	0,10001050306323078	0,000246189244	-0,4844272249113417	0,018074631080773155	0,31059470336731322
1	1	0	0	0	0	2	444784,82	0,100000001	2,46281648	0,00027781242714698118	0,10001054807435736	0,000246307638	-0,47831535376390739	0,017846588950764227	0,31670657451474752
1	1	0	0	0	0	2	445004,82	0,100000001	2,46384645	0,00027781261411723162	0,10001061538700853	0,000246410811	-0,47220348375031354	0,01761854686306041	0,32281844452834144
1	1	0	0	0	0	2	445224,83	0,100000001	2,46462846	0,00027781248086649507	0,10001056741766701	0,000246488897	-0,4660916116595584	0,017390504697854915	0,32893031661909658
1	1	0	0	0	0	2	445444,83	0,100000001	2,46577287	0,00027781180733566483	0,10001032495123678	0,000246602751	-0,45997974349435827	0,017162462679117152	0,33504218478429664
1	1	0	0	0	0	2	445664,84	0,100000001	2,46676469	0,00027781124187219472	0,10001012138830714	0,000246701442	-0,45386789030646368	0,016934421219202797	0,34115403797219123
1	1	0	0	0	0	2	445884,84	0,100000001	2,46853852	0,00027781197172775869	0,10001038412892256	0,000246879499	-0,44775603098378342	0,016706379530391338	0,34726589729487149
1	1	0	0	0	0	2	446104,84	0,100000001	2,46787095	0,00027781172388916214	0,10001029490758149	0,000246812502	-0,44164418007592826	0,01647833815554832	0,35337774820272666
1	1	0	0	0	0	2	446324,85	0,100000001	2,46823335	0,00027781117122289206	0,1000100959503909	0,000246848242	-0,4355323261915849	0,016250296669648525	0,35948960208707002
1	1	0	0	0	0	2	446544,85	0,100000001	2,46998811	0,00027781145405603782	0,10001019777301987	0,000247024	-0,42942046511079878	0,016022254915239776	0,36560146316785613
1	1	0	0	0	0	2	446764,86	0,100000001	2,47056031	0,00027781202127701706	0,10001040196864062	0,000247081742	-0,42330860195192589	0,015794213083294813	0,37171332632672902
1	1	0	0	0	0	2	446984,86	0,100000001	2,47021699	0,00027781215674016208	0,10001045073443384	0,000247047516	-0,41719673707014336	0,015566171187065779	0,37782519120851155
1	1	0	0	0	0	2	447204,87	0,100000001	2,47010255	0,00027781338500728208	0,10001089290208315	0,000247037155	-0,41108486796140909	0,015338129133123488	0,38393706031724582
1	1	0	0	0	0	2	447424,87	0,100000001	2,4712851	0,00027781174074403114	0,10001030097405325	0,000247153977	-0,40497300424372518	0,015110087280328534	0,39004892403492973
1	1	0	0	0	0	2	447644,87	0,100000001	2,47458482	0,00027781189331288138	0,10001035589894603	0,000247484102	-0,39886114171863789	0,014882045472030966	0,39616078656001702
1	1	0	0	0	0	2	447864,88	0,100000001	2,47515702	0,00027781177016885744	0,10001031157144374	0,000247541233	-0,39274927864213069	0,014654003643159181	0,40227264963652422
1	1	0	0	0	0	2	448084,88	0,100000001	2,47628236	0,00027781262860364381	0,10001062059735947	0,000247654534	-0,38663741933675475	0,01442596195499337	0,40838450894190016
1	1	0	0	0	0	2	448304,89	0,100000001	2,47601533	0,00027781229375799498	0,10001050005990394	0,000247627526	-0,38052554343741299	0,014197919647684382	0,41449638484124198
1	1	0	0	0	0	2	448524,89	0,100000001	2,47714067	0,00027781236247097453	0,10001052479610029	0,000247740129	-0,37441366456891309	0,013969877229592118	0,42060826370974189
1	1	0	0	0	0	2	448744,89	0,100000001	2,47796082	0,00027781202928101018	0,10001040485002267	0,000247821852	-0,3683017970433223	0,013741835234719043	0,42672013123533261
1	1	0	0	0	0	2	448964,90	0,100000001	2,4779799	0,00027781170635629034	0,10001028859470493	0,000247823482	-0,36218993076400371	0,013513793286346056	0,4328319975146512
1	1	0	0	0	0	2	449184,90	0,100000001	2,4794867	0,00027781246173133453	0,10001056052681334	0,000247974851	-0,35607806275296019	0,013285751273360082	0,43894386552569478
1	1	0	0	0	0	2	449404,91	0,100000001	2,48072648	0,00027781254619566931	0,10001059093338838	0,000248098921	-0,34996618848589446	0,01305770902695351	0,44505573979276045
1	1	0	0	0	0	2	449624,91	0,100000001	2,48141313	0,0002778125100872583	0,10001057793228221	0,000248167547	-0,34385431296605875	0,012829666733804406	0,45116761531259622
1	1	0	0	0	0	2	449844,92	0,100000001	2,48141313	0,00027781306766097747	0,10001077865961322	0,000248168071	-0,33774243850694317	0,012601624480232197	0,45727948977171174
1	1	0	0	0	0	2	450064,92	0,100000001	2,48316789	0,00027781220875473485	0,1000104694593195	0,000248342782	-0,33163056325693651	0,012373582197150779	0,4633913650217184
1	1	0	0	0	0	2	450284,92	0,100000001	2,4839499	0,00027781286608427766	0,10001070609339853	0,000248421595	-0,32551868481677114	0,012145539795040248	0,46950324346188378
1	1	0	0	0	0	2	450504,93	0,100000001	2,48644853	0,00027781247776705357	0,10001056630188955	0,000248671131	-0,31940680312094714	0,011917497271456717	0,47561512515770778
1	1	0	0	0	0	2	450724,93	0,100000001	2,4861052	0,00027781235366231862	0,10001052162038819	0,000248636672	-0,31329493192888589	0,011689455139782698	0,48172699634976902
1	1	0	0	0	0	2	450944,94	0,100000001	2,48705864	0,00027781194991618394	0,10001037627574259	0,000248731667	-0,30718305273151904	0,01146141270941996	0,48783887554713587
1	1	0	0	0	0	2	451164,94	0,100000001	2,48854637	0,00027781297113042739	0,10001074390695579	0,000248881377	-0,30107117237806746	0,011233370235922152	0,49395075590058746
1	1	0	0	0	0	2	451384,95	0,100000001	2,48932838	0,00027781248009536	0,10001056714006373	0,000248959142	-0,29495929419232954	0,01100532784330465	0,50006263408632544
1	1	0	0	0	0	2	451604,95	0,100000001	2,489748	0,00027781291931205325	0,10001072525502882	0,000249001518	-0,28884741633689958	0,010777285463011386	0,50617451194175565
1	1	0	0	0	0	2	451824,95	0,100000001	2,49215126	0,00027781329441981184	0,10001086029122179	0,000249242177	-0,2827355319908329	0,010549242840543734	0,51228639628782246
1	1	0	0	0	0	2	452044,96	0,100000001	2,47918153	0,00027781271331343389	0,10001065109695374	0,000247944554	-0,2766236505659656	0,010321200327069963	0,51839827771268998
1	1	0	0	0	0	2	452264,96	0,100000001	2,49245644	0,00027781345785243642	0,10001091912117675	0,000249272853	-0,27051177078581917	0,010093157874962939	0,52451015749283603
1	1	0	0	0	0	2	452484,97	0,100000001	2,49167442	0,00027781279995292426	0,10001068228307696	0,000249194069	-0,26439988408108739	0,0098651151644903245	0,53062204419756774
1	1	0	0	0	0	2	452704,97	0,100000001	2,49403954	0,0002778122897512383	0,10001049861284229	0,00024943013	-0,25828799629147821	0,0096370724135394752	0,53673393198717658
1	1	0	0	0	0	2	452924,98	0,100000001	2,49482155	0,00027781350890008941	0,10001093749797797	0,000249509438	-0,25217610776488874	0,0094090296350909005	0,54284582051376627
1	1	0	0	0	0	2	453144,98	0,100000001	2,49526024	0,00027781328071902195	0,1000108553590324	0,000249553123	-0,24606422086719235	0,0091809869174185165	0,54895770741146278
1	1	0	0	0	0	2	453364,98	0,100000001	2,49295235	0,00027781198862898675	0,10001039021557603	0,000249321136	-0,23995234011513875	0,008952944429048329	0,55506958816351616
1	1	0	0	0	0	2	453584,99	0,100000001	2,49442101	0,00027781283908585712	0,10001069637415429	0,00024946878	-0,2338404596120191	0,0087249019499662016	0,56118146866663565
1	1	0	0	0	0	2	453804,99	0,100000001	2,49512672	0,0002778137431707647	0,10001102183379722	0,000249540171	-0,22772856305946467	0,0084968588720580838	0,5672933652191904
1	1	0	0	0	0	2	454025,00	0,100000001	2,49533653	0,00027781291867254506	0,10001072502248179	0,000249560428	-0,22161667338645344	0,0082688160508349722	0,57340525489220128
1	1	0	0	0	0	2	454245,00	0,100000001	2,48915672	0,00027781292075374061	0,10001072576820498	0,000248942379	-0,21550478984379658	0,0080407734583436224	0,57951713843485837
1	1	0	0	0	0	2	454465,01	0,100000001	2,48658204	0,00027781282268298992	0,10001069046457878	0,000248684781	-0,20939290968947962	0,0078127309922757914	0,58562901858917542
1	1	0	0	0	0	2	454685,01	0,100000001	2,48538041	0,00027781247653149894	0,10001056585709845	0,000248564291	-0,20328103016802896	0,0075846885498210547	0,59174089811062605
1	1	0	0	0	0	2	454905,01	0,100000001	2,4872303	0,0002778132463010649	0,10001084296880643	0,000248750002	-0,19716914036286272	0,0073566457236670618	0,59785278791579238
1	1	0	0	0	0	2	455125,02	0,100000001	2,48856544	0,00027781315489403078	0,10001081006290774	0,000248883443	-0,19105725241256822	0,0071286029667208269	0,6039646758660873
1	1	0	0	0	0	2	455345,02	0,100000001	2,4868679	0,00027781308467893136	0,10001078478595867	0,000248713623	-0,18494535883345613	0,0069005599997558413	0,61007656944519936
1	1	0	0	0	0	2	455565,03	0,100000001	2,49026299	0,00027781284865571389	0,10001069981457938	0,000249052944	-0,17883347713125242	0,0066725174759342746	0,61618845114740326
1	1	0	0	0	0	2	455785,03	0,100000001	2,49196053	0,00027781308745261693	0,10001078577864496	0,00024922294	-0,17272158872765005	0,0064444747020745126	0,62230033955100557
1	1	0	0	0	0	2	456005,03	0,100000001	2,49386787	0,00027781312165533501	0,10001079809487915	0,000249413715	-0,16660970508307373	0,0062164321057804134	0,62841222319558182
1	1	0	0	0	0	2	456225,04	0,100000001	2,49930382	0,00027781336745743949	0,10001088657960445	0,000249957578	-0,16049781289878109	0,005988389190858016	0,63452411537987469
1	1	0	0	0	0	2	456445,04	0,100000001	2,50023842	0,00027781340794223875	0,10001090115850859	0,000250051089	-0,15438592337205341	0,0057603463750929395	0,6406360049066025
1	1	0	0	0	0	2	456665,05	0,100000001	2,50041008	0,00027781282640000182	0,10001069180733432	0,000250067736	-0,14827403757707853	0,0055323036985645786	0,64674789070157722
1	1	0	0	0	0	2	456885,05	0,100000001	2,50523567	0,000277813228374968	0,10001083651553579	0,000250550715	-0,14216215098029533	0,005304260992119671	0,65285977729836045
1	1	0	0	0	0	2	457105,06	0,100000001	2,50535011	0,00027781294258435568	0,10001073362823933	0,00025056189	-0,13605025937817736	0,005076218098918992	0,65897166890047834
1	1	0	0	0	0	2	457325,06	0,100000001	2,50477791	0,00027781282295121088	0,10001069056346499	0,000250504556	-0,12993837130726459	0,0048481753374723283	0,66508355697139123
1	1	0	0	0	0	2	457545,06	0,100000001	2,50401497	0,00027781337753476368	0,10001089020853555	0,00025042877	-0,12382648161431654	0,0046201325155053472	0,67119544666433933
1	1	0	0	0	0	2	457765,07	0,100000001	2,50725746	0,0002778137925879823	0,10001103962365301	0,000250753423	-0,11771458919793578	0,0043920895919234298	0,67730733908072
1	1	0	0	0	0	2	457985,07	0,100000001	2,50758171	0,00027781288249500922	0,10001071200114814	0,000250785029	-0,11160270128410605	0,004164046836337744	0,68341922699454963
1	1	0	0	0	0	2	458205,08	0,100000001	2,51900673	0,00027781321693998243	0,10001083239902026	0,000251927966	-0,10549080823617021	0,0039360038891916582	0,6895311200424855
1	1	0	0	0	0	2	458425,08	0,100000001	2,52091408	0,00027781346063895354	0,10001092012896064	0,000252118945	-0,099378912604678861	0,0037079608456496422	0,6956430156739767
1	1	0	0	0	0	2	458645,09	0,100000001	2,52261162	0,00027781286100505126	0,10001070426491226	0,000252288155	-0,093267032305087526	0,0034799183741614291	0,70175489597356787
1	1	0	0	0	0	2	458865,09	0,100000001	2,52522469	0,00027781274383142589	0,10001066208089082	0,000252549391	-0,087155151237660429	0,0032518758740242317	0,7078667770409952
1	1	0	0	0	0	2	459085,09	0,100000001	2,52692223	0,00027781236402359274	0,10001052535153931	0,000252718834	-0,08104327359343945	0,0030238335016114566	0,71397865468521638
1	1	0	0	0	0	2	459305,10	0,100000001	2,52686501	0,0002778132518256704	0,10001084495296909	0,000252713915	-0,074931384686060288	0,0027957907089551066	0,72009054359259558
1	1	0	0	0	0	2	459525,10	0,100000001	2,5259304	0,00027781284607822694	0,10001069889135898	0,000252620055	-0,068819504913007667	0,0025677482571127616	0,72620242336564813
1	1	0	0	0	0	2	459745,11	0,100000001	2,52158165	0,00027781260095536707	0,10001061064882851	0,000252184924	-0,06270762250853911	0,0023397057070887491	0,73231430577011686
1	1	0	0	0	0	2	459965,11	0,100000001	2,52221107	0,00027781282345743642	0,10001069074803118	0,000252248079	-0,056595731812674554	0,0021116628477016048	0,73842619646598118
1	1	0	0	0	0	2	460185,12	0,100000001	2,52451897	0,00027781321574581994	0,10001083196913005	0,000252479251	-0,050483836530237152	0,0018836198171832605	0,74453809174841856
1	1	0	0	0	0	2	460405,12	0,100000001	2,52583504	0,00027781275157382086	0,10001066486577085	0,000252610451	-0,044371937839285363	0,0016555766594886618	0,75064999043937037
1	1	0	0	0	0	2	460625,12	0,100000001	2,52539635	0,00027781245607303248	0,10001055848869957	0,0002525663	-0,038260056469644928	0,0014275341480754782	0,75676187180901094
1	1	0	0	0	0	2	460845,13	0,100000001	2,52987838	0,00027781281343433594	0,10001068713745597	0,000253014878	-0,032148170200859923	0,0011994914538686242	0,76287375807779584
1	1	0	0	0	0	2	461065,13	0,100000001	2,53239608	0,00027781324850229754	0,10001084375657789	0,000253267062	-0,02603627770395784	0,00097144852728234778	0,76898565057469811
1	1	0	0	0	0	2	461285,14	0,100000001	2,5346849	0,00027781241710815168	0,10001054446510531	0,000253495207	-0,019924389815771325	0,00074340577265344576	0,77509753846288448
1	1	0	0	0	0	2	461505,14	0,100000001	2,54006362	0,00027781323288256925	0,10001083813824101	0,00025403389	-0,013812499618115933	0,00051536293185515488	0,78120942866054003
1	1	0	0	0	0	2	461725,14	0,100000001	2,53977752	0,00027781276071071626	0,10001066815964686	0,000254004844	-0,0077006138163664218	0,00028732025507402282	0,78732131446228954
1	1	0	0	0	0	2	461945,15	0,100000001	2,54311538	0,00027781286374934848	0,1000107052481832	0,000254338753	-0,0015887340319044822	5,9277802805980365E-005	0,79343319424675162
1	1	0	0	0	0	2	462165,15	0,100000001	2,54275298	0,0002778127875659201	0,10001067782500557	0,00025430246	0,0045231521643098086	-0,00016876488869316304	0,79954508044296589
1	1	0	0	0	0	2	462385,16	0,100000001	2,54191375	0,00027781310328096154	0,10001079147906781	0,000254218816	0,010635036977506354	-0,00039680752859005485	0,80565696525616243
1	1	0	0	0	0	2	462605,16	0,100000001	2,54355407	0,00027781193446864682	0,10001037071357205	0,000254381797	0,016746913311829594	-0,00062484985212878362	0,81176884159048563
1	1	0	0	0	0	2	462825,17	0,100000001	2,545614	0,00027781323371786214	0,10001083843894064	0,000254588987	0,02285878591270704	-0,00085289203636763034	0,8178807141913632
1	1	0	0	0	0	2	463045,17	0,100000001	2,54799819	0,00027781207288594707	0,1000104205474977	0,000254826358	0,02897066991474688	-0,0010809346459991749	0,82399259819340301
1	1	0	0	0	0	2	463265,17	0,100000001	2,55192733	0,00027781274730546611	0,10001066333384971	0,000255219958	0,035082552499415981	-0,0013089772027467115	0,83010448077807219
1	1	0	0	0	0	2	463485,18	0,100000001	2,55478835	0,00027781277630974854	0,10001067377519034	0,000255506107	0,041194429941308998	-0,0015370195676103581	0,83621635821996518
1	1	0	0	0	0	2	463705,18	0,100000001	2,55515075	0,00027781362587627434	0,10001097960859371	0,000255543127	0,047306311532720518	-0,0017650620872981187	0,84232823981137715
1	1	0	0	0	0	2	463925,19	0,100000001	2,55867934	0,00027781338424939248	0,10001089262575536	0,000255895808	0,053418193100880019	-0,0019931046061183155	0,84844012137953677
1	1	0	0	0	0	2	464145,19	0,100000001	2,56022429	0,00027781268191296198	0,10001063978834448	0,00025604968	0,05953007558052617	-0,0022211471589473043	0,85455200385918285
1	1	0	0	0	0	2	464365,20	0,100000001	2,56033874	0,00027781323725067907	0,10001083971073027	0,000256061641	0,065641955732697843	-0,0024491896249350915	0,8606638840113545
1	1	0	0	0	0	2	464585,20	0,100000001	2,56129241	0,00027781292657098838	0,10001072786819514	0,000256156723	0,071753840923537421	-0,0026772322789223526	0,86677576920219418
1	1	0	0	0	0	2	464805,20	0,100000001	2,56342864	0,00027781291761497658	0,10001072464409296	0,000256370346	0,077865729885049203	-0,0029052750735984634	0,87288765816370611
1	1	0	0	0	0	2	465025,21	0,100000001	2,56604171	0,00027781429530928538	0,10001122060449445	0,000256632949	0,083977621428903245	-0,0031333179646252358	0,87899954970756006
1	1	0	0	0	0	2	465245,21	0,100000001	2,56951284	0,00027781421952446304	0,10001119331782669	0,000256980042	0,090089521494991309	-0,0033613611736280173	0,88511144977364826
1	1	0	0	0	0	2	465465,22	0,100000001	2,57239294	0,00027781360998087459	0,10001097388752426	0,000257267529	0,096201427227389133	-0,0035894045940484352	0,89122335550604621
1	1	0	0	0	0	2	465685,22	0,100000001	2,57542562	0,0002778130640544825	0,10001077735897152	0,000257570326	0,10231331941602922	-0,0038174475091330419	0,89733524769468646
1	1	0	0	0	0	2	465905,23	0,100000001	2,57677984	0,0002778124283808801	0,10001054851855242	0,000257705164	0,10842521019794758	-0,0040454903717309702	0,90344713847660493
1	1	0	0	0	0	2	466125,23	0,100000001	2,58002234	0,00027781213385156461	0,10001044249469741	0,000258029177	0,1145370786321135	-0,004273532400504208	0,90955900691077082
1	1	0	0	0	0	2	466345,23	0,100000001	2,58200598	0,00027781220493258701	0,10001046808337277	0,000258227636	0,12064894933900949	-0,0045015745140760589	0,91567087761766669
1	1	0	0	0	0	2	466565,24	0,100000001	2,58427572	0,00027781297145163018	0,1000107440249151	0,000258455344	0,12676082902761016	-0,0047296169627673888	0,92178275730626739
1	1	0	0	0	0	2	466785,24	0,100000001	2,58952093	0,00027781344020201098	0,10001091276714594	0,000258980348	0,13287271723036765	-0,0049576597291333568	0,9278946455090249
1	1	0	0	0	0	2	467005,25	0,100000001	2,58919668	0,00027781295255695779	0,10001073722529251	0,000258947461	0,13898460097063838	-0,005185702328997945	0,93400652924929562
1	1	0	0	0	0	2	467225,25	0,100000001	2,59600592	0,00027781311630250675	0,10001079616673386	0,000259628607	0,14509647885645974	-0,0054137447104251533	0,94011840713511706
1	1	0	0	0	0	2	467445,26	0,100000001	2,59840918	0,00027781286764848566	0,10001070665184555	0,000259868742	0,15120836548737232	-0,0056417874181434752	0,94623029376602982
1	1	0	0	0	0	2	467665,26	0,100000001	2,60306311	0,00027781310433977181	0,10001079186372494	0,000260334404	0,15732025807706192	-0,0058698303481917786	0,95234218635571904
1	1	0	0	0	0	2	467885,26	0,100000001	2,60899496	0,0002778141023218632	0,10001115113036021	0,000260928588	0,16343215989983258	-0,0060978736227387507	0,9584540881784896
1	1	0	0	0	0	2	468105,27	0,100000001	2,61017728	0,00027781353695773414	0,10001094760319264	0,000261046313	0,16954406552981843	-0,006325917039338039	0,96456599380847552
1	1	0	0	0	0	2	468325,27	0,100000001	2,6156323	0,00027781370584335594	0,10001100840084582	0,000261592009	0,17565597480108349	-0,0065539605917983514	0,97067790307974054
1	1	0	0	0	0	2	468545,28	0,100000001	2,62064862	0,00027781263287448221	0,1000106221394887	0,000262092712	0,18176787224753002	-0,0067820037030587853	0,97678980052618714
1	1	0	0	0	0	2	468765,28	0,100000001	2,62474942	0,00027781291069048976	0,10001072214783293	0,000262503076	0,1878797679820136	-0,0070100467504435814	0,98290169626067072
1	1	0	0	0	0	2	468985,28	0,100000001	2,63014722	0,00027781451070018941	0,10001129814139837	0,000263044436	0,19399166320604387	-0,0072380897787826765	0,9890135914847008
1	1	0	0	0	0	2	469205,29	0,100000001	2,63745236	0,00027781365296037661	0,1000109893586828	0,000263774215	0,20010355705664442	-0,0074661327558772634	0,9951254853353015
1	1	0	0	0	0	2	469384,57	0,100000001	2,64359403	0,00025781058156448931	0,10001064470963946	0,000264387549	0,20508418945488013	-0,0076519668471869171	1,0001061177335376