File: Experimentelles/Rohdaten/Batteriemessungen/AlteZelle/Studenten_Batterietests/S vs Li GCPL 300µm/ZView-Export/S vs Li GCPL 300µm_02_GCPL_C06_loop5.txt
EC-Lab ASCII FILE
Nb header lines : 3
mode	ox/red	error	control changes	Ns changes	counter inc.	Ns	time/s	control/V/mA	Ewe/V	dq/mA.h	<I>/mA	P/W	(Q-Qo)/mA.h	x	Capacity/mA.h
1	0	0	1	1	0	1	357700,44	-0,200000003	2,32873678	0	0	0	0	0	0
1	0	0	1	0	0	1	357930,44	-0,200000003	2,28511643	-0,00055587690301818982	-0,20011183194232301	0,000457278831	-0,012782355692942122	0,00047692687696368198	0,012782355692942122
1	0	0	1	0	0	1	358160,45	-0,200000003	2,27778268	-0,00055586886795113485	-0,20010893938319763	0,000455804664	-0,025567447372248614	0,00095395583725719142	0,025567447372248614
1	0	0	1	0	0	1	358390,45	-0,200000003	2,27206826	-0,00055587776702642445	-0,20011214298861674	0,00045466845	-0,038352536226192294	0,0014309846921326157	0,038352536226192294
1	0	0	1	0	0	1	358620,46	-0,200000003	2,26700139	-0,00055587757430060045	-0,200112073608656	0,000453654357	-0,051137603898469798	0,0019080127566915958	0,051137603898469798
1	0	0	1	0	0	1	358850,46	-0,200000003	2,2622776	-0,00055587604679250061	-0,20011152371632819	0,000452707813	-0,063922760789976371	0,0023850441501399693	0,063922760789976371
1	0	0	1	0	0	1	359080,46	-0,200000003	2,25762963	-0,00055588748764081133	-0,20011564233309782	0,000451786997	-0,076708024801849523	0,0028620795403932442	0,076708024801849523
1	0	0	1	0	0	1	359310,47	-0,200000003	2,2528677	-0,00055587793576800166	-0,20011220372742618	0,000450826308	-0,089493220941011315	0,0033391123982244026	0,089493220941011315
1	0	0	1	0	0	1	359540,47	-0,200000003	2,24873424	-0,00055587643300079642	-0,20011166273931939	0,000449997955	-0,10227851624931813	0,0038161489561896966	0,10227851624931813
1	0	0	1	0	0	1	359770,48	-0,200000003	2,24420071	-0,00055587982132865318	-0,20011288252317942	0,000449093466	-0,11506373245746978	0,0042931825628218496	0,11506373245746978
1	0	0	1	0	0	1	360000,48	-0,200000003	2,2397244	-0,00055587407583743341	-0,20011081418616595	0,000448193081	-0,12784895346351382	0,0047702163484698189	0,12784895346351382
1	0	0	1	0	0	1	360230,49	-0,200000003	2,23482895	-0,00055587304732286278	-0,20011044392804976	0,000447212602	-0,14063415688774899	0,0052472494781168602	0,14063415688774899
1	0	0	1	0	0	1	360460,49	-0,200000003	2,22953367	-0,00055587669087118573	-0,20011175558019034	0,0004461559	-0,15341938047217747	0,0057242833599678176	0,15341938047217747
1	0	0	1	0	0	1	360690,50	-0,200000003	2,22360969	-0,00055587544268452461	-0,20011130623232605	0,000444969424	-0,16620461915805363	0,0062013178052740941	0,16620461915805363
1	0	0	1	0	0	1	360920,50	-0,200000003	2,21759033	-0,00055588425743248717	-0,20011447948398624	0,000443771947	-0,17898987126465059	0,0066783527513255091	0,17898987126465059
1	0	0	1	0	0	1	361150,50	-0,200000003	2,21063781	-0,00055587532362673018	-0,20011126337234538	0,000442373537	-0,19177514110476358	0,0071553883590382477	0,19177514110476358
1	0	0	1	0	0	1	361380,51	-0,200000003	2,20324707	-0,00055587929075707987	-0,20011269152109075	0,000440897711	-0,20456029068951309	0,0076324194798616922	0,20456029068951309
1	0	0	1	0	0	1	361610,51	-0,200000003	2,19473243	-0,00055587490581307149	-0,20011111297164256	0,000439190335	-0,21734541599611856	0,0081094496948349376	0,21734541599611856
1	0	0	1	0	0	1	361840,52	-0,200000003	2,18536067	-0,0005558686750597424	-0,20010886994363338	0,000437310053	-0,23013051783822477	0,008586479034316169	0,23013051783822477
1	0	0	1	0	0	1	362070,52	-0,200000003	2,1746366	-0,00055587749104284582	-0,20011204363644144	0,000435170979	-0,24291568472312304	0,0090635108006314227	0,24291568472312304
1	0	0	1	0	0	1	362300,53	-0,200000003	2,16271234	-0,00055587935728662541	-0,20011271546194771	0,000432786241	-0,25570084300380442	0,009540542245911776	0,25570084300380442
1	0	0	1	0	0	1	362530,53	-0,200000003	2,14934063	-0,00055587408633944051	-0,20011081795982707	0,000430106302	-0,26848591425103606	0,010017570443857102	0,26848591425103606
1	0	0	1	0	0	1	362760,54	-0,200000003	2,13452101	-0,00055587711569335731	-0,20011190850390912	0,000427143066	-0,28127107087487062	0,010494601827318272	0,28127107087487062
1	0	0	1	0	0	1	362990,54	-0,200000003	2,11834908	-0,00055588057885236198	-0,20011315522646371	0,000423909514	-0,29405623822450323	0,010971633610973387	0,29405623822450323
1	0	0	1	0	0	1	363220,54	-0,200000003	2,10048175	-0,0005558770721198784	-0,20011189282707699	0,000420331373	-0,30684140581237126	0,011448665403517387	0,30684140581237126
1	0	0	1	0	0	1	363450,55	-0,200000003	2,08080506	-0,0005558745252879129	-0,20011097598522314	0,000416391937	-0,31962655142064237	0,011925696375973077	0,31962655142064237
1	0	0	1	0	0	1	363680,55	-0,200000003	2,05901384	-0,00055587739318857594	-0,20011200840958259	0,000412033405	-0,33241163410625536	0,012402725000699789	0,33241163410625536
1	0	0	1	0	0	1	363910,56	-0,200000003	2,03653693	-0,00055587556146747533	-0,20011134899336496	0,000407534157	-0,34519678931005056	0,012879756331177382	0,34519678931005056
1	0	0	1	0	0	1	364140,56	-0,200000003	2,01564097	-0,00055588176271153818	-0,20011358140057232	0,000403357146	-0,35798202174681178	0,013356790543320778	0,35798202174681178
1	0	0	1	0	0	1	364370,57	-0,200000003	1,99868798	-0,0005558744010064336	-0,20011093123543386	0,000399959303	-0,37076717871067578	0,013833821939468902	0,37076717871067578
1	0	0	1	0	0	1	364600,57	-0,200000003	1,98483992	-0,00055587059644112986	-0,20010956162761456	0,000397185446	-0,38355209868913466	0,014310844493372933	0,38355209868913466
1	0	0	1	0	0	1	364830,58	-0,200000003	1,97423005	-0,00055586656285987962	-0,20010810956632378	0,00039505944	-0,3963370116946944	0,014787866787108723	0,3963370116946944
1	0	0	1	0	0	1	365060,58	-0,200000003	1,96704888	-0,00055587110447966394	-0,20010974451796528	0,00039362564	-0,40912192118839578	0,015264888949812358	0,40912192118839578
1	0	0	1	0	0	1	365290,58	-0,200000003	1,96384883	-0,00055586894616319072	-0,20010896753899558	0,000392983755	-0,42190692707343558	0,015741914709006422	0,42190692707343558
1	0	0	1	0	0	1	365520,59	-0,200000003	1,96297264	-0,00055587925364987718	-0,2001126781534367	0,000392815709	-0,43469207751565254	0,01621894586182313	0,43469207751565254
1	0	0	1	0	0	1	365750,59	-0,200000003	1,96306789	-0,00055588149219999706	-0,20011348401829264	0,000392836344	-0,44747725063899226	0,016695977860903021	0,44747725063899226
1	0	0	1	0	0	1	365980,60	-0,200000003	1,96358216	-0,0005558720933157536	-0,20011010048744422	0,000392932619	-0,46026240573632691	0,017173009187408429	0,46026240573632691
1	0	0	1	0	0	1	366210,60	-0,200000003	1,96413457	-0,00055587260128474899	-0,20011028335742061	0,000393043534	-0,47304739601355098	0,017650034364253907	0,47304739601355098
1	0	0	1	0	0	1	366440,61	-0,200000003	1,96493459	-0,00055587558565785498	-0,20011135771105216	0,00039320573	-0,48583251297194566	0,018127064267744182	0,48583251297194566
1	0	0	1	0	0	1	366670,61	-0,200000003	1,9659251	-0,0005558738028878967	-0,20011071592622474	0,000393402675	-0,49861759487846528	0,018604092863401878	0,49861759487846528
1	0	0	1	0	0	1	366900,62	-0,200000003	1,96670604	-0,00055586792768372422	-0,20010860089344739	0,000393554801	-0,51140258691161222	0,019081118105763194	0,51140258691161222
1	0	0	1	0	0	1	367130,62	-0,200000003	1,96756327	-0,00055586813073770867	-0,20010867398215619	0,000393726485	-0,52418754190324269	0,019558141966055734	0,52418754190324269
1	0	0	1	0	0	1	367360,62	-0,200000003	1,96882045	-0,00055587127605660096	-0,20010980627748467	0,00039398027	-0,53697243707776896	0,02003516359449169	0,53697243707776896
1	0	0	1	0	0	1	367590,63	-0,200000003	1,97040141	-0,00055586922536790368	-0,20010906804609786	0,000394295203	-0,54975742821193728	0,020512188803310912	0,54975742821193728
1	0	0	1	0	0	1	367820,63	-0,200000003	1,97230625	-0,00055587549322595187	-0,20011132443620781	0,000394680828	-0,56254236959406989	0,020989212155814784	0,56254236959406989
1	0	0	1	0	0	1	368050,64	-0,200000003	1,97405863	-0,00055587397969762483	-0,20011077957650125	0,000395030424	-0,57532740008581363	0,021466238833118061	0,57532740008581363
1	0	0	1	0	0	1	368280,64	-0,200000003	1,9759444	-0,00055587700279636525	-0,20011186787109277	0,000395409937	-0,58811251622455283	0,021943268706025891	0,58811251622455283
1	0	0	1	0	0	1	368510,65	-0,200000003	1,97760165	-0,00055587325223452518	-0,20011051769482787	0,000395738898	-0,60089764147352	0,022420298918848576	0,60089764147352
1	0	0	1	0	0	1	368740,65	-0,200000003	1,97939217	-0,00055586893932272998	-0,20010896506715901	0,00039609411	-0,61368262334404122	0,022897323782028669	0,61368262334404122
1	0	0	1	0	0	1	368970,66	-0,200000003	1,98129702	-0,00055586857279390093	-0,20010883312165072	0,000396475021	-0,62646745799839565	0,023374343152375642	0,62646745799839565
1	0	0	1	0	0	1	369200,66	-0,200000003	1,98384941	-0,00055586723774588768	-0,20010835251594957	0,000396984833	-0,63925235602212454	0,023851364887119178	0,63925235602212454
1	0	0	1	0	0	1	369430,66	-0,200000003	1,98596382	-0,00055586953132599584	-0,2001091781842312	0,000397409574	-0,65203725031228749	0,024328386482558352	0,65203725031228749
1	0	0	1	0	0	1	369660,67	-0,200000003	1,98823059	-0,00055586731495128742	-0,20010838031401738	0,000397861615	-0,66482217191230144	0,024805409096964781	0,66482217191230144
1	0	0	1	0	0	1	369890,67	-0,200000003	1,99091637	-0,00055586260959506035	-0,20010668641839142	0,00039839567	-0,67760709305697485	0,02528243169438184	0,67760709305697485
1	0	0	1	0	0	1	370120,68	-0,200000003	1,99358308	-0,00055586957018408512	-0,2001091921821921	0,000398934295	-0,69039209893985562	0,025759457453495357	0,69039209893985562
1	0	0	1	0	0	1	370350,68	-0,200000003	1,99621177	-0,00055586045113205914	-0,20010590937735469	0,000399453769	-0,7031769899387721	0,026236478926133696	0,7031769899387721
1	0	0	1	0	0	1	370580,69	-0,200000003	1,99868798	-0,00055588010687712166	-0,20011298531166003	0,000399963406	-0,71596198667632282	0,026713504344022646	0,71596198667632282
1	0	0	1	0	0	1	370810,69	-0,200000003	2,000669	-0,0005558804409305255	-0,20011310556624029	0,000400360092	-0,72874724942822323	0,027190539687264643	0,72874724942822323
1	0	0	1	0	0	1	371040,70	-0,200000003	2,00278354	-0,00055587808903389504	-0,20011225890907414	0,000400781544	-0,74153248685650189	0,027667574085648266	0,74153248685650189
1	0	0	1	0	0	1	371270,70	-0,200000003	2,00442171	-0,00055588197958634957	-0,20011365948098989	0,000401112164	-0,75431762635659059	0,028144604830199456	0,75431762635659059
1	0	0	1	0	0	1	371500,70	-0,200000003	2,00594544	-0,0005558758558796512	-0,20011145498902576	0,000401412661	-0,76710273655885747	0,02862163448160952	0,76710273655885747
1	0	0	1	0	0	1	371730,71	-0,200000003	2,00750732	-0,0005558809666327305	-0,20011329482470842	0,000401728903	-0,77988783395512922	0,029098663655210688	0,77988783395512922
1	0	0	1	0	0	1	371960,71	-0,200000003	2,00924087	-0,00055588081696463962	-0,20011324093591482	0,000402075704	-0,79267306131331635	0,029575697677865664	0,79267306131331635
1	0	0	1	0	0	1	372190,72	-0,200000003	2,01099324	-0,00055588423022131117	-0,20011446968698672	0,00040242885	-0,80545831207922931	0,030052732573894349	0,80545831207922931
1	0	0	1	0	0	1	372420,72	-0,200000003	2,01289797	-0,00055588059375435117	-0,20011316058641738	0,000402807374	-0,81824356081177766	0,030529767394055469	0,81824356081177766
1	0	0	1	0	0	1	372650,73	-0,200000003	2,01449823	-0,00055587422066678598	-0,20011086631441075	0,000403122976	-0,83102866100524403	0,031006796672023738	0,83102866100524403
1	0	0	1	0	0	1	372880,73	-0,200000003	2,0158124	-0,00055587750408218957	-0,20011204833051485	0,000403388345	-0,84381366841766874	0,031483822488206586	0,84381366841766874
1	0	0	1	0	0	1	373110,73	-0,200000003	2,01733637	-0,0005558730371652377	-0,2001104402713752	0,000403690065	-0,85659873912613632	0,031960850666049901	0,85659873912613632
1	0	0	1	0	0	1	373340,74	-0,200000003	2,01880312	-0,00055587574836032256	-0,20011141628281274	0,000403985556	-0,86938392894988544	0,032437883288244525	0,86938392894988544
1	0	0	1	0	0	1	373570,74	-0,200000003	2,02044106	-0,00055587304095592755	-0,20011044162667907	0,000404311344	-0,88216906627117517	0,032914913951501792	0,88216906627117517
1	0	0	1	0	0	1	373800,75	-0,200000003	2,0214889	-0,00055587390960090688	-0,20011075433518003	0,000404521677	-0,89495423458440691	0,033391945771110093	0,89495423458440691
1	0	0	1	0	0	1	374030,75	-0,200000003	2,02289844	-0,00055586768459197549	-0,20010851337744381	0,000404799212	-0,90773933104670771	0,033868974909863546	0,90773933104670771
1	0	0	1	0	0	1	374260,76	-0,200000003	2,0240984	-0,00055587298037774035	-0,20011041981895155	0,000405043189	-0,9205244309272672	0,034346004176156832	0,9205244309272672
1	0	0	1	0	0	1	374490,76	-0,200000003	2,02526045	-0,00055587870141118771	-0,20011247936065469	0,00040527989	-0,93330954368378944	0,034823033922869594	0,93330954368378944
1	0	0	1	0	0	1	374720,77	-0,200000003	2,02655554	-0,00055587782100670867	-0,2001121624211449	0,00040553842	-0,94609466396444902	0,035300063950318054	0,94609466396444902
1	0	0	1	0	0	1	374950,77	-0,200000003	2,02779388	-0,00055587144570218195	-0,20010986735570656	0,000405781553	-0,95887973378526298	0,035777092095041811	0,95887973378526298
1	0	0	1	0	0	1	375180,77	-0,200000003	2,02903199	-0,00055586504253662298	-0,20010756225117165	0,000406024657	-0,97166469172912934	0,03625411606548624	0,97166469172912934
1	0	0	1	0	0	1	375410,78	-0,200000003	2,03009868	-0,00055586550906548896	-0,20010773020298864	0,000406238425	-0,98444959383327872	0,03673113795247575	0,98444959383327872
1	0	0	1	0	0	1	375640,78	-0,200000003	2,03114629	-0,00055587742494460608	-0,20011201983687418	0,000406456791	-0,99723471572733978	0,037208168040122374	0,99723471572733978
1	0	0	1	0	0	1	375870,79	-0,200000003	2,03257489	-0,00055588010628852589	-0,20011298509744003	0,000406744628	-1,010019849862517	0,037685198584501504	1,010019849862517
1	0	0	1	0	0	1	376100,79	-0,200000003	2,03373694	-0,0005558707637074921	-0,20010962184234554	0,000406970328	-1,0228049319257704	0,038162227186007149	1,0228049319257704
1	0	0	1	0	0	1	376330,80	-0,200000003	2,0349369	-0,00055587902091029619	-0,20011259437811914	0,000407216517	-1,03559002502868	0,038639256199417203	1,03559002502868
1	0	0	1	0	0	1	376560,80	-0,200000003	2,03634644	-0,00055587523560060397	-0,20011123169286829	0,000407495798	-1,048375115956413	0,039116285131668499	1,048375115956413
1	0	0	1	0	0	1	376790,81	-0,200000003	2,0373559	-0,00055587129797869261	-0,20010981416695619	0,000407694897	-1,0611601781642088	0,039593312992340314	1,0611601781642088
1	0	0	1	0	0	1	377020,81	-0,200000003	2,03887987	-0,00055586882902516256	-0,20010892536545834	0,000407998072	-1,0739453155383232	0,040070343657568544	1,0739453155383232
1	0	0	1	0	0	1	377250,81	-0,200000003	2,04019427	-0,00055588241035822368	-0,20011381455121942	0,000408271066	-1,0867304731473002	0,040547375077786707	1,0867304731473002
1	0	0	1	0	0	1	377480,82	-0,200000003	2,04131794	-0,00055588481824927866	-0,20011468137996778	0,000408497697	-1,0995157632559778	0,041024411441746835	1,0995157632559778
1	0	0	1	0	0	1	377710,82	-0,200000003	2,04261327	-0,00055587710373931462	-0,20011190420985485	0,000408751221	-1,112300941096731	0,04150144361683977	1,112300941096731
1	0	0	1	0	0	1	377940,83	-0,200000003	2,04339433	-0,0005558782181185152	-0,20011230537864262	0,000408908352	-1,1250861669451082	0,041978477583161702	1,1250861669451082
1	0	0	1	0	0	1	378170,83	-0,200000003	2,04465151	-0,00055586979541016954	-0,20010927326202131	0,000409153727	-1,1378712869916502	0,042455507601874912	1,1378712869916502
1	0	0	1	0	0	1	378400,84	-0,200000003	2,04531813	-0,00055587498829099866	-0,20011114265380643	0,000409290951	-1,1506564040210421	0,042932537508014189	1,1506564040210421
1	0	0	1	0	0	1	378630,84	-0,200000003	2,04613733	-0,00055587433671371802	-0,20011090809516099	0,000409454398	-1,1634415782331629	0,043409569547717965	1,1634415782331629
1	0	0	1	0	0	1	378860,85	-0,200000003	2,04689908	-0,00055586903671671949	-0,20010900013064966	0,000409602915	-1,1762267170174494	0,043886600265561613	1,1762267170174494
1	0	0	1	0	0	1	379090,85	-0,200000003	2,04760385	-0,0005558795838745104	-0,20011279703201565	0,000409751723	-1,1890118341524418	0,044363630175640992	1,1890118341524418
1	0	0	1	0	0	1	379320,85	-0,200000003	2,04813719	-0,00055586706153055034	-0,20010828908430861	0,000409849221	-1,2017969197800173	0,044840658910136275	1,2017969197800173
1	0	0	1	0	0	1	379550,86	-0,200000003	2,04859447	-0,00055586847394208115	-0,20010879754266938	0,000409941771	-1,2145818911311366	0,045317683380823341	1,2145818911311366
1	0	0	1	0	0	1	379780,86	-0,200000003	2,04893732	-0,00055586902951200813	-0,20010899754399213	0,000410010805	-1,2273668104400522	0,045794705909745811	1,2273668104400522
1	0	0	1	0	0	1	380010,87	-0,200000003	2,04937553	-0,00055586800295114522	-0,2001086279798791	0,000410097738	-1,2401517989774515	0,04627173102167609	1,2401517989774515
1	0	0	1	0	0	1	380240,87	-0,200000003	2,04939437	-0,00055587071350548006	-0,20010960376531011	0,000410103501	-1,2529367376045413	0,046748754271385613	1,2529367376045413
1	0	0	1	0	0	1	380470,88	-0,200000003	2,04962301	-0,00055587043461948634	-0,20010950336595597	0,000410149049	-1,2657217106289795	0,047225778804506451	1,2657217106289795
1	0	0	1	0	0	1	380700,88	-0,200000003	2,04964209	-0,00055587314488242067	-0,20011047903949622	0,000410154869	-1,2785067165803397	0,047702804566175027	1,2785067165803397
1	0	0	1	0	0	1	380930,89	-0,200000003	2,04960394	-0,00055587240532123386	-0,2001102128119135	0,000410146691	-1,2912917581199266	0,048179831655688186	1,2912917581199266
1	0	0	1	0	0	1	381160,89	-0,200000003	2,04956579	-0,00055586964585632083	-0,20010921942367242	0,000410137	-1,3040768225359939	0,048656859598753587	1,3040768225359939
1	0	0	1	0	0	1	381390,89	-0,200000003	2,04952788	-0,00055586839905795123	-0,2001087705849017	0,000410128501	-1,3168618285967843	0,049133885364505146	1,3168618285967843
1	0	0	1	0	0	1	381620,90	-0,200000003	2,04945159	-0,00055587122991763885	-0,20010978966544861	0,000410115317	-1,3296468051315293	0,04961091002860025	1,3296468051315293
1	0	0	1	0	0	1	381850,90	-0,200000003	2,04908967	-0,00055586033674246739	-0,20010586820255354	0,000410034874	-1,3424317660057539	0,050087934108380275	1,3424317660057539
1	0	0	1	0	0	1	382080,91	-0,200000003	2,04867053	-0,00055587203989343501	-0,2001100812534503	0,000409959641	-1,3552167790502528	0,050564960134703392	1,3552167790502528
1	0	0	1	0	0	1	382310,91	-0,200000003	2,04809928	-0,00055587579746213229	-0,20011143394980563	0,000409848086	-1,3680019153539429	0,051041990759992653	1,3680019153539429
1	0	0	1	0	0	1	382540,92	-0,200000003	2,04748964	-0,00055588160221858157	-0,20011352363120915	0,000409730361	-1,380787076941459	0,051519022328655456	1,380787076941459
1	0	0	1	0	0	1	382770,92	-0,200000003	2,04625154	-0,00055587706930769811	-0,20011189181471162	0,000409479253	-1,3935721926718325	0,051996052186326618	1,3935721926718325
1	0	0	1	0	0	1	383000,93	-0,200000003	2,04470873	-0,00055586816544499661	-0,20010868648585738	0,000409163971	-1,4063572749191024	0,052473080794698157	1,4063572749191024
1	0	0	1	0	0	1	383230,93	-0,200000003	2,04286098	-0,00055587362478921811	-0,20011065180261674	0,000408798252	-1,4191422120785288	0,052950103989647187	1,4191422120785288
1	0	0	1	0	0	1	383460,93	-0,200000003	2,04072762	-0,00055587367230819328	-0,2001106689137775	0,000408371357	-1,4319273303161429	0,053427133940866861	1,4319273303161429
1	0	0	1	0	0	1	383690,94	-0,200000003	2,03769875	-0,00055587221461865638	-0,20011014415448365	0,000407764193	-1,4447123977206163	0,053904161995433709	1,4447123977206163
1	0	0	1	0	0	1	383920,94	-0,200000003	2,03440356	-0,00055586533598684608	-0,20010766790053594	0,000407099753	-1,457497403359215	0,054381187745432736	1,457497403359215
1	0	0	1	0	0	1	384150,95	-0,200000003	2,0300796	-0,00055587397621158099	-0,20011077832154963	0,000406240812	-1,4702824272164573	0,054858214175193837	1,4702824272164573
1	0	0	1	0	0	1	384380,95	-0,200000003	2,02526045	-0,00055588052065753274	-0,20011313427672854	0,000405281229	-1,4830675053673875	0,05533524263072544	1,4830675053673875
1	0	0	1	0	0	1	384610,96	-0,200000003	2,01990771	-0,00055587025586101747	-0,20010943902113488	0,000404202612	-1,4958525501294806	0,05581226984047463	1,4958525501294806
1	0	0	1	0	0	1	384840,96	-0,200000003	2,01373625	-0,00055587250010006963	-0,20011024693163741	0,00040296925	-1,508637675807801	0,05628930006931705	1,508637675807801
1	0	0	1	0	0	1	385070,97	-0,200000003	2,00661206	-0,00055587084105528064	-0,20010964968235421	0,000401542435	-1,5214227876293363	0,056766329781144211	1,5214227876293363
1	0	0	1	0	0	1	385300,97	-0,200000003	1,99903095	-0,00055586759653770266	-0,2001084816761864	0,00040002304	-1,5342078065084285	0,05724335602516384	1,5342078065084285
1	0	0	1	0	0	1	385530,97	-0,200000003	1,99007821	-0,00055585956802136371	-0,20010559146362576	0,000398225791	-1,5469926792691914	0,057720376817312154	1,5469926792691914
1	0	0	1	0	0	1	385760,98	-0,200000003	1,98059225	-0,00055585268833653786	-0,20010311483409389	0,000396322692	-1,559777441756487	0,058197393495009139	1,559777441756487
1	0	0	1	0	0	1	385990,98	-0,200000003	1,97000134	-0,00055586582132842803	-0,20010784262014125	0,000394212722	-1,5725622189099344	0,058674410719919949	1,5725622189099344
1	0	0	1	0	0	1	386220,99	-0,200000003	1,95800102	-0,00055585392793764666	-0,20010356108190058	0,000391802983	-1,5853470082436102	0,059151428399291482	1,5853470082436102
1	0	0	1	0	0	1	386450,99	-0,200000003	1,94464815	-0,00055586266580058477	-0,20010670665199059	0,000389137131	-1,5981318284417299	0,059628447230256896	1,5981318284417299
1	0	0	1	0	0	1	386681,00	-0,200000003	1,92992389	-0,00055586701294283078	-0,20010827158840736	0,000386193744	-1,6109167253492976	0,060105468923354944	1,6109167253492976
1	0	0	1	0	0	1	386911,00	-0,200000003	1,91411388	-0,00055585794907063238	-0,20010500865607872	0,000383023784	-1,6237015643763866	0,060582488456854541	1,6237015643763866
1	0	0	1	0	0	1	387141,01	-0,200000003	1,89725614	-0,00055586955339295987	-0,20010918612818528	0,000379658391	-1,6364864098795245	0,061059508231984205	1,6364864098795245
1	0	0	1	0	0	1	387371,01	-0,200000003	1,87942708	-0,000555861509512696	-0,2001062903963656	0,000376085169	-1,6492713110095357	0,061536530082627315	1,6492713110095357
1	0	0	1	0	0	1	387601,01	-0,200000003	1,86055028	-0,00055586031022088397	-0,20010585865962634	0,000372307026	-1,662056142223657	0,062013549324614554	1,662056142223657
1	0	0	1	0	0	1	387831,02	-0,200000003	1,83974957	-0,00055585604399442675	-0,20010432284767366	0,000368141831	-1,6748409848116826	0,062490568990977472	1,6748409848116826
1	0	0	1	0	0	1	388061,02	-0,200000003	1,81346297	-0,00055586288400408301	-0,20010678520373744	0,000362886232	-1,6876258128479258	0,062967588114393818	1,6876258128479258
1	0	0	1	0	0	1	388291,03	-0,200000003	1,78226197	-0,00055585861006461914	-0,20010524660583792	0,000356639968	-1,7004106357329859	0,063444607045612595	1,7004106357329859
1	0	0	1	0	0	1	388521,03	-0,200000003	1,74664187	-0,00055586117018096973	-0,20010616823230781	0,000349513808	-1,7131953689307197	0,063921622630476646	1,7131953689307197
1	0	0	1	0	0	1	388751,04	-0,200000003	1,70330715	-0,00055586522132903334	-0,20010762661520006	0,000340844737	-1,7259802259290029	0,064398642834505651	1,7259802259290029
1	0	0	1	0	0	1	388981,04	-0,200000003	1,65145779	-0,00055586810212582349	-0,20010866369139392	0,000330470997	-1,7387651302301917	0,064875664803469658	1,7387651302301917
1	0	0	1	0	0	1	389211,04	-0,200000003	1,59659886	-0,00055584979648060269	-0,20010207378600246	0,00031948273	-1,751549860822071	0,065352680291105779	1,751549860822071
1	0	0	1	0	0	1	389441,05	-0,200000003	1,5444448	-0,00055586327608260838	-0,20010692634928886	0,000309054099	-1,7643346991441386	0,065829699798300045	1,7643346991441386
1	1	0	0	0	0	2	389652,52	0,200000003	2,09562445	0,00055535879455755155	0,19992531647853027	0,000418968382	-1,7749779885577078	0,066226815236375142	0,00055536945748577517
1	1	0	0	0	0	2	389882,52	0,200000003	2,3112123	0,00055536498661753203	0,19992754559582128	0,000462074997	-1,7622045177287667	0,065750219865633165	0,013328840286427072
1	1	0	0	0	0	2	390112,53	0,200000003	2,31054568	0,0005553578185422553	0,19992496513375334	0,000461935764	-1,7494312424979622	0,065273631792920627	0,02610211551723215
1	1	0	0	0	0	2	390342,53	0,200000003	2,29159284	0,00055535938987135891	0,19992553080017504	0,000458147901	-1,7366578752417155	0,06479704028661513	0,038875482773479462
1	1	0	0	0	0	2	390572,54	0,200000003	2,27543974	0,00055535519745366445	0,19992402155537434	0,000454915076	-1,7238846070242749	0,064320452475580659	0,05164875099091975
1	1	0	0	0	0	2	390802,54	0,200000003	2,26603007	0,00055536409338894816	0,19992722403972262	0,00045304111	-1,7111112941380922	0,063843862997895347	0,064422063877102387
1	1	0	0	0	0	2	391032,55	0,200000003	2,26052499	0,00055535890415310867	0,19992535595079027	0,00045193627	-1,6983379601689834	0,063367272733577728	0,077195397846211136
1	1	0	0	0	0	2	391262,55	0,200000003	2,25770593	0,00055535421234948768	0,19992366693400861	0,000451368862	-1,6855646861882326	0,062890684707506406	0,089968671826961958
1	1	0	0	0	0	2	391492,55	0,200000003	2,2559154	0,00055535333682265542	0,19992335175041782	0,000451010157	-1,6727914818416867	0,062414099279580877	0,10274187617350781
1	1	0	0	0	0	2	391722,56	0,200000003	2,25481057	0,00055536503916150989	0,19992756450197942	0,000450798776	-1,6600181788520064	0,061937510171147379	0,11551517916318856
1	1	0	0	0	0	2	391952,56	0,200000003	2,25456309	0,00055535697200563226	0,19992466038410957	0,000450742751	-1,647244830227728	0,061460919360025677	0,12828852778746683
1	1	0	0	0	0	2	392182,57	0,200000003	2,25458193	0,00055535901239265997	0,19992539490696893	0,000450748194	-1,6344715694043606	0,060984331824874022	0,14106178861083418
1	1	0	0	0	0	2	392412,57	0,200000003	2,25473452	0,00055535721675554906	0,19992474849936525	0,000450777239	-1,6216982553572806	0,060507742303874074	0,15383510265791414
1	1	0	0	0	0	2	392642,58	0,200000003	2,25513434	0,0005553529402116935	0,1999232089732207	0,000450853695	-1,6089249613022202	0,060031153528803264	0,1666083967129745
1	1	0	0	0	0	2	392872,58	0,200000003	2,25559163	0,00055536261268870694	0,19992669099789949	0,000450952968	-1,5961516590899715	0,059554564449376781	0,17938169892522355
1	1	0	0	0	0	2	393102,59	0,200000003	2,25633454	0,0005553641772833136	0,19992725424111267	0,000451102766	-1,5833782137771021	0,059077970030673754	0,1921551442380936
1	1	0	0	0	0	2	393332,59	0,200000003	2,25688696	0,00055535811819136147	0,19992507300069971	0,000451208296	-1,5706049398646672	0,05860138200715136	0,20492841815052838
1	1	0	0	0	0	2	393562,59	0,200000003	2,25776315	0,00055536225059545702	0,19992656063985718	0,000451386819	-1,5578316196610461	0,058124792256442598	0,21770173835414976
1	1	0	0	0	0	2	393792,60	0,200000003	2,25839162	0,00055536223767201107	0,19992655599448842	0,00045151246	-1,5450582949324525	0,057648202336901018	0,23047506308274304
1	1	0	0	0	0	2	394022,60	0,200000003	2,25926781	0,0005553631501023968	0,19992688446310262	0,000451688364	-1,5322849639151034	0,057171612182717523	0,24324839410009235
1	1	0	0	0	0	2	394252,61	0,200000003	2,25989652	0,00055536671549164582	0,1999281679785183	0,000451816974	-1,5195115942404525	0,056695020586178112	0,25602176377474346
1	1	0	0	0	0	2	394482,61	0,200000003	2,26092505	0,00055536396916707354	0,1999271793207088	0,00045202038	-1,5067381685337101	0,056218426899006029	0,26879518948148595
1	1	0	0	0	0	2	394712,62	0,200000003	2,26155376	0,00055536182428399718	0,1999264071776689	0,000452144304	-1,4939648629356477	0,055741837693250298	0,28156849507954778
1	1	0	0	0	0	2	394942,62	0,200000003	2,26273465	0,00055536917918092672	0,19992905488027232	0,00045238639	-1,4811915108597283	0,055265246753343232	0,29434184715546733
1	1	0	0	0	0	2	395172,62	0,200000003	2,26361084	0,00055537614513933664	0,19993156257934176	0,000452567241	-1,4684180695932803	0,054788652485617613	0,30711528842191552
1	1	0	0	0	0	2	395402,63	0,200000003	2,26443005	0,00055536577902734278	0,19992783084855075	0,000452722597	-1,4556445493531546	0,054312055271277901	0,31988880866204122
1	1	0	0	0	0	2	395632,63	0,200000003	2,26528716	0,00055535538384732275	0,19992408866510883	0,000452885462	-1,4428712941595856	0,053835467946181587	0,33266206385561011
1	1	0	0	0	0	2	395862,64	0,200000003	2,26643014	0,0005553530812975433	0,19992325976314864	0,000453112094	-1,4300981742632915	0,053358885669208506	0,34543518375190349
1	1	0	0	0	0	2	396092,64	0,200000003	2,26723003	0,00055535753989881939	0,19992486482870266	0,000453275657	-1,4173250678324635	0,052882303894650067	0,35820829018273126
1	1	0	0	0	0	2	396322,65	0,200000003	2,26822066	0,00055536185915437005	0,19992641973076138	0,000453477231	-1,4045517854641686	0,052405715555628186	0,37098157255102611
1	1	0	0	0	0	2	396552,65	0,200000003	2,26907778	0,0005553587079023321	0,19992528529256147	0,000453646033	-1,3917784853114072	0,051929126553043949	0,38375487270378829
1	1	0	0	0	0	2	396782,66	0,200000003	2,26970625	0,00055536387545780998	0,19992714557904125	0,000453775894	-1,3790052002880562	0,051452538114958355	0,39652815772713907
1	1	0	0	0	0	2	397012,66	0,200000003	2,27088737	0,00055535972402244806	0,19992565109341466	0,000454008637	-1,3662319529159144	0,050975951081690003	0,40930140509928122
1	1	0	0	0	0	2	397242,66	0,200000003	2,27193499	0,00055536114467349325	0,19992616252259827	0,000454219233	-1,3534587421845562	0,050499365415538547	0,42207461583063936
1	1	0	0	0	0	2	397472,67	0,200000003	2,27281117	0,00055536821056405709	0,1999287061942231	0,0004544002	-1,3406852953645021	0,050022770940600422	0,43484806265069331
1	1	0	0	0	0	2	397702,67	0,200000003	2,2738018	0,0005553613823213511	0,19992624807417981	0,000454592664	-1,3279118719512958	0,049546177339003264	0,44762148606389958
1	1	0	0	0	0	2	397932,68	0,200000003	2,27467799	0,00055535866783476538	0,19992527087782477	0,000454765628	-1,3151386154837848	0,049069589966374458	0,46039474253141011
1	1	0	0	0	0	2	398162,68	0,200000003	2,27576375	0,00055536410299523008	0,1999272274886079	0,000454987137	-1,3023653117134894	0,048593000828815168	0,47316804630170547
1	1	0	0	0	0	2	398392,69	0,200000003	2,27694464	0,00055536340356452602	0,19992697570073005	0,000455222646	-1,2895919460873952	0,048116409383332851	0,48594141192779968
1	1	0	0	0	0	2	398622,69	0,200000003	2,27776361	0,00055537085783316032	0,19992965918809546	0,000455392495	-1,2768185012448477	0,047639814982178157	0,49871485677034669
1	1	0	0	0	0	2	398852,70	0,200000003	2,27877331	0,00055536704210109178	0,19992828555565494	0,000455591246	-1,2640449647053206	0,047163217159685869	0,51148839330987386
1	1	0	0	0	0	2	399082,70	0,200000003	2,27972579	0,00055537067577325638	0,19992959365244691	0,000455784641	-1,2512715466391731	0,046686623757594656	0,52426181137602125
1	1	0	0	0	0	2	399312,70	0,200000003	2,28065896	0,00055537369568232032	0,19993068079877702	0,000455973699	-1,2384980648747965	0,046210027978836883	0,53703529314039744
1	1	0	0	0	0	2	399542,71	0,200000003	2,28178287	0,00055537138235486208	0,1999298480169272	0,000456196489	-1,2257245437764558	0,045733430732476026	0,54980881423873709
1	1	0	0	0	0	2	399772,71	0,200000003	2,28286862	0,00055537589320705997	0,19993147188314099	0,00045641727	-1,2129509034972997	0,045256829039318688	0,56258245451789382
1	1	0	0	0	0	2	400002,72	0,200000003	2,28376389	0,00055537954364054733	0,19993278601622038	0,000456599286	-1,2001772101045899	0,04478022536442327	0,57535614791060371
1	1	0	0	0	0	2	400232,72	0,200000003	2,28504014	0,00055536658910910291	0,19992812248633376	0,000456843787	-1,1874037164650866	0,044303629142588544	0,58812964155010688
1	1	0	0	0	0	2	400462,73	0,200000003	2,28622103	0,00055537250226984416	0,19993025117855789	0,000457084738	-1,1746302146554464	0,043827032615915021	0,60090314335974694
1	1	0	0	0	0	2	400692,73	0,200000003	2,28742123	0,00055536224402238918	0,19992655828058054	0,000457316259	-1,1618567559746181	0,043350437698435469	0,61367660204057536
1	1	0	0	0	0	2	400922,74	0,200000003	2,28829741	0,00055538067260964045	0,19993319244425078	0,000457506598	-1,1490831047693906	0,042873835597611731	0,62645025324580288
1	1	0	0	0	0	2	401152,74	0,200000003	2,28904033	0,00055536604227622349	0,19992792562563277	0,000457643095	-1,1363095233503366	0,042397236100603955	0,63922383466485811
1	1	0	0	0	0	2	401382,74	0,200000003	2,29018307	0,00055537276719344986	0,19993034653990982	0,00045787709	-1,1235361040682301	0,04192064265314368	0,65199725394696512
1	1	0	0	0	0	2	401612,75	0,200000003	2,29145932	0,00055537108188950349	0,19992973984449846	0,000458130875	-1,1107625643684182	0,041444044712736915	0,66477079364677722
1	1	0	0	0	0	2	401842,75	0,200000003	2,29235458	0,00055537632945097152	0,19993162893258019	0,0004583142	-1,0979890596507446	0,040967448077560768	0,6775442983644512
1	1	0	0	0	0	2	402072,76	0,200000003	2,29349756	0,0005553841189245383	0,19993443308441542	0,000458549126	-1,0852153827108838	0,040490845016543258	0,69031797530431194
1	1	0	0	0	0	2	402302,76	0,200000003	2,29464054	0,00055536925814714701	0,19992908331687398	0,000458765368	-1,0724416810017998	0,040014241031352723	0,70309167701339622
1	1	0	0	0	0	2	402532,77	0,200000003	2,2959168	0,00055536222173439136	0,19992655025705581	0,000459014729	-1,0596682260487422	0,039537646252961299	0,71586513196645312
1	1	0	0	0	0	2	402762,77	0,200000003	2,29721189	0,00055537109590404557	0,19992974489661882	0,000459281	-1,0468948281907082	0,039061053604861978	0,72863852982448678
1	1	0	0	0	0	2	402992,78	0,200000003	2,29820251	0,00055537014854037101	0,19992940384295299	0,000459478266	-1,0341213669608622	0,038584458592275149	0,7414119910543328
1	1	0	0	0	0	2	403222,78	0,200000003	2,29925013	0,00055536967175288333	0,19992923220508982	0,000459687319	-1,0213478510333267	0,038107861538843974	0,75418550698186842
1	1	0	0	0	0	2	403452,78	0,200000003	2,30029774	0,00055536780870705843	0,19992856152383424	0,000459895207	-1,008574378056397	0,037631266087957651	0,76695897995879821
1	1	0	0	0	0	2	403682,79	0,200000003	2,30149794	0,0005553626157608297	0,19992669209453274	0,000460130861	-0,99580092758449459	0,03715467147676416	0,77973243043070029
1	1	0	0	0	0	2	403912,79	0,200000003	2,30267882	0,00055536539930684698	0,19992769416111405	0,00046036928	-0,98302754054911539	0,036678079232472646	0,79250581746607936
1	1	0	0	0	0	2	404142,80	0,200000003	2,30376458	0,00055535934154689312	0,19992551340952083	0,00046058133	-0,970254096622112	0,036201484865478131	0,80527926139308275
1	1	0	0	0	0	2	404372,80	0,200000003	2,30521226	0,00055536749229911302	0,19992844762382198	0,00046087752	-0,95748065930902554	0,035724890745257754	0,81805269870616922
1	1	0	0	0	0	2	404602,81	0,200000003	2,30646944	0,0005553636454782553	0,19992706278566829	0,000461125659	-0,94470720963775206	0,035248296163936806	0,83082614837744269
1	1	0	0	0	0	2	404832,81	0,200000003	2,30780268	0,00055536445271472134	0,199927353387528	0,00046139289	-0,93193380930791142	0,034771703423611053	0,84359954870728346
1	1	0	0	0	0	2	405062,82	0,200000003	2,3088696	0,00055538195247699821	0,19993365318297299	0,000461620744	-0,91916022133447501	0,034295103682050451	0,85637313668071974
1	1	0	0	0	0	2	405292,82	0,200000003	2,31020284	0,00055535933980759648	0,19992551277407654	0,000461868476	-0,90638684390622323	0,033818511796213773	0,86914651410897165
1	1	0	0	0	0	2	405522,82	0,200000003	2,31136489	0,00055536241141541139	0,19992661854090819	0,000462103373	-0,89361351999614771	0,033341921907212205	0,88191983801904717
1	1	0	0	0	0	2	405752,83	0,200000003	2,3127172	0,0005553668976873159	0,19992823356769664	0,000462377473	-0,88084002590357018	0,032865325668472666	0,8946933321116247
1	1	0	0	0	0	2	405982,83	0,200000003	2,31405067	0,00055536384508758784	0,19992713465295402	0,000462641532	-0,86806653248490931	0,032388729454877875	0,90746682553028557
1	1	0	0	0	0	2	406212,84	0,200000003	2,31515551	0,00055536567886918778	0,19992779479230925	0,000462863944	-0,85529311336352486	0,031912136013414362	0,92024024465167002
1	1	0	0	0	0	2	406442,84	0,200000003	2,31648874	0,00055536965420097107	0,19992922588652304	0,000463133794	-0,84251961080045722	0,031435539458629453	0,93301374721473766
1	1	0	0	0	0	2	406672,85	0,200000003	2,31751728	0,00055538235791275898	0,19993379914634653	0,000463350036	-0,8297458996221728	0,030958935120130323	0,94578745839302208
1	1	0	0	0	0	2	406902,85	0,200000003	2,31841254	0,00055538004420780467	0,19993296621463584	0,000463527103	-0,81697229500056691	0,030482334757404141	0,95856106301462797
1	1	0	0	0	0	2	407132,86	0,200000003	2,31953645	0,00055536660863707462	0,19992812951161338	0,00046374058	-0,80419879006938573	0,030005738114261734	0,97133456794580902
1	1	0	0	0	0	2	407362,86	0,200000003	2,32067943	0,00055536232381562394	0,19992658700559194	0,000463965524	-0,79142536195079834	0,02952914433710048	0,98410799606439642
1	1	0	0	0	0	2	407592,86	0,200000003	2,32159376	0,00055536642472197619	0,19992806330345277	0,000464151759	-0,77865193212859661	0,029052550496375078	0,99688142588659827
1	1	0	0	0	0	2	407822,87	0,200000003	2,32260323	0,0005553605733513833	0,19992595684128928	0,000464348675	-0,76587850210517965	0,02857595664814207	1,0096548559100149
1	1	0	0	0	0	2	408052,87	0,200000003	2,32347941	0,00055535721456176704	0,19992474770496416	0,000464521028	-0,75310531692044109	0,028099371935169344	1,0224280410947534
1	1	0	0	0	0	2	408282,88	0,200000003	2,32450819	0,0005553671889197495	0,19992833840469914	0,000464735058	-0,74033204344686182	0,027622783928021264	1,0352013145683331
1	1	0	0	0	0	2	408512,88	0,200000003	2,32525086	0,00055536661356935904	0,19992813127789187	0,000464883051	-0,72755860234115008	0,027146189666292938	1,0479747556740446
1	1	0	0	0	0	2	408742,89	0,200000003	2,32582235	0,00055536983202315034	0,19992928990825731	0,000465000019	-0,71478514675880883	0,026669594864422099	1,0607482112563858
1	1	0	0	0	0	2	408972,89	0,200000003	2,32647014	0,00055536947387705248	0,19992916097814461	0,000465129211	-0,70201153599386816	0,02619299427247983	1,0735218220213267
1	1	0	0	0	0	2	409202,90	0,200000003	2,32721305	0,00055536603581325875	0,19992792329901027	0,000465274876	-0,68923805020597786	0,025716398343599347	1,0862953078092168
1	1	0	0	0	0	2	409432,90	0,200000003	2,3274796	0,00055536424661924435	0,19992727919225747	0,000465326651	-0,67646467602709632	0,025239806579001037	1,0990686819880981
1	1	0	0	0	0	2	409662,90	0,200000003	2,32774639	0,00055535962186339827	0,19992561431686483	0,000465376128	-0,6636913305072256	0,024763215883708963	1,111842027507969
1	1	0	0	0	0	2	409892,91	0,200000003	2,32808924	0,00055536621914555629	0,19992798929038429	0,000465450197	-0,65091805630034304	0,024286627849200352	1,1246153017148518
1	1	0	0	0	0	2	410122,91	0,200000003	2,32847023	0,0005553688666390048	0,19992894236734685	0,000465528603	-0,63814460143758797	0,02381003307417824	1,1373887565776074
1	1	0	0	0	0	2	410352,92	0,200000003	2,32883215	0,00055535552285528845	0,19992413870701293	0,00046558975	-0,62537123492919782	0,023333441595776275	1,1501621230859976
1	1	0	0	0	0	2	410582,92	0,200000003	2,329175	0,00055535802247209683	0,1999250385517375	0,000465660414	-0,61259795397834688	0,022856853309641136	1,162935404036849
1	1	0	0	0	0	2	410812,93	0,200000003	2,32925105	0,00055536166188783123	0,19992634871617478	0,000465678662	-0,5998246251684329	0,02238026323782001	1,1757087328467624
1	1	0	0	0	0	2	411042,93	0,200000003	2,3292892	0,00055535987618979482	0,19992570586794992	0,000465684774	-0,58705140688877811	0,021903677290031459	1,1884819511264173
1	1	0	0	0	0	2	411272,93	0,200000003	2,3295939	0,00055536224945800166	0,19992656023270851	0,000465747697	-0,57427809893216864	0,021427087996275162	1,2012552590830267
1	1	0	0	0	0	2	411502,94	0,200000003	2,3295939	0,0005553555696929495	0,1999241555612641	0,00046574208	-0,56150481406250688	0,02095049956392392	1,2140285439526883
1	1	0	0	0	0	2	411732,94	0,200000003	2,32980347	0,00055537105439768896	0,19992972994530835	0,000465796969	-0,54873134392479808	0,020473904218972752	1,2268020140903973
1	1	0	0	0	0	2	411962,95	0,200000003	2,32995582	0,00055536651899003322	0,19992809723929987	0,000465823628	-0,53595797081146746	0,019997312494131578	1,2395753872037288
1	1	0	0	0	0	2	412192,95	0,200000003	2,33010817	0,0005553589197438624	0,19992536156335357	0,000465847726	-0,5231846487246009	0,01952072267315639	1,2523487092905952
1	1	0	0	0	0	2	412422,96	0,200000003	2,33039403	0,00055536255068994234	0,19992666867877395	0,000465907913	-0,51041134213482842	0,019044133430398614	1,2651220158803678
1	1	0	0	0	0	2	412652,96	0,200000003	2,3304131	0,00055536082883675898	0,19992604881425357	0,000465910271	-0,4976380321757479	0,01856754406192743	1,2778953258394477
1	1	0	0	0	0	2	412882,97	0,200000003	2,33075595	0,00055537051573395731	0,1999295360347537	0,000465986959	-0,48486466715571034	0,018090952639057904	1,2906686908594853
1	1	0	0	0	0	2	413112,97	0,200000003	2,33096552	0,00055537133785502771	0,19992983199962272	0,000466029538	-0,47209121690126592	0,017614358035978061	1,3034421411139296
1	1	0	0	0	0	2	413342,97	0,200000003	2,33106065	0,00055537111053864166	0,19992975015566221	0,000466048368	-0,45931766181677485	0,01713775952154823	1,3162156961984197
1	1	0	0	0	0	2	413572,98	0,200000003	2,33134651	0,00055536675475454995	0,19992818211289165	0,000466101861	-0,44654415928219072	0,016661162967826083	1,328989198733004
1	1	0	0	0	0	2	413802,98	0,200000003	2,33147979	0,00055536858163360096	0,19992883977668675	0,000466130063	-0,43377071777263923	0,016184568691029955	1,3417626402425554
1	1	0	0	0	0	2	414032,99	0,200000003	2,33168936	0,0005553695359105865	0,19992918330978688	0,000466172758	-0,42099723943923795	0,015707973040286477	1,3545361185759566
1	1	0	0	0	0	2	414262,99	0,200000003	2,33184171	0,00055536916563742694	0,19992905000470627	0,00046620291	-0,40822372257678675	0,015231375951972346	1,3673096354384075
1	1	0	0	0	0	2	414493,00	0,200000003	2,33186078	0,00055537076555937536	0,19992962597017251	0,000466208061	-0,39545012462337523	0,014754775838045459	1,3800832333918189
1	1	0	0	0	0	2	414723,00	0,200000003	2,33180356	0,00055537891735302074	0,19993256055705203	0,000466203463	-0,38267653849373722	0,014278176165279453	1,3928568195214568
1	1	0	0	0	0	2	414953,01	0,200000003	2,33180356	0,00055537824037919443	0,19993231684883965	0,00046620288	-0,36990295112584006	0,013801576446312338	1,4056304068893538
1	1	0	0	0	0	2	415183,01	0,200000003	2,33195591	0,0005553705208682352	0,19992953788771302	0,000466226862	-0,35712934281019104	0,013324975945756434	1,4184040152050026
1	1	0	0	0	0	2	415413,01	0,200000003	2,33227968	0,00055538079394317344	0,1999332361234816	0,000466300233	-0,34435577945709299	0,012848377122813763	1,4311775785581011
1	1	0	0	0	0	2	415643,02	0,200000003	2,33218455	0,00055538020745995974	0,19993302499358998	0,000466280704	-0,3315820116670752	0,012371770672054742	1,4439513463481194
1	1	0	0	0	0	2	415873,02	0,200000003	2,33243203	0,00055538120352145702	0,19993338355951472	0,000466331025	-0,31880815655158208	0,011895160963064832	1,4567252014636122
1	1	0	0	0	0	2	416103,03	0,200000003	2,33256555	0,00055537879098289542	0,19993251506701034	0,000466355705	-0,30603446091373274	0,01141855720440023	1,4694988971014621
1	1	0	0	0	0	2	416333,03	0,200000003	2,33260369	0,00055537597054822573	0,19993149972891581	0,000466360943	-0,29326084495856378	0,010941956418803568	1,4822725130566314
1	1	0	0	0	0	2	416563,04	0,200000003	2,33287024	0,0005553708734942807	0,19992966482133536	0,000466409954	-0,280487249534612	0,010465356399254224	1,495046108480583
1	1	0	0	0	0	2	416793,04	0,200000003	2,33300352	0,00055538077765785984	0,19993323026088157	0,000466444937	-0,2677135338019001	0,0099887518908232806	1,5078198242132947
1	1	0	0	0	0	2	417023,05	0,200000003	2,33338451	0,00055538039612687302	0,19993309291237098	0,000466520782	-0,25493977268780109	0,0095121456891517696	1,5205935853273936
1	1	0	0	0	0	2	417253,05	0,200000003	2,33363223	0,00055538046539243725	0,19993311784749395	0,000466570375	-0,24216603429637437	0,0090355403352937114	1,5333673237188198
1	1	0	0	0	0	2	417483,05	0,200000003	2,33387971	0,00055537640469521286	0,19993165602464048	0,000466616446	-0,22939230419077398	0,0085589352905909747	1,5461410538244205
1	1	0	0	0	0	2	417713,06	0,200000003	2,33420372	0,00055539196640501421	0,19993725812764579	0,000466694299	-0,21661843400561562	0,0080823250193315917	1,5589149240095786
1	1	0	0	0	0	2	417943,06	0,200000003	2,33447027	0,00055540608255151245	0,1999423398402095	0,000466759462	-0,20384426379755555	0,0076057035538143603	1,5716890942176378
1	1	0	0	0	0	2	418173,07	0,200000003	2,33490849	0,00055540765208171475	0,1999429048578753	0,000466848374	-0,19106983685093293	0,0071290725090361715	1,5844635211642602
1	1	0	0	0	0	2	418403,07	0,200000003	2,33538461	0,00055540770629793402	0,19994292438464883	0,000466943631	-0,17829542004279379	0,0066524418425384333	1,5972379379723994
1	1	0	0	0	0	2	418633,08	0,200000003	2,33582282	0,00055540024738510445	0,19994023922773264	0,000467024976	-0,16552114324384774	0,0061758163999719334	1,6100122147713459
1	1	0	0	0	0	2	418863,08	0,200000003	2,33637524	0,00055540778289735315	0,19994295195990874	0,00046714177	-0,15274681405196595	0,0056991890025545587	1,6227865439632275
1	1	0	0	0	0	2	419093,09	0,200000003	2,33658457	0,00055540900028414195	0,19994339021071424	0,00046718464	-0,13997236355923456	0,0052225570792393926	1,6355609944559594
1	1	0	0	0	0	2	419323,09	0,200000003	2,33711791	0,00055541793250623674	0,19994660574409821	0,000467298785	-0,12719791343743445	0,0047459251697641722	1,648335444577759
1	1	0	0	0	0	2	419553,09	0,200000003	2,33736563	0,00055540880607648026	0,19994332029962982	0,000467340637	-0,11442360237844296	0,0042692984489093139	1,6611097556367504
1	1	0	0	0	0	2	419783,10	0,200000003	2,33786082	0,00055540838677767245	0,19994316934332742	0,000467439299	-0,10164928866403805	0,0037926716289774106	1,6738840693511555
1	1	0	0	0	0	2	420013,10	0,200000003	2,33847046	0,00055540815178636045	0,1999430847573944	0,000467561011	-0,088874832055987686	0,0033160394774914726	1,6866585259592058
1	1	0	0	0	0	2	420243,11	0,200000003	2,33883238	0,000555404647136728	0,19994182310781965	0,000467630423	-0,076100446272168819	0,0028394099685528358	1,699432911743025
1	1	0	0	0	0	2	420473,11	0,200000003	2,33936572	0,00055538026338650118	0,19993304512675718	0,000467716513	-0,063326466436585715	0,0023627956060886787	1,712206891578608
1	1	0	0	0	0	2	420703,12	0,200000003	2,34003234	0,00055537355268332691	0,19993062932013059	0,000467844133	-0,050552788381878803	0,0018861925034747613	1,7249805696333149
1	1	0	0	0	0	2	420933,12	0,200000003	2,34048963	0,00055537072424507802	0,19992961109265696	0,000467933191	-0,037779229295784506	0,0014095938397397354	1,7377541287194096
1	1	0	0	0	0	2	421163,13	0,200000003	2,34096575	0,0005553739235781961	0,19993076283273024	0,000468031067	-0,02500568366070599	0,00093299567788019315	1,7505276743544883
1	1	0	0	0	0	2	421393,13	0,200000003	2,34153724	0,00055537511089692518	0,1999311902569152	0,000468146318	-0,01223208083566455	0,00045639538218624154	1,7633012771795296
1	1	0	0	0	0	2	421623,13	0,200000003	2,34203243	0,00055536857355137664	0,19992883686714202	0,000468239828	0,000541457228862464	-2,0202497205845347E-005	1,7760748152440563
1	1	0	0	0	0	2	421853,14	0,200000003	2,34281349	0,00055536344591362611	0,19992699095309478	0,000468391663	0,013314814442901862	-0,00049679362882308314	1,7888481724580957
1	1	0	0	0	0	2	422083,14	0,200000003	2,34353733	0,00055536514515015808	0,19992760266646778	0,000468537793	0,026088233658745773	-0,00097338707381100966	1,8016215916739395
1	1	0	0	0	0	2	422313,15	0,200000003	2,34418488	0,00055536939552260774	0,19992913277108762	0,000468670856	0,038861681271458554	-0,0014499815783242938	1,8143950392866522
1	1	0	0	0	0	2	422543,15	0,200000003	2,34460402	0,00055536161996341414	0,19992633361436566	0,000468748098	0,051635156637557542	-0,0019265771183537322	1,827168514652751
1	1	0	0	0	0	2	422773,16	0,200000003	2,34546113	0,00055535601525339814	0,1999243159552824	0,000468914717	0,064408531988590003	-0,0024031689266865667	1,839941890003783
1	1	0	0	0	0	2	423003,16	0,200000003	2,34629917	0,00055537006280488435	0,1999293729787721	0,000469094113	0,077182019900206746	-0,0028797649348061398	1,8527153779153994
1	1	0	0	0	0	2	423233,17	0,200000003	2,3469851	0,00055536438148054816	0,19992732775070166	0,000469226448	0,089955512183807642	-0,00335636110605032	1,8654888701989997
1	1	0	0	0	0	2	423463,17	0,200000003	2,34761357	0,00055535355496240986	0,19992343027921734	0,000469342951	0,1027289141952104	-0,0038329539091174157	1,8782622722104026
1	1	0	0	0	0	2	423693,17	0,200000003	2,34808969	0,00055535457603550618	0,1999237978584543	0,000469439023	0,11550227025299587	-0,004309544997593264	1,8910356282681882
1	1	0	0	0	0	2	423923,18	0,200000003	2,34900403	0,00055535804856485792	0,19992504794495066	0,000469624734	0,12827556530883813	-0,0047861338100045952	1,9038089233240304
1	1	0	0	0	0	2	424153,18	0,200000003	2,34976602	0,0005553601857158873	0,19992581729519766	0,000469778897	0,14104892761333526	-0,005262725131553655	1,9165822856285274
1	1	0	0	0	0	2	424383,19	0,200000003	2,35073757	0,00055536075749331046	0,19992602313343405	0,000469973602	0,15382227717550419	-0,0057393159776693178	1,9293556351906966
1	1	0	0	0	0	2	424613,19	0,200000003	2,3513279	0,00055536661987255014	0,19992813354699699	0,000470096595	0,16659569875175741	-0,0062159095107272883	1,9421290567669504
1	1	0	0	0	0	2	424843,20	0,200000003	2,35193753	0,00055536312924904954	0,19992687695604218	0,000470215513	0,17936910894395238	-0,0066925026190307405	1,9549024669591456
1	1	0	0	0	0	2	425073,20	0,200000003	2,35262322	0,00055535937721199469	0,19992552624871018	0,000470349449	0,19214235974732374	-0,0071690897803228838	1,9676757177625178
1	1	0	0	0	0	2	425303,21	0,200000003	2,35355663	0,00055536470088942182	0,19992744273568221	0,000470540544	0,20491571382173405	-0,0076456807947963379	1,9804490718369274
1	1	0	0	0	0	2	425533,21	0,200000003	2,35458517	0,00055536321004231763	0,19992690604105866	0,000470744941	0,2176890625790913	-0,0081222716108833958	1,9932224205942845
1	1	0	0	0	0	2	425642,49	0,200000003	2,35473752	0,00051538106505821152	0,19992814989433709	0,000470778323	0,22375808198676765	-0,0083487148848671782	1,999291440001961