File: Experimentelles/Rohdaten/Batteriemessungen/AlteZelle/Studenten_Batterietests/S vs Li GCPL 300µm/ZView-Export/S vs Li GCPL 300µm_02_GCPL_C06_loop6.txt
EC-Lab ASCII FILE
Nb header lines : 3
mode	ox/red	error	control changes	Ns changes	counter inc.	Ns	time/s	control/V/mA	Ewe/V	dq/mA.h	<I>/mA	P/W	(Q-Qo)/mA.h	x	Capacity/mA.h
1	0	0	1	1	0	1	425642,54	-0,200000003	2,33549881	0	0	0	0	0	0
1	0	0	1	0	0	1	425872,55	-0,200000003	2,28824019	-0,00055586228631436819	-0,20010657003958314	0,000457891903	-0,012782059360080976	0,0004769158203862089	0,012782059360080976
1	0	0	1	0	0	1	426102,55	-0,200000003	2,28073525	-0,00055586400655077555	-0,20010718931276573	0,000456391514	-0,025567008874734093	0,00095393947632535846	0,025567008874734093
1	0	0	1	0	0	1	426332,56	-0,200000003	2,27511597	-0,00055587198160505958	-0,20011006027702781	0,000455273606	-0,038352088183125549	0,0014309679750433954	0,038352088183125549
1	0	0	1	0	0	1	426562,56	-0,200000003	2,26957297	-0,00055586738852245933	-0,20010840679447027	0,000454160618	-0,051137104183033798	0,0019079941116368042	0,051137104183033798
1	0	0	1	0	0	1	426792,56	-0,200000003	2,26496339	-0,00055587710172351872	-0,20011190347952317	0,000453246146	-0,063922185831080576	0,0023850226976505264	0,063922185831080576
1	0	0	1	0	0	1	427022,57	-0,200000003	2,26031566	-0,00055587344632463322	-0,20011058755660323	0,000452313107	-0,076707391737138074	0,0028620559198976954	0,076707391737138074
1	0	0	1	0	0	1	427252,57	-0,200000003	2,2559917	-0,0005558708151322272	-0,2001096403548937	0,000451445696	-0,089492454128365376	0,0033390837874135917	0,089492454128365376
1	0	0	1	0	0	1	427482,58	-0,200000003	2,25126767	-0,00055586658478942189	-0,20010811746080698	0,00045049694	-0,10227747579973757	0,0038161101356169459	0,10227747579973757
1	0	0	1	0	0	1	427712,58	-0,200000003	2,24700093	-0,00055587671539932493	-0,2001117644101504	0,000449651328	-0,11506250397522902	0,0042931367264977344	0,11506250397522902
1	0	0	1	0	0	1	427942,59	-0,200000003	2,24269605	-0,00055587784322351213	-0,20011217040972189	0,000448790786	-0,12784750400859934	0,0047701622673581466	0,12784750400859934
1	0	0	1	0	0	1	428172,59	-0,200000003	2,23846722	-0,00055587332336604602	-0,2001105432970232	0,000447940896	-0,14063275677387821	0,0052471972379858675	0,14063275677387821
1	0	0	1	0	0	1	428402,60	-0,200000003	2,23387671	-0,00055587325962136186	-0,20011052034704928	0,000447022234	-0,15341795210484576	0,0057242300656622131	0,15341795210484576
1	0	0	1	0	0	1	428632,60	-0,200000003	2,22892404	-0,00055587602701369254	-0,20011151658677616	0,000446033373	-0,16620307466009094	0,0062012601779785075	0,16620307466009094
1	0	0	1	0	0	1	428862,60	-0,200000003	2,22349524	-0,00055586740393688288	-0,20010841234821491	0,000444940117	-0,17898819111708058	0,0066782900627606886	0,17898819111708058
1	0	0	1	0	0	1	429092,61	-0,200000003	2,21802855	-0,00055588081886619328	-0,2001132416297793	0,000443856872	-0,19177333873765174	0,0071553211102979968	0,19177333873765174
1	0	0	1	0	0	1	429322,61	-0,200000003	2,21157122	-0,0005558909287758999	-0,20011688112719549	0,000442572724	-0,20455872301820176	0,0076323609879373094	0,20455872301820176
1	0	0	1	0	0	1	429552,62	-0,200000003	2,20482802	-0,00055588061023420762	-0,20011316651439229	0,000441215117	-0,21734402611997398	0,0081093978366872755	0,21734402611997398
1	0	0	1	0	0	1	429782,62	-0,200000003	2,19732308	-0,00055588177740822234	-0,20011358669360634	0,000439714204	-0,23012932934045059	0,0085864346898662618	0,23012932934045059
1	0	0	1	0	0	1	430012,63	-0,200000003	2,1884656	-0,00055588664085500774	-0,20011533749840778	0,000437945535	-0,24291457914380832	0,0090634695499807232	0,24291457914380832
1	0	0	1	0	0	1	430242,63	-0,200000003	2,17884636	-0,00055588014487177126	-0,20011299898714096	0,000436015485	-0,25569981501513485	0,0095405038902723686	0,25569981501513485
1	0	0	1	0	0	1	430472,64	-0,200000003	2,16772199	-0,00055588556746972928	-0,20011495109413667	0,000433793582	-0,26848506545251216	0,010017538774042954	0,26848506545251216
1	0	0	1	0	0	1	430702,64	-0,200000003	2,15497875	-0,00055588580973943078	-0,20011503830954989	0,00043124365	-0,28127042288434957	0,010494577649920699	0,28127042288434957
1	0	0	1	0	0	1	430932,64	-0,200000003	2,14010215	-0,00055588155411680544	-0,20011350631490317	0,000428263331	-0,29405579359730541	0,010971617021334829	0,29405579359730541
1	0	0	1	0	0	1	431162,65	-0,200000003	2,1233778	-0,00055588810354222854	-0,20011586405333885	0,000424921571	-0,30684118578381043	0,011448657193955952	0,30684118578381043
1	0	0	1	0	0	1	431392,65	-0,200000003	2,10404396	-0,00055588783392310138	-0,20011576699698118	0,000421052362	-0,31962654774313696	0,011925696238760406	0,31962654774313696
1	0	0	1	0	0	1	431622,66	-0,200000003	2,0821383	-0,00055588345052798586	-0,20011418900395894	0,000416665425	-0,33241199263149024	0,012402738377758346	0,33241199263149024
1	0	0	1	0	0	1	431852,66	-0,200000003	2,05707097	-0,00055588410806076397	-0,20011442570770688	0,000411649584	-0,34519744625632653	0,012879780842726213	0,34519744625632653
1	0	0	1	0	0	1	432082,67	-0,200000003	2,03015566	-0,00055589280777010656	-0,20011755755208538	0,000406269799	-0,35798291679687418	0,013356823938842013	0,35798291679687418
1	0	0	1	0	0	1	432312,67	-0,200000003	2,0040977	-0,00055588101172695558	-0,2001133110583169	0,000401046622	-0,37076839909572346	0,013833867473675858	0,37076839909572346
1	0	0	1	0	0	1	432542,68	-0,200000003	1,98240173	-0,00055588306446125107	-0,20011405002843446	0,000396706426	-0,3835536222028329	0,014310901337717402	0,3835536222028329
1	0	0	1	0	0	1	432772,68	-0,200000003	1,96541071	-0,00055587994148168301	-0,20011292577743728	0,000393304101	-0,39633888009225011	0,014787936499533613	0,39633888009225011
1	0	0	1	0	0	1	433002,68	-0,200000003	1,9527818	-0,0005558814162322217	-0,20011345667274963	0,000390777917	-0,40912415639486099	0,015264972348370838	0,40912415639486099
1	0	0	1	0	0	1	433232,69	-0,200000003	1,94459105	-0,00055588329439113536	-0,20011413279693984	0,000389140157	-0,42190946560523245	0,015742009425040858	0,42190946560523245
1	0	0	1	0	0	1	433462,69	-0,200000003	1,94013381	-0,00055588128524439194	-0,20011340951337971	0,000388246786	-0,43469475789719002	0,016219045870462102	0,43469475789719002
1	0	0	1	0	0	1	433692,70	-0,200000003	1,93847656	-0,00055587425127542682	-0,20011087734262749	0,000387910259	-0,44747993303328096	0,016696077944640454	0,44747993303328096
1	0	0	1	0	0	1	433922,70	-0,200000003	1,93819082	-0,00055588050642940736	-0,20011312915470205	0,000387857435	-0,46026508882175392	0,017173109296933158	0,46026508882175392
1	0	0	1	0	0	1	434152,71	-0,200000003	1,93828607	-0,00055587474975569389	-0,20011105679206835	0,000387872482	-0,47305022396472755	0,017650139878914525	0,47305022396472755
1	0	0	1	0	0	1	434382,71	-0,200000003	1,93891466	-0,00055588415049347616	-0,20011444099250749	0,000388004817	-0,4858354309017616	0,018127173139628816	0,4858354309017616
1	0	0	1	0	0	1	434612,71	-0,200000003	1,93994331	-0,00055588154898252755	-0,20011350446193955	0,000388208864	-0,49862075129608474	0,018604210633587107	0,49862075129608474
1	0	0	1	0	0	1	434842,72	-0,200000003	1,94053376	-0,00055588526817162822	-0,20011484334190614	0,000388329616	-0,51140614618802048	0,019081250907151488	0,51140614618802048
1	0	0	1	0	0	1	435072,72	-0,200000003	1,94144809	-0,00055588186588303917	-0,20011361853926794	0,000388510205	-0,52419140214756518	0,019558285996961562	0,52419140214756518
1	0	0	1	0	0	1	435302,73	-0,200000003	1,942191	-0,00055588450174116422	-0,20011456743924051	0,000388660701	-0,53697673089444864	0,02003532380256511	0,53697673089444864
1	0	0	1	0	0	1	435532,73	-0,200000003	1,94270527	-0,00055588298796365658	-0,20011402248983069	0,000388762564	-0,54976210348427456	0,020512363244007786	0,54976210348427456
1	0	0	1	0	0	1	435762,74	-0,200000003	1,94354343	-0,00055588221891141606	-0,20011374563635488	0,000388929766	-0,56254744710761997	0,020989401604672125	0,56254744710761997
1	0	0	1	0	0	1	435992,74	-0,200000003	1,94468629	-0,00055587972295615405	-0,20011284710976163	0,000389156718	-0,57533262775131302	0,021466433884346512	0,57533262775131302
1	0	0	1	0	0	1	436222,75	-0,200000003	1,94603872	-0,00055587882119086054	-0,20011252247118835	0,000389426714	-0,58811784935200435	0,021943467692181574	0,58811784935200435
1	0	0	1	0	0	1	436452,75	-0,200000003	1,94727683	-0,00055588149473485011	-0,20011348493082214	0,000389676366	-0,60090309035023091	0,022420502223764752	0,60090309035023091
1	0	0	1	0	0	1	436682,75	-0,200000003	1,94826734	-0,00055588564732422426	-0,20011497983188294	0,000389877474	-0,61368844745439168	0,022897541087416442	0,61368844745439168
1	0	0	1	0	0	1	436912,76	-0,200000003	1,94944835	-0,00055587643033100493	-0,20011166178753123	0,000390107336	-0,62647368641694938	0,02337457554304608	0,62647368641694938
1	0	0	1	0	0	1	437142,76	-0,200000003	1,95059121	-0,00055587554493546483	-0,20011134305127405	0,000390335423	-0,6392588584414089	0,023851607501125274	0,6392588584414089
1	0	0	1	0	0	1	437372,77	-0,200000003	1,95182943	-0,0005558676382584704	-0,20010849670236221	0,000390577654	-0,65204396340640102	0,024328636957125578	0,65204396340640102
1	0	0	1	0	0	1	437602,77	-0,200000003	1,95371521	-0,00055587367971075904	-0,20011067158330899	0,000390959263	-0,66482905138874022	0,024805665779480266	0,66482905138874022
1	0	0	1	0	0	1	437832,78	-0,200000003	1,95565808	-0,0005558763068781959	-0,20011161733605741	0,000391349895	-0,67761419032525235	0,025282696503003658	0,67761419032525235
1	0	0	1	0	0	1	438062,78	-0,200000003	1,95796287	-0,00055587648547606336	-0,20011168163238131	0,000391811249	-0,69039932288676774	0,025759726988667347	0,69039932288676774
1	0	0	1	0	0	1	438292,79	-0,200000003	1,96083915	-0,00055588583825031917	-0,20011504856395366	0,000392393413	-0,70318457633795776	0,026236761984887331	0,70318457633795776
1	0	0	1	0	0	1	438522,79	-0,200000003	1,96365833	-0,00055587933159536781	-0,20011270622259133	0,000392952992	-0,71596986449642202	0,026713798276082387	0,71596986449642202
1	0	0	1	0	0	1	438752,79	-0,200000003	1,96664894	-0,00055587900609605843	-0,20011258904509622	0,000393551221	-0,7287551065358368	0,027190832846513696	0,7287551065358368
1	0	0	1	0	0	1	438982,80	-0,200000003	1,96963942	-0,00055588575794878931	-0,20011501966527795	0,000394154427	-0,74154048743359117	0,027667872597936355	0,74154048743359117
1	0	0	1	0	0	1	439212,80	-0,200000003	1,97278237	-0,00055588297741032307	-0,20011401869070378	0,000394781411	-0,75432579650219392	0,028144909669316794	0,75432579650219392
1	0	0	1	0	0	1	439442,81	-0,200000003	1,9760778	-0,00055588798935049107	-0,2001158229451049	0,000395444426	-0,76711127169591488	0,028621952939048749	0,76711127169591488
1	0	0	1	0	0	1	439672,81	-0,200000003	1,97882068	-0,00055588532688799834	-0,20011486448172195	0,000395991432	-0,77989668131877107	0,029098993762243578	0,77989668131877107
1	0	0	1	0	0	1	439902,82	-0,200000003	1,98171604	-0,00055588778899610035	-0,20011575081891302	0,000396572606	-0,79268202573704422	0,029576032152567744	0,79268202573704422
1	0	0	1	0	0	1	440132,82	-0,200000003	1,98459232	-0,00055588711824682022	-0,20011550936314	0,000397147698	-0,80546732963187354	0,030053069030907731	0,80546732963187354
1	0	0	1	0	0	1	440362,83	-0,200000003	1,98699236	-0,00055588828764524717	-0,20011593033846787	0,000397628814	-0,81825274469243008	0,030530110056990477	0,81825274469243008
1	0	0	1	0	0	1	440592,83	-0,200000003	1,98964012	-0,00055587807159125798	-0,2001122526298457	0,000398151373	-0,83103807255216269	0,031007147829493229	0,83103807255216269
1	0	0	1	0	0	1	440822,83	-0,200000003	1,99171638	-0,00055588667663766278	-0,20011535038690438	0,000398573029	-0,84382332301655245	0,031484182714271693	0,84382332301655245
1	0	0	1	0	0	1	441052,84	-0,200000003	1,9936974	-0,00055589584080874925	-0,20011864941565427	0,00039897603	-0,85660881709987251	0,031961226688799981	0,85660881709987251
1	0	0	1	0	0	1	441282,84	-0,200000003	1,9955641	-0,00055588910400784678	-0,20011622421635616	0,000399344746	-0,8693943067271625	0,032438270497067802	0,8693943067271625
1	0	0	1	0	0	1	441512,85	-0,200000003	1,99716413	-0,0005558845334425568	-0,20011457884220371	0,000399661658	-0,88217957918877402	0,032915306202592173	0,88217957918877402
1	0	0	1	0	0	1	441742,85	-0,200000003	1,99866903	-0,00055589127988616634	-0,20011700752445763	0,000399967656	-0,89496513054208474	0,033392352313940819	0,89496513054208474
1	0	0	1	0	0	1	441972,86	-0,200000003	1,99988806	-0,00055589275700516166	-0,20011753927705712	0,000400212681	-0,90775067352581811	0,03386939811300928	0,90775067352581811
1	0	0	1	0	0	1	442202,86	-0,200000003	2,00105	-0,00055589245703733626	-0,20011743129071923	0,000400444987	-0,92053624959772774	0,034346445146642086	0,92053624959772774
1	0	0	1	0	0	1	442432,87	-0,200000003	2,00190735	-0,00055589233988854624	-0,20011738911796688	0,000400616467	-0,93332180382978931	0,0348234913654008	0,93332180382978931
1	0	0	1	0	0	1	442662,87	-0,200000003	2,00291681	-0,00055588998242964346	-0,20011654043978442	0,000400816789	-0,94610733197826419	0,035300536610945818	0,94610733197826419
1	0	0	1	0	0	1	442892,87	-0,200000003	2,0040977	-0,00055588702221794266	-0,2001154747864209	0,000401050958	-0,95889278419478835	0,035777579023367667	0,95889278419478835
1	0	0	1	0	0	1	443122,88	-0,200000003	2,00505018	-0,00055587872459159962	-0,20011248770078317	0,000401235593	-0,97167809043924454	0,036254615989375398	0,97167809043924454
1	0	0	1	0	0	1	443352,88	-0,200000003	2,00594544	-0,00055588826864709453	-0,20011592349926458	0,000401421625	-0,98446339253147994	0,036731652800458189	0,98446339253147994
1	0	0	1	0	0	1	443582,89	-0,200000003	2,00687885	-0,00055588814260479488	-0,2001158781249104	0,000401608326	-0,99724882127345165	0,037208694337012915	0,99724882127345165
1	0	0	1	0	0	1	443812,89	-0,200000003	2,00783134	-0,0005558807478596768	-0,20011321606792554	0,000401793572	-1,010034219943428	0,037685734751541075	1,010034219943428
1	0	0	1	0	0	1	444042,90	-0,200000003	2,00866938	-0,00055588704996224909	-0,20011548478116771	0,000401965837	-1,0228195995288563	0,038162774453999085	1,0228195995288563
1	0	0	1	0	0	1	444272,90	-0,200000003	2,00985026	-0,0005558835738292999	-0,20011423338808291	0,000402199657	-1,0356050545551158	0,038639816971255936	1,0356050545551158
1	0	0	1	0	0	1	444502,91	-0,200000003	2,01105046	-0,00055589231377922816	-0,20011737971180445	0,000402446138	-1,0483905267724147	0,039116860129933581	1,0483905267724147
1	0	0	1	0	0	1	444732,91	-0,200000003	2,01245999	-0,00055588909615327917	-0,20011622139109587	0,000402725884	-1,0611759715661022	0,039593902265399411	1,0611759715661022
1	0	0	1	0	0	1	444962,91	-0,200000003	2,01385045	-0,000555891438882384	-0,20011706475267539	0,000403005834	-1,0739615305453248	0,040070948661281082	1,0739615305453248
1	0	0	1	0	0	1	445192,92	-0,200000003	2,01508856	-0,00055588577754298842	-0,20011502671905382	0,000403249491	-1,0867468944875371	0,04054798778006967	1,0867468944875371
1	0	0	1	0	0	1	445422,92	-0,200000003	2,01632667	-0,00055588443766699898	-0,20011454437298515	0,000403496291	-1,0995322795897074	0,041025027688364736	1,0995322795897074
1	0	0	1	0	0	1	445652,93	-0,200000003	2,01771736	-0,00055589231737289165	-0,20011738101248723	0,000403780316	-1,1123177401366296	0,041502070411604941	1,1123177401366296
1	0	0	1	0	0	1	445882,93	-0,200000003	2,01897454	-0,00055589093258066304	-0,20011688248756538	0,0004040309	-1,1251032357527451	0,041979114443323891	1,1251032357527451
1	0	0	1	0	0	1	446112,94	-0,200000003	2,0204792	-0,00055588567969285786	-0,20011499148669626	0,000404328166	-1,1378885177636534	0,042456150505145376	1,1378885177636534
1	0	0	1	0	0	1	446342,94	-0,200000003	2,02190781	-0,00055588479496373069	-0,2001146729926727	0,000404613413	-1,1506739416959544	0,042933191862244819	1,1506739416959544
1	0	0	1	0	0	1	446572,95	-0,200000003	2,02316499	-0,0005558833055032624	-0,20011413679256938	0,000404863909	-1,1634592157331394	0,043410227626555962	1,1634592157331394
1	0	0	1	0	0	1	446802,95	-0,200000003	2,02459359	-0,0005558828261221449	-0,20011396422800832	0,000405149447	-1,1762445055017282	0,043887263977826925	1,1762445055017282
1	0	0	1	0	0	1	447032,95	-0,200000003	2,02550793	-0,00055587933100925549	-0,20011270601159498	0,000405329862	-1,1890297875439694	0,044364300040817478	1,1890297875439694
1	0	0	1	0	0	1	447262,96	-0,200000003	2,02686048	-0,00055588746669971277	-0,20011563480376595	0,000405606464	-1,2018151864164616	0,044841340462901773	1,2018151864164616
1	0	0	1	0	0	1	447492,96	-0,200000003	2,02825093	-0,00055588398315757504	-0,20011438074342467	0,000405882165	-1,2146005903324798	0,045318381073166803	1,2146005903324798
1	0	0	1	0	0	1	447722,97	-0,200000003	2,02918434	-0,00055587832756009363	-0,20011234476986352	0,00040606485	-1,2273859365723267	0,045795419531456333	1,2273859365723267
1	0	0	1	0	0	1	447952,97	-0,200000003	2,0303843	-0,0005558817960404688	-0,20011359340108589	0,000406307488	-1,240171212492007	0,046272455366005901	1,240171212492007
1	0	0	1	0	0	1	448182,98	-0,200000003	2,03124142	-0,00055588627859950067	-0,20011520708660666	0,000406482286	-1,2529564795865286	0,046749490871276934	1,2529564795865286
1	0	0	1	0	0	1	448412,98	-0,200000003	2,03228927	-0,00055587978765865165	-0,20011287040221222	0,000406687235	-1,2657417902023611	0,047226528000386598	1,2657417902023611
1	0	0	1	0	0	1	448642,99	-0,200000003	2,03276539	-0,00055588367948846688	-0,20011427143396899	0,000406785373	-1,2785271111335426	0,047703565514375789	1,2785271111335426
1	0	0	1	0	0	1	448872,99	-0,200000003	2,03360343	-0,00055587821083515891	-0,20011230275668483	0,000406949053	-1,291312428178287	0,0481806028833568	1,291312428178287
1	0	0	1	0	0	1	449102,99	-0,200000003	2,03390837	-0,00055587957330296435	-0,20011279322633235	0,000407011074	-1,3040976762779558	0,048657637679904339	1,3040976762779558
1	0	0	1	0	0	1	449333,00	-0,200000003	2,03436542	-0,00055586849833279846	-0,20010880631616998	0,000407094427	-1,3168827534518722	0,049134666098982234	1,3168827534518722
1	0	0	1	0	0	1	449563,00	-0,200000003	2,03438449	-0,00055587189860476397	-0,20011003039283763	0,000407100742	-1,3296677699892374	0,049611692255628883	1,3296677699892374
1	0	0	1	0	0	1	449793,01	-0,200000003	2,03468919	-0,00055587643638004858	-0,20011166395582675	0,000407165033	-1,3424528657191645	0,050088721367056499	1,3424528657191645
1	0	0	1	0	0	1	450023,01	-0,200000003	2,03455591	-0,00055587441296627123	-0,20011093555021069	0,000407136889	-1,3552380388471395	0,050565753366309338	1,3552380388471395
1	0	0	1	0	0	1	450253,02	-0,200000003	2,03444171	-0,00055587844225101997	-0,20011238606479072	0,000407116982	-1,36802321257402	0,051042785387908141	1,36802321257402
1	0	0	1	0	0	1	450483,02	-0,200000003	2,03432727	-0,00055586874212407405	-0,2001088940863279	0,000407086976	-1,3808083421122472	0,05151981576076889	1,3808083421122472
1	0	0	1	0	0	1	450713,02	-0,200000003	2,03387022	-0,00055587748059299258	-0,20011203986524848	0,000407001906	-1,3935934246160504	0,051996844378712032	1,3935934246160504
1	0	0	1	0	0	1	450943,03	-0,200000003	2,03385115	-0,00055588164962165882	-0,20011354068899965	0,000407001149	-1,4063786547599362	0,052473878505305165	1,4063786547599362
1	0	0	1	0	0	1	451173,03	-0,200000003	2,03324151	-0,0005558758054673671	-0,20011143683629379	0,000406874868	-1,4191638282944219	0,052950910519725466	1,4191638282944219
1	0	0	1	0	0	1	451403,04	-0,200000003	2,03265119	-0,00055587482078539008	-0,20011108235294842	0,000406756037	-1,4319489705727555	0,05342794136793671	1,4319489705727555
1	0	0	1	0	0	1	451633,04	-0,200000003	2,03209877	-0,00055587615797006432	-0,20011156373948048	0,000406646461	-1,4447340944899379	0,053904971531068717	1,4447340944899379
1	0	0	1	0	0	1	451863,05	-0,200000003	2,03126049	-0,00055587870442039443	-0,20011248044394826	0,000406480569	-1,457519197997688	0,054382000932697357	1,457519197997688
1	0	0	1	0	0	1	452093,05	-0,200000003	2,03032708	-0,00055587161581052678	-0,20010992859353155	0,0004062886	-1,4703043753672259	0,054859033090208608	1,4703043753672259
1	0	0	1	0	0	1	452323,06	-0,200000003	2,02998424	-0,00055587404022614157	-0,20011080135702954	0,000406221778	-1,4830895527618829	0,055336065248657094	1,4830895527618829
1	0	0	1	0	0	1	452553,06	-0,200000003	2,02836514	-0,00055587658032443789	-0,20011171577946822	0,000405899627	-1,4958747353846995	0,055813097602175238	1,4958747353846995
1	0	0	1	0	0	1	452783,06	-0,200000003	2,02737474	-0,00055587545540514918	-0,20011131081632182	0,000405700615	-1,5086599160413222	0,056290129882332051	1,5086599160413222
1	0	0	1	0	0	1	453013,07	-0,200000003	2,02550793	-0,00055588047134048416	-0,20011311651361459	0,000405330706	-1,521445177178159	0,056767165165313856	1,521445177178159
1	0	0	1	0	0	1	453243,07	-0,200000003	2,02352691	-0,00055586977971179616	-0,20010926761071571	0,000404926483	-1,5342302654711398	0,057244193999259002	1,5342302654711398
1	0	0	1	0	0	1	453473,08	-0,200000003	2,02074599	-0,00055587625276876826	-0,2001115978663568	0,000404374703	-1,5470154182446266	0,057721225239058509	1,5470154182446266
1	0	0	1	0	0	1	453703,08	-0,200000003	2,01756477	-0,00055587268350604506	-0,20011031295651728	0,000403735525	-1,5598005177392038	0,058198254490950285	1,5598005177392038
1	0	0	1	0	0	1	453933,09	-0,200000003	2,0138123	-0,0005558810156260928	-0,20011331245266093	0,000402990641	-1,5725856699093722	0,058675285708239181	1,5725856699093722
1	0	0	1	0	0	1	454163,09	-0,200000003	2,00920272	-0,00055588434688498579	-0,20011451168743043	0,000402070611	-1,5853708942419683	0,059152319618005286	1,5853708942419683
1	0	0	1	0	0	1	454393,10	-0,200000003	2,00383115	-0,00055587849699954189	-0,20011240576922	0,00040099147	-1,598156214202464	0,059629357095776896	1,598156214202464
1	0	0	1	0	0	1	454623,10	-0,200000003	1,9971261	-0,00055588345734940634	-0,20011419145612864	0,000399653276	-1,610941546678064	0,060106395040503859	1,610941546678064
1	0	0	1	0	0	1	454853,10	-0,200000003	1,98956394	-0,00055587212869524954	-0,20011011322847667	0,000398131873	-1,6237266634589792	0,060583424937372134	1,6237266634589792
1	0	0	1	0	0	1	455083,11	-0,200000003	1,98122084	-0,0005558639702126384	-0,20010717623128822	0,000396456511	-1,63651169280468	0,061060451571915008	1,63651169280468
1	0	0	1	0	0	1	455313,11	-0,200000003	1,97165859	-0,00055586692970080506	-0,20010824162651411	0,000394545146	-1,6492966045764166	0,061537473819615206	1,6492966045764166
1	0	0	1	0	0	1	455543,12	-0,200000003	1,96091533	-0,00055586851239866682	-0,20010881137745555	0,00039239644	-1,6620816061045494	0,062014499416247219	1,6620816061045494
1	0	0	1	0	0	1	455773,12	-0,200000003	1,94899118	-0,00055586512060215078	-0,20010759035887958	0,000390007917	-1,6748665583413216	0,062491523173752282	1,6748665583413216
1	0	0	1	0	0	1	456003,13	-0,200000003	1,93544793	-0,00055587029530273536	-0,20010945321289133	0,000387301436	-1,6876515748739501	0,062968549330222208	1,6876515748739501
1	0	0	1	0	0	1	456233,13	-0,200000003	1,91994262	-0,00055587628493458035	-0,20011160943650794	0,000384202809	-1,7004366124005891	0,063445576270006886	1,7004366124005891
1	0	0	1	0	0	1	456463,14	-0,200000003	1,90279925	-0,00055587435743543827	-0,20011091555949578	0,000380770885	-1,7132217237578528	0,063922605964511424	1,7132217237578528
1	0	0	1	0	0	1	456693,14	-0,200000003	1,88369381	-0,00055587438641571334	-0,20011092599219392	0,000376947719	-1,726006758320049	0,064399632793688755	1,726006758320049
1	0	0	1	0	0	1	456923,14	-0,200000003	1,86306465	-0,00055587327893161114	-0,20011052730559376	0,000372818846	-1,738791739406151	0,064876657627601114	1,738791739406151
1	0	0	1	0	0	1	457153,15	-0,200000003	1,83934963	-0,00055586421360986099	-0,20010726384328317	0,000368067209	-1,7515767914753632	0,065353685109988749	1,7515767914753632
1	0	0	1	0	0	1	457383,15	-0,200000003	1,81052959	-0,0005558773136875696	-0,20011197978511222	0,000362308667	-1,7643618885769357	0,065830714272594291	1,7643618885769357
1	0	0	1	0	0	1	457613,16	-0,200000003	1,77399504	-0,00055587133721510579	-0,20010982829412246	0,000354993856	-1,7771469890497741	0,066307743560986304	1,7771469890497741
1	0	0	1	0	0	1	457843,16	-0,200000003	1,72039342	-0,00055586875710967514	-0,20010889947172234	0,000344266038	-1,789931989984937	0,066784769135493798	1,789931989984937
1	0	0	1	0	0	1	458073,17	-0,200000003	1,62858093	-0,00055586892156302931	-0,20010895868310803	0,000325893634	-1,8027170354117744	0,067261796370045504	1,8027170354117744
1	1	0	0	0	0	2	458290,02	0,200000003	2,19978023	0,00055535470486929018	0,19992384423772355	0,000439788506	-1,8125482614227043	0,067628612630737254	0,0011107104974885781
1	1	0	0	0	0	2	458520,02	0,200000003	2,30075502	0,00055536237241658899	0,19992660450160246	0,00045998214	-1,7997750933209437	0,067152028555153408	0,013883878599248824
1	1	0	0	0	0	2	458750,03	0,200000003	2,30197406	0,00055535957300249069	0,19992559672262202	0,000460223528	-1,7870018960578403	0,066675443391520653	0,026657075862352211
1	1	0	0	0	0	2	458980,03	0,200000003	2,28606868	0,00055535320653435251	0,19992330484054976	0,000457038404	-1,7742286867748717	0,066198857779410547	0,039430285145320813
1	1	0	0	0	0	2	459210,03	0,200000003	2,27292538	0,00055535879257238573	0,19992531577784867	0,000454415334	-1,7614554432074429	0,065722270888101146	0,052203528712749485
1	1	0	0	0	0	2	459440,04	0,200000003	2,26553488	0,00055534944487528666	0,19992195066703322	0,000452930166	-1,7486821800577555	0,06524568326615136	0,064976791862437286
1	1	0	0	0	0	2	459670,04	0,200000003	2,26151562	0,00055536279537859891	0,19992675676499421	0,000452137494	-1,7359089203306682	0,064769095771903373	0,077750051589524557
1	1	0	0	0	0	2	459900,05	0,200000003	2,25919175	0,00055536357236322432	0,1999270364740736	0,000451673521	-1,7231357398996848	0,064292511236299648	0,090523232020508045
1	1	0	0	0	0	2	460130,05	0,200000003	2,25799155	0,00055535690739585293	0,19992463713201901	0,000451428146	-1,7103624646074019	0,063815923161293299	0,10329650731279037
1	1	0	0	0	0	2	460360,06	0,200000003	2,25724888	0,00055534866803884506	0,19992167101129898	0,000451272965	-1,6975892947167107	0,063339339018962035	0,11606967720348221
1	1	0	0	0	0	2	460590,06	0,200000003	2,25707746	0,0005553441269977225	0,19992003627029907	0,000451235013	-1,6848162814209613	0,062862760719398605	0,12884269049923122
1	1	0	0	0	0	2	460820,07	0,200000003	2,25688696	0,00055535518569416467	0,19992401732203594	0,000451205909	-1,6720431929477642	0,062386179614863514	0,14161577897242782
1	1	0	0	0	0	2	461050,07	0,200000003	2,25709629	0,00055534846758014624	0,19992159884755693	0,000451242289	-1,6592701234122861	0,061909599216920192	0,15438884850790598
1	1	0	0	0	0	2	461280,07	0,200000003	2,25774407	0,00055535489190783763	0,19992391157030413	0,00045137704	-1,6464969711970435	0,061433015734083674	0,16716200072314835
1	1	0	0	0	0	2	461510,08	0,200000003	2,25844884	0,00055535479880869389	0,19992387805525773	0,000451517844	-1,6337238070256013	0,060956431805145293	0,17993516489459075
1	1	0	0	0	0	2	461740,08	0,200000003	2,25896311	0,00055535627338952493	0,19992440889413562	0,000451621861	-1,6209506825405478	0,060479849356959424	0,19270828937964387
1	1	0	0	0	0	2	461970,09	0,200000003	2,25972509	0,00055534238555365139	0,19991940936948656	0,000451762899	-1,6081776866499014	0,060003271706803789	0,20548128527029021
1	1	0	0	0	0	2	462200,09	0,200000003	2,26025844	0,0005553436619705625	0,1999198688637449	0,000451870583	-1,5954047370918912	0,059526695785381094	0,21825423482830077
1	1	0	0	0	0	2	462430,10	0,200000003	2,26102042	0,00055535007836752474	0,19992217872915718	0,000452028122	-1,5826318251015942	0,059050121265660301	0,23102714681859725
1	1	0	0	0	0	2	462660,10	0,200000003	2,26202989	0,00055535025584366592	0,19992224261002838	0,000452230073	-1,5698587859427942	0,058573542001111667	0,2438001859773976
1	1	0	0	0	0	2	462890,11	0,200000003	2,26283002	0,00055535335231489606	0,19992335732751706	0,00045239256	-1,5570856983488003	0,058096960929380838	0,25657327357139174
1	1	0	0	0	0	2	463120,11	0,200000003	2,26387763	0,0005553623856455088	0,19992660926392189	0,000452609384	-1,5443124918614227	0,057620375421578003	0,26934648005876915
1	1	0	0	0	0	2	463350,11	0,200000003	2,2646966	0,00055536216650737658	0,19992653037571328	0,000452772947	-1,5315392815510362	0,057143789771133574	0,28211969036915635
1	1	0	0	0	0	2	463580,12	0,200000003	2,2657063	0,00055534610896060864	0,19992074976087251	0,000452961714	-1,5187662758576771	0,056667211755225542	0,29489269606251507
1	1	0	0	0	0	2	463810,12	0,200000003	2,26673484	0,00055534475896673075	0,1999202637747615	0,000453166227	-1,5059932341713184	0,056190632396370298	0,30766573774887443
1	1	0	0	0	0	2	464040,13	0,200000003	2,26753473	0,00055534292077024781	0,19991960203909667	0,000453324639	-1,4932202378731229	0,055714054731008461	0,32043873404706982
1	1	0	0	0	0	2	464270,13	0,200000003	2,26888728	0,00055535810869683814	0,19992506958273715	0,000453607441	-1,4804471076867667	0,055237472070099315	0,3332118642334265
1	1	0	0	0	0	2	464500,14	0,200000003	2,26961112	0,00055535701458818387	0,19992467572051514	0,000453751272	-1,4676739238992198	0,05476088740925769	0,34598504802097357
1	1	0	0	0	0	2	464730,14	0,200000003	2,27039194	0,00055535828309837312	0,19992513237539043	0,000453908404	-1,4549006982836045	0,054284301187754592	0,35875827363658925
1	1	0	0	0	0	2	464960,15	0,200000003	2,27157307	0,00055535723046710093	0,19992475343542886	0,000454143679	-1,4421274590728941	0,053807714459000218	0,37153151284729926
1	1	0	0	0	0	2	465190,15	0,200000003	2,27263975	0,00055535729627559578	0,19992477711672131	0,00045435701	-1,4293541924154266	0,053331126706170426	0,38430477950476691
1	1	0	0	0	0	2	465420,15	0,200000003	2,27363014	0,00055536148018307155	0,19992628329906605	0,000454558438	-1,416580909993104	0,052854538365132704	0,39707806192708928
1	1	0	0	0	0	2	465650,16	0,200000003	2,27488732	0,00055536613277097536	0,19992795819846131	0,000454813591	-1,4038076504018843	0,052377950875954131	0,40985132151830854
1	1	0	0	0	0	2	465880,16	0,200000003	2,27580166	0,0005553668343250951	0,19992821074842666	0,000454996945	-1,3910342332376115	0,051901357507513075	0,42262473868258118
1	1	0	0	0	0	2	466110,17	0,200000003	2,27694464	0,00055536638493504787	0,19992804898043437	0,00045522509	-1,3782607812518077	0,051424762839833888	0,4353981906683849
1	1	0	0	0	0	2	466340,17	0,200000003	2,2781446	0,00055537121064215891	0,19992978620154432	0,000455468951	-1,3654872623641256	0,050948165675955667	0,44817170955606675
1	1	0	0	0	0	2	466570,18	0,200000003	2,27921128	0,00055537723968840307	0,19993195661640106	0,000455687172	-1,3527135957251066	0,050471562999276416	0,46094537619508595
1	1	0	0	0	0	2	466800,18	0,200000003	2,28022099	0,00055538787339296608	0,19993578466702474	0,000455897767	-1,3399398978505186	0,049994959157156083	0,47371907406967437
1	1	0	0	0	0	2	467030,19	0,200000003	2,28142095	0,00055537884931017952	0,19993253606442832	0,000456130278	-1,3271662479350253	0,049518357104454054	0,48649272398516755
1	1	0	0	0	0	2	467260,19	0,200000003	2,28263998	0,00055537555540353069	0,19993135027388454	0,000456371286	-1,3143925582806538	0,049041753569041056	0,49926641363953952
1	1	0	0	0	0	2	467490,19	0,200000003	2,28361154	0,00055536985630459258	0,19992929864009843	0,00045656084	-1,301619013466889	0,048565155437825837	0,51203995845330432
1	1	0	0	0	0	2	467720,20	0,200000003	2,284621	0,00055536120926919904	0,19992618577660461	0,000456755573	-1,2888456524969803	0,048088564166072064	0,52481331942321286
1	1	0	0	0	0	2	467950,20	0,200000003	2,28566885	0,00055536870565182637	0,19992888442238822	0,000456971233	-1,2760722839019496	0,047611972609814746	0,53758668801824352
1	1	0	0	0	0	2	468180,21	0,200000003	2,28665924	0,00055535989236003827	0,19992571169843504	0,000457161979	-1,2632988954425947	0,047135380312392774	0,55036007647759808
1	1	0	0	0	0	2	468410,21	0,200000003	2,28770685	0,00055535860593451386	0,1999252485941633	0,000457370363	-1,2505255818814301	0,046658790809522982	0,56313339003876262
1	1	0	0	0	0	2	468640,22	0,200000003	2,28856397	0,00055535088730603456	0,19992246993675875	0,000457535352	-1,2377523657505962	0,04618220494190983	0,57590660616959718
1	1	0	0	0	0	2	468870,22	0,200000003	2,2894783	0,0005553561811985241	0,19992437570135958	0,000457722519	-1,2249791436680941	0,045705618852231942	0,58867982825209984
1	1	0	0	0	0	2	469100,23	0,200000003	2,29083085	0,00055536149812820883	0,19992628975453626	0,000457997317	-1,2122059411521888	0,04522903349261008	0,60145303076800589
1	1	0	0	0	0	2	469330,23	0,200000003	2,29174519	0,00055535530087269018	0,19992405879481622	0,000458174996	-1,1994327138684339	0,044752447208866451	0,61422625805176128
1	1	0	0	0	0	2	469560,23	0,200000003	2,29288793	0,00055536227686620422	0,19992657010412627	0,000458409224	-1,186659419208228	0,044275858411216838	0,62699955271196787
1	1	0	0	0	0	2	469790,24	0,200000003	2,29374528	0,00055535670971456499	0,1999245659681256	0,000458576018	-1,1738861071767802	0,043799268965422842	0,63977286474341555
1	1	0	0	0	0	2	470020,24	0,200000003	2,29502153	0,00055535890601906515	0,19992535661321213	0,000458833005	-1,1611128761720766	0,043322682542845619	0,65254609574811878
1	1	0	0	0	0	2	470250,25	0,200000003	2,29618335	0,00055536277710894739	0,19992675018339152	0,000459068484	-1,1483395458146	0,042846092413282842	0,66531942610559603
1	1	0	0	0	0	2	470480,25	0,200000003	2,29709768	0,0005553619725331664	0,19992646053935997	0,000459250616	-1,1355662545892704	0,042369503743793094	0,67809271733092582
1	1	0	0	0	0	2	470710,26	0,200000003	2,29824066	0,00055535619336283866	0,19992438007577376	0,000459474337	-1,1227929214452741	0,041892913510261523	0,69086605047492173
1	1	0	0	0	0	2	470940,26	0,200000003	2,2992692	0,00055535516493933062	0,19992400985974902	0,000459679111	-1,1100197884684992	0,041416330745238118	0,70363918345169715
1	1	0	0	0	0	2	471170,26	0,200000003	2,30043101	0,0005553626271122032	0,19992669619025814	0,000459917559	-1,0972465253988339	0,040939743126274054	0,71641244652136243
1	1	0	0	0	0	2	471400,27	0,200000003	2,30176449	0,00055535767557140851	0,1999249136698943	0,000460180076	-1,0844732031818302	0,040463153300443277	0,72918576873836672
1	1	0	0	0	0	2	471630,27	0,200000003	2,30290747	0,00055536205548793075	0,1999264904001727	0,000460412208	-1,0716998692507045	0,039986563037542848	0,74195910266949222
1	1	0	0	0	0	2	471860,28	0,200000003	2,30395508	0,00055535086461156608	0,19992246176690739	0,000460612384	-1,0589267533576542	0,039509980909936173	0,75473221856254272
1	1	0	0	0	0	2	472090,28	0,200000003	2,30509782	0,00055535242101715674	0,19992302205980422	0,00046084213	-1,0461536131019754	0,039033397873327066	0,76750535881822144
1	1	0	0	0	0	2	472320,29	0,200000003	2,30643129	0,00055534725148810278	0,19992116106285078	0,000461104413	-1,0333805692601462	0,038556818434048339	0,78027840266005146
1	1	0	0	0	0	2	472550,29	0,200000003	2,30765033	0,00055535729534758464	0,19992477679195328	0,000461356482	-1,020607472679127	0,038080237026999501	0,79305149924107085
1	1	0	0	0	0	2	472780,30	0,200000003	2,30885053	0,00055535741489297818	0,19992481982746634	0,00046159653	-1,0078343143813418	0,037603653317215149	0,80582465753885606
1	1	0	0	0	0	2	473010,30	0,200000003	2,30993629	0,0005553540122144752	0,19992359488679136	0,000461810763	-0,99506122774333939	0,037127072281153645	0,81859774417685914
1	1	0	0	0	0	2	473240,30	0,200000003	2,31125045	0,0005553505913085408	0,19992236337505802	0,00046207066	-0,9822881595046423	0,03665049193159497	0,83137081241555622
1	1	0	0	0	0	2	473470,31	0,200000003	2,31233621	0,00055534786718421517	0,19992138271383818	0,000462285447	-0,9695151471673033	0,036173913667791117	0,84414382475289523
1	1	0	0	0	0	2	473700,31	0,200000003	2,31340289	0,00055534820722788576	0,19992150512603885	0,000462498982	-0,95674214442901325	0,035697335762140678	0,85691682749118528
1	1	0	0	0	0	2	473930,32	0,200000003	2,31467915	0,00055534215827037888	0,19991932753977462	0,0004627491	-0,94396922133270528	0,035220760828039674	0,86968975058749338
1	1	0	0	0	0	2	474160,32	0,200000003	2,31580305	0,00055533901056481734	0,19991819439690045	0,000462971162	-0,93119623251357466	0,034744183441731795	0,88246273940662387
1	1	0	0	0	0	2	474390,33	0,200000003	2,31721258	0,00055536147700084582	0,19992628215814163	0,000463271688	-0,91842320344362368	0,034267604553611699	0,89523576847657485
1	1	0	0	0	0	2	474620,33	0,200000003	2,3180697	0,00055535938070797261	0,19992552750723798	0,000463441305	-0,90564994510422541	0,033791017111140256	0,90800902681597312
1	1	0	0	0	0	2	474850,34	0,200000003	2,31925082	0,00055535581772277754	0,19992424485726506	0,000463674456	-0,89287681404604416	0,033314434417702157	0,92078215787415437
1	1	0	0	0	0	2	475080,34	0,200000003	2,32035565	0,00055535223092304333	0,19992295362956845	0,000463892356	-0,88010366317641229	0,032837850985072192	0,93355530874378624
1	1	0	0	0	0	2	475310,34	0,200000003	2,32128882	0,00055536184949096704	0,19992641624734851	0,000464086945	-0,86733052117102387	0,032361267883179078	0,94632845074917466
1	1	0	0	0	0	2	475540,35	0,200000003	2,32237458	0,00055535825486563968	0,19992512220249254	0,000464301032	-0,8545573709638281	0,031884684475265498	0,95910160095637043
1	1	0	0	0	0	2	475770,35	0,200000003	2,32317472	0,00055534544637468128	0,1999205112438408	0,000464450277	-0,84178423326335974	0,031408101533994733	0,97187473865683878
1	1	0	0	0	0	2	476000,36	0,200000003	2,32414627	0,00055534421977400774	0,19992006967610067	0,000464643497	-0,82901126887339405	0,03093152505917184	0,98464770304680448
1	1	0	0	0	0	2	476230,36	0,200000003	2,32511759	0,00055535060272283021	0,19992236749343254	0,000464843004	-0,8162383117096512	0,030454948853969043	0,99742066021054733
1	1	0	0	0	0	2	476460,37	0,200000003	2,32584143	0,00055534695681018963	0,19992105499015402	0,000464984681	-0,80346522125815846	0,029978367675621088	1,0101937506620402
1	1	0	0	0	0	2	476690,37	0,200000003	2,32652712	0,00055535780470983853	0,19992496015417917	0,000465130841	-0,7906920592707177	0,029501783828170733	1,0229669126494803
1	1	0	0	0	0	2	476920,38	0,200000003	2,32740331	0,0005553525601890352	0,19992307216071574	0,000465301622	-0,77791893547672486	0,029025201405769267	1,0357400364434733
1	1	0	0	0	0	2	477150,38	0,200000003	2,32782245	0,00055534498115297824	0,19992034375794314	0,000465379067	-0,76514587943433242	0,028548621511271104	1,0485130924858654
1	1	0	0	0	0	2	477380,38	0,200000003	2,32827973	0,0005553539463323024	0,19992357116966582	0,000465477991	-0,75237284811461658	0,028072042539209248	1,0612861238055811
1	1	0	0	0	0	2	477610,39	0,200000003	2,32866049	0,0005553463886280855	0,19992085044853501	0,000465547782	-0,73959992009730906	0,027595467421499136	1,074059051822888
1	1	0	0	0	0	2	477840,39	0,200000003	2,3292129	0,00055535052414486803	0,19992233920591082	0,000465661695	-0,7268269328970679	0,027118890095594202	1,0868320390231285
1	1	0	0	0	0	2	478070,40	0,200000003	2,32978439	0,00055535090216166438	0,19992247528933722	0,000465776277	-0,71405376011421389	0,026642305845352461	1,0996052118059824
1	1	0	0	0	0	2	478300,40	0,200000003	2,33005118	0,00055534907348371206	0,1999218169686407	0,000465828052	-0,70128067771942886	0,026165724967611104	1,1123782942007672
1	1	0	0	0	0	2	478530,41	0,200000003	2,3304131	0,00055534427521046662	0,19992008962585965	0,000465896388	-0,68850773447537728	0,025689149281770698	1,1251512374448187
1	1	0	0	0	0	2	478760,41	0,200000003	2,33069873	0,00055535446596559552	0,19992375822473994	0,000465962046	-0,67573469531901005	0,025212570017312845	1,1379242766011861
1	1	0	0	0	0	2	478990,42	0,200000003	2,3310225	0,00055535992687775027	0,19992572412457213	0,000466031372	-0,66296158773521254	0,024735988199735562	1,1506973841849838
1	1	0	0	0	0	2	479220,42	0,200000003	2,33146071	0,00055535374873545434	0,19992350003617021	0,000466113794	-0,65018846066549824	0,024259405655112528	1,1634705112546986
1	1	0	0	0	0	2	479450,42	0,200000003	2,33157492	0,0005553627917485104	0,19992675545818752	0,000466144207	-0,63741527161162022	0,023782820797777005	1,1762437003085766
1	1	0	0	0	0	2	479680,43	0,200000003	2,33191776	0,0005553523104662697	0,19992298226923331	0,000466203957	-0,6246420883780983	0,02330623615760679	1,1890168835420984
1	1	0	0	0	0	2	479910,43	0,200000003	2,33184171	0,00055537353216028877	0,19993062192266934	0,000466206577	-0,61186874311944678	0,022829645472061149	1,2017902288007498
1	1	0	0	0	0	2	480140,44	0,200000003	2,33197498	0,00055536165657391155	0,19992634679621834	0,000466223253	-0,59909539020877248	0,022353054501008246	1,214563581711424
1	1	0	0	0	0	2	480370,44	0,200000003	2,3323369	0,00055536323382374317	0,19992691459289738	0,000466296915	-0,58632207798404557	0,021876465048002749	1,2273368939361507
1	1	0	0	0	0	2	480600,45	0,200000003	2,33243203	0,00055536030614210502	0,19992586065711088	0,000466313475	-0,57354874473779802	0,021399874810656048	1,2401102271823986
1	1	0	0	0	0	2	480830,45	0,200000003	2,33262253	0,00055536082759913472	0,19992604837802704	0,000466352009	-0,5607754199350423	0,020923284888347382	1,2528835519851539
1	1	0	0	0	0	2	481060,46	0,200000003	2,33275604	0,00055536094186537798	0,19992608951308256	0,000466378784	-0,54800221813071418	0,020446699555275421	1,2656567537894822
1	1	0	0	0	0	2	481290,46	0,200000003	2,33279395	0,00055535651347041126	0,19992449532159053	0,000466382655	-0,53522900856009581	0,019970113932432733	1,2784299633601003
1	1	0	0	0	0	2	481520,46	0,200000003	2,33304167	0,00055536215226766138	0,1999265252402049	0,000466436904	-0,52245572809630566	0,019493525664470486	1,2912032438238896
1	1	0	0	0	0	2	481750,47	0,200000003	2,33300352	0,00055536687206145792	0,19992822433791056	0,000466433237	-0,50968235143049222	0,019016933807081405	1,303976620489703
1	1	0	0	0	0	2	481980,47	0,200000003	2,33330846	0,00055535341435174144	0,19992337965104189	0,000466482918	-0,4969090607977767	0,018540345159702883	1,3167499111224181
1	1	0	0	0	0	2	482210,48	0,200000003	2,33325124	0,00055535484405027494	0,19992389434191328	0,000466472673	-0,48413587862759258	0,018063760559207232	1,3295230932926024
1	1	0	0	0	0	2	482440,48	0,200000003	2,33344173	0,00055534909182455808	0,19992182358052755	0,000466505939	-0,47136277598193293	0,017587178925878515	1,3422961959382618
1	1	0	0	0	0	2	482670,49	0,200000003	2,33357501	0,00055535956406262189	0,19992559351364077	0,000466541358	-0,45858964554545958	0,017110596255637174	1,3550693263747355
1	1	0	0	0	0	2	482900,49	0,200000003	2,33349895	0,00055535795120894912	0,1999250128974983	0,000466524798	-0,44581646531927181	0,01663401172767464	1,3678425066009234
1	1	0	0	0	0	2	483130,50	0,200000003	2,33376551	0,00055535355981439347	0,19992343201658832	0,00046657442	-0,4330433243578937	0,01615742866473495	1,3806156475623011
1	1	0	0	0	0	2	483360,50	0,200000003	2,33382273	0,00055536658509572346	0,19992812102990787	0,000466596801	-0,42026994858418323	0,01568083684063143	1,3933890233360114
1	1	0	0	0	0	2	483590,50	0,200000003	2,33386087	0,000555355221937928	0,19992403036953952	0,00046659488	-0,40749665720730432	0,015204248165487168	1,4061623147128901
1	1	0	0	0	0	2	483820,51	0,200000003	2,33393693	0,00055535325936145254	0,1999233238649217	0,000466608442	-0,39472348756095424	0,014727664032272608	1,4189354843592402
1	1	0	0	0	0	2	484050,51	0,200000003	2,33387971	0,00055535374956495226	0,19992350033478371	0,000466597412	-0,38195040171658246	0,014251083025822531	1,4317085702036122
1	1	0	0	0	0	2	484280,52	0,200000003	2,33405113	0,0005553510979546441	0,19992254577345277	0,000466629455	-0,36917724854176832	0,01377449950718312	1,4444817233784262
1	1	0	0	0	0	2	484510,52	0,200000003	2,33412743	0,00055535969921946528	0,19992564216916755	0,000466651923	-0,35640408991684858	0,013297915785192942	1,4572548820033456
1	1	0	0	0	0	2	484740,53	0,200000003	2,33448935	0,00055536021731048826	0,19992582866903501	0,000466724712	-0,34363082275507776	0,012821328013546922	1,4700281491651165
1	1	0	0	0	0	2	484970,53	0,200000003	2,33473706	0,0005553549196322759	0,19992392154392762	0,000466769794	-0,33085759798287795	0,012344741823512789	1,4828013739373165
1	1	0	0	0	0	2	485200,54	0,200000003	2,33496547	0,00055535276731103661	0,19992314672552797	0,000466813653	-0,31808443063847501	0,01186815777618697	1,495574541281719
1	1	0	0	0	0	2	485430,54	0,200000003	2,33509898	0,00055535760658979418	0,1999248888369913	0,000466844416	-0,30531125291904256	0,01139157334175485	1,5083477190011514
1	1	0	0	0	0	2	485660,54	0,200000003	2,33528948	0,00055536123792082074	0,19992619609098979	0,00046688554	-0,29253794354248077	0,010914983995018218	1,5211210283777133
1	1	0	0	0	0	2	485890,55	0,200000003	2,33570838	0,00055536066628081933	0,19992599030455171	0,000466968806	-0,2797646139138535	0,010438393892649797	1,5338943580063408
1	1	0	0	0	0	2	486120,55	0,200000003	2,3359561	0,00055535434603608326	0,19992371506025632	0,000467013015	-0,26699141582706275	0,0099618086982841549	1,5466675560931312
1	1	0	0	0	0	2	486350,56	0,200000003	2,3362608	0,00055535771129197542	0,19992492651974122	0,000467076781	-0,25421807684834595	0,0094852182470513216	1,5594408950718483
1	1	0	0	0	0	2	486580,56	0,200000003	2,33654666	0,00055537816836684947	0,19993229092722208	0,000467151112	-0,24144465748601699	0,0090086247965978394	1,5722143144341776
1	1	0	0	0	0	2	486810,57	0,200000003	2,33690858	0,00055536094425949779	0,1999260903702943	0,000467209	-0,22867124164638957	0,0085320314775810918	1,5849877302738048
1	1	0	0	0	0	2	487040,57	0,200000003	2,3372705	0,00055536015664537741	0,19992580683001562	0,000467280683	-0,21589790055715085	0,008055440947601847	1,5977610713630438
1	1	0	0	0	0	2	487270,57	0,200000003	2,33765125	0,00055535850728303194	0,1999252130803136	0,000467355421	-0,20312468053231344	0,0075788549346981875	1,6105342913878806
1	1	0	0	0	0	2	487500,58	0,200000003	2,33803225	0,00055536281842076115	0,19992676506001293	0,000467435224	-0,19035143488172899	0,0071022679656634522	1,623307537038465
1	1	0	0	0	0	2	487730,58	0,200000003	2,33831811	0,0005553701967464553	0,19992942120611894	0,000467498583	-0,17757806309471658	0,0066256762903089984	1,6360809088254774
1	1	0	0	0	0	2	487960,59	0,200000003	2,33883238	0,00055536252152091923	0,19992665816881818	0,000467594946	-0,16480464467094058	0,0061490828748741901	1,6488543272492531
1	1	0	0	0	0	2	488190,59	0,200000003	2,33944201	0,00055535536519603597	0,19992408194379274	0,000467710808	-0,15203138534043862	0,0056724953954233395	1,6616275865797549
1	1	0	0	0	0	2	488420,60	0,200000003	2,33984184	0,00055535385968950067	0,19992353997420304	0,000467789476	-0,13925812789924658	0,0051959079864651827	1,6744008440209469
1	1	0	0	0	0	2	488650,60	0,200000003	2,34041333	0,0005553578582720624	0,19992497943155373	0,000467907084	-0,1264849664005791	0,0047193241572516134	1,6871740055196141
1	1	0	0	0	0	2	488880,61	0,200000003	2,34088945	0,00055536610089656384	0,19992794672854896	0,00046800921	-0,11371166416866795	0,0042427350770915053	1,6999473077515251
1	1	0	0	0	0	2	489110,61	0,200000003	2,34136581	0,00055536479886952371	0,19992747800783968	0,000468103361	-0,10093831014708891	0,003766144064589255	1,712720661773104
1	1	0	0	0	0	2	489340,61	0,200000003	2,34199429	0,00055536230767187136	0,1999265811939529	0,000468226906	-0,088164944791489638	0,003289552629199472	1,725494027128703
1	1	0	0	0	0	2	489570,62	0,200000003	2,3424325	0,00055535062820547149	0,19992237665769731	0,000468304672	-0,075391716903725056	0,0028129663229194282	1,7382672550164672
1	1	0	0	0	0	2	489800,62	0,200000003	2,34302306	0,00055536631345334982	0,19992802324053626	0,000468435959	-0,062618445501249318	0,0023363783930470054	1,7510405264189434
1	1	0	0	0	0	2	490030,63	0,200000003	2,34380388	0,00055535504063384397	0,19992396510598074	0,000468582555	-0,049845280207672499	0,0018597944222402666	1,7638136917125197
1	1	0	0	0	0	2	490260,63	0,200000003	2,34433722	0,00055535727347185216	0,19992476890753168	0,000468691083	-0,03707206797959865	0,0013832087002443392	1,776586903940593
1	1	0	0	0	0	2	490490,64	0,200000003	2,34490871	0,00055535251549631354	0,19992305607862787	0,000468801329	-0,024298864982134378	0,00090662332265486554	1,7893601069380573
1	1	0	0	0	0	2	490720,64	0,200000003	2,34565163	0,00055535501410646566	0,19992395556096317	0,000468951941	-0,011525685801383963	0,00043003883369900806	1,8021332861188077
1	1	0	0	0	0	2	490950,65	0,200000003	2,34626126	0,00055536097344259418	0,1999261008806615	0,000469078863	0,001247592291843945	-4,6549345814374016E-005	1,8149065642120358
1	1	0	0	0	0	2	491180,65	0,200000003	2,3469851	0,00055535969409263789	0,19992564031423565	0,00046922249	0,014020901021061232	-0,00052313866839771034	1,8276798729412531
1	1	0	0	0	0	2	491410,65	0,200000003	2,34753728	0,00055535644547972422	0,19992447083843238	0,000469330145	0,026794099251841072	-0,00099972386813577882	1,8404530711720336
1	1	0	0	0	0	2	491640,66	0,200000003	2,34835649	0,00055536182714915936	0,19992640820445261	0,000469498482	0,039567424919254643	-0,001476313822705992	1,8532263968394474
1	1	0	0	0	0	2	491870,66	0,200000003	2,34908032	0,00055535498012271194	0,19992394331773792	0,000469637394	0,052340517984293798	-0,0019528950985688787	1,8659994899044864
1	1	0	0	0	0	2	492100,67	0,200000003	2,34986138	0,00055535220542550086	0,19992294445528461	0,000469791208	0,065113630916692723	-0,0024294771157096707	1,8787726028368858
1	1	0	0	0	0	2	492330,67	0,200000003	2,35068035	0,0005553553723560439	0,19992408452832806	0,000469957624	0,077886690629643277	-0,002906057147161289	1,8915456625498362
1	1	0	0	0	0	2	492560,68	0,200000003	2,35170889	0,00055536151925722758	0,19992629737014618	0,000470168452	0,090659909874371738	-0,0033826431309580339	1,9043188817945651
1	1	0	0	0	0	2	492790,68	0,200000003	2,35231853	0,00055535103804618118	0,1999225241975119	0,000470281462	0,1034331206080487	-0,0038592287971960045	1,9170920925282416
1	1	0	0	0	0	2	493020,69	0,200000003	2,35302329	0,00055534726055711501	0,19992116432995968	0,000470419152	0,11620617309901077	-0,0043358085591855226	1,9298651450192038
1	1	0	0	0	0	2	493250,69	0,200000003	2,3540709	0,00055535572724623814	0,19992421228168326	0,000470635772	0,12897921283067142	-0,0048123878451083501	1,9426381847508646
1	1	0	0	0	0	2	493480,69	0,200000003	2,3550806	0,00055535079473588192	0,19992243660749072	0,000470833445	0,14175223212512794	-0,0052889663684916128	1,955411204045321
1	1	0	0	0	0	2	493710,70	0,200000003	2,35589957	0,00055534889915254374	0,19992175421993792	0,000470995583	0,15452529166989072	-0,0057655463936679194	1,9681842635900838
1	1	0	0	0	0	2	493940,70	0,200000003	2,35677576	0,00055535512038403085	0,19992399382014998	0,000471176027	0,1672983951058143	-0,0062421280564824486	1,9809573670260077
1	1	0	0	0	0	2	494170,71	0,200000003	2,35765195	0,00055535354238003494	0,19992342574964957	0,000471349864	0,18007152980016374	-0,0067187108855908723	1,9937305017203571
1	1	0	0	0	0	2	494269,99	0,200000003	2,35818529	0,00051536228131916781	0,19992086322053389	0,000471450447	0,1855850531839815	-0,0069244278560521434	1,999244025104175