File: Experimentelles/Rohdaten/Batteriemessungen/AlteZelle/Studenten_Batterietests/S vs Li GCPL 300µm/ZView-Export/S vs Li GCPL 300µm_02_GCPL_C06_loop8.txt
EC-Lab ASCII FILE
Nb header lines : 3
mode	ox/red	error	control changes	Ns changes	counter inc.	Ns	time/s	control/V/mA	Ewe/V	dq/mA.h	<I>/mA	P/W	(Q-Qo)/mA.h	x	Capacity/mA.h
1	0	0	1	1	0	1	561766,56	-0,200000003	2,3427372	0	0	0	0	0	0
1	0	0	1	0	0	1	561996,56	-0,200000003	2,28848791	-0,00055587856452994874	-0,20011252549894902	0,000457955088	-0,012782314406431197	0,00047692533650844902	0,012782314406431197
1	0	0	1	0	0	1	562226,56	-0,200000003	2,2808876	-0,00055588112394594483	-0,20011344687140602	0,000456436275	-0,025567525020767226	0,00095395873442782042	0,025567525020767226
1	0	0	1	0	0	1	562456,57	-0,200000003	2,27521133	-0,00055587903587602906	-0,20011269517569248	0,000455298665	-0,038352852585661555	0,0014309964959297635	0,038352852585661555
1	0	0	1	0	0	1	562686,57	-0,200000003	2,2698586	-0,00055587788087791866	-0,20011227939349882	0,000454226567	-0,051138029604125146	0,0019080286403419642	0,051138029604125146
1	0	0	1	0	0	1	562916,58	-0,200000003	2,26532531	-0,00055588438359316851	-0,20011462032703056	0,000453324727	-0,063923329306707392	0,0023850653622635824	0,063923329306707392
1	0	0	1	0	0	1	563146,58	-0,200000003	2,26063943	-0,00055589039319753645	-0,20011678374397824	0,000452391891	-0,076708604834437158	0,002862101182188951	0,076708604834437158
1	0	0	1	0	0	1	563376,59	-0,200000003	2,25633454	-0,00055587645727727149	-0,20011176690688934	0,000451519096	-0,089493834639750182	0,0033391352961494765	0,089493834639750182
1	0	0	1	0	0	1	563606,59	-0,200000003	2,25178194	-0,00055587673236346912	-0,20011186593606093	0,000450608291	-0,10227905218748144	0,0038161689527631462	0,10227905218748144
1	0	0	1	0	0	1	563836,59	-0,200000003	2,24740076	-0,00055587762573940883	-0,20011218754536003	0,000449732295	-0,11506418765839995	0,0042931995469805779	0,11506418765839995
1	0	0	1	0	0	1	564066,60	-0,200000003	2,24281025	-0,00055588221059987936	-0,20011383806413584	0,000448817358	-0,12784944798066947	0,0047702347995697811	0,12784944798066947
1	0	0	1	0	0	1	564296,60	-0,200000003	2,23842907	-0,00055588407000899315	-0,20011450743884723	0,000447942119	-0,14063466827631893	0,0052472685587119738	0,14063466827631893
1	0	0	1	0	0	1	564526,61	-0,200000003	2,23383856	-0,00055588183863957722	-0,2001137041609415	0,00044702171	-0,15341993875559488	0,0057243041902727418	0,15341993875559488
1	0	0	1	0	0	1	564756,61	-0,200000003	2,22922873	-0,00055587602749384115	-0,20011161218775974	0,000446094549	-0,16620516834537258	0,0062013382961913549	0,16620516834537258
1	0	0	1	0	0	1	564986,62	-0,200000003	2,22461915	-0,00055587796325070989	-0,20011230904714682	0,000445173675	-0,17899038656103846	0,0066783719777265638	0,17899038656103846
1	0	0	1	0	0	1	565216,62	-0,200000003	2,219419	-0,00055587359968904	-0,20011073818512502	0,000444129575	-0,19177554480856896	0,0071554034217700122	0,19177554480856896
1	0	0	1	0	0	1	565446,62	-0,200000003	2,21351409	-0,00055588198213444813	-0,20011375581113629	0,000442954624	-0,20456073097873802	0,0076324359076446477	0,20456073097873802
1	0	0	1	0	0	1	565676,63	-0,200000003	2,20730424	-0,00055587912942386336	-0,20011272885693962	0,000441709679	-0,21734594462056611	0,0081094694185238195	0,21734594462056611
1	0	0	1	0	0	1	565906,63	-0,200000003	2,20063734	-0,00055587874121301709	-0,2001125891083184	0,000440375239	-0,23013109820896128	0,0085865006887286643	0,23013109820896128
1	0	0	1	0	0	1	566136,64	-0,200000003	2,19290376	-0,00055587769013726048	-0,20011221072815126	0,000438826828	-0,24291632908561238	0,0090635348426622554	0,24291632908561238
1	0	0	1	0	0	1	566366,64	-0,200000003	2,18404651	-0,00055587304495109453	-0,2001105384925329	0,000437050709	-0,25570146287790429	0,009540565374247872	0,25570146287790429
1	0	0	1	0	0	1	566596,65	-0,200000003	2,1743319	-0,00055587751611487725	-0,20011214808126973	0,00043511024	-0,26848661766675523	0,010017596689243336	0,26848661766675523
1	0	0	1	0	0	1	566826,65	-0,200000003	2,16296005	-0,00055587718638943296	-0,20011202938233869	0,00043283432	-0,28127175927075165	0,01049462751229415	0,28127175927075165
1	0	0	1	0	0	1	567056,65	-0,200000003	2,14983582	-0,00055587181576672531	-0,20011009599446925	0,000430203858	-0,29405689388861261	0,010971658074682859	0,29405689388861261
1	0	0	1	0	0	1	567286,66	-0,200000003	2,13429236	-0,0005558801135925783	-0,2001130831556832	0,000427099818	-0,30684198005904262	0,011448686829432781	0,30684198005904262
1	0	0	1	0	0	1	567516,66	-0,200000003	2,11636806	-0,00055586946548604301	-0,20010924990931146	0,000423504825	-0,31962710047268384	0,011925716861842952	0,31962710047268384
1	0	0	1	0	0	1	567746,67	-0,200000003	2,09490061	-0,00055588021919379629	-0,20011312117140781	0,000419217104	-0,33241222050758624	0,012402746880121869	0,33241222050758624
1	0	0	1	0	0	1	567976,67	-0,200000003	2,06981421	-0,00055588532941622867	-0,20011496081693846	0,000414200797	-0,3451974850195191	0,012879782289033046	0,3451974850195191
1	0	0	1	0	0	1	568206,68	-0,200000003	2,04068947	-0,0005558848574202921	-0,20011479090159197	0,000408372143	-0,35798278411677312	0,013356818988369054	0,35798278411677312
1	0	0	1	0	0	1	568436,68	-0,200000003	2,00882173	-0,00055587737726668518	-0,2001120980875409	0,000401989528	-0,37076805884036685	0,013833854778291026	0,37076805884036685
1	0	0	1	0	0	1	568666,68	-0,200000003	1,97771597	-0,00055586713612824685	-0,20010841136091027	0,000395757612	-0,38355311810252154	0,014310882529057014	0,38355311810252154
1	0	0	1	0	0	1	568896,69	-0,200000003	1,95367706	-0,0005558704514793223	-0,20010960485323811	0,000390949543	-0,39633804944375654	0,014787905506921504	0,39633804944375654
1	0	0	1	0	0	1	569126,69	-0,200000003	1,93664789	-0,00055586055347737344	-0,20010604163711741	0,000387534936	-0,40912299036859398	0,015264928842363078	0,40912299036859398
1	0	0	1	0	0	1	569356,70	-0,200000003	1,92487609	-0,00055586728572597101	-0,2001084652104207	0,000385183987	-0,421907922075448	0,015741951833869299	0,421907922075448
1	0	0	1	0	0	1	569586,70	-0,200000003	1,91693306	-0,00055586057789623744	-0,20010605043706138	0,000383589912	-0,43469280790847462	0,016218973113761344	0,43469280790847462
1	0	0	1	0	0	1	569816,71	-0,200000003	1,91224718	-0,00055584630706657965	-0,20010091303485507	0,000382642407	-0,44747752426069312	0,01669598807009657	0,44747752426069312
1	0	0	1	0	0	1	570046,71	-0,200000003	1,90929472	-0,00055585456674297651	-0,20010388646252266	0,000382057304	-0,4602622658617936	0,017173003968501523	0,4602622658617936
1	0	0	1	0	0	1	570276,72	-0,200000003	1,90792322	-0,00055586303916821875	-0,20010693647833651	0,000381788675	-0,47304710432518522	0,0176500234809688	0,47304710432518522
1	0	0	1	0	0	1	570506,72	-0,200000003	1,90782797	-0,00055586586148540166	-0,20010795249344358	0,000381771562	-0,48583200705231226	0,018127045391202448	0,48583200705231226
1	0	0	1	0	0	1	570736,72	-0,200000003	1,90818989	-0,000555864561924504	-0,20010748466030538	0,00038184307	-0,4986169042957177	0,018604067096831066	0,4986169042957177
1	0	0	1	0	0	1	570966,73	-0,200000003	1,90927565	-0,00055586147649917338	-0,20010637392804378	0,000382058235	-0,511401836468936	0,019081090105737965	0,511401836468936
1	0	0	1	0	0	1	571196,73	-0,200000003	1,9107995	-0,0005558694115620521	-0,20010923049703923	0,000382368627	-0,52418675562115258	0,019558112628813786	0,52418675562115258
1	0	0	1	0	0	1	571426,74	-0,200000003	1,91173279	-0,00055586595271776115	-0,20010798533647626	0,000382553	-0,53697176659870406	0,02003513857801631	0,53697176659870406
1	0	0	1	0	0	1	571656,74	-0,200000003	1,91245663	-0,00055586090182926918	-0,20010616705076301	0,000382694358	-0,54975660715664845	0,02051215816863416	0,54975660715664845
1	0	0	1	0	0	1	571886,75	-0,200000003	1,91209471	-0,00055585995786885427	-0,2001058272220768	0,000382621307	-0,56254148548643699	0,020989179168570307	0,56254148548643699
1	0	0	1	0	0	1	572116,75	-0,200000003	1,9114852	-0,00055585741111387808	-0,20010491040983094	0,000382497587	-0,57532623550861574	0,021466195381177018	0,57532623550861574
1	0	0	1	0	0	1	572346,75	-0,200000003	1,91127574	-0,00055586251854730976	-0,20010674905832861	0,000382459169	-0,58811108773712806	0,021943215407239453	0,58811108773712806
1	0	0	1	0	0	1	572576,76	-0,200000003	1,91230428	-0,00055586545803894598	-0,20010780725544678	0,000382667029	-0,60089590014480218	0,022420233947532874	0,60089590014480218
1	0	0	1	0	0	1	572806,76	-0,200000003	1,91321862	-0,00055586176041679238	-0,20010647613646736	0,000382847444	-0,61368073765829786	0,022897253424558253	0,61368073765829786
1	0	0	1	0	0	1	573036,77	-0,200000003	1,91449487	-0,0005558491326106919	-0,20010193021163485	0,000383094128	-0,62646538301180134	0,023374265731835958	0,62646538301180134
1	0	0	1	0	0	1	573266,77	-0,200000003	1,91529489	-0,00055585064953813952	-0,20010247629526163	0,000383255247	-0,63924996887762419	0,02385127581954832	0,63924996887762419
1	0	0	1	0	0	1	573496,78	-0,200000003	1,91580915	-0,00055585163530541798	-0,20010283116481808	0,000383358827	-0,65203463355320474	0,024328288847758704	0,65203463355320474
1	0	0	1	0	0	1	573726,78	-0,200000003	1,91594255	-0,00055586235148708026	-0,20010668891777533	0,000383392908	-0,66481941329333888	0,024805306169182282	0,66481941329333888
1	0	0	1	0	0	1	573956,78	-0,200000003	1,91683781	-0,00055585287617312538	-0,20010327786880451	0,000383565522	-0,67760414472782336	0,025282321688257133	0,67760414472782336
1	0	0	1	0	0	1	574186,79	-0,200000003	1,91786635	-0,00055585449186629722	-0,20010385950742429	0,000383772451	-0,69038876037902861	0,025759332887302154	0,69038876037902861
1	0	0	1	0	0	1	574416,79	-0,200000003	1,91965687	-0,00055585293944676717	-0,20010330064688784	0,000384129671	-0,70317336743510067	0,026236343765651206	0,70317336743510067
1	0	0	1	0	0	1	574646,80	-0,200000003	1,92213321	-0,00055585889883753325	-0,20010544598727824	0,000384629326	-0,71595814870738458	0,026713361144241357	0,71595814870738458
1	0	0	1	0	0	1	574876,80	-0,200000003	1,92474282	-0,00055586942289935213	-0,20010923457839062	0,000385158812	-0,72874302208422925	0,027190381959376506	0,72874302208422925
1	0	0	1	0	0	1	575106,81	-0,200000003	1,92731428	-0,00055586275620510176	-0,20010683460420918	0,000385668769	-0,74152796516139622	0,02766740537512439	0,74152796516139622
1	0	0	1	0	0	1	575336,81	-0,200000003	1,93011439	-0,00055585768265939418	-0,20010500816671056	0,000386225554	-0,75431283081997824	0,028144425902280781	0,75431283081997824
1	0	0	1	0	0	1	575566,81	-0,200000003	1,93318117	-0,00055586968799266554	-0,20010933000320282	0,000386847591	-0,76709766131398899	0,028621445117399738	0,76709766131398899
1	0	0	1	0	0	1	575796,82	-0,200000003	1,93641937	-0,00055586538926015296	-0,20010778248622819	0,00038749259	-0,77988259937680563	0,029098468346055469	0,77988259937680563
1	0	0	1	0	0	1	576026,82	-0,200000003	1,93996239	-0,00055586853168408083	-0,20010891374691757	0,000388203771	-0,79266749775166694	0,02957549009390023	0,79266749775166694
1	0	0	1	0	0	1	576256,83	-0,200000003	1,94413388	-0,00055586515569852448	-0,20010769841493885	0,00038903617	-0,80545245809179328	0,030052514153752339	0,80545245809179328
1	0	0	1	0	0	1	576486,83	-0,200000003	1,94756258	-0,00055586545358349875	-0,2001078056515159	0,000389722467	-0,81823736846972378	0,030529536349447757	0,81823736846972378
1	0	0	1	0	0	1	576716,84	-0,200000003	1,95040071	-0,00055587046816779507	-0,2001096108679641	0,000390293921	-0,83102230016356262	0,031006559340468358	0,83102230016356262
1	0	0	1	0	0	1	576946,84	-0,200000003	1,95302939	-0,00055586918478045197	-0,20010914885719626	0,000390819041	-0,84380722857740493	0,031483582209107885	0,84380722857740493
1	0	0	1	0	0	1	577176,84	-0,200000003	1,95544851	-0,00055587105909652173	-0,20010982359831104	0,000391304464	-0,85659229763409318	0,031960610325321094	0,85659229763409318
1	0	0	1	0	0	1	577406,85	-0,200000003	1,95710576	-0,00055586676517791213	-0,2001082778166384	0,000391633075	-0,86937727132036838	0,032437634883135962	0,86937727132036838
1	0	0	1	0	0	1	577636,85	-0,200000003	1,9591248	-0,00055586999130662938	-0,20010943920116803	0,000392039365	-0,88216219808036211	0,032914657690068179	0,88216219808036211
1	0	0	1	0	0	1	577866,86	-0,200000003	1,9607439	-0,00055587290707478918	-0,20011048885799501	0,000392365415	-0,89494718915643494	0,033391682896719782	0,89494718915643494
1	0	0	1	0	0	1	578096,86	-0,200000003	1,96282017	-0,00055586671068353786	-0,20010825819903203	0,000392776536	-0,9077321190472448	0,03386870582046695	0,9077321190472448
1	0	0	1	0	0	1	578326,87	-0,200000003	1,96468699	-0,00055586560610019488	-0,20010786055649552	0,000393149297	-0,92051700065022835	0,0343457269425304	0,92051700065022835
1	0	0	1	0	0	1	578556,87	-0,200000003	1,96615362	-0,00055585576574835507	-0,20010431808703584	0,000393435825	-0,93330174214798925	0,034822742837079616	0,93330174214798925
1	0	0	1	0	0	1	578786,87	-0,200000003	1,9678489	-0,00055585569188578266	-0,20010429149933853	0,000393775001	-0,94608649071131187	0,035299758995254451	0,94608649071131187
1	0	0	1	0	0	1	579016,88	-0,200000003	1,9692775	-0,00055586345736020147	-0,20010708701530528	0,000394066388	-0,95887123974733107	0,035776775171066221	0,95887123974733107
1	0	0	1	0	0	1	579246,88	-0,200000003	1,97106814	-0,00055585367032057709	-0,20010356375651869	0,000394417759	-0,97165592553975014	0,036253788987174234	0,97165592553975014
1	0	0	1	0	0	1	579476,89	-0,200000003	1,97257292	-0,00055585428838597414	-0,20010378625588352	0,000394719304	-0,98444061435257626	0,036730802915977702	0,98444061435257626
1	0	0	1	0	0	1	579706,89	-0,200000003	1,97398245	-0,00055586140444460838	-0,20010634798888746	0,000395006413	-0,99722538247374605	0,037207819803882106	0,99722538247374605
1	0	0	1	0	0	1	579936,90	-0,200000003	1,9756968	-0,00055586041399174259	-0,20010599143255123	0,000395348761	-1,0100101216292432	0,03768483561103831	1,0100101216292432
1	0	0	1	0	0	1	580166,90	-0,200000003	1,97704923	-0,00055585916258974202	-0,2001055409362905	0,000395618496	-1,0227948486101122	0,038161850963942778	1,0227948486101122
1	0	0	1	0	0	1	580396,91	-0,200000003	1,97847784	-0,00055586182899276416	-0,2001065008233536	0,000395906274	-1,0355795822570446	0,038638866565567034	1,0355795822570446
1	0	0	1	0	0	1	580626,91	-0,200000003	1,98030651	-0,00055586069329910816	-0,20010609198131469	0,000396271382	-1,0483644015767915	0,039115885363759181	1,0483644015767915
1	0	0	1	0	0	1	580856,91	-0,200000003	1,98190653	-0,00055585730931411187	-0,20010487376959168	0,000396589166	-1,0611491761160354	0,03959290249113056	1,0611491761160354
1	0	0	1	0	0	1	581086,92	-0,200000003	1,9837923	-0,00055586385654161376	-0,20010723072723325	0,000396971183	-1,0739340124080949	0,040069921922582509	1,0739340124080949
1	0	0	1	0	0	1	581316,92	-0,200000003	1,98562098	-0,00055586057903865971	-0,20010605084832566	0,000397334778	-1,0867187931160016	0,040546939280114982	1,0867187931160016
1	0	0	1	0	0	1	581546,93	-0,200000003	1,9874115	-0,00055585050888856243	-0,20010242566236467	0,000397685857	-1,0995035546304973	0,041023955921515488	1,0995035546304973
1	0	0	1	0	0	1	581776,93	-0,200000003	1,98935437	-0,00055585922341297075	-0,20010556282292365	0,000398080883	-1,1122883046236749	0,041500972133040134	1,1122883046236749
1	0	0	1	0	0	1	582006,94	-0,200000003	1,99104965	-0,00055586395124925504	-0,2001072648166849	0,000398423494	-1,1250731583075659	0,041977992213404704	1,1250731583075659
1	0	0	1	0	0	1	582236,94	-0,200000003	1,99310684	-0,00055586678805781728	-0,20010828604859053	0,000398837205	-1,137858049015947	0,042455013675202784	1,137858049015947
1	0	0	1	0	0	1	582466,94	-0,200000003	1,99495459	-0,0005558626469034288	-0,20010679525634579	0,000399203971	-1,1506429243362893	0,042932034562852435	1,1506429243362893
1	0	0	1	0	0	1	582696,95	-0,200000003	1,99676418	-0,00055584739865279866	-0,20010130599851482	0,000399555109	-1,1634275933843048	0,043409047754204237	1,1634275933843048
1	0	0	1	0	0	1	582926,95	-0,200000003	1,99885941	-0,00055586830096112346	-0,20010883068821261	0,000399989425	-1,1762124658987357	0,043886068537161574	1,1762124658987357
1	0	0	1	0	0	1	583156,96	-0,200000003	2,0002501	-0,00055586659072422317	-0,20010821501448963	0,000400266465	-1,188997428425648	0,0443630926786056	1,188997428425648
1	0	0	1	0	0	1	583386,96	-0,200000003	2,0020597	-0,00055586854663656819	-0,20010891912971194	0,000400630001	-1,2017824478070109	0,044840118941365638	1,2017824478070109
1	0	0	1	0	0	1	583616,97	-0,200000003	2,00337386	-0,00055587430697348378	-0,20011099281206179	0,000400897145	-1,2145673912193565	0,045317142369619488	1,2145673912193565
1	0	0	1	0	0	1	583846,97	-0,200000003	2,00512648	-0,00055587456551359757	-0,20011108588475504	0,000401248049	-1,2273524645067835	0,045794170643687245	1,2273524645067835
1	0	0	1	0	0	1	584076,97	-0,200000003	2,00636458	-0,00055586538795630131	-0,20010778202616848	0,000401489175	-1,240137466442764	0,046271196255536602	1,240137466442764
1	0	0	1	0	0	1	584306,98	-0,200000003	2,00775504	-0,00055587243609378739	-0,20011031930801818	0,0004017725	-1,2529224672177701	0,046748221824068435	1,2529224672177701
1	0	0	1	0	0	1	584536,98	-0,200000003	2,00885987	-0,00055587143572005965	-0,20010995918023872	0,000401992875	-1,2657075516949666	0,047225250515641542	1,2657075516949666
1	0	0	1	0	0	1	584766,99	-0,200000003	2,01028848	-0,00055587375753290125	-0,2001107950171663	0,000402280421	-1,2784925892001488	0,047702277454625638	1,2784925892001488
1	0	0	1	0	0	1	584996,99	-0,200000003	2,01114559	-0,00055587315217488339	-0,20011057709237206	0,000402451493	-1,2912776842453317	0,048179306540504518	1,2912776842453317
1	0	0	1	0	0	1	585227,00	-0,200000003	2,01251721	-0,00055586684156705946	-0,2001083053068969	0,000402721402	-1,3040627342144022	0,048656333944533043	1,3040627342144022
1	0	0	1	0	0	1	585457,00	-0,200000003	2,01335526	-0,00055586697578926886	-0,20010835362831446	0,000402889214	-1,3168477040910413	0,049133358360205267	1,3168477040910413
1	0	0	1	0	0	1	585687,00	-0,200000003	2,01406002	-0,00055585860802564365	-0,20010534128764592	0,000403024169	-1,3296325726358018	0,049610378995048858	1,3296325726358018
1	0	0	1	0	0	1	585917,01	-0,200000003	2,01487899	-0,00055586584300713402	-0,2001079458413921	0,000403193291	-1,3424174262538778	0,050087399072957779	1,3424174262538778
1	0	0	1	0	0	1	586147,01	-0,200000003	2,01546955	-0,00055586027752028576	-0,20010594230374931	0,000403307436	-1,3552022188211672	0,05056441687297977	1,3552022188211672
1	0	0	1	0	0	1	586377,02	-0,200000003	2,0155077	-0,00055586396542936563	-0,20010726992608784	0,000403317739	-1,3679870562896362	0,051041436348325139	1,3679870562896362
1	0	0	1	0	0	1	586607,02	-0,200000003	2,01607919	-0,00055586724205729037	-0,20010844948999085	0,000403434475	-1,3807720071635901	0,051518460054981632	1,3807720071635901
1	0	0	1	0	0	1	586837,03	-0,200000003	2,01646018	-0,00055587299255861178	-0,20011051963159328	0,000403514889	-1,393556974048963	0,051995484359045696	1,393556974048963
1	0	0	1	0	0	1	587067,03	-0,200000003	2,01657438	-0,00055586468692786157	-0,20010752966066912	0,000403531711	-1,4063419039145373	0,052472507281851296	1,4063419039145373
1	0	0	1	0	0	1	587297,03	-0,200000003	2,01646018	-0,00055587429832584333	-0,20011098969896966	0,000403515849	-1,4191268584776376	0,052949531126154797	1,4191268584776376
1	0	0	1	0	0	1	587527,04	-0,200000003	2,01657438	-0,00055586798770725728	-0,20010871791893834	0,000403534126	-1,431911883081977	0,053426557583791104	1,431911883081977
1	0	0	1	0	0	1	587757,04	-0,200000003	2,01655531	-0,00055586912730087846	-0,20010912816493834	0,000403531129	-1,4446967833560304	0,053903579402497274	1,4446967833560304
1	0	0	1	0	0	1	587987,05	-0,200000003	2,01609826	-0,00055586699690090291	-0,20010836123534858	0,000403438113	-1,4574817590717677	0,054380604036034099	1,4574817590717677
1	0	0	1	0	0	1	588217,05	-0,200000003	2,01583147	-0,00055587196433213018	-0,20011014947701069	0,000403388345	-1,4702667847112	0,05485763053229111	1,4702667847112
1	0	0	1	0	0	1	588447,06	-0,200000003	2,0154314	-0,00055587119290398227	-0,20010987175877411	0,000403307728	-1,4830518558097251	0,055334658724688	1,4830518558097251
1	0	0	1	0	0	1	588677,06	-0,200000003	2,01478386	-0,00055587707243031923	-0,20011198835083939	0,000403182406	-1,4958368703075606	0,05581168480523705	1,4958368703075606
1	0	0	1	0	0	1	588907,06	-0,200000003	2,01398373	-0,00055586991401265069	-0,20010941137585821	0,000403017097	-1,5086220208504992	0,056288715961811821	1,5086220208504992
1	0	0	1	0	0	1	589137,07	-0,200000003	2,01297426	-0,00055586694979253741	-0,20010834426733738	0,000402812933	-1,5214070625832816	0,056765743058533357	1,5214070625832816
1	0	0	1	0	0	1	589367,07	-0,200000003	2,01165986	-0,00055586567933195162	-0,20010788691943286	0,000402548991	-1,5341919844756736	0,057242765683848806	1,5341919844756736
1	0	0	1	0	0	1	589597,08	-0,200000003	2,01040268	-0,00055586804586566157	-0,20010873885557075	0,000402299134	-1,5469769838955491	0,057719791201818906	1,5469769838955491
1	0	0	1	0	0	1	589827,08	-0,200000003	2,008955	-0,00055586894506298829	-0,20010906256052982	0,000402010104	-1,559762016497401	0,058196817957853146	1,559762016497401
1	0	0	1	0	0	1	590057,09	-0,200000003	2,00689793	-0,0005558746915252672	-0,20011113124810426	0,000401602621	-1,5725471575498736	0,058673848760325875	1,5725471575498736
1	0	0	1	0	0	1	590287,09	-0,200000003	2,00445962	-0,00055587199440350138	-0,20011016030250106	0,000401112746	-1,5853322787900528	0,059150878823575283	1,5853322787900528
1	0	0	1	0	0	1	590517,10	-0,200000003	2,00091672	-0,0005558766411782967	-0,20011183311001526	0,000400407123	-1,5981173956382787	0,059627908722955021	1,5981173956382787
1	0	0	1	0	0	1	590747,10	-0,200000003	1,99628794	-0,00055586203387214086	-0,20010657457854422	0,000399470329	-1,6109024736213203	0,060104937172222464	1,6109024736213203
1	0	0	1	0	0	1	590977,10	-0,200000003	1,9904021	-0,00055586268563237453	-0,20010680920782246	0,000398293021	-1,6236873789140522	0,060581959178182285	1,6236873789140522
1	0	0	1	0	0	1	591207,11	-0,200000003	1,98325896	-0,00055587386074165504	-0,20011083217161997	0,00039687159	-1,6364723600562778	0,061058984014188672	1,6364723600562778
1	0	0	1	0	0	1	591437,11	-0,200000003	1,97478247	-0,00055586464465906214	-0,20010751444418704	0,000395168812	-1,6492572499232208	0,061536005444591565	1,6492572499232208
1	0	0	1	0	0	1	591667,12	-0,200000003	1,96502984	-0,00055586328277157402	-0,20010702417389766	0,000393216265	-1,6620421284651418	0,062013026452442662	1,6620421284651418
1	0	0	1	0	0	1	591897,12	-0,200000003	1,95297229	-0,00055587005138728352	-0,2001094608204792	0,000390808244	-1,6748270513256109	0,062490049113878374	1,6748270513256109
1	0	0	1	0	0	1	592127,13	-0,200000003	1,93851471	-0,0005558675535428855	-0,20010856161571085	0,000387913402	-1,6876120121002934	0,062967073189944346	1,6876120121002934
1	0	0	1	0	0	1	592357,13	-0,200000003	1,92030454	-0,00055586652056045005	-0,20010818974668752	0,000384268671	-1,7003969395069917	0,06344409602100599	1,7003969395069917
1	0	0	1	0	0	1	592587,13	-0,200000003	1,89645612	-0,0005558673895067639	-0,20010850257080458	0,000379496982	-1,713181812180255	0,063921116809889574	1,713181812180255
1	0	0	1	0	0	1	592817,14	-0,200000003	1,86460757	-0,00055586979884985427	-0,20010936991802995	0,000373125455	-1,7259667360416541	0,064398139508671322	1,7259667360416541
1	0	0	1	0	0	1	593047,14	-0,200000003	1,81950128	-0,00055585933046208493	-0,20010560136919907	0,000364092411	-1,738751582058351	0,064875159302962573	1,738751582058351
1	0	0	1	0	0	1	593277,15	-0,200000003	1,75753736	-0,00055587321942216819	-0,20011060130094	0,000351701863	-1,751536551971665	0,065352183720003174	1,751536551971665
1	0	0	1	0	0	1	593507,15	-0,200000003	1,66736305	-0,0005558649923072921	-0,20010763959519971	0,000333652075	-1,7643215262019629	0,065829208298116262	1,7643215262019629
1	0	0	1	0	0	1	593737,16	-0,200000003	1,50886273	-0,00055586900802536147	-0,20010908522655853	0,000301937136	-1,7771064839077923	0,066306232259679219	1,7771064839077923
1	1	0	0	0	0	2	593951,65	0,200000003	2,30064058	0,00055536283557116986	0,19992686656476448	0,000459959876	-1,7668044979543581	0,065921851312589158	0,011107265329991778
1	1	0	0	0	0	2	594181,65	0,200000003	2,30168819	0,00055536454266309741	0,1999274811063185	0,000460170733	-1,7540310720576874	0,065445257618330598	0,023880691226662858
1	1	0	0	0	0	2	594411,66	0,200000003	2,28854513	0,0005553695499400297	0,19992928369216502	0,000457547198	-1,7412576176634621	0,064968662860789965	0,036654145620887488
1	1	0	0	0	0	2	594641,66	0,200000003	2,2777257	0,00055536531052986784	0,19992775753316509	0,000455380592	-1,7284843135787526	0,064492073711499469	0,049427449705596614
1	1	0	0	0	0	2	594871,66	0,200000003	2,27054453	0,00055536227040737869	0,19992666310962016	0,000453942397	-1,7157110122426912	0,06401548466476471	0,062200751041658227
1	1	0	0	0	0	2	595101,67	0,200000003	2,26656342	0,00055535478298117715	0,19992396768680246	0,000453140354	-1,7029376745350202	0,063538894260956314	0,074974088749329242
1	1	0	0	0	0	2	595331,67	0,200000003	2,26414418	0,00055536008738395238	0,19992587723594387	0,000452661014	-1,6901644234983472	0,06306230709095936	0,087747339786002189
1	1	0	0	0	0	2	595561,68	0,200000003	2,26290607	0,00055535413835528826	0,1999237356258401	0,000452408625	-1,6773911474713482	0,062585718988539763	0,10052061581300115
1	1	0	0	0	0	2	595791,68	0,200000003	2,26242995	0,00055536205242243078	0,19992658462720285	0,000452319888	-1,6646179176036573	0,06210913260838601	0,11329384568069211
1	1	0	0	0	0	2	596021,69	0,200000003	2,26212502	0,00055535443345540102	0,19992384185290368	0,000452252716	-1,651844668644985	0,061632545515922061	0,12606709463936498
1	1	0	0	0	0	2	596251,69	0,200000003	2,2622776	0,00055536024978674118	0,1999259356951952	0,000452287961	-1,6390714953721622	0,061155961247398925	0,13884026791218742
1	1	0	0	0	0	2	596481,69	0,200000003	2,2625823	0,00055535701069649722	0,19992476963994883	0,000452346256	-1,6262982924007504	0,060679375870781517	0,15161347088359869
1	1	0	0	0	0	2	596711,70	0,200000003	2,26313472	0,00055535603186488154	0,1999244172764936	0,00045245589	-1,6135250459956458	0,060202788873594611	0,16438671728870349
1	1	0	0	0	0	2	596941,70	0,200000003	2,26374412	0,0005553587381343047	0,19992539151519162	0,00045257993	-1,6007518626596963	0,059726204229602701	0,17715990062465267
1	1	0	0	0	0	2	597171,71	0,200000003	2,26443005	0,00055535859256982797	0,199925339112964	0,000452716951	-1,5879786712229338	0,059249619283358541	0,18993309206141523
1	1	0	0	0	0	2	597401,71	0,200000003	2,26502037	0,00055536609508759443	0,19992803996864307	0,000452841079	-1,575205364927024	0,058773030051565184	0,20270639835732512
1	1	0	0	0	0	2	597631,72	0,200000003	2,26603007	0,00055535508770661216	0,1999240773858991	0,000453033979	-1,5624320271844573	0,058296439646454771	0,21547973609989219
1	1	0	0	0	0	2	597861,72	0,200000003	2,26698232	0,0005553582353037264	0,19992521049958256	0,000453226909	-1,5496587611471002	0,057819851916762138	0,22825300213724947
1	1	0	0	0	0	2	598091,72	0,200000003	2,26814437	0,0005553635760727856	0,19992713314034038	0,00045346361	-1,5368854748636214	0,057343263431659482	0,24102628842072762
1	1	0	0	0	0	2	598321,73	0,200000003	2,26902056	0,0005553648839708832	0,19992760397481414	0,000453639834	-1,5241121723926381	0,05686667434257927	0,25379959089171133
1	1	0	0	0	0	2	598551,73	0,200000003	2,26987767	0,00055537243522289728	0,1999303223744929	0,000453817367	-1,5113388343687875	0,056390083926973779	0,26657292891556182
1	1	0	0	0	0	2	598781,74	0,200000003	2,27124929	0,00055536366038686694	0,19992716349283971	0,000454084424	-1,4985654968443642	0,055913493530002592	0,2793462664399849
1	1	0	0	0	0	2	599011,74	0,200000003	2,27239203	0,00055536034167392384	0,19992596877861459	0,000454310182	-1,4857921120698877	0,055436901370068397	0,29211965121446112
1	1	0	0	0	0	2	599241,75	0,200000003	2,27338266	0,00055536152840819622	0,19992639599027552	0,000454509194	-1,473018858909281	0,054960314120824627	0,30489290437506778
1	1	0	0	0	0	2	599471,75	0,200000003	2,27423978	0,00055535839144885549	0,19992526670844611	0,000454677996	-1,4602456190166701	0,054483727366627629	0,31766614426767885
1	1	0	0	0	0	2	599701,75	0,200000003	2,27566838	0,00055535149463680051	0,19992278389574653	0,000454957946	-1,4474723983892224	0,054007141331239763	0,33043936489512678
1	1	0	0	0	0	2	599931,76	0,200000003	2,27671599	0,00055535843662752045	0,19992528297478746	0,000455173082	-1,4346991925425731	0,053530555847343366	0,34321257074177587
1	1	0	0	0	0	2	600161,76	0,200000003	2,27816367	0,00055535370239532653	0,19992357868320096	0,000455458649	-1,4219260948329018	0,053053974398183008	0,35598566845144736
1	1	0	0	0	0	2	600391,77	0,200000003	2,27888751	0,00055534891562329395	0,19992185547762771	0,000455599424	-1,4091529284496733	0,05257739038671991	0,36875883483467584
1	1	0	0	0	0	2	600621,77	0,200000003	2,28014469	0,00055535153075969882	0,1999227969090552	0,000455852918	-1,3963797950258499	0,052100807605016512	0,38153196825849933
1	1	0	0	0	0	2	600851,78	0,200000003	2,28123045	0,00055535395121408838	0,19992366825627322	0,000456071954	-1,383606621298577	0,051624223319537235	0,39430514198577235
1	1	0	0	0	0	2	601081,78	0,200000003	2,28263998	0,00055536132255362138	0,19992632188867498	0,00045635982	-1,3708333787210994	0,051147636465164243	0,40707838456325082
1	1	0	0	0	0	2	601311,79	0,200000003	2,28384018	0,00055536821584237946	0,19992880342602941	0,000456605427	-1,3580599734705352	0,050671043541239686	0,4198517898138151
1	1	0	0	0	0	2	601541,79	0,200000003	2,28498292	0,00055536542937407885	0,1999278003162777	0,000456831622	-1,3452865579845762	0,050194450235418778	0,43262520529977318
1	1	0	0	0	0	2	601771,79	0,200000003	2,28620219	0,0005553619933782352	0,19992656338100125	0,000457072543	-1,3325132991664128	0,049717862775083968	0,44539846411793594
1	1	0	0	0	0	2	602001,80	0,200000003	2,28740215	0,00055535816862185792	0,19992518649456067	0,000457309303	-1,319740044309527	0,049241275462549754	0,45817171897482125
1	1	0	0	0	0	2	602231,80	0,200000003	2,28848791	0,00055536033176547955	0,19992596521164163	0,000457528164	-1,3069667042700765	0,04876468497173952	0,47094505901427142
1	1	0	0	0	0	2	602461,81	0,200000003	2,28968787	0,00055536334554768269	0,19992705014355203	0,00045777054	-1,2941933952654605	0,048288095638880685	0,48371836801888698
1	1	0	0	0	0	2	602691,81	0,200000003	2,29081178	0,00055535692444774842	0,19992473859330966	0,000457989954	-1,2814201604693258	0,047811509074840064	0,49649160281502208
1	1	0	0	0	0	2	602921,82	0,200000003	2,29214525	0,00055535928347872365	0,19992558783084112	0,000458258495	-1,2686468556562686	0,047334919898373926	0,50926490762807942
1	1	0	0	0	0	2	603151,82	0,200000003	2,29317379	0,00055536512821664403	0,19992769189232726	0,000458468945	-1,2558735365208016	0,046858330187519418	0,52203822676354662
1	1	0	0	0	0	2	603381,82	0,200000003	2,29445004	0,00055536486272596653	0,19992759632678778	0,000458723895	-1,243100049374857	0,046381734207968102	0,5348117139094912
1	1	0	0	0	0	2	603611,83	0,200000003	2,29574537	0,00055536719197945466	0,19992843484229779	0,000458984781	-1,230326670858545	0,045905142281534438	0,54758509242580333
1	1	0	0	0	0	2	603841,83	0,200000003	2,29692626	0,0005553700606226921	0,1999294675344713	0,000459223258	-1,2175532637695014	0,045428549289013734	0,56035849951484717
1	1	0	0	0	0	2	604071,84	0,200000003	2,29816437	0,00055536168365263277	0,19992645188187808	0,000459463859	-1,2047797418189808	0,04495195201085689	0,57313202146536768
1	1	0	0	0	0	2	604301,84	0,200000003	2,29925013	0,00055536299880097312	0,19992692532639024	0,000459682022	-1,1920063107417432	0,044475358123304416	0,58590545254260544
1	1	0	0	0	0	2	604531,85	0,200000003	2,30050731	0,00055536977247479885	0,1999293638031776	0,00045993895	-1,1792330071867774	0,04399876899377936	0,59867875609757056
1	1	0	0	0	0	2	604761,85	0,200000003	2,30184078	0,00055536261447353498	0,19992678697111056	0,000460199633	-1,1664595160859192	0,043522172866664902	0,61145224719842906
1	1	0	0	0	0	2	604991,85	0,200000003	2,30307889	0,00055536995003786349	0,19992942772468054	0,000460453244	-1,1536859819340627	0,043045575133259814	0,62422578135028518
1	1	0	0	0	0	2	605221,86	0,200000003	2,30427885	0,00055535884151856102	0,19992542873282502	0,00046068395	-1,1409127079537691	0,042568987107205536	0,63699905533057907
1	1	0	0	0	0	2	605451,86	0,200000003	2,30538368	0,00055536090990073152	0,19992617333642419	0,000460906536	-1,1281394414709267	0,042092399360891251	0,64977232181342182
1	1	0	0	0	0	2	605681,87	0,200000003	2,30671692	0,00055536074730836685	0,1999261147949624	0,000461172953	-1,1153661772168826	0,041615811697736429	0,66254558606746598
1	1	0	0	0	0	2	605911,87	0,200000003	2,30793619	0,00055536580027971008	0,19992793383514272	0,000461420917	-1,1025928355375426	0,041139221145739699	0,67531892774680627
1	1	0	0	0	0	2	606141,88	0,200000003	2,30930758	0,00055535916791359584	0,19992554622352154	0,000461689575	-1,0898194589487464	0,040662629291224243	0,68809230433560218
1	1	0	0	0	0	2	606371,88	0,200000003	2,31035519	0,00055535629874881766	0,19992451334359696	0,000461896649	-1,0770462298140763	0,04018604293842048	0,700865533470272
1	1	0	0	0	0	2	606601,88	0,200000003	2,31172681	0,00055535399028493299	0,19992368232151318	0,000462168944	-1,0642730448571859	0,039709458233949082	0,71363871842716275
1	1	0	0	0	0	2	606831,89	0,200000003	2,31273627	0,00055536169876903296	0,19992645732367994	0,000462377182	-1,0514997514598379	0,039232869483418394	0,72641201182451034
1	1	0	0	0	0	2	607061,89	0,200000003	2,3140316	0,0005553635908845399	0,19992713847247178	0,000462637719	-1,0387263994387166	0,03875627854555591	0,73918536384563162
1	1	0	0	0	0	2	607291,90	0,200000003	2,31546021	0,00055535678496460128	0,19992468838730176	0,000462917669	-1,0259531394857418	0,038279691042879757	0,75195862379860659
1	1	0	0	0	0	2	607521,90	0,200000003	2,31664109	0,0005553677722695801	0,19992864374282019	0,000463162898	-1,0131798385451371	0,037803102010900038	0,76473192473921139
1	1	0	0	0	0	2	607751,91	0,200000003	2,31774592	0,00055536226653556026	0,19992666171579168	0,000463379198	-1,0004064800170662	0,037326510830254509	0,77750528326728205
1	1	0	0	0	0	2	607981,91	0,200000003	2,31862211	0,00055535327701436147	0,19992342554892912	0,000463546865	-0,98763325185541747	0,036849924513755488	0,79027851142893082
1	1	0	0	0	0	2	608211,91	0,200000003	2,31984138	0,00055535448130220173	0,19992385908441062	0,000463791628	-0,97486013314578291	0,036373342281058266	0,80305163013856538
1	1	0	0	0	0	2	608441,92	0,200000003	2,32121277	0,00055535983368588819	0,19992578590635578	0,000464070297	-0,96208692216648179	0,035896756605655725	0,81582484111786662
1	1	0	0	0	0	2	608671,92	0,200000003	2,32233667	0,000555359212572376	0,19992556230969011	0,000464294455	-0,94931366143834688	0,035420169074057312	0,82859810184600141
1	1	0	0	0	0	2	608901,93	0,200000003	2,32323194	0,00055535139831403891	0,19992274922951296	0,000464466924	-0,93654044503375731	0,034943583196229971	0,84137131825059098
1	1	0	0	0	0	2	609131,93	0,200000003	2,32422233	0,00055536068816896934	0,1999260935051791	0,000464672688	-0,92376720446784205	0,034466996416911072	0,85414455881650624
1	1	0	0	0	0	2	609361,94	0,200000003	2,3253653	0,00055535480911201901	0,19992397708674672	0,000464896293	-0,91099398352100774	0,033990410369606477	0,86691777976334054
1	1	0	0	0	0	2	609591,94	0,200000003	2,32645106	0,00055536592002958067	0,19992797694428666	0,000465122663	-0,89822067481818189	0,03351382104800784	0,8796910884661664
1	1	0	0	0	0	2	609821,94	0,200000003	2,32721305	0,0005553672711120711	0,19992846332019507	0,000465276127	-0,88544728679701683	0,033037228766935315	0,89246447648733146
1	1	0	0	0	0	2	610051,95	0,200000003	2,32776523	0,0005553562627153264	0,19992450038109322	0,000465377292	-0,87267395775087514	0,032560638686300224	0,90523780553347315
1	1	0	0	0	0	2	610281,95	0,200000003	2,32847023	0,00055536468495428557	0,19992753233018438	0,000465525314	-0,85990074117742579	0,03208405280217248	0,9180110221069225
1	1	0	0	0	0	2	610511,96	0,200000003	2,3292892	0,00055535683967752589	0,1999247080835848	0,000465682475	-0,84712744951669056	0,031607464116437158	0,93078431376765786
1	1	0	0	0	0	2	610741,96	0,200000003	2,33005118	0,0005553608646765351	0,19992615705601917	0,00046583818	-0,83435411851063962	0,031130873962675219	0,94355764477370867
1	1	0	0	0	0	2	610971,97	0,200000003	2,3306036	0,00055535486357741888	0,19992399670090464	0,000465943594	-0,82158090678086323	0,030654288259271437	0,95633085650348506
1	1	0	0	0	0	2	611201,97	0,200000003	2,33115602	0,0005553639528652032	0,19992726878306362	0,000466061669	-0,80880764812095002	0,030177700804841152	0,9691041151633984
1	1	0	0	0	0	2	611431,98	0,200000003	2,33174634	0,00055536204879730938	0,19992658333149331	0,000466178084	-0,79603429316723533	0,029701109757559667	0,98187747011711296
1	1	0	0	0	0	2	611661,98	0,200000003	2,33235598	0,0005553675544361273	0,19992856532424973	0,000466304598	-0,78326085493084134	0,02922451560288944	0,99465090835350694
1	1	0	0	0	0	2	611891,98	0,200000003	2,33256555	0,00055535354432794778	0,19992352178001315	0,000466334721	-0,77048754969910221	0,028747926410801718	1,0074242135852458
1	1	0	0	0	0	2	612121,99	0,200000003	2,33302259	0,0005553571069124672	0,19992480428635712	0,000466429075	-0,75771429284972109	0,028271339023924826	1,0201974704346266
1	1	0	0	0	0	2	612351,99	0,200000003	2,33363223	0,0005553574329854713	0,1999249216611248	0,000466551253	-0,7449410000756704	0,027794750296650208	1,0329707632086771
1	1	0	0	0	0	2	612582,00	0,200000003	2,33407021	0,00055535130675716531	0,19992271626500262	0,000466633646	-0,73216782911570598	0,027318166114422928	1,0457439341686419
1	1	0	0	0	0	2	612812,00	0,200000003	2,33458471	0,00055536432728419706	0,19992740356438806	0,000466747471	-0,71939461951797171	0,026841580490568506	1,0585171437663757
1	1	0	0	0	0	2	613042,01	0,200000003	2,33485126	0,00055536522030250893	0,19992772504261613	0,000466801488	-0,70662115939106586	0,02636498551913385	1,071290603893281
1	1	0	0	0	0	2	613272,01	0,200000003	2,33530831	0,00055536946981896966	0,19992925484912506	0,000466896454	-0,69384776245618099	0,025888392905478467	1,0840640008281666
1	1	0	0	0	0	2	613502,01	0,200000003	2,33568931	0,0005553648344410791	0,19992758614441949	0,000466968719	-0,6810744047179424	0,025411801754302653	1,0968373585664048
1	1	0	0	0	0	2	613732,02	0,200000003	2,33599424	0,00055535258181227571	0,19992317528087776	0,000467019388	-0,66830113087812595	0,024935213733489766	1,1096106324062218
1	1	0	0	0	0	2	613962,02	0,200000003	2,33622265	0,00055536013598657318	0,19992589473255885	0,000467071397	-0,65552788430221235	0,02445862672992976	1,1223838789821352
1	1	0	0	0	0	2	614192,03	0,200000003	2,33660364	0,00055536252299033939	0,19992675403777856	0,00046714957	-0,64275450644732851	0,023982034828174861	1,1351572568370187
1	1	0	0	0	0	2	614422,03	0,200000003	2,33681321	0,00055535850022236512	0,19992530586850163	0,000467188103	-0,62998131895799846	0,02350545002921473	1,1479304443263485
1	1	0	0	0	0	2	614652,04	0,200000003	2,33704185	0,00055535998854123885	0,19992584165323517	0,000467235048	-0,61720806244695501	0,02302886265496167	1,1607037008373922
1	1	0	0	0	0	2	614882,04	0,200000003	2,33715606	0,00055534942908419507	0,19992204032008112	0,000467249018	-0,60443483866986278	0,022552276502056336	1,1734769246144843
1	1	0	0	0	0	2	615112,04	0,200000003	2,3372705	0,00055535968307157357	0,19992573168622064	0,000467280508	-0,59166166541346573	0,022075692234146067	1,1862500978708814
1	1	0	0	0	0	2	615342,05	0,200000003	2,33742285	0,0005553595088314679	0,19992566896096048	0,000467310834	-0,57888857456185933	0,021599111040869328	1,199023188722488
1	1	0	0	0	0	2	615572,05	0,200000003	2,3376894	0,00055535697038802842	0,19992475513848208	0,00046736197	-0,56611543910822202	0,021122528183430858	1,2117963241761256
1	1	0	0	0	0	2	615802,06	0,200000003	2,33778477	0,00055535018081797485	0,19992231093916016	0,000467375328	-0,55334233166131898	0,020645946370961293	1,224569431623029
1	1	0	0	0	0	2	616032,06	0,200000003	2,33803225	0,00055535803963492307	0,19992514005315389	0,000467431411	-0,54056913316103661	0,020169361161167722	1,2373426301233109
1	1	0	0	0	0	2	616262,07	0,200000003	2,33814669	0,00055536277396728589	0,19992684438312784	0,000467458274	-0,5277959144570985	0,019692775197548592	1,250115848827249
1	1	0	0	0	0	2	616492,07	0,200000003	2,33824182	0,00055536218800064589	0,19992663343444374	0,000467476813	-0,51502259553619955	0,01921618549469991	1,2628891677481477
1	1	0	0	0	0	2	616722,07	0,200000003	2,33860373	0,00055535982860128083	0,19992578407593152	0,000467547186	-0,5022493179912951	0,018739597335645213	1,2756624452930518
1	1	0	0	0	0	2	616952,08	0,200000003	2,33879423	0,00055536217072026605	0,1999266272229335	0,000467587233	-0,48947599176148038	0,018263007360091056	1,2884357715228662
1	1	0	0	0	0	2	617182,08	0,200000003	2,33906102	0,00055535242997606586	0,19992312062086864	0,000467632373	-0,47670274917766317	0,017786420505481533	1,3012090141066838
1	1	0	0	0	0	2	617412,09	0,200000003	2,33932757	0,00055536811705678701	0,1999287678638839	0,000467698876	-0,46392957969065203	0,017309836378212118	1,313982183593695
1	1	0	0	0	0	2	617642,09	0,200000003	2,33947992	0,00055536254645221766	0,19992676248389613	0,000467724632	-0,45115627997978458	0,016833247392115539	1,3267554833045622
1	1	0	0	0	0	2	617872,10	0,200000003	2,33957529	0,00055535905688256026	0,19992550626240886	0,000467740785	-0,43838292609936749	0,016356656384880234	1,3395288371849797
1	1	0	0	0	0	2	618102,10	0,200000003	2,33978486	0,00055536121713535654	0,19992628393881229	0,000467784499	-0,42560972993131878	0,015880071262105437	1,3523020333530274
1	1	0	0	0	0	2	618332,10	0,200000003	2,33984184	0,00055536240862227155	0,19992671286604726	0,000467796897	-0,41283650344122522	0,015403485007974378	1,3650752598431211
1	1	0	0	0	0	2	618562,11	0,200000003	2,34010863	0,0005553577159916361	0,19992502355074061	0,000467846286	-0,4000633776979113	0,014926902512841123	1,3778483855864352
1	1	0	0	0	0	2	618792,11	0,200000003	2,34033728	0,00055535016395813888	0,19992230486973318	0,000467885635	-0,38729011347370995	0,01445031485079977	1,3906216498106365
1	1	0	0	0	0	2	619022,12	0,200000003	2,34043241	0,00055536265086465414	0,19992680006235779	0,000467915175	-0,37451690861733914	0,013973729403851994	1,4033948546670074
1	1	0	0	0	0	2	619252,12	0,200000003	2,34064198	0,00055536097179767162	0,19992619561424938	0,000467955659	-0,36174363768779558	0,013497141491625309	1,416168125596551
1	1	0	0	0	0	2	619482,13	0,200000003	2,34090853	0,00055534620211025082	0,19992087863360282	0,000467996491	-0,34897052359673299	0,013020559431253214	1,4289412396876142
1	1	0	0	0	0	2	619712,13	0,200000003	2,34121346	0,00055535985847976467	0,19992579482267408	0,00046806896	-0,33619732575838189	0,012543974246157192	1,4417144375259658
1	1	0	0	0	0	2	619942,14	0,200000003	2,3414228	0,00055536949711624122	0,19992926467595827	0,000468118931	-0,32342394752361382	0,012067382330228304	1,4544878157607338
1	1	0	0	0	0	2	620172,14	0,200000003	2,34191823	0,00055535523030824134	0,19992412872152163	0,000468205952	-0,3106507109001088	0,011590795698006038	1,4672610523842381
1	1	0	0	0	0	2	620402,14	0,200000003	2,34208965	0,00055535644064595302	0,19992456443491597	0,000468241255	-0,29787755107569766	0,011114211931261224	1,4800342122086496
1	1	0	0	0	0	2	620632,15	0,200000003	2,34247065	0,00055534892742749722	0,19992185972706109	0,000468311075	-0,28510448286368938	0,010637631582698336	1,4928072804206573
1	1	0	0	0	0	2	620862,15	0,200000003	2,34294677	0,00055535434653030496	0,19992381056743885	0,000468410843	-0,27233135796107587	0,010161049118932744	1,5055804053232704
1	1	0	0	0	0	2	621092,16	0,200000003	2,34348011	0,00055535887695269453	0,19992544148887354	0,000468521292	-0,25955815842260909	0,0096844638704031168	1,5183536048617373
1	1	0	0	0	0	2	621322,16	0,200000003	2,34403253	0,00055535172326697248	0,19992286621037238	0,000468625687	-0,2467850295404775	0,0092078812581563546	1,5311267337438691
1	1	0	0	0	0	2	621552,17	0,200000003	2,34452772	0,00055535060811125574	0,19992246476185277	0,000468723767	-0,23401190135649011	0,0087312986719582912	1,5438998619278563
1	1	0	0	0	0	2	621782,17	0,200000003	2,34504199	0,0005553598614194327	0,19992579589024432	0,000468834391	-0,22123878599164138	0,0082547165640595264	1,556672977292705
1	1	0	0	0	0	2	622012,17	0,200000003	2,3455565	0,00055536049826857114	0,19992602515162906	0,000468937797	-0,20846545918439488	0,0077781265669606144	1,5694463040999514
1	1	0	0	0	0	2	622242,18	0,200000003	2,3462801	0,00055535922695530778	0,19992556748744829	0,000469081366	-0,19569217091193043	0,007301538007646231	1,582219592372416
1	1	0	0	0	0	2	622472,18	0,200000003	2,34662318	0,00055535076271245875	0,19992252040793133	0,000469142833	-0,18291893141107002	0,0068249512680659674	1,5949928318732762
1	1	0	0	0	0	2	622702,19	0,200000003	2,34708023	0,00055534933264636339	0,19992200559613158	0,000469232997	-0,17014577095561293	0,0063483674777759808	1,6077659923287334
1	1	0	0	0	0	2	622932,19	0,200000003	2,34770894	0,00055536196308831373	0,19992655247217946	0,000469369348	-0,15737264486486032	0,0058717849696793216	1,6205391184194858
1	1	0	0	0	0	2	623162,20	0,200000003	2,34828019	0,00055536265154596832	0,19992680031693594	0,000469484134	-0,14459940947295626	0,0053951983834097446	1,6333123538113898
1	1	0	0	0	0	2	623392,20	0,200000003	2,34892797	0,00055534985174155904	0,19992219247387501	0,000469602819	-0,13182624396437142	0,0049186144045807674	1,6460855193199747
1	1	0	0	0	0	2	623622,20	0,200000003	2,34961367	0,00055534904069619046	0,19992190050302496	0,000469739229	-0,1190531142392587	0,0044420317608812467	1,6588586490450877
1	1	0	0	0	0	2	623852,21	0,200000003	2,35029936	0,00055534948284427328	0,19992205967334586	0,000469876686	-0,10628010140127589	0,0039654534783976979	1,6716316618830707
1	1	0	0	0	0	2	624082,21	0,200000003	2,35092807	0,00055534815551588934	0,19992158184410035	0,000470001251	-0,09350705342391945	0,0034888738848168749	1,6844047098604278
1	1	0	0	0	0	2	624312,22	0,200000003	2,35168982	0,00055536330599172243	0,19992703591298336	0,000470166386	-0,080733800965423219	0,0030122866617697978	1,6971779623189242
1	1	0	0	0	0	2	624542,22	0,200000003	2,35239458	0,0005553533063075609	0,19992343609428288	0,000470298808	-0,067960653251551744	0,0025357033468855011	1,7099511100327952
1	1	0	0	0	0	2	624772,23	0,200000003	2,35323286	0,00055534282709327008	0,19991966364797744	0,000470457511	-0,055187561968183162	0,0020591221374991389	1,7227242013161645
1	1	0	0	0	0	2	625002,23	0,200000003	2,3539567	0,00055534819020413696	0,19992159433163501	0,000470606785	-0,042414569408141715	0,001582544611612847	1,7354971938762058
1	1	0	0	0	0	2	625232,23	0,200000003	2,35487103	0,00055534986037595411	0,19992219558219885	0,000470790983	-0,029641472580322605	0,0011059631953555813	1,7482702907040246
1	1	0	0	0	0	2	625462,24	0,200000003	2,3557663	0,0005553541072350409	0,19992372442276144	0,00047097358	-0,016868349798340589	0,00062938081071360154	1,7610434134860061
1	1	0	0	0	0	2	625692,24	0,200000003	2,35652804	0,00055536283557448122	0,19992686655664694	0,000471133273	-0,0040951372107373222	0,00015279507530314806	1,7738166260736099
1	1	0	0	0	0	2	625922,25	0,200000003	2,35709953	0,00055535377980023616	0,1999236065437904	0,000471239851	0,0086781377715511565	-0,00032379298813690125	1,7865899010558982
1	1	0	0	0	0	2	626152,25	0,200000003	2,35799479	0,0005553608921815952	0,19992616695300006	0,000471424864	0,021451296428378438	-0,00080037671131759194	1,7993630597127254
1	1	0	0	0	0	2	626382,26	0,200000003	2,35909963	0,00055535686561630835	0,19992471741206157	0,000471642328	0,034224395719349562	-0,0012769582194783714	1,8121361590036963
1	1	0	0	0	0	2	626612,26	0,200000003	2,36001396	0,00055535356014801402	0,19992352747513005	0,000471822306	0,046997550702790611	-0,0017535418056000826	1,8249093139871376
1	1	0	0	0	0	2	626842,26	0,200000003	2,36094737	0,00055535576132022669	0,19992431988224675	0,000472010812	0,05977065971516672	-0,0022301236764795526	1,8376824229995139
1	1	0	0	0	0	2	627072,27	0,200000003	2,36186171	0,00055535614201509286	0,19992445692982506	0,000472193933	0,072543823100155597	-0,0027067075760743098	1,8504555863845024
1	1	0	0	0	0	2	627302,27	0,200000003	2,3628521	0,00055536208336551987	0,19992659577581539	0,000472396991	0,085317006609827469	-0,0031832922265480474	1,8632287698941744
1	1	0	0	0	0	2	627532,28	0,200000003	2,36407137	0,00055535921818100742	0,19992556432875949	0,00047263829	0,098090356147848269	-0,0036598830717627104	1,8760021194321955
1	1	0	0	0	0	2	627762,28	0,200000003	2,36530948	0,0005553649168585737	0,19992761581416042	0,000472890679	0,11086365838924237	-0,0041364721522766406	1,8887754216735898
1	1	0	0	0	0	2	627992,29	0,200000003	2,36626172	0,00055536029983974163	0,19992595371859181	0,000473077118	0,12363694212284624	-0,0046130605422400339	1,9015487054071933
1	1	0	0	0	0	2	628222,29	0,200000003	2,3672142	0,00055535480740252467	0,19992397647832246	0,000473262888	0,1364100893488355	-0,0050896438389207891	1,9143218526331821
1	1	0	0	0	0	2	628452,29	0,200000003	2,36843324	0,00055535234147889741	0,19992308876248624	0,000473504479	0,1491832810128624	-0,0055662287936444762	1,927095044297209
1	1	0	0	0	0	2	628682,30	0,200000003	2,36980486	0,00055536790245605843	0,19992869060907235	0,000473791995	0,16195653519784938	-0,0060428160811092442	1,9398682984821962
1	1	0	0	0	0	2	628912,30	0,200000003	2,37081432	0,00055535458759549587	0,19992389734927798	0,000473982451	0,17472981295498992	-0,0065194042480827546	1,952641576239337
1	1	0	0	0	0	2	629142,31	0,200000003	2,37201428	0,00055535635305609965	0,19992453289385133	0,000474223838	0,18750308439053798	-0,0069959921791891494	1,9654148476748851
1	1	0	0	0	0	2	629372,31	0,200000003	2,37359548	0,00055535392275949312	0,19992365800582915	0,000474537897	0,20027628818911098	-0,0074725775866690662	1,9781880514734586
1	1	0	0	0	0	2	629602,32	0,200000003	2,37487149	0,00055535731598403712	0,19992487954605424	0,000474795903	0,21304943186199286	-0,0079491607507786074	1,9909611951463405
1	1	0	0	0	0	2	629751,60	0,200000003	2,37586212	0,00051537510281552864	0,19992593256716083	0,000474996457	0,22133979922801293	-0,0082584855037222886	1,999251562512361