File: Experimentelles/Rohdaten/Batteriemessungen/AlteZelle/Studenten_Batterietests/LLTO_LP30_Li CV/ZView-Export/LLTO_LP30_Li_05_GCPL_C01_loop10.txt
EC-Lab ASCII FILE
Nb header lines : 3
mode	ox/red	error	control changes	Ns changes	counter inc.	Ns	time/s	control/V/mA	Ewe/V	dq/mA.h	<I>/mA	P/W	(Q-Qo)/mA.h	x	Capacity/mA.h
1	0	0	1	1	0	1	42402,74	-0,100000001	4,18848658	0	0	0	0	0	0
1	0	0	1	0	0	1	42422,74	-0,100000001	3,45944309	-0,0002777366307100488	-0,099985186869380646	0,000345893059	-0,00055409949285672979	2,0674197073176122E-005	0,00055409949285672979
1	0	0	1	0	0	1	42442,74	-0,100000001	2,82610321	-0,00027773742935475376	-0,099985474381473894	0,000282569265	-0,0011095741756634102	4,1399704332347462E-005	0,0011095741756634102
1	0	0	1	0	0	1	42462,74	-0,100000001	2,24483514	-0,00027773742603800365	-0,099985473187443866	0,000224450909	-0,0016650491208145539	6,212522137994345E-005	0,0016650491208145539
1	0	0	1	0	0	1	42482,74	-0,100000001	1,84050035	-0,00027773746449790067	-0,099985487033006758	0,000184023331	-0,0022205242362561677	8,2850744781305818E-005	0,0022205242362561677
1	0	0	1	0	0	1	42502,74	-0,100000001	1,58187163	-0,00027773731091825501	-0,099985431744334426	0,000158164112	-0,0027759987943364038	0,00010357624738676582	0,0027759987943364038
1	0	0	1	0	0	1	42522,74	-0,100000001	1,48198617	-0,00027773753057089117	-0,09998551081928329	0,000148177147	-0,0033314739833255962	0,00012430177353228725	0,0033314739833255962
1	0	0	1	0	0	1	42542,74	-0,100000001	1,44658422	-0,00027773767304668822	-0,099985562110570138	0,000144637539	-0,0038869489966524499	0,00014502729312361062	0,0038869489966524499
1	0	0	1	0	0	1	42562,74	-0,100000001	1,42281103	-0,0002777376186355121	-0,099985542522546765	0,000142260527	-0,0044424237054798688	0,00016575280135365072	0,0044424237054798688
1	0	0	1	0	0	1	42582,74	-0,100000001	1,4030478	-0,00027773749594017866	-0,099985498352226803	0,000140284435	-0,0049978990995723693	0,00018647833515185232	0,0049978990995723693
1	0	0	1	0	0	1	42602,74	-0,100000001	1,38563323	-0,00027773759940721923	-0,099985535600361344	0,000138543284	-0,0055533744245499731	0,00020720386637128422	0,0055533744245499731
1	0	0	1	0	0	1	42622,74	-0,100000001	1,36924982	-0,00027773725372097562	-0,099985411153313882	0,000136905001	-0,0061088490860951795	0,00022792937283716138	0,0061088490860951795
1	0	0	1	0	0	1	42642,74	-0,100000001	1,35374475	-0,00027773707891172835	-0,099985348221984986	0,000135354639	-0,0066643234325184947	0,00024865486754541709	0,0066643234325184947
1	0	0	1	0	0	1	42662,74	-0,100000001	1,33844972	-0,00027773785264293354	-0,09998562676521833	0,000133825728	-0,0072197987363327245	0,00026938039797521501	0,0072197987363327245
1	0	0	1	0	0	1	42682,74	-0,100000001	1,32424319	-0,00027773771734949616	-0,099985578059580966	0,000132405214	-0,0077752742420730022	0,00029010593593914534	0,0077752742420730022
1	0	0	1	0	0	1	42702,74	-0,100000001	1,31717801	-0,00027773772939501536	-0,099985582395967872	0,000131698805	-0,0083307497211418586	0,00031083147290792902	0,0083307497211418586
1	0	0	1	0	0	1	42722,74	-0,100000001	1,31270981	-0,00027773810949880214	-0,099985719233330854	0,000131252236	-0,0088862258025880858	0,00033155703235222234	0,0088862258025880858
1	0	0	1	0	0	1	42742,74	-0,100000001	1,30658031	-0,00027773758897847597	-0,099985531846013786	0,00013063912	-0,0094417013150682406	0,0003522825705676265	0,0094417013150682406
1	0	0	1	0	0	1	42762,74	-0,100000001	1,29833138	-0,00027773783962676922	-0,099985622079399194	0,000129814463	-0,0099971769256564006	0,00037300811244357229	0,0099971769256564006
1	0	0	1	0	0	1	42782,74	-0,100000001	1,28761911	-0,00027773804325569008	-0,09998569538581056	0,000128743486	-0,010552653142077346	0,00039373367692395373	0,010552653142077346
1	0	0	1	0	0	1	42802,74	-0,100000001	1,27553201	-0,00027773750813967651	-0,099985502744046042	0,000127534702	-0,011108128611700933	0,00041445921354032179	0,011108128611700933
1	0	0	1	0	0	1	42822,74	-0,100000001	1,26250935	-0,00027773796126867334	-0,099985665870484582	0,000126232844	-0,011663604262044976	0,00043518475689961306	0,011663604262044976
1	0	0	1	0	0	1	42842,74	-0,100000001	1,24939108	-0,00027773802988479536	-0,099985690572288474	0,000124921236	-0,012219080129906653	0,00045591030837477952	0,012219080129906653
1	0	0	1	0	0	1	42862,74	-0,100000001	1,23592913	-0,00027773799089135395	-0,0999856765346496	0,000123575213	-0,012774556359994445	0,00047663587336508954	0,012774556359994445
1	0	0	1	0	0	1	42882,74	-0,100000001	1,22223818	-0,00027773776722492445	-0,099985596014735117	0,000122206213	-0,013330031957785818	0,00049736141476356992	0,013330031957785818
1	0	0	1	0	0	1	42902,74	-0,100000001	1,20839429	-0,00027773784894578989	-0,099985625434246618	0,000120822056	-0,01388550772231415	0,00051808696238323046	0,01388550772231415
1	0	0	1	0	0	1	42922,74	-0,100000001	1,19418776	-0,00027773792834745514	-0,099985654018846054	0,000119401644	-0,014440983638104582	0,00053881251564668326	0,014440983638104582
1	0	0	1	0	0	1	42942,74	-0,100000001	1,17971373	-0,00027773779507560861	-0,099985606040981402	0,000117954391	-0,014996459257382189	0,00055953805784684403	0,014996459257382189
1	0	0	1	0	0	1	42962,74	-0,100000001	1,16457152	-0,00027773804127424957	-0,099985694672491981	0,000116440489	-0,015551935207366643	0,00058026361238612186	0,015551935207366643
1	0	0	1	0	0	1	42982,74	-0,100000001	1,1488564	-0,00027773809744872979	-0,099985714895304819	0,000114869232	-0,016107411183633437	0,00060098916790602918	0,016107411183633437
1	0	0	1	0	0	1	43002,74	-0,100000001	1,13258755	-0,00027773771916950742	-0,099985578714785024	0,000113242422	-0,016662886883047421	0,00062171471309618586	0,016662886883047421
1	0	0	1	0	0	1	43022,74	-0,100000001	1,11547852	-0,00027773771120649248	-0,099985575848099635	0,000111531765	-0,01721836228916847	0,00064244024734318874	0,01721836228916847
1	0	0	1	0	0	1	43042,74	-0,100000001	1,09743381	-0,00027773822122729488	-0,099985759455588173	0,000109727749	-0,017773838647076771	0,0006631658171026537	0,017773838647076771
1	0	0	1	0	0	1	43062,74	-0,100000001	1,07858717	-0,00027773768215336733	-0,099985565388974618	0,000107843145	-0,018329314329966192	0,00068389136167625677	0,018329314329966192
1	0	0	1	0	0	1	43082,74	-0,100000001	1,0589385	-0,00027773829911400877	-0,09998578749480512	0,000105878797	-0,018884790470468205	0,0007046169233240009	0,018884790470468205
1	0	0	1	0	0	1	43102,74	-0,100000001	1,0384115	-0,00027773782101853024	-0,099985615380433165	0,000103826213	-0,019440266361105894	0,00072534247564897101	0,019440266361105894
1	0	0	1	0	0	1	43122,74	-0,100000001	1,01801813	-0,00027773771081036989	-0,099985575705495514	0,000101787125	-0,01999574179647792	0,00074606801098736717	0,01999574179647792
1	0	0	1	0	0	1	43142,74	-0,100000001	0,998980463	-0,00027773760013779005	-0,099985535863366848	9,98835967E-005	-0,020551216793936691	0,00076679352998663117	0,020551216793936691
1	0	0	1	0	0	1	43162,74	-0,100000001	0,983055294	-0,00027773916793035136	-0,099986100268687872	9,82918646E-005	-0,021106695132938643	0,00078751917366336397	0,021106695132938643
1	0	0	1	0	0	1	43182,74	-0,100000001	0,970490873	-0,00027773916614469555	-0,099986099625851763	9,70355977E-005	-0,021662173978824288	0,00080824483625260864	0,021662173978824288
1	0	0	1	0	0	1	43202,74	-0,100000001	0,961096168	-0,00027773914576694371	-0,09998609228986112	9,60962498E-005	-0,022217652316894915	0,00082897047989459238	0,022217652316894915
1	0	0	1	0	0	1	43222,74	-0,100000001	0,953591883	-0,00027773968684176608	-0,099986287076796813	9,53461131E-005	-0,02277313128694697	0,00084969614711665293	0,02277313128694697
1	0	0	1	0	0	1	43242,74	-0,100000001	0,947672427	-0,00027773981719919379	-0,099986334005470707	9,4754294E-005	-0,023328611001833152	0,0008704218421294761	0,023328611001833152
1	0	0	1	0	0	1	43262,74	-0,100000001	0,942994177	-0,00027773942416699395	-0,099986192513879027	9,4286399E-005	-0,023884090376152877	0,00089114752443530688	0,023884090376152877
1	0	0	1	0	0	1	43282,74	-0,100000001	0,939079762	-0,00027773993250686262	-0,099986375516231411	9,38951853E-005	-0,02443957057135191	0,00091187323736924851	0,02443957057135191
1	0	0	1	0	0	1	43302,74	-0,100000001	0,935776293	-0,00027773979024506278	-0,099986324301983565	9,3564835E-005	-0,02499505026899745	0,00093259893173880026	0,02499505026899745
1	0	0	1	0	0	1	43322,74	-0,100000001	0,932396531	-0,00027773964243589174	-0,099986271090682086	9,32268522E-005	-0,02555052966101479	0,00095332461470495283	0,02555052966101479
1	0	0	1	0	0	1	43342,74	-0,100000001	0,929150403	-0,00027774003373624547	-0,099986411958809152	9,29024172E-005	-0,026106009707532522	0,00097405032209139507	0,026106009707532522
1	0	0	1	0	0	1	43362,74	-0,100000001	0,925617814	-0,00027773987745245296	-0,099986355696643981	9,25491549E-005	-0,026661489525108813	0,00099477602093572442	0,026661489525108813
1	0	0	1	0	0	1	43382,74	-0,100000001	0,921894312	-0,00027773962684555187	-0,099986265478159744	9,21767714E-005	-0,027216969142156454	0,0010155017122980602	0,027216969142156454
1	0	0	1	0	0	1	43402,74	-0,100000001	0,917941689	-0,00027773961957130163	-0,099986262859429658	9,1781556E-005	-0,027772448471874941	0,0010362273929397587	0,027772448471874941
1	0	0	1	0	0	1	43422,74	-0,100000001	0,913874447	-0,00027773970316929952	-0,099986292954708838	9,13749172E-005	-0,028327928033690602	0,001056953082241315	0,028327928033690602
1	0	0	1	0	0	1	43442,74	-0,100000001	0,909578085	-0,00027773989542035597	-0,099986362165089037	9,09454029E-005	-0,02888340759318375	0,0010776787714562152	0,02888340759318375
1	0	0	1	0	0	1	43462,74	-0,100000001	0,905148089	-0,00027773919852036573	-0,099986111281093018	9,05022389E-005	-0,029438886270437504	0,0010984044277535776	0,029438886270437504
1	0	0	1	0	0	1	43482,74	-0,100000001	0,900546193	-0,00027773916947634685	-0,099986100825246246	9,00421001E-005	-0,029994364583520954	0,0011191300704632562	0,029994364583520954
1	0	0	1	0	0	1	43502,74	-0,100000001	0,895982563	-0,00027773904625078045	-0,099986056464042406	8,95857665E-005	-0,03054984300144649	0,0011398557170847339	0,03054984300144649
1	0	0	1	0	0	1	43522,74	-0,100000001	0,891246974	-0,00027773913887888195	-0,099986089810158899	8,91122982E-005	-0,031105321385823309	0,001160581362454464	0,031105321385823309
1	0	0	1	0	0	1	43542,74	-0,100000001	0,886606932	-0,00027773917300088538	-0,099986102094080115	8,86483685E-005	-0,031660799483886726	0,0011813069971414558	0,031660799483886726
1	0	0	1	0	0	1	43562,74	-0,100000001	0,881871402	-0,00027773925340010058	-0,09998613103779753	8,81749074E-005	-0,032216278038920742	0,0012020326488786355	0,032216278038920742
1	0	0	1	0	0	1	43582,74	-0,100000001	0,876925826	-0,0002777391460219191	-0,099986092381652262	8,76803897E-005	-0,03277175616515687	0,0012227582846167893	0,03277175616515687
1	0	0	1	0	0	1	43602,74	-0,100000001	0,872075737	-0,00027773947832567821	-0,099986212011005312	8,7195549E-005	-0,033327234637763872	0,0012434839332785059	0,033327234637763872
1	0	0	1	0	0	1	43622,74	-0,100000001	0,867206514	-0,00027773958851438429	-0,09998625167893943	8,67087292E-005	-0,033882713964378362	0,0012642096138043904	0,033882713964378362
1	0	0	1	0	0	1	43642,74	-0,100000001	0,862031817	-0,00027773894265335466	-0,099986019168969203	8,61911321E-005	-0,034438192513418394	0,0012849352653179261	0,034438192513418394
1	0	0	1	0	0	1	43662,74	-0,100000001	0,857067108	-0,00027773936111107469	-0,099986169813748122	8,56948609E-005	-0,034993671306356486	0,0013056609259316267	0,034993671306356486
1	0	0	1	0	0	1	43682,74	-0,100000001	0,852045178	-0,0002777396472361353	-0,099986272818769766	8,51928198E-005	-0,035549149753816538	0,0013263865736550768	0,035549149753816538
1	0	0	1	0	0	1	43702,74	-0,100000001	0,847023189	-0,00027773980883260563	-0,09998633099349897	8,46907424E-005	-0,03610462920809673	0,00134711225894434	0,03610462920809673
1	0	0	1	0	0	1	43722,74	-0,100000001	0,841772079	-0,00027773937337059117	-0,099986174227174054	8,4165571E-005	-0,036660108241701408	0,0013678379285376346	0,036660108241701408
1	0	0	1	0	0	1	43742,74	-0,100000001	0,836616457	-0,00027773934587919053	-0,099986164330269837	8,36500694E-005	-0,037215586691967021	0,0013885635763657642	0,037215586691967021
1	0	0	1	0	0	1	43762,74	-0,100000001	0,831403553	-0,00027773952104068467	-0,099986227388407629	8,31289071E-005	-0,037771065583216768	0,0014092892406476045	0,037771065583216768
1	0	0	1	0	0	1	43782,74	-0,100000001	0,826247931	-0,00027773957329284813	-0,099986246199186432	8,26134274E-005	-0,038326544826424486	0,0014300149180614702	0,038326544826424486
1	0	0	1	0	0	1	43802,74	-0,100000001	0,820844054	-0,00027773888015747069	-0,099985996670451021	8,2072911E-005	-0,038882022674326797	0,001450740543414615	0,038882022674326797
1	0	0	1	0	0	1	43822,74	-0,100000001	0,815650284	-0,00027773930197291904	-0,099986148524012134	8,15537278E-005	-0,039437501433322938	0,0014714662027618957	0,039437501433322938
1	0	0	1	0	0	1	43842,74	-0,100000001	0,810360968	-0,00027773966086986995	-0,099986277726914227	8,10249767E-005	-0,039992980539476819	0,0014921918750620982	0,039992980539476819
1	0	0	1	0	0	1	43862,74	-0,100000001	0,805014372	-0,00027773941274566781	-0,099986188402201626	8,04903175E-005	-0,040548459567907904	0,0015129175444623587	0,040548459567907904
1	0	0	1	0	0	1	43881,03	-0,100000001	0,800145209	-0,00023030124950201978	-0,099986070509334298	8,0003374E-005	-0,041056500037406586	0,0015318732174470304	0,041056500037406586
1	1	0	0	0	0	2	43891,03	0,100000001	0,832466483	0,00027780659787936342	0,10001037505028701	8,32552832E-005	-0,040778687950960582	0,0015215076749794077	0,00027781208644600378
1	1	0	0	0	0	2	43911,03	0,100000001	0,843503356	0,00027780733809620147	0,10001064152834819	8,43593152E-005	-0,040223073456072678	0,0015007769511435062	0,00083342658133390886
1	1	0	0	0	0	2	43931,03	0,100000001	0,852267921	0,00027780691367760304	0,10001048873765304	8,52357334E-005	-0,039667458944586534	0,0014800462266883027	0,0013890410928200517
1	1	0	0	0	0	2	43951,03	0,100000001	0,860593259	0,00027780783989404637	0,10001082217557203	8,60686414E-005	-0,039111843455880582	0,0014593154657717139	0,0019446565815260013
1	1	0	0	0	0	2	43971,03	0,100000001	0,868403077	0,00027780754987026259	0,10001071776701005	8,68496136E-005	-0,038556228715607392	0,0014385847327801578	0,0025002713217991923
1	1	0	0	0	0	2	43991,03	0,100000001	0,875869215	0,00027780752384124531	0,10001070839656384	8,75963015E-005	-0,038000613705189395	0,0014178539897091358	0,0030558863322171904
1	1	0	0	0	0	2	44011,03	0,100000001	0,883144379	0,00027780747254606752	0,10001068993029987	8,83238754E-005	-0,037444998958206541	0,001397123256467233	0,0036115010792000429
1	1	0	0	0	0	2	44031,03	0,100000001	0,890094876	0,0002778074772208929	0,10001069161323702	8,90190058E-005	-0,036889384151901754	0,0013763925210119493	0,0041671158855048314
1	1	0	0	0	0	2	44051,03	0,100000001	0,897179127	0,00027780723648476934	0,10001060494823269	8,97274294E-005	-0,036333769416430054	0,001355661788199543	0,004722730620976537
1	1	0	0	0	0	2	44071,03	0,100000001	0,904053271	0,00027780745373790464	0,10001068315936125	9,04149856E-005	-0,03577815431467911	0,0013349310417207662	0,0052783457227274771
1	1	0	0	0	0	2	44091,03	0,100000001	0,910755575	0,00027780721228900883	0,10001059623775891	9,10852104E-005	-0,035222539800313728	0,0013142003171581341	0,0058339602370928563
1	1	0	0	0	0	2	44111,03	0,100000001	0,917324245	0,00027780751452305254	0,10001070504201445	9,1742244E-005	-0,034666924769968736	0,0012934695733436091	0,0063895752674378445
1	1	0	0	0	0	2	44131,03	0,100000001	0,923873782	0,00027780777643745149	0,1000107993311979	9,23973566E-005	-0,03411130937734464	0,0012727388160119637	0,0069451906600619354
1	1	0	0	0	0	2	44151,03	0,100000001	0,930175126	0,00027780719122663139	0,10001058865530307	9,302736E-005	-0,033555694384375078	0,0012520080735919662	0,0075008056530315008
1	1	0	0	0	0	2	44171,03	0,100000001	0,936380982	0,00027780760608323744	0,10001073800368098	9,3648152E-005	-0,033000079513552813	0,0012312773357294486	0,0080564205238537664
1	1	0	0	0	0	2	44191,03	0,100000001	0,942567706	0,00027780732525471187	0,10001063690541194	9,42667975E-005	-0,032444464874517286	0,0012105466065152056	0,0086120351628892941
1	1	0	0	0	0	2	44211,03	0,100000001	0,948678076	0,00027780719447425667	0,10001058982444816	9,48778543E-005	-0,031888850534277357	0,0011898158884494285	0,0091676495031292224
1	1	0	0	0	0	2	44231,03	0,100000001	0,954502046	0,00027780715993543466	0,10001057739047227	9,5460302E-005	-0,031333236518529248	0,0011690851824908774	0,0097232635188773261
1	1	0	0	0	0	2	44251,03	0,100000001	0,960421443	0,00027780684998714259	0,10001046580908733	9,60521938E-005	-0,030777622783160154	0,0011483544869936443	0,010278877254246422
1	1	0	0	0	0	2	44271,03	0,100000001	0,96611172	0,00027780699959811235	0,10001051966903635	9,66213338E-005	-0,030222008397857043	0,0011276237672464994	0,010834491639549533
1	1	0	0	0	0	2	44291,03	0,100000001	0,971458316	0,00027780703197999133	0,10001053132651275	9,71560657E-005	-0,029666394346725715	0,0011068930599677526	0,011390105690680858
1	1	0	0	0	0	2	44311,03	0,100000001	0,977396786	0,0002778074335890512	0,10001067590577403	9,77501113E-005	-0,029110779517154419	0,001086162323644364	0,011945720520252155
1	1	0	0	0	0	2	44331,03	0,100000001	0,98478657	0,00027780716502832042	0,10001057922391114	9,84890721E-005	-0,028555165164094115	0,0010654316051002413	0,012501334873312461
1	1	0	0	0	0	2	44351,03	0,100000001	0,99574703	0,00027780712275620963	0,10001056400595128	9,95852242E-005	-0,027999550809404198	0,0010447008864953157	0,013056949228002378
1	1	0	0	0	0	2	44371,03	0,100000001	1,01247418	0,00027780703119022973	0,10001053104219858	0,000101258083	-0,027443936838049139	0,0010239701821931288	0,013612563199357437
1	1	0	0	0	0	2	44391,03	0,100000001	1,03368866	0,00027780735352800954	0,10001064708379907	0,000103379869	-0,026888322541393862	0,0010032394657535536	0,01416817749601271
1	1	0	0	0	0	2	44411,03	0,100000001	1,05486488	0,00027780721054184771	0,10001059560878093	0,000105497667	-0,026332708172787917	0,00098250874662940224	0,014723791864618656
1	1	0	0	0	0	2	44431,03	0,100000001	1,07460904	0,00027780743751964637	0,10001067732078829	0,000107472377	-0,025777093330463293	0,00096177800983016986	0,015279406706943277
1	1	0	0	0	0	2	44451,03	0,100000001	1,09334111	0,00027780741298198698	0,10001066848723093	0,000109345776	-0,025221478732012317	0,00094104728213019123	0,015835021305394253
1	1	0	0	0	0	2	44471,03	0,100000001	1,11094666	0,00027780707191427552	0,10001054570285501	0,000111106383	-0,024665864687138653	0,00092031657508492646	0,016390635350267917
1	1	0	0	0	0	2	44491,03	0,100000001	1,12738729	0,00027780754333941472	0,10001071541590482	0,000112750808	-0,024110249755042816	0,00089958583493620954	0,016946250282363754
1	1	0	0	0	0	2	44511,03	0,100000001	1,14300692	0,00027780749001022845	0,10001069621739779	0,000114312919	-0,023554634675977238	0,00087885508930385395	0,017501865361429331
1	1	0	0	0	0	2	44531,03	0,100000001	1,15805376	0,00027780734422182042	0,10001064373357101	0,000115817704	-0,022999019895737062	0,00085812435482107597	0,018057480141669507
1	1	0	0	0	0	2	44551,03	0,100000001	1,17241311	0,00027780731653960218	0,10001063376797245	0,000117253781	-0,022443405150017085	0,00083739362162629286	0,018613094887389485
1	1	0	0	0	0	2	44571,03	0,100000001	1,18692529	0,00027780662271214858	0,10001038399008963	0,000118704855	-0,021887791309980992	0,00081666292222379328	0,019168708727425578
1	1	0	0	0	0	2	44591,03	0,100000001	1,20124638	0,00027780663266115722	0,10001038757173272	0,00012013712	-0,021332178177952874	0,00079593224923802317	0,019724321859453696
1	1	0	0	0	0	2	44611,03	0,100000001	1,21535754	0,00027780681460930243	0,10001045307306488	0,000121548459	-0,020776564725019558	0,00077520156427884864	0,020279935312387011
1	1	0	0	0	0	2	44631,03	0,100000001	1,2298888	0,00027780699977154531	0,10001051973147221	0,000123001824	-0,020220951078388118	0,0007544708720925367	0,020835548959018451
1	1	0	0	0	0	2	44651,03	0,100000001	1,24421	0,00027780725009615219	0,10001060984833053	0,000124434198	-0,019665336539984272	0,00073374014663299712	0,021391163497422298
1	1	0	0	0	0	2	44671,03	0,100000001	1,25891304	0,00027780710515752432	0,10001055767042458	0,000125904597	-0,019109722334249264	0,00071300943358577933	0,021946777703157309
1	1	0	0	0	0	2	44691,03	0,100000001	1,27355886	0,00027780730740725994	0,10001063048032926	0,000127369422	-0,018554107962970627	0,0006922787143619063	0,022502392074435942
1	1	0	0	0	0	2	44711,03	0,100000001	1,28847194	0,0002778074220849408	0,10001067176429429	0,000128860949	-0,017998493181223363	0,00067154797982289677	0,023058006856183206
1	1	0	0	0	0	2	44731,03	0,100000001	1,30361426	0,00027780735072121024	0,10001064607335134	0,000130375309	-0,017442878365367344	0,00065081724401124352	0,023613621672039229
1	1	0	0	0	0	2	44751,03	0,100000001	1,31879473	0,00027780750300155747	0,10001070089427626	0,000131893583	-0,016887263258940333	0,00063008649735799629	0,024169236778466237
1	1	0	0	0	0	2	44771,03	0,100000001	1,33408976	0,00027780730067110723	0,1000106280553143	0,000133423149	-0,016331648687700118	0,00060935577067328781	0,024724851349706451
1	1	0	0	0	0	2	44791,03	0,100000001	1,34955657	0,00027780766753231482	0,10001076012534877	0,000134970178	-0,015776033704274749	0,00058862502860939686	0,025280466333131821
1	1	0	0	0	0	2	44811,03	0,100000001	1,36487067	0,0002778074293409785	0,10001067437646787	0,000136501636	-0,015220418982991846	0,00056789429632639398	0,025836081054414723
1	1	0	0	0	0	2	44831,03	0,100000001	1,37506735	0,00027780719988544781	0,10001059177247696	0,000137521303	-0,014664804645640259	0,00054716357836838458	0,02639169539176631
1	1	0	0	0	0	2	44851,03	0,100000001	1,37149668	0,00027780753535032275	0,10001071253983171	0,000137164359	-0,014109189792212202	0,00052643284115486835	0,026947310245194365
1	1	0	0	0	0	2	44871,03	0,100000001	1,37059915	0,00027780789849037923	0,10001084327025181	0,000137074778	-0,013553574189181232	0,00050570207597265952	0,027502925848225334
1	1	0	0	0	0	2	44891,03	0,100000001	1,37294781	0,0002778072107926839	0,10001059569908195	0,000137309326	-0,012997959342203725	0,00048497133899982189	0,028058540695202842
1	1	0	0	0	0	2	44911,03	0,100000001	1,37831354	0,00027780743269001443	0,1000106755821208	0,000137846073	-0,012442344366123797	0,00046424059720999942	0,028614155671282771
1	1	0	0	0	0	2	44931,03	0,100000001	1,38679159	0,00027780752038252019	0,10001070715142282	0,000138694013	-0,011886729576327011	0,00044350986237065139	0,029169770461079558
1	1	0	0	0	0	2	44951,03	0,100000001	1,39924157	0,00027780789734588723	0,10001084285823472	0,000139939322	-0,011331113585648957	0,00042277908272480864	0,029725386451757613
1	1	0	0	0	0	2	44971,03	0,100000001	1,41577768	0,00027780769180051155	0,10001076886189958	0,000141593016	-0,01077549782168669	0,00040204831153803667	0,030281002215719878
1	1	0	0	0	0	2	44991,03	0,100000001	1,43512082	0,00027780831308869853	0,10001099252564646	0,000143527854	-0,010219881882730152	0,00038131753382199328	0,030836618154676422
1	1	0	0	0	0	2	45011,03	0,100000001	1,45792019	0,0002778078883865641	0,10001083963287837	0,000145807819	-0,0096642664338268595	0,00036058677439049536	0,031392233603579712
1	1	0	0	0	0	2	45031,03	0,100000001	1,48982775	0,00027780776935815811	0,10001079678265229	0,000148998864	-0,0091086507600219955	0,00033985600656761741	0,031947849277384576
1	1	0	0	0	0	2	45051,03	0,100000001	1,59639645	0,00027780787486665776	0,10001083476571211	0,000159656935	-0,0085530350007751168	0,00031912523555678291	0,03250346503663145
1	1	0	0	0	0	2	45071,03	0,100000001	2,05402493	0,00027780842776596544	0,10001103380946248	0,000205425153	-0,0079974186225530419	0,00029839444145115174	0,033059081414853523
1	1	0	0	0	0	2	45091,03	0,100000001	2,43965316	0,0002778083450264401	0,10001100402323342	0,000243992166	-0,0074418020913357773	0,00027766364163706426	0,03361469794607079
1	1	0	0	0	0	2	45111,03	0,100000001	2,73033476	0,00027780846586492323	0,10001104752508726	0,000273063633	-0,0068861850337457562	0,0002569328221833016	0,034170315003660806
1	1	0	0	0	0	2	45131,03	0,100000001	2,96166968	0,00027780815645017562	0,10001093613577834	0,000296199345	-0,0063305685095101005	0,00023620202262970736	0,034725931527896467
1	1	0	0	0	0	2	45151,03	0,100000001	3,15246606	0,00027780829926166269	0,10001098754791358	0,000315281242	-0,0057749518622202419	0,00021547121848479533	0,035281548175186317
1	1	0	0	0	0	2	45171,03	0,100000001	3,30891061	0,00027780765616231494	0,10001075603214883	0,000330926647	-0,005219335957579008	0,00019474044204910205	0,035837164079827558
1	1	0	0	0	0	2	45191,03	0,100000001	3,43245459	0,00027780780947167011	0,10001081122351658	0,000343282562	-0,0046637202706122803	0,00017400967373513728	0,036392779766794278
1	1	0	0	0	0	2	45211,03	0,100000001	3,53482246	0,0002778079268468751	0,1000108534785903	0,00035352062	-0,0041081047185730842	0,00015327891045550006	0,036948395318833478
1	1	0	0	0	0	2	45231,03	0,100000001	3,62498856	0,00027780823889623082	0,10001096581635816	0,000362538616	-0,0035524882002117971	0,00013254811112108642	0,037504011837194765
1	1	0	0	0	0	2	45251,03	0,100000001	3,71156478	0,00027780769824609162	0,1000107711823084	0,000371196453	-0,0029968726837867898	0,0001118173491702625	0,03805962735361977
1	1	0	0	0	0	2	45271,03	0,100000001	3,79554415	0,00027780852919237482	0,10001107032296979	0,000379596429	-0,0024412563662741152	9,1086557329780634E-005	0,038615243671132448
1	1	0	0	0	0	2	45291,03	0,100000001	3,87242031	0,00027780807564614547	0,10001090704632754	0,000387284264	-0,001885639829554184	7,0355757310381286E-005	0,039170860207852384
1	1	0	0	0	0	2	45311,03	0,100000001	3,942384	0,00027780851354284419	0,10001106468913878	0,000394282019	-0,0013300230540940566	4,9624948383264262E-005	0,039726476983312512
1	1	0	0	0	0	2	45331,03	0,100000001	4,00663853	0,00027780808661050266	0,10001091099349613	0,000400707562	-0,00077440665116461491	2,8894153355767962E-005	0,040282093386241952
1	1	0	0	0	0	2	45351,03	0,100000001	4,06705475	0,00027780846491166288	0,10001104718191355	0,000406750391	-0,00021878993563199082	8,1633466646266394E-006	0,040837710101774573
1	1	0	0	0	0	2	45371,03	0,100000001	4,12447309	0,00027780851965563162	0,10001106688974224	0,000412492955	0,00033682721096846086	-1,2567476110234909E-005	0,041393327248375021
1	1	0	0	0	0	2	45391,03	0,100000001	4,17560959	0,00027780790164073309	0,1000108444043792	0,000417606236	0,0008924432548271049	-3,329825774031696E-005	0,041948943292233664
1	1	0	0	0	0	2	45402,09	0,100000001	4,20005798	2,9514360639784077E-005	0,10001101101275267	0,000420052034	0,0011997655405790205	-4,4764865420928704E-005	0,042256265577985574