File: Experimentelles/Rohdaten/Batteriemessungen/AlteZelle/Studenten_Batterietests/LLTO_LP30_Li CV/ZView-Export/LLTO_LP30_Li_04_OCV_C01_loop0.txt
EC-Lab ASCII FILE
Nb header lines : 3
mode	error	time/s	Ewe/V
3	0	8041,06	2,11830497
3	0	8046,06	2,15227485
3	0	8051,06	2,17098784
3	0	8056,06	2,18448782
3	0	8061,06	2,19523835
3	0	8066,06	2,20388818
3	0	8071,06	2,21158361
3	0	8076,06	2,21805668
3	0	8081,06	2,22374701
3	0	8086,06	2,22869253
3	0	8091,06	2,23327541
3	0	8096,06	2,23722792
3	0	8101,06	2,24077964
3	0	8106,06	2,24410224
3	0	8111,06	2,24702358
3	0	8116,06	2,24973512
3	0	8121,06	2,2523129
3	0	8126,06	2,25468063
3	0	8131,06	2,25672388
3	0	8136,06	2,25882435
3	0	8141,06	2,26065731
3	0	8146,06	2,26231861
3	0	8151,06	2,26390362
3	0	8156,06	2,26531649
3	0	8161,06	2,26684427
3	0	8166,06	2,26798987
3	0	8171,06	2,26930737
3	0	8176,06	2,2704339
3	0	8181,06	2,27157974
3	0	8186,06	2,2726109
3	0	8191,06	2,27366114
3	0	8196,06	2,27442479
3	0	8201,06	2,27534151
3	0	8206,06	2,27616239
3	0	8211,06	2,27702165
3	0	8216,06	2,27769017
3	0	8221,06	2,27843475
3	0	8226,06	2,27908397
3	0	8231,06	2,27961874
3	0	8236,06	2,28028703
3	0	8241,06	2,28078341
3	0	8246,06	2,2814517
3	0	8251,06	2,28198647
3	0	8256,06	2,28233004
3	0	8261,06	2,28301764
3	0	8266,06	2,28341866
3	0	8271,06	2,28378129
3	0	8276,06	2,28429699
3	0	8281,06	2,28462148
3	0	8286,06	2,28496528
3	0	8291,06	2,28544259
3	0	8296,06	2,28561449
3	0	8301,06	2,28612995
3	0	8306,06	2,28639746
3	0	8311,06	2,28649282
3	0	8316,06	2,28695107
3	0	8321,06	2,28729486
3	0	8326,06	2,28756213
3	0	8331,06	2,28771496
3	0	8336,06	2,287925
3	0	8341,06	2,28819227
3	0	8346,06	2,28847861
3	0	8351,06	2,28868866
3	0	8356,06	2,28893709
3	0	8361,06	2,28910875
3	0	8366,06	2,28914714
3	0	8371,06	2,28941441
3	0	8376,06	2,28960538
3	0	8381,06	2,28975797
3	0	8386,06	2,28994894
3	0	8391,06	2,29012084
3	0	8396,06	2,29013991
3	0	8401,06	2,29042649
3	0	8406,06	2,29052186
3	0	8411,06	2,29061723
3	0	8416,06	2,2908082
3	0	8421,06	2,29088473
3	0	8426,06	2,29090381
3	0	8431,06	2,29109478
3	0	8436,06	2,29119015
3	0	8441,06	2,29124737
3	0	8446,06	2,29145741
3	0	8451,06	2,29143834
3	0	8456,06	2,29153395
3	0	8461,06	2,29176307
3	0	8466,06	2,29164839
3	0	8471,06	2,29168653
3	0	8476,06	2,29172492
3	0	8481,06	2,29191589
3	0	8486,06	2,29187751
3	0	8491,06	2,29201126
3	0	8496,06	2,29197311
3	0	8501,06	2,29201126
3	0	8506,06	2,29201126
3	0	8511,06	2,29224038
3	0	8516,06	2,2922976
3	0	8521,06	2,2922976
3	0	8526,06	2,29237413
3	0	8531,06	2,29235506
3	0	8536,06	2,29233599
3	0	8541,06	2,29231668
3	0	8546,06	2,29239321
3	0	8551,06	2,29239321
3	0	8556,06	2,29243135
3	0	8561,06	2,29243135
3	0	8566,06	2,29248857
3	0	8571,06	2,29258418
3	0	8576,06	2,2924695
3	0	8581,06	2,29252672
3	0	8586,06	2,29248857
3	0	8591,06	2,29248857
3	0	8596,06	2,2924695
3	0	8601,06	2,29262233
3	0	8606,06	2,2926414
3	0	8611,06	2,29262233
3	0	8616,06	2,29260325
3	0	8621,06	2,29256511
3	0	8626,06	2,29256511
3	0	8631,06	2,29252672
3	0	8636,06	2,29252672
3	0	8641,06	2,2924695
3	0	8646,06	2,29241228
3	0	8651,06	2,29245043
3	0	8656,06	2,29250765
3	0	8661,06	2,29243135
3	0	8666,06	2,2922976
3	0	8671,06	2,29241228
3	0	8676,06	2,29243135
3	0	8681,06	2,2922976
3	0	8686,06	2,29237413
3	0	8691,06	2,29231668
3	0	8696,06	2,2922976
3	0	8701,06	2,29231668
3	0	8706,06	2,29216409
3	0	8711,06	2,29233599
3	0	8716,06	2,29214501
3	0	8721,06	2,29204941
3	0	8726,06	2,29204941
3	0	8731,06	2,29204941
3	0	8736,06	2,29191589
3	0	8741,06	2,29199219
3	0	8746,06	2,29203033
3	0	8751,06	2,29193497
3	0	8756,06	2,29183936
3	0	8761,06	2,29195404
3	0	8766,06	2,29176307
3	0	8771,06	2,29176307
3	0	8776,06	2,29166746
3	0	8781,06	2,29168653
3	0	8786,06	2,29161024
3	0	8791,06	2,29155302
3	0	8796,06	2,29161024
3	0	8801,06	2,2914958
3	0	8806,06	2,2914958
3	0	8811,06	2,29126644
3	0	8816,06	2,29138112
3	0	8821,06	2,29138112
3	0	8826,06	2,29122829
3	0	8831,06	2,291152
3	0	8836,06	2,29105639
3	0	8841,06	2,29103732
3	0	8846,06	2,29101825
3	0	8851,06	2,29096103
3	0	8856,06	2,29090381
3	0	8861,06	2,29082727
3	0	8866,06	2,29084659
3	0	8871,06	2,29077005
3	0	8876,06	2,29084659
3	0	8881,06	2,29071283
3	0	8886,06	2,29075098
3	0	8891,06	2,29052186
3	0	8896,06	2,29044557
3	0	8901,06	2,29040718
3	0	8906,06	2,29040718
3	0	8911,06	2,29019713
3	0	8916,06	2,29021645
3	0	8921,06	2,29019713
3	0	8926,06	2,29006362
3	0	8931,06	2,29004455
3	0	8936,06	2,28994894
3	0	8941,06	2,28998709
3	0	8946,06	2,28994894
3	0	8951,06	2,28991079
3	0	8956,06	2,28987265
3	0	8961,06	2,2898345
3	0	8966,06	2,28973889
3	0	8971,06	2,28956699
3	0	8976,06	2,28958631
3	0	8981,06	2,28950977
3	0	8986,06	2,28947163
3	0	8991,06	2,28943348
3	0	8996,06	2,28928065
3	0	9001,06	2,28928065
3	0	9006,06	2,28928065
3	0	9011,06	2,28910875
3	0	9016,06	2,28914714
3	0	9021,06	2,28893709
3	0	9026,06	2,28884149
3	0	9031,06	2,28876519
3	0	9036,06	2,28861237
3	0	9041,06	2,28872705
3	0	9046,06	2,28866959
3	0	9051,06	2,28866959
3	0	9056,06	2,28842139
3	0	9061,06	2,28844047
3	0	9066,06	2,2883451
3	0	9071,06	2,28830695
3	0	9076,06	2,2881732
3	0	9081,06	2,2881732
3	0	9086,06	2,28821135
3	0	9091,06	2,28815413
3	0	9096,06	2,28794408
3	0	9101,06	2,28781033
3	0	9106,06	2,28788686
3	0	9111,06	2,28771496
3	0	9116,06	2,28769588
3	0	9121,06	2,2876575
3	0	9126,06	2,28763843
3	0	9131,06	2,28756213
3	0	9136,06	2,28740931
3	0	9141,06	2,28735209
3	0	9146,06	2,28725672
3	0	9151,06	2,28723764
3	0	9156,06	2,28714204
3	0	9161,06	2,28714204
3	0	9166,06	2,28714204
3	0	9171,06	2,28698921
3	0	9176,06	2,28677917
3	0	9181,06	2,28674102
3	0	9186,06	2,28674102
3	0	9191,06	2,28670287
3	0	9196,06	2,28658819
3	0	9201,06	2,2866075
3	0	9206,06	2,28647375
3	0	9211,06	2,28639746
3	0	9216,06	2,28630185
3	0	9221,06	2,2862637
3	0	9226,06	2,28618741
3	0	9231,06	2,28612995
3	0	9236,06	2,28597736
3	0	9241,06	2,2859199
3	0	9246,06	2,28590083
3	0	9251,06	2,28584361
3	0	9256,06	2,28584361
3	0	9261,06	2,28567171
3	0	9266,06	2,28572893
3	0	9271,06	2,28555727
3	0	9276,06	2,28561449
3	0	9281,06	2,2853663
3	0	9286,06	2,28548074
3	0	9291,06	2,2851181
3	0	9296,06	2,28521347
3	0	9301,06	2,28513718
3	0	9306,06	2,2851181
3	0	9311,06	2,28498435
3	0	9316,06	2,28490806
3	0	9321,06	2,2847743
3	0	9326,06	2,28479338
3	0	9331,06	2,28481245
3	0	9336,06	2,28458333
3	0	9341,06	2,28452611
3	0	9346,06	2,2844305
3	0	9351,06	2,28439236
3	0	9356,06	2,2844305
3	0	9361,06	2,28437328
3	0	9366,06	2,28433514
3	0	9371,06	2,28408694
3	0	9376,06	2,28399134
3	0	9381,06	2,28399134
3	0	9386,06	2,28393412
3	0	9391,06	2,28389597
3	0	9396,06	2,28383875
3	0	9401,06	2,28380036
3	0	9406,06	2,28368592
3	0	9411,06	2,28359032
3	0	9416,06	2,28357124
3	0	9421,06	2,2835331
3	0	9426,06	2,2833612
3	0	9431,06	2,28322768
3	0	9436,06	2,28320861
3	0	9441,06	2,28313208
3	0	9446,06	2,2831893
3	0	9451,06	2,28307486
3	0	9456,06	2,28301764
3	0	9461,06	2,28282666
3	0	9466,06	2,28280759
3	0	9471,06	2,28275013
3	0	9476,06	2,28257847
3	0	9481,06	2,28255939
3	0	9486,06	2,28257847
3	0	9491,06	2,28234935
3	0	9496,06	2,28240657
3	0	9501,06	2,28240657
3	0	9506,06	2,2822156
3	0	9511,06	2,28217745
3	0	9516,06	2,28210092
3	0	9521,06	2,28208184
3	0	9526,06	2,28198647
3	0	9531,06	2,28192925
3	0	9536,06	2,28189087
3	0	9541,06	2,28189087
3	0	9546,06	2,28164268
3	0	9551,06	2,2816236
3	0	9556,06	2,28166175
3	0	9561,06	2,28148985
3	0	9566,06	2,28154731
3	0	9571,06	2,28137541
3	0	9576,06	2,28137541
3	0	9581,06	2,28114629
3	0	9586,06	2,28112721
3	0	9591,06	2,28116536
3	0	9596,06	2,28097439
3	0	9601,06	2,28089809
3	0	9606,06	2,28095531
3	0	9611,06	2,28082156
3	0	9616,06	2,28074527
3	0	9621,06	2,28072619
3	0	9626,06	2,28057337
3	0	9631,06	2,28055429
3	0	9636,06	2,28040147
3	0	9641,06	2,28038239
3	0	9646,06	2,28034425
3	0	9651,06	2,2803061
3	0	9656,06	2,28022981
3	0	9661,06	2,28017235
3	0	9666,06	2,28009605
3	0	9671,06	2,28000045
3	0	9676,06	2,27994323
3	0	9681,06	2,27984786
3	0	9686,06	2,27980971
3	0	9691,06	2,27961874
3	0	9696,06	2,27961874
3	0	9701,06	2,27952313
3	0	9706,06	2,27961874
3	0	9711,06	2,27944684
3	0	9716,06	2,27929401
3	0	9721,06	2,27931309
3	0	9726,06	2,27933216
3	0	9731,06	2,2791605
3	0	9736,06	2,27902675
3	0	9741,06	2,27904582
3	0	9746,06	2,27902675
3	0	9751,06	2,27900767
3	0	9756,06	2,27887392
3	0	9761,06	2,27870202
3	0	9766,06	2,27868295
3	0	9771,06	2,27872109
3	0	9776,06	2,27858758
3	0	9781,06	2,27851105
3	0	9786,06	2,27853036
3	0	9791,06	2,2784729
3	0	9796,06	2,27832031
3	0	9801,06	2,27826285
3	0	9806,06	2,27820563
3	0	9811,06	2,27814841
3	0	9816,06	2,27799559
3	0	9821,06	2,27805281
3	0	9826,06	2,27793837
3	0	9831,06	2,27782369
3	0	9836,06	2,27774739
3	0	9841,06	2,27769017
3	0	9846,06	2,27759457
3	0	9851,06	2,27755642
3	0	9856,06	2,27753735
3	0	9861,06	2,27742267
3	0	9866,06	2,27734637
3	0	9871,06	2,27730823
3	0	9876,06	2,27717447
3	0	9881,06	2,2771554
3	0	9886,06	2,2769835
3	0	9891,06	2,27702165
3	0	9896,06	2,27694535
3	0	9901,06	2,27690721
3	0	9906,06	2,27675438
3	0	9911,06	2,27665901
3	0	9916,06	2,27675438
3	0	9921,06	2,27663994
3	0	9926,06	2,27660155
3	0	9931,06	2,27660155
3	0	9936,06	2,27639151
3	0	9941,06	2,27631521
3	0	9946,06	2,27635336
3	0	9951,06	2,27627707
3	0	9956,06	2,27627707
3	0	9961,06	2,2761817
3	0	9966,06	2,27612424
3	0	9971,06	2,27602887
3	0	9976,06	2,27599072
3	0	9981,06	2,27578068
3	0	9986,06	2,27579975
3	0	9991,06	2,27572322
3	0	9996,06	2,27568507
3	0	10001,06	2,27551317
3	0	10006,06	2,2755897
3	0	10011,06	2,27551317
3	0	10016,06	2,27537966
3	0	10021,06	2,27536058
3	0	10026,06	2,2753222
3	0	10031,06	2,27526498
3	0	10036,06	2,27515054
3	0	10041,06	2,27509308
3	0	10046,06	2,27509308
3	0	10051,06	2,27499771
3	0	10056,06	2,27497864
3	0	10061,06	2,27484488
3	0	10066,06	2,27484488
3	0	10071,06	2,27480674
3	0	10076,06	2,27461576
3	0	10081,06	2,27461576
3	0	10086,06	2,27455854
3	0	10091,06	2,27465391
3	0	10096,06	2,27440572
3	0	10101,06	2,27440572
3	0	10106,06	2,27432942
3	0	10111,06	2,27425289
3	0	10116,06	2,27408123
3	0	10121,06	2,27423382
3	0	10126,06	2,27415752
3	0	10131,06	2,27402377
3	0	10136,06	2,27394748
3	0	10141,06	2,27381372
3	0	10146,06	2,27387118
3	0	10151,06	2,27381372
3	0	10156,06	2,27377558
3	0	10161,06	2,27364206
3	0	10166,06	2,27352738
3	0	10171,06	2,27350831
3	0	10176,06	2,27352738
3	0	10181,06	2,2734127
3	0	10186,06	2,27329826
3	0	10191,06	2,27327919
3	0	10196,06	2,27327919
3	0	10201,06	2,27320266
3	0	10206,06	2,27305007
3	0	10211,06	2,27306914
3	0	10216,06	2,27297354
3	0	10221,06	2,27293539
3	0	10226,06	2,27287817
3	0	10231,06	2,27289724
3	0	10236,06	2,27272534
3	0	10241,06	2,27266812
3	0	10246,06	2,2726109
3	0	10251,06	2,27247715
3	0	10256,06	2,27245808
3	0	10261,06	2,272439
3	0	10266,06	2,27245808
3	0	10271,06	2,27241993
3	0	10276,06	2,27217174
3	0	10281,06	2,2722671
3	0	10286,06	2,27211428
3	0	10291,06	2,27207613
3	0	10296,06	2,27203798
3	0	10301,06	2,27186608
3	0	10306,06	2,2719233
3	0	10311,06	2,27188516
3	0	10316,06	2,27188516
3	0	10321,06	2,27173257
3	0	10326,06	2,27167511
3	0	10331,06	2,27163696
3	0	10336,06	2,27161789
3	0	10341,06	2,27152252
3	0	10346,06	2,27142692
3	0	10351,06	2,27138877
3	0	10356,06	2,27138877
3	0	10361,06	2,27140784
3	0	10366,06	2,27117872
3	0	10371,06	2,27121687
3	0	10376,06	2,27114058
3	0	10381,06	2,27115965
3	0	10386,06	2,27106404
3	0	10391,06	2,27079678
3	0	10396,06	2,27096868
3	0	10401,06	2,27091146
3	0	10406,06	2,27075863
3	0	10411,06	2,27083492
3	0	10416,06	2,27072048
3	0	10421,06	2,27066326
3	0	10426,06	2,2704339
3	0	10431,06	2,27047229
3	0	10436,06	2,27047229
3	0	10441,06	2,27035761
3	0	10446,06	2,27030039
3	0	10451,06	2,27035761
3	0	10456,06	2,27018571
3	0	10461,06	2,27014756
3	0	10466,06	2,27005219
3	0	10471,06	2,26997566
3	0	10476,06	2,27003312
3	0	10481,06	2,26991844
3	0	10486,06	2,26982307
3	0	10491,06	2,26976562
3	0	10496,06	2,26967025
3	0	10501,06	2,26968932
3	0	10506,06	2,26955557
3	0	10511,06	2,26959395
3	0	10516,06	2,26947927
3	0	10521,06	2,26955557
3	0	10526,06	2,2694602
3	0	10531,06	2,26949835
3	0	10536,06	2,26926923
3	0	10541,06	2,2692883
3	0	10546,06	2,2692883
3	0	10551,06	2,26907825
3	0	10556,06	2,26919293
3	0	10561,06	2,26913548
3	0	10566,06	2,26900196
3	0	10571,06	2,26896381
3	0	10576,06	2,26890635
3	0	10581,06	2,26888728
3	0	10586,06	2,26873446
3	0	10591,06	2,26865816
3	0	10596,06	2,26871538
3	0	10601,06	2,26871538
3	0	10606,06	2,26871538
3	0	10611,06	2,26858187
3	0	10616,06	2,26854372
3	0	10621,06	2,26837182
3	0	10626,06	2,26823807
3	0	10631,06	2,26827621
3	0	10636,06	2,26819992
3	0	10641,06	2,26816177
3	0	10646,06	2,26808524
3	0	10651,06	2,26810431
3	0	10656,06	2,26802802
3	0	10661,06	2,26798987
3	0	10666,06	2,26789451
3	0	10671,06	2,26793265
3	0	10676,06	2,26787519
3	0	10681,06	2,2677989
3	0	10686,06	2,2677989
3	0	10691,06	2,267627
3	0	10696,06	2,26764607
3	0	10701,06	2,26753163
3	0	10706,06	2,26741695
3	0	10711,06	2,26753163
3	0	10716,06	2,26739788
3	0	10721,06	2,26732159
3	0	10726,06	2,26737881
3	0	10731,06	2,26728344
3	0	10736,06	2,26726437
3	0	10741,06	2,26718783
3	0	10746,06	2,26720691
3	0	10751,06	2,26705432
3	0	10756,06	2,26692057
3	0	10761,06	2,26693964
3	0	10766,06	2,26695871
3	0	10771,06	2,26676774
3	0	10776,06	2,26680589
3	0	10781,06	2,26667237
3	0	10786,06	2,26661491
3	0	10791,06	2,26674867
3	0	10796,06	2,2664814
3	0	10801,06	2,26657677
3	0	10806,06	2,26642418
3	0	10811,06	2,26642418
3	0	10816,06	2,26636672
3	0	10821,06	2,26634765
3	0	10826,06	2,26634765
3	0	10831,06	2,26632857
3	0	10836,06	2,26623321
3	0	10841,06	2,2661376
3	0	10846,06	2,26609945
3	0	10851,06	2,26600409
3	0	10856,06	2,26609945
3	0	10861,06	2,26594663
3	0	10866,06	2,26583219
3	0	10871,06	2,26577497
3	0	10876,06	2,26575565
3	0	10881,06	2,26585126
3	0	10886,06	2,26562214
3	0	10891,06	2,26556492
3	0	10896,06	2,26569843
3	0	10901,06	2,26564121
3	0	10906,06	2,26541209
3	0	10911,06	2,26537395
3	0	10916,06	2,26539302
3	0	10921,06	2,26535487
3	0	10926,06	2,26533556
3	0	10931,06	2,26522112
3	0	10936,06	2,26525927
3	0	10941,06	2,26504922
3	0	10946,06	2,26514482
3	0	10951,06	2,26510644
3	0	10956,06	2,26506829
3	0	10961,06	2,26491547
3	0	10966,06	2,26491547
3	0	10971,06	2,26480103
3	0	10976,06	2,2647438
3	0	10981,06	2,26478195
3	0	10986,06	2,26470566
3	0	10991,06	2,26461005
3	0	10996,06	2,26453376
3	0	11001,06	2,26457191
3	0	11006,06	2,26451468
3	0	11011,06	2,26441908
3	0	11016,06	2,26432371
3	0	11021,06	2,26422811
3	0	11026,06	2,26445723
3	0	11031,06	2,26434278
3	0	11036,06	2,26422811
3	0	11041,06	2,26418996
3	0	11046,06	2,26409459
3	0	11051,06	2,26409459
3	0	11056,06	2,26418996
3	0	11061,06	2,26397991
3	0	11066,06	2,26388454
3	0	11071,06	2,26396084
3	0	11076,06	2,26388454
3	0	11081,06	2,26375079
3	0	11086,06	2,26380801
3	0	11091,06	2,26373172
3	0	11096,06	2,26363611
3	0	11101,06	2,2636745
3	0	11106,06	2,26359797
3	0	11111,06	2,26355982
3	0	11116,06	2,26354074
3	0	11121,06	2,26340699
3	0	11126,06	2,26331162
3	0	11131,06	2,26336884
3	0	11136,06	2,2633307
3	0	11141,06	2,26329255
3	0	11146,06	2,26310158
3	0	11151,06	2,26323533
3	0	11156,06	2,26312065
3	0	11161,06	2,26300621
3	0	11166,06	2,26300621
3	0	11171,06	2,26300621
3	0	11176,06	2,26281524
3	0	11181,06	2,26292968
3	0	11186,06	2,26277685
3	0	11191,06	2,2627387
3	0	11196,06	2,26262426
3	0	11201,06	2,2625668
3	0	11206,06	2,26264334
3	0	11211,06	2,26270056
3	0	11216,06	2,26258612
3	0	11221,06	2,26247144
3	0	11226,06	2,26247144
3	0	11231,06	2,26243329
3	0	11236,06	2,26229954
3	0	11241,06	2,26231861
3	0	11246,06	2,26224232
3	0	11251,06	2,26220417
3	0	11256,06	2,26216602
3	0	11261,06	2,26222324
3	0	11266,06	2,2620132
3	0	11271,06	2,26203227
3	0	11276,06	2,26193666
3	0	11281,06	2,26197505
3	0	11286,06	2,26189852
3	0	11291,06	2,26186037
3	0	11296,06	2,26180315
3	0	11301,06	2,26172662
3	0	11306,06	2,2616694
3	0	11311,06	2,26172662
3	0	11316,06	2,26161218
3	0	11321,06	2,26153588
3	0	11326,06	2,26157403
3	0	11331,06	2,26144028
3	0	11336,06	2,2614975
3	0	11341,06	2,26145935
3	0	11346,06	2,26136398
3	0	11351,06	2,26134491
3	0	11356,06	2,26130676
3	0	11361,06	2,26128745
3	0	11366,06	2,26121116
3	0	11371,06	2,26128745
3	0	11376,06	2,26121116
3	0	11381,06	2,26103926
3	0	11386,06	2,2610774
3	0	11391,06	2,26088667
3	0	11396,06	2,26102018
3	0	11401,06	2,26086736
3	0	11406,06	2,26088667
3	0	11411,06	2,26075292
3	0	11416,06	2,2606957
3	0	11421,06	2,26077199
3	0	11426,06	2,26071477
3	0	11431,06	2,26063824
3	0	11436,06	2,26060009
3	0	11441,06	2,26061916
3	0	11446,06	2,26054287
3	0	11451,06	2,26042819
3	0	11456,06	2,26039004
3	0	11461,06	2,26023722
3	0	11466,06	2,26023722
3	0	11471,06	2,2602756
3	0	11476,06	2,2603519
3	0	11481,06	2,2602756
3	0	11486,06	2,26019907
3	0	11491,06	2,2601037
3	0	11496,06	2,26016092
3	0	11501,06	2,25996995
3	0	11506,06	2,26004648
3	0	11511,06	2,25998902
3	0	11516,06	2,25987458
3	0	11521,06	2,25983644
3	0	11526,06	2,25985551
3	0	11531,06	2,25991273
3	0	11536,06	2,25970268
3	0	11541,06	2,25972176
3	0	11546,06	2,25968361
3	0	11551,06	2,25968361
3	0	11556,06	2,25972176
3	0	11561,06	2,25956893
3	0	11566,06	2,25945449
3	0	11571,06	2,25943542
3	0	11576,06	2,25949264
3	0	11581,06	2,25935888
3	0	11586,06	2,25930166
3	0	11591,06	2,25926352
3	0	11596,06	2,25926352
3	0	11601,06	2,25916791
3	0	11606,06	2,25911069
3	0	11611,06	2,25907254
3	0	11616,06	2,25909162
3	0	11621,06	2,25905347
3	0	11626,06	2,2590344
3	0	11631,06	2,25899625
3	0	11636,06	2,25897717
3	0	11641,06	2,25888157