File: Experimentelles/Rohdaten/Batteriemessungen/AlteZelle/Studenten_Batterietests/LLTO_LP30_Li CV/ZView-Export/LLTO_LP30_Li_05_GCPL_C01_loop3.txt
EC-Lab ASCII FILE
Nb header lines : 3
mode	ox/red	error	control changes	Ns changes	counter inc.	Ns	time/s	control/V/mA	Ewe/V	dq/mA.h	<I>/mA	P/W	(Q-Qo)/mA.h	x	Capacity/mA.h
1	0	0	1	1	0	1	21031,49	-0,100000001	4,18816185	0	0	0	0	0	0
1	0	0	1	0	0	1	21051,49	-0,100000001	3,44115019	-0,0002777334625832736	-0,099984047740504704	0,000344060129	-0,00055409363596917606	2,0673978544826822E-005	0,00055409363596917606
1	0	0	1	0	0	1	21071,49	-0,100000001	2,82237959	-0,00027773426650257578	-0,099984337151456998	0,000282193767	-0,0011095618504173037	4,1399244460843757E-005	0,0011095618504173037
1	0	0	1	0	0	1	21091,49	-0,100000001	2,2721982	-0,00027773402131348848	-0,099984248883384499	0,000227184035	-0,0016650301661242022	6,2124514154961574E-005	0,0016650301661242022
1	0	0	1	0	0	1	21111,49	-0,100000001	1,87947309	-0,00027773419299473366	-0,09998431068863351	0,000187917816	-0,0022204985691564586	8,2849787107305894E-005	0,0022204985691564586
1	0	0	1	0	0	1	21131,49	-0,100000001	1,61519217	-0,00027773362157328259	-0,099984104976908646	0,000161493546	-0,0027759657535129757	0,00010357501458921986	0,0027759657535129757
1	0	0	1	0	0	1	21151,49	-0,100000001	1,49267936	-0,0002777339607377847	-0,099984227076130854	0,000149244399	-0,0033314338307876358	0,00012430027538711029	0,0033314338307876358
1	0	0	1	0	0	1	21171,49	-0,100000001	1,45244634	-0,0002777337416898873	-0,099984148218886848	0,000145221609	-0,0038869016352572173	0,00014502552600627645	0,0038869016352572173
1	0	0	1	0	0	1	21191,49	-0,100000001	1,42731738	-0,00027773368670998349	-0,099984128426121242	0,00014270909	-0,0044423689254405395	0,00016575075743673078	0,0044423689254405395
1	0	0	1	0	0	1	21211,49	-0,100000001	1,40715325	-0,00027773401781130166	-0,099984247622597235	0,000140693155	-0,004997836652294112	0,0001864760051599393	0,004997836652294112
1	0	0	1	0	0	1	21231,49	-0,100000001	1,38962412	-0,0002777338454859952	-0,099984185585486131	0,000138940435	-0,0055533044641795059	0,00020720125605579939	0,0055533044641795059
1	0	0	1	0	0	1	21251,49	-0,100000001	1,37324071	-0,00027773385450657872	-0,099984188832896256	0,000137302355	-0,0061087721596984205	0,00022792650260986963	0,0061087721596984205
1	0	0	1	0	0	1	21271,49	-0,100000001	1,35775471	-0,00027773406731254525	-0,099984265443045146	0,000135754104	-0,0066642400260744627	0,00024865175553884912	0,0066642400260744627
1	0	0	1	0	0	1	21291,49	-0,100000001	1,34272695	-0,00027773459472010531	-0,099984455309769062	0,000134251823	-0,0072197089074211622	0,00026937704633774838	0,0072197089074211622
1	0	0	1	0	0	1	21311,49	-0,100000001	1,32808125	-0,00027773408652883437	-0,099984272360909299	0,000132787231	-0,0077751775338387968	0,0002901023276249015	0,0077751775338387968
1	0	0	1	0	0	1	21331,49	-0,100000001	1,31777	-0,0002777340953035487	-0,099984275519806502	0,000131756286	-0,0083306457332591027	0,00031082759298021018	0,0083306457332591027
1	0	0	1	0	0	1	21351,49	-0,100000001	1,31356907	-0,00027773404951517779	-0,099984259035992768	0,00013133623	-0,0088861136263628621	0,00033155284690643667	0,0088861136263628621
1	0	0	1	0	0	1	21371,49	-0,100000001	1,30852807	-0,00027773398716996112	-0,099984236591714496	0,000130832181	-0,0094415818573748723	0,0003522781134404743	0,0094415818573748723
1	0	0	1	0	0	1	21391,49	-0,100000001	1,30165386	-0,00027773410382659898	-0,09998427858810464	0,000130144923	-0,0099970500817964275	0,00037300337972861331	0,0099970500817964275
1	0	0	1	0	0	1	21411,49	-0,100000001	1,29208732	-0,00027773376851404707	-0,099984157875584486	0,000129188265	-0,010552517924869536	0,00039372863178812896	0,010552517924869536
1	0	0	1	0	0	1	21431,49	-0,100000001	1,28076398	-0,00027773365345266128	-0,099984116453485107	0,000128056054	-0,011107985221113077	0,00041445386344469818	0,011107985221113077
1	0	0	1	0	0	1	21451,49	-0,100000001	1,26839054	-0,00027773395029248464	-0,099984223315822797	0,000126819039	-0,011663452925294118	0,0004351791103219641	0,011663452925294118
1	0	0	1	0	0	1	21471,49	-0,100000001	1,25555873	-0,00027773411774428358	-0,099984283598471155	0,000125536142	-0,012218920908905874	0,00045590436762516557	0,012218920908905874
1	0	0	1	0	0	1	21491,49	-0,100000001	1,24245965	-0,00027773363610150086	-0,099984110207067277	0,000124226222	-0,012774388312012266	0,00047662960326893146	0,012774388312012266
1	0	0	1	0	0	1	21511,49	-0,100000001	1,22924602	-0,00027773403514383568	-0,099984253862309542	0,000122905243	-0,013329855982876795	0,00049735484890311347	0,013329855982876795
1	0	0	1	0	0	1	21531,49	-0,100000001	1,21582222	-0,00027773422214264675	-0,099984321181882355	0,000121563156	-0,013885324392888174	0,0005180801221158583	0,013885324392888174
1	0	0	1	0	0	1	21551,49	-0,100000001	1,20211208	-0,00027773405602367389	-0,099984261379051392	0,000120192286	-0,014440792505233133	0,00053880538422226867	0,014440792505233133
1	0	0	1	0	0	1	21571,49	-0,100000001	1,18805826	-0,00027773411675045888	-0,099984283240694246	0,000118787153	-0,014996260858187552	0,00055953065530614163	0,014996260858187552
1	0	0	1	0	0	1	21591,49	-0,100000001	1,17373705	-0,00027773418027783434	-0,099984306110549709	0,000117355281	-0,015551729028854826	0,0005802559195886359	0,015551729028854826
1	0	0	1	0	0	1	21611,49	-0,100000001	1,15903401	-0,00027773408479616045	-0,099984271737146688	0,000115885174	-0,016107197314944838	0,00060098118817770803	0,016107197314944838
1	0	0	1	0	0	1	21631,49	-0,100000001	1,14360535	-0,00027773397123482493	-0,099984230855065421	0,000114342503	-0,016662665510655581	0,00062170645339460787	0,016662665510655581
1	0	0	1	0	0	1	21651,49	-0,100000001	1,12748921	-0,00027773322493044867	-0,099983962185486707	0,000112730835	-0,017218132386877194	0,00064243166937959437	0,017218132386877194
1	0	0	1	0	0	1	21671,49	-0,100000001	1,11051381	-0,00027773381004109981	-0,099984172825323648	0,000111033805	-0,017773599393971152	0,00066315689024760384	0,017773599393971152
1	0	0	1	0	0	1	21691,49	-0,100000001	1,09300387	-0,00027773402373409933	-0,099984249754804429	0,000109283174	-0,01832906742510271	0,00068388214932383322	0,01832906742510271
1	0	0	1	0	0	1	21711,49	-0,100000001	1,07457721	-0,00027773404548151626	-0,099984257583874598	0,000107440806	-0,018884535666107603	0,00070460741623071872	0,018884535666107603
1	0	0	1	0	0	1	21731,49	-0,100000001	1,05540597	-0,00027773391195593606	-0,099984209514665152	0,000105523934	-0,019440003743032502	0,00072533267701555891	0,019440003743032502
1	0	0	1	0	0	1	21751,49	-0,100000001	1,03564274	-0,00027773380962717862	-0,099984172676312013	0,000103547885	-0,019995471483709798	0,00074605792525454925	0,019995471483709798
1	0	0	1	0	0	1	21771,49	-0,100000001	1,01635683	-0,00027773377709297674	-0,099984160963999206	0,000101619582	-0,020550939108401424	0,00076678316916595814	0,020550939108401424
1	0	0	1	0	0	1	21791,49	-0,100000001	0,998312116	-0,00027773388917495805	-0,099984201313512973	9,98154428E-005	-0,021106407085419002	0,00078750842622312205	0,021106407085419002
1	0	0	1	0	0	1	21811,49	-0,100000001	0,983074427	-0,00027773514112540416	-0,099984652015679027	9,8292352E-005	-0,021661877407141331	0,00080823377076437274	0,021661877407141331
1	0	0	1	0	0	1	21831,49	-0,100000001	0,970739067	-0,00027773556281584832	-0,099984803824240755	9,70591573E-005	-0,022217348224264352	0,00082895913378968922	0,022217348224264352
1	0	0	1	0	0	1	21851,49	-0,100000001	0,961287141	-0,0002777358941386143	-0,099984923100437965	9,61142214E-005	-0,022772819946480595	0,00084968453058525069	0,022772819946480595
1	0	0	1	0	0	1	21871,49	-0,100000001	0,953496397	-0,0002777355092519687	-0,099984784541243866	9,53351337E-005	-0,023328290873698362	0,00087040989771835034	0,023328290873698362
1	0	0	1	0	0	1	21891,49	-0,100000001	0,94746238	-0,00027773567899606291	-0,099984845649118528	9,47318767E-005	-0,023883762164104614	0,00089113527840250048	0,023883762164104614
1	0	0	1	0	0	1	21911,49	-0,100000001	0,942459524	-0,00027773578279341261	-0,099984883016164864	9,42317056E-005	-0,024439233646167533	0,00091186066623761869	0,024439233646167533
1	0	0	1	0	0	1	21931,49	-0,100000001	0,938354135	-0,00027773551428980294	-0,099984786354864218	9,38211379E-005	-0,024994704668339229	0,00093258603691357696	0,024994704668339229
1	0	0	1	0	0	1	21951,49	-0,100000001	0,934859753	-0,00027773540983224912	-0,099984748750144384	9,34717173E-005	-0,025550175536437466	0,00095331140184084723	0,025550175536437466
1	0	0	1	0	0	1	21971,49	-0,100000001	0,93147999	-0,00027773547732664477	-0,099984773048127117	9,31338145E-005	-0,0261056465157588	0,00097403677091800102	0,0261056465157588
1	0	0	1	0	0	1	21991,49	-0,100000001	0,928291142	-0,00027773578925306598	-0,099984885341640115	9,28150839E-005	-0,026661117890676989	0,00099476215475540531	0,026661117890676989
1	0	0	1	0	0	1	22011,49	-0,100000001	0,924892247	-0,0002777363563825687	-0,099985089508263552	9,24754349E-005	-0,027216590093538051	0,0010154875694844712	0,027216590093538051
1	0	0	1	0	0	1	22031,49	-0,100000001	0,921206892	-0,0002777359002232552	-0,099984925290908698	9,21068058E-005	-0,027772062073243046	0,0010362129758872843	0,027772062073243046
1	0	0	1	0	0	1	22051,49	-0,100000001	0,917426109	-0,00027773592982317011	-0,099984935946878195	9,17287907E-005	-0,028327534114281638	0,0010569383845785365	0,028327534114281638
1	0	0	1	0	0	1	22071,49	-0,100000001	0,913588047	-0,00027773591500934627	-0,099984930613901555	9,13450349E-005	-0,028883005955147546	0,0010776637858010765	0,028883005955147546
1	0	0	1	0	0	1	22091,49	-0,100000001	0,909196198	-0,00027773548115500147	-0,099984774426335539	9,09057781E-005	-0,029438476834048717	0,0010983891511314187	0,029438476834048717
1	0	0	1	0	0	1	22111,49	-0,100000001	0,904957116	-0,00027773534539714458	-0,099984725553506458	9,0481888E-005	-0,02999394771998489	0,0011191145167242466	0,02999394771998489
1	0	0	1	0	0	1	22131,49	-0,100000001	0,900565326	-0,00027773540221154694	-0,099984746006691558	9,00427985E-005	-0,030549418697157562	0,0011398398857212306	0,030549418697157562
1	0	0	1	0	0	1	22151,49	-0,100000001	0,89596343	-0,00027773537346389558	-0,099984735657536947	8,9582667E-005	-0,031104889743147104	0,0011605652572858646	0,031104889743147104
1	0	0	1	0	0	1	22171,49	-0,100000001	0,891457021	-0,00027773569089298445	-0,09998484993201033	8,91321979E-005	-0,03166036077039015	0,0011812906281510422	0,03166036077039015
1	0	0	1	0	0	1	22191,49	-0,100000001	0,886931539	-0,00027773547695039046	-0,099984772912675546	8,86796479E-005	-0,032215831788495904	0,0012020159986752944	0,032215831788495904
1	0	0	1	0	0	1	22211,49	-0,100000001	0,882043242	-0,00027773555366984672	-0,099984800531680141	8,81909145E-005	-0,032771302687551718	0,0012227413647576338	0,032771302687551718
1	0	0	1	0	0	1	22231,49	-0,100000001	0,8774032	-0,00027773614086873005	-0,099985011923280704	8,77271668E-005	-0,033326774398130566	0,0012434667611189885	0,033326774398130566
1	0	0	1	0	0	1	22251,49	-0,100000001	0,872591257	-0,00027773581717866989	-0,099984895394857638	8,72459423E-005	-0,033882246257039302	0,001264192163014731	0,033882246257039302
1	0	0	1	0	0	1	22271,49	-0,100000001	0,867760241	-0,00027773577424759667	-0,099984879939671091	8,6762906E-005	-0,03443771782115712	0,0012849175539114275	0,03443771782115712
1	0	0	1	0	0	1	22291,49	-0,100000001	0,862929225	-0,0002777359821514951	-0,09998495478507543	8,62799425E-005	-0,034993189856672346	0,0013056429623965955	0,034993189856672346
1	0	0	1	0	0	1	22311,49	-0,100000001	0,857964575	-0,00027773584569700893	-0,099984905661459814	8,57835039E-005	-0,035548661496462394	0,0013263683561167248	0,035548661496462394
1	0	0	1	0	0	1	22331,49	-0,100000001	0,852961719	-0,00027773600819913878	-0,099984964162227277	8,52833473E-005	-0,03610413330169673	0,001347093756009803	0,03610413330169673
1	0	0	1	0	0	1	22351,49	-0,100000001	0,84805429	-0,00027773601547090544	-0,099984966780063283	8,47926785E-005	-0,036659605016187962	0,0013678191525171338	0,036659605016187962
1	0	0	1	0	0	1	22371,49	-0,100000001	0,843070567	-0,00027773607261354723	-0,099984987351414592	8,42943991E-005	-0,037215076993637082	0,0013885445588357773	0,037215076993637082
1	0	0	1	0	0	1	22391,49	-0,100000001	0,837819457	-0,00027773607205144234	-0,099984987149056832	8,3769366E-005	-0,037770549345204282	0,0014092699791132693	0,037770549345204282
1	0	0	1	0	0	1	22411,49	-0,100000001	0,832759321	-0,00027773591343644592	-0,099984930047657434	8,32633814E-005	-0,038326021139107526	0,0014299953785835694	0,038326021139107526
1	0	0	1	0	0	1	22431,49	-0,100000001	0,827660978	-0,00027773669440423446	-0,099985211196064717	8,27538606E-005	-0,038881494009267008	0,0014507208182104365	0,038881494009267008
1	0	0	1	0	0	1	22451,49	-0,100000001	0,822562635	-0,00027773639970314173	-0,099985105103670042	8,22440124E-005	-0,039436967036262029	0,0014714462636890486	0,039436967036262029
1	0	0	1	0	0	1	22471,49	-0,100000001	0,817349732	-0,00027773648416540694	-0,099985135510085875	8,17228211E-005	-0,039992439849132346	0,0014921717011783802	0,039992439849132346
1	0	0	1	0	0	1	22491,49	-0,100000001	0,812136829	-0,00027773621840319699	-0,099985039835689139	8,12015351E-005	-0,040547912632365491	0,0015128971375619088	0,040547912632365491
1	0	0	1	0	0	1	22511,49	-0,100000001	0,806866586	-0,00027773627971899178	-0,099985061909375539	8,06746029E-005	-0,041103385274575699	0,0015336225686836819	0,041103385274575699
1	0	0	1	0	0	1	22531,49	-0,100000001	0,801672816	-0,00027773602479447923	-0,099984970136549901	8,01552305E-005	-0,041658857704844627	0,0015543479918976413	0,041658857704844627
1	1	0	0	1	0	2	22537,36	0,100000001	0,811962843	5,488565812508265E-009	0,032931393310892333	2,67390678E-005	-0,041821744450962266	0,0015604255153988499	5,488565812508265E-009
1	1	0	0	0	0	2	22557,36	0,100000001	0,839550674	0,00027780824507855712	0,1000109694391327	8,39642744E-005	-0,041266128244691725	0,0015396947277089616	0,00055562169483635174
1	1	0	0	0	0	2	22577,36	0,100000001	0,84923178	0,0002778089744452801	0,10001123201115616	8,49327189E-005	-0,040710510310552486	0,001518963875549969	0,0011112396289755901
1	1	0	0	0	0	2	22597,36	0,100000001	0,857843578	0,00027780866114629638	0,10001111922352067	8,5793894E-005	-0,040154892209079418	0,0014982330171475264	0,0016668577304486598
1	1	0	0	0	0	2	22617,36	0,100000001	0,865825295	0,0002778085085128745	0,10001106427548811	8,65921102E-005	-0,039599275199919002	0,0014775021995007373	0,0022224747396090797
1	1	0	0	0	0	2	22637,36	0,100000001	0,87350142	0,00027780852893284624	0,10001107162667805	8,7359811E-005	-0,039043658200655437	0,0014567713822232131	0,0027780917388726445
1	1	0	0	0	0	2	22657,36	0,100000001	0,880986631	0,00027780892403879101	0,10001121386481987	8,81085434E-005	-0,038488040235327654	0,0014360405289005341	0,0033337097042004269
1	1	0	0	0	0	2	22677,36	0,100000001	0,888204515	0,00027780886108055712	0,10001119119985539	8,88303912E-005	-0,037932422550780378	0,0014153096860541533	0,0038893273887476992
1	1	0	0	0	0	2	22697,36	0,100000001	0,895326912	0,00027780891126808192	0,10001120926736456	8,95427293E-005	-0,037376804906930662	0,0013945788447262531	0,0044449450325974163
1	1	0	0	0	0	2	22717,36	0,100000001	0,902239263	0,00027780900028430752	0,10001124131320618	9,02340689E-005	-0,036821186833977587	0,0013738479873879296	0,0050005631055504915
1	1	0	0	0	0	2	22737,36	0,100000001	0,909113407	0,00027780902535799475	0,10001125033973366	9,09215669E-005	-0,036265568631657184	0,0013531171252227371	0,0055561813078708947
1	1	0	0	0	0	2	22757,36	0,100000001	0,915643871	0,00027780837968985242	0,10001101789919962	9,15744749E-005	-0,035709951568054547	0,0013323863055446354	0,0061117983714735347
1	1	0	0	0	0	2	22777,36	0,100000001	0,922250748	0,0002778079899532927	0,10001087759403642	9,22351101E-005	-0,035154335743219795	0,0013116555320866294	0,0066674141963082893
1	1	0	0	0	0	2	22797,36	0,100000001	0,928609312	0,00027780826031954755	0,10001097492588933	9,28711233E-005	-0,034598719421769069	0,0012909247400992136	0,0072230305177590093
1	1	0	0	0	0	2	22817,36	0,100000001	0,935063422	0,0002778085412681103	0,10001107606737315	9,35166972E-005	-0,03404310270579024	0,0012701939333914237	0,0077786472337378406
1	1	0	0	0	0	2	22837,36	0,100000001	0,941307425	0,00027780806588340138	0,10001090492887587	9,41410108E-005	-0,033487486373681466	0,0012494631410063416	0,0083342635658466176
1	1	0	0	0	0	2	22857,36	0,100000001	0,947494209	0,00027780838463414045	0,10001101967914333	9,47598601E-005	-0,032931869921181651	0,0012287323441293085	0,0088898800183464256
1	1	0	0	0	0	2	22877,36	0,100000001	0,953394532	0,00027780828473096093	0,10001098371399826	9,53499257E-005	-0,032376253457536192	0,0012080015468364157	0,0094454964819918899
1	1	0	0	0	0	2	22897,36	0,100000001	0,959466696	0,00027780876482319501	0,10001115654720464	9,59573736E-005	-0,031820636130145331	0,001187270717316021	0,01000111380938275
1	1	0	0	0	0	2	22917,36	0,100000001	0,965118766	0,00027780881202634838	0,10001117354034005	9,65226573E-005	-0,031265018554371162	0,0011665398785281109	0,010556731385156926
1	1	0	0	0	0	2	22937,36	0,100000001	0,970732689	0,00027780858321198163	0,10001109116716701	9,70840338E-005	-0,030709400991183494	0,0011458090402098203	0,01111234894834459
1	1	0	0	0	0	2	22957,36	0,100000001	0,976671219	0,00027780860168197085	0,10001109781636323	9,76779629E-005	-0,030153783675217274	0,0011250782111156939	0,011667966264310813
1	1	0	0	0	0	2	22977,36	0,100000001	0,98427099	0,00027780869395327238	0,10001113103403216	9,84380531E-005	-0,029598166301812454	0,001104347379878457	0,012223583637715627
1	1	0	0	0	0	2	22997,36	0,100000001	0,995116889	0,00027780874301617347	0,10001114869667677	9,9522782E-005	-0,029042548825054426	0,001083616544784972	0,012779201114473659
1	1	0	0	0	0	2	23017,36	0,100000001	1,01197767	0,0002778083103982111	0,10001099295420842	0,000101208891	-0,028486931953949123	0,0010628857322892051	0,01333481798557896
1	1	0	0	0	0	2	23037,36	0,100000001	1,03260016	0,00027780806874649395	0,10001090595958922	0,000103271275	-0,02793131534134296	0,0010421549294383882	0,013890434598185123
1	1	0	0	0	0	2	23057,36	0,100000001	1,05358553	0,0002778086031319367	0,10001109833835093	0,000105370244	-0,027375698195194093	0,001021424106680376	0,014446051744333984
1	1	0	0	0	0	2	23077,36	0,100000001	1,07340598	0,00027780847123141088	0,10001105085416106	0,000107352462	-0,026820081138847075	0,0010006932872729914	0,015001668800681002
1	1	0	0	0	0	2	23097,36	0,100000001	1,09190905	0,0002778086071647704	0,10001109979017107	0,000109203022	-0,02626446391200801	0,00097996246150431936	0,01555728602752007
1	1	0	0	0	0	2	23117,36	0,100000001	1,10953355	0,00027780848785448403	0,10001105683846747	0,000110965622	-0,025708847394886003	0,00095923166221614477	0,016112902544642074
1	1	0	0	0	0	2	23137,36	0,100000001	1,12595522	0,00027780849288652336	0,10001105865000166	0,000112607973	-0,025153230038450294	0,00093850083161204774	0,016668519901077782
1	1	0	0	0	0	2	23157,36	0,100000001	1,14161301	0,00027780810014117094	0,10001091726167307	0,000114173767	-0,024597613590901808	0,00091777003491975501	0,017224136348626269
1	1	0	0	0	0	2	23177,36	0,100000001	1,1566025	0,0002778085114206705	0,1000110653222947	0,00011567305	-0,024041996495391229	0,00089703921405112525	0,017779753444136848
1	1	0	0	0	0	2	23197,36	0,100000001	1,17126739	0,00027780835806992317	0,10001101011602499	0,000117139636	-0,023486379745706384	0,00087630840608571853	0,018335370193821693
1	1	0	0	0	0	2	23217,36	0,100000001	1,18553138	0,00027780832776096131	0,10001099920479859	0,000118566175	-0,022930762859253715	0,00085557759301732058	0,018890987080274362
1	1	0	0	0	0	2	23237,36	0,100000001	1,19990981	0,00027780800394920835	0,10001088263256611	0,000120004042	-0,022375146441191315	0,00083484679742519322	0,019446603498336762
1	1	0	0	0	0	2	23257,36	0,100000001	1,21409726	0,00027780828160213098	0,10001098258761949	0,000121423058	-0,02181952979085624	0,0008141159931666601	0,020002220148671837
1	1	0	0	0	0	2	23277,36	0,100000001	1,22836125	0,00027780838479101658	0,10001101973561874	0,000122849655	-0,021263912704626186	0,00079338517264429939	0,020557837234901888
1	1	0	0	0	0	2	23297,36	0,100000001	1,24294972	0,00027780875504265232	0,1000111530262092	0,000124308834	-0,020708295232667987	0,00077265433772990285	0,02111345470686009
1	1	0	0	0	0	2	23317,36	0,100000001	1,25744271	0,0002778087878442473	0,10001116483478357	0,000125758306	-0,020152677631895043	0,00075192349800925491	0,02166907230763303
1	1	0	0	0	0	2	23337,36	0,100000001	1,27222216	0,00027780885168744458	0,10001118781833485	0,000127236446	-0,019597060336828531	0,00073119266969492506	0,022224689602699546
1	1	0	0	0	0	2	23357,36	0,100000001	1,28707802	0,0002778085088200039	0,1000110643860547	0,000128722037	-0,019041443109945171	0,00071046184392460032	0,022780306829582902
1	1	0	0	0	0	2	23377,36	0,100000001	1,30210578	0,00027780859554020893	0,10001109560532891	0,000130225031	-0,018485825767021923	0,00068973101382467123	0,023335924172506154
1	1	0	0	0	0	2	23397,36	0,100000001	1,31720984	0,00027780849413366784	0,10001105909897366	0,000131735549	-0,017930208525111987	0,00066900018749368474	0,023891541414416086
1	1	0	0	0	0	2	23417,36	0,100000001	1,3324666	0,00027780903408345254	0,1000112534808985	0,000133261652	-0,017374590281236387	0,00064826932377801203	0,02444715965829169
1	1	0	0	0	0	2	23437,36	0,100000001	1,34781897	0,0002778087740631567	0,10001115987359088	0,000134796937	-0,016818972455698051	0,00062753847567106509	0,025002777483830026
1	1	0	0	0	0	2	23457,36	0,100000001	1,36309493	0,00027780846342113283	0,10001104804246093	0,000136324554	-0,016263355377294835	0,00060680765544073408	0,025558394562233242
1	1	0	0	0	0	2	23477,36	0,100000001	1,37292874	0,00027780858056454195	0,10001109021408872	0,000137308103	-0,015707738354451424	0,00058607683728341427	0,02611401158507665
1	1	0	0	0	0	2	23497,36	0,100000001	1,3694917	0,00027780840915524294	0,10001102850674032	0,00013696427	-0,015152121625727136	0,00056534603010007411	0,026669628313800941
1	1	0	0	0	0	2	23517,36	0,100000001	1,3688997	0,00027780874525010582	0,10001114950089243	0,000136905233	-0,014596504554325805	0,00054461521013099302	0,027225245385202269
1	1	0	0	0	0	2	23537,36	0,100000001	1,37149668	0,00027780848325416448	0,1000110551823524	0,000137164825	-0,01404088760928591	0,00052388439487662682	0,027780862330242163
1	1	0	0	0	0	2	23557,36	0,100000001	1,37669039	0,00027780878734795587	0,10001116465611862	0,000137684416	-0,01348527016440312	0,00050315356097245024	0,02833647977512495
1	1	0	0	0	0	2	23577,36	0,100000001	1,38505399	0,00027780809883897504	0,10001091679288253	0,000138520525	-0,012929653715093402	0,00048242276421444339	0,028892096224434669
1	1	0	0	0	0	2	23597,36	0,100000001	1,39750385	0,00027780839778772659	0,1000110244144344	0,000139765791	-0,01237403725897923	0,00046169196720255334	0,029447712680548838
1	1	0	0	0	0	2	23617,36	0,100000001	1,41392553	0,00027780879491195082	0,10001116737915685	0,000141408338	-0,011818419880195922	0,00044096113576463718	0,030003330059332147
1	1	0	0	0	0	2	23637,36	0,100000001	1,43284857	0,00027780863425218397	0,1000111095416401	0,000143300771	-0,011262802710977576	0,00042023031214587162	0,030558947228550496
1	1	0	0	0	0	2	23657,36	0,100000001	1,45545697	0,00027780865976048842	0,10001111872462979	0,000145561877	-0,010707185479146621	0,00039949948619094541	0,031114564460381446
1	1	0	0	0	0	2	23677,36	0,100000001	1,48635244	0,00027780855179371104	0,10001107985658947	0,000148651714	-0,01015156807973431	0,0003787686539833335	0,031670181859793754
1	1	0	0	0	0	2	23697,36	0,100000001	1,57699597	0,00027780861264508634	0,10001110176308483	0,000157717106	-0,0095959507278434586	0,00035803782354881101	0,032225799211684608
1	1	0	0	0	0	2	23717,36	0,100000001	2,01852751	0,00027780867229153715	0,10001112323580739	0,000201875198	-0,0090403335896973453	0,00033730700108939226	0,03278141634983072
1	1	0	0	0	0	2	23737,36	0,100000001	2,40047026	0,00027780891972780227	0,1000112123128639	0,000240073947	-0,0084847161422743219	0,0003165761670904361	0,033337033797253754
1	1	0	0	0	0	2	23757,36	0,100000001	2,68542361	0,00027780884276371862	0,10001118460579347	0,000268572388	-0,0079290984490284979	0,00029584532391950074	0,033892651490499571
1	1	0	0	0	0	2	23777,36	0,100000001	2,9103806	0,00027780889091806278	0,10001120194135757	0,000291070668	-0,0073734807425686541	0,00027511448025553251	0,034448269196959418
1	1	0	0	0	0	2	23797,36	0,100000001	3,09308076	0,00027780865656791462	0,1000111175753032	0,00030934246	-0,006817863384747968	0,00025438364959976	0,035003886554780102
1	1	0	0	0	0	2	23817,36	0,100000001	3,24133372	0,00027780833185008826	0,10001100067688432	0,000324169028	-0,0062622465338213235	0,00023365283785688579	0,035559503405706746
1	1	0	0	0	0	2	23837,36	0,100000001	3,35580754	0,00027780816983390189	0,10001094235105651	0,000335617486	-0,005706630242546695	0,00021292204699538074	0,03611511969698137
1	1	0	0	0	0	2	23857,36	0,100000001	3,44417882	0,00027780897916522291	0,1000112337103356	0,000344456581	-0,0051510123942133101	0,00019219119803791994	0,036670737545314758
1	1	0	0	0	0	2	23877,36	0,100000001	3,51740789	0,00027780865228962563	0,10001111603511917	0,00035177989	-0,0045953949159312224	0,00017146036288757059	0,037226355023596845
1	1	0	0	0	0	2	23897,36	0,100000001	3,58097482	0,00027780849258063568	0,10001105853988208	0,000358137069	-0,0040397779505603488	0,00015072954687462826	0,037781971988967712
1	1	0	0	0	0	2	23917,36	0,100000001	3,64028358	0,00027780848078885008	0,10001105429483922	0,000364068605	-0,0034841610787426906	0,00012999873435228218	0,03833758886078537
1	1	0	0	0	0	2	23937,36	0,100000001	3,70047069	0,00027780881031561229	0,10001117292447504	0,000370088412	-0,0029285433135060442	0,00010926788849527243	0,038893206626022016
1	1	0	0	0	0	2	23957,36	0,100000001	3,76157427	0,00027780869166097709	0,10001113020880586	0,000376199285	-0,0023729259780809747	8,8537058675110541E-005	0,039448823961447091
1	1	0	0	0	0	2	23977,36	0,100000001	3,82071137	0,00027780856071950662	0,10001108306987594	0,000382113474	-0,0018173088655151891	6,7806237170128141E-005	0,040004441074012883
1	1	0	0	0	0	2	23997,36	0,100000001	3,8765831	0,00027780843503856003	0,10001103782473458	0,000387701089	-0,0012616919120068813	4,7075421599794093E-005	0,04056005802752119
1	1	0	0	0	0	2	24017,36	0,100000001	3,92926574	0,0002778084415006969	0,10001104015110389	0,00039296996	-0,00070607512725463808	2,6344612325975715E-005	0,041115674812273434
1	1	0	0	0	0	2	24037,36	0,100000001	3,97942805	0,00027780871229122083	0,1000111376356937	0,00039798714	-0,0001504576155239969	5,6137759276158765E-006	0,041671292324004077
1	1	0	0	0	0	2	24057,36	0,100000001	4,02838755	0,0002778088123980496	0,10001117367415248	0,000402883772	0,00040515973701712531	-1,5117054531168979E-005	0,042226909676545203
1	1	0	0	0	0	2	24077,36	0,100000001	4,07732773	0,00027780867948879802	0,10001112582682134	0,000407778134	0,00096077713125293837	-3,5847886545638803E-005	0,042782527070781011
1	1	0	0	0	0	2	24097,36	0,100000001	4,12617254	0,0002778084601420495	0,10001104686199093	0,000412662834	0,0015163943052177171	-5,6578710341500179E-005	0,043338144244745786
1	1	0	0	0	0	2	24117,36	0,100000001	4,17194319	0,00027780884572656621	0,10001118567241861	0,000417240983	0,0020720120393250093	-7,7309555037031872E-005	0,043893761978853088
1	1	0	0	0	0	2	24131,10	0,100000001	4,1999054	0,00010398367460982667	0,1000110160642735	0,000420036813	0,0024538044442477693	-9,1554742990047923E-005	0,044275554383775846