File: Experimentelles/Rohdaten/150123_Batterietests/LiCoO2 vs Li 200µm IS + GCPL/ECLab-Export/LiCoO2 vs Li 200µm IS + GCPL_04_GCPL_C03.mpt
EC-Lab ASCII FILE
Nb header lines : 81

Galvanostatic Cycling with Potential Limitation

Run on channel : 3 (SN 6987)
Grouped channel(s) : 3
User :
CE vs. WE compliance from -10 V to 10 V
Electrode connection : standard
Ewe ctrl range : min = 0,00 V, max = 5,00 V
Acquisition started on : 01.23.2015 14:58:37
Saved on :
	File : LiCoO2 vs Li 200µm IS + GCPL_04_GCPL_C03.mpr
	Directory : C:\Hupfer\Studenten Batterietests\LiCoO2 vs Li 200µm IS + GCPL\
	Host : 192.168.0.2
Device : VMP3 (SN 0324)
Address : 192.168.0.1
EC-Lab for windows v10.33 (software)
Internet server v10.33 (firmware)
Command interpretor v10.32 (firmware)
Electrode material : LiCoO2 vs Li
Initial state :
Electrolyte : LP30
Comments : 200µm
Mass of active material : 0,001 mg
 at x = 0,000
Molecular weight of active material (at x = 0) : 0,001 g/mol
Atomic weight of intercalated ion : 0,001 g/mol
Acquisition started at : xo = 0,000
Number of e- transfered per intercalated ion : 1
for DX = 1, DQ = 26,801 mA.h
Battery capacity : 0,000 A.h
Electrode surface area : 0,001 cm²
Characteristic mass : 0,001 g
Ns                  0                   1                   2
Set I/C             I                   I                   I
Is                  0,000               -300,000            300,000
unit Is             mA                  µA                  µA
vs.                 <None>              <None>              <None>
N                   1                   1                   1
I sign              > 0                 > 0                 > 0
t1 (h:m:s)          0:00:0,0000         10:00:0,0000        10:00:0,0000
I Range             1 mA                1 mA                1 mA
Bandwidth           5                   5                   5
dE1 (mV)            0,00                0,00                0,00
dt1 (s)             0,0000              10,0000             10,0000
EM (V)              0,000               2,000               4,200
tM (h:m:s)          0:00:0,0000         0:00:0,0000         0:00:0,0000
Im                  0,000               0,000               0,000
unit Im             mA                  mA                  mA
E range min (V)     0,000               0,000               0,000
E range max (V)     5,000               5,000               5,000
dq                  0,000               1,000               1,000
unit dq             mA.h                mA.h                mA.h
dtq (s)             0,0000              120,0000            120,0000
dQM                 0,000               0,000               0,000
unit dQM            mA.h                mA.h                mA.h
dxM                 0,000               0,000               0,000
tR (h:m:s)          0:00:0,0000         0:00:0,0000         0:00:0,0000
dER/dt (mV/h)       0,0                 0,1                 0,1
dER (mV)            0,00                5,00                5,00
dtR (s)             1,0000              120,0000            120,0000
EL (V)              pass                4,200               4,200
goto Ns'            0                   0                   0
nc cycles           0                   0                   0

Number of loops : 11
Loop 0 from point number 0 to 492
Loop 1 from point number 493 to 1357
Loop 2 from point number 1358 to 2194
Loop 3 from point number 2195 to 2995
Loop 4 from point number 2996 to 3757
Loop 5 from point number 3758 to 4469
Loop 6 from point number 4470 to 5091
Loop 7 from point number 5092 to 5568
Loop 8 from point number 5569 to 5916
Loop 9 from point number 5917 to 6204
Loop 10 from point number 6205 to 6453

mode	ox/red	error	control changes	Ns changes	counter inc.	Ns	time/s	control/V/mA	Ewe/V	dq/mA.h	<I>/mA	P/W	(Q-Qo)/mA.h	x	Capacity/mA.h
1	0	0	1	1	0	1	7216,8139	-0,300000012	2,89023805	0	0	0	0	0	0
1	1	0	0	0	0	2	7419,0549	0,300000012	3,85138774	0,00083366942302385958	0,30012099592221242	0,00115588238	0,013157323870962154	-0,00049091744383568666	0,015006054588514899
1	1	0	0	0	0	2	7639,0549	0,300000012	3,86250186	0,00083366129769715994	0,30011807080456512	0,00115920661	0,031497990207059808	-0,0011752323641236429	0,033346720924612544
1	1	0	0	0	0	2	7859,0549	0,300000012	3,8710041	0,000833668373896016	0,30012061823618413	0,0011617681	0,049838697836901037	-0,0018595488251366918	0,051687428554453766
1	1	0	0	0	0	2	8079,0548	0,300000012	3,8755033	0,00083366604173514573	0,30011977865826074	0,00116311514	0,068179374820522432	-0,0025438641426980742	0,070028105538075162
1	1	0	0	0	0	2	8299,0548	0,300000012	3,88728452	0,0008336689109288983	0,30012081156802413	0,00116665498	0,086520074293107098	-0,0032281802993529133	0,088368805010659827
1	1	0	0	0	0	2	8519,0548	0,300000012	3,89239359	0,00083366957903736179	0,30012105208707386	0,00116818922	0,10486083299231893	-0,0039124986658328435	0,10670956370987165
1	1	0	0	0	0	2	8739,0548	0,300000012	3,89580607	0,00083366386921703821	0,30011899655173248	0,00116920541	0,12320152807386914	-0,0045968146586522829	0,12505025879142187
1	1	0	0	0	0	2	8959,0548	0,300000012	3,89102101	0,00083367161195145715	0,30012178393615706	0,00116778014	0,1415422465600159	-0,005281131524728688	0,14339097727756864
1	1	0	0	0	0	2	9179,0548	0,300000012	3,907511	0,00083366362410618202	0,30011890831182317	0,00117271789	0,15988298828801709	-0,0059654492579899302	0,16173171900556982
1	1	0	0	0	0	2	9399,0548	0,300000012	3,91111398	0,00083367143238915341	0,30012171929372691	0,00117381022	0,1782236670518537	-0,006649764641973536	0,18007239776940643
1	1	0	0	0	0	2	9619,0548	0,300000012	3,91898727	0,0008336658972932233	0,300119726659168	0,00117616542	0,19656428492787843	-0,0073340777541510157	0,19841301564543114
1	1	0	0	0	0	2	9839,0548	0,300000012	3,92804265	0,00083366123207575744	0,30011804718085997	0,0011788765	0,21490493383912275	-0,0080183920242942669	0,21675366455667549
1	1	0	0	0	0	2	10059,0548	0,300000012	3,94094872	0,0008336645941568745	0,3001192575300768	0,00118275464	0,2332455635051648	-0,008702705576373143	0,23509429422271754
1	1	0	0	0	0	2	10279,0548	0,300000012	3,94981313	0,00083366882707344166	0,30012078138005933	0,00118542102	0,25158624949727322	-0,009387021230053289	0,25343498021482602
1	1	0	0	0	0	2	10499,0548	0,300000012	3,95837283	0,00083367119479676083	0,30012163376046458	0,00118799333	0,26992699690092643	-0,010071339175080739	0,27177572761847917
1	1	0	0	0	0	2	10719,0548	0,300000012	3,97764611	0,00083367339348958592	0,3001224252898912	0,0011937808	0,28826775086775782	-0,010755657364989195	0,29011648158531059
1	1	0	0	0	0	2	10939,0548	0,300000012	3,99590898	0,00083367522567510605	0,3001230848766864	0,00119926454	0,30660849721471827	-0,011439975270590018	0,30845722793227104
1	1	0	0	0	0	2	11159,0548	0,300000012	4,02744055	0,00083366665822433101	0,30012000059437011	0,00120871549	0,32494926539681875	-0,012124293990889272	0,32679799611437152
1	1	0	0	0	0	2	11379,0548	0,300000012	4,06968546	0,00083367067828112179	0,30012144781483232	0,00122139987	0,34329001367913862	-0,012808611968700957	0,34513874439669139
1	1	0	0	0	0	2	11599,0548	0,300000012	4,10798407	0,00083367364156080614	0,30012251459553158	0,00123289856	0,36163073964369805	-0,013492929113806992	0,36347947036125075
1	1	0	0	0	0	2	11819,0548	0,300000012	4,14391899	0,00083367047134372928	0,30012137331737011	0,00124367862	0,37997152157440634	-0,01417724834708529	0,3818202522919591
1	1	0	0	0	0	2	12039,0548	0,300000012	4,18721247	0,00083367184024552512	0,30012186612202253	0,00125667406	0,39831235506300813	-0,014861569504057914	0,4001610857805609
1	0	0	1	0	0	1	12240,9196	-0,300000012	4,11545849	-0,00083309644468625382	-0,29991472371817696	0,00123428658	0,3934731669979241	-0,014681012890992077	0,010826129749945842
1	0	0	1	0	0	1	12460,9196	-0,300000012	4,06955338	-0,00083308519694705792	-0,29991067453201741	0,00122050254	0,37514510892448781	-0,013997168401936005	0,029154187823382054
1	0	0	1	0	0	1	12680,9196	-0,300000012	4,0335803	-0,00083309470103184384	-0,29991409600258176	0,0012097276	0,3568171076093479	-0,013313326030608285	0,047482189138522112
1	0	0	1	0	0	1	12900,9196	-0,300000012	3,99983764	-0,00083309274491833318	-0,29991339180170938	0,00119960483	0,33848913937920461	-0,012629484893726272	0,065810157368665318
1	0	0	1	0	0	1	13120,9196	-0,300000012	3,96737242	-0,00083308938335710106	-0,29991218163965114	0,00118986331	0,32016122693047898	-0,01194564583812395	0,084138069817391091
1	0	0	1	0	0	1	13340,9196	-0,300000012	3,94087386	-0,00083308767177826842	-0,29991156547126394	0,00118191366	0,30183334204932691	-0,011261807811104862	0,10246595469854314
1	0	0	1	0	0	1	13560,9196	-0,300000012	3,91077256	-0,00083309011961850854	-0,29991244669376109	0,00117288937	0,283505420905108	-0,010577968431061994	0,12079387584276202
1	0	0	1	0	0	1	13780,9196	-0,300000012	3,88976431	-0,000833087686540352	-0,29991157078561414	0,00116658537	0,26517748381636675	-0,0098941284561075597	0,13912181293150325
1	0	0	1	0	0	1	14000,9196	-0,300000012	3,87457061	-0,00083308269568781056	-0,29990977407867744	0,00116202165	0,24684954188636742	-0,0092102883005192806	0,15744975486150253
1	0	0	1	0	0	1	14220,9196	-0,300000012	3,85161805	-0,00083307966176834368	-0,29990868186765619	0,00115513371	0,22852169590600134	-0,0085264517249408205	0,17577760084186861
1	0	0	1	0	0	1	14440,9196	-0,300000012	3,8414762	-0,00083309474967916813	-0,29991411351561869	0,00115211296	0,21019369020512502	-0,0078426091899753766	0,19410560654274496
1	0	0	1	0	0	1	14660,9196	-0,300000012	3,82782674	-0,00083308380324145165	-0,29991017279799309	0,0011480042	0,19186571100425517	-0,0071587676437608038	0,21243358574361478
1	0	0	1	0	0	1	14880,9196	-0,300000012	3,82317519	-0,00083308030264576282	-0,29990891258352979	0,00114660431	0,17353784549383123	-0,0064749303394896282	0,23076145125403875
1	0	0	1	0	0	1	15100,9196	-0,300000012	3,81503487	-0,00083308148102131149	-0,29990933679873248	0,00114416459	0,1552100069834305	-0,0057910940426256179	0,24908928976443949
1	0	0	1	0	0	1	15320,9196	-0,300000012	3,80719972	-0,00083308520847890112	-0,29991067868348102	0,00114181987	0,13688218726216384	-0,0051072584468094643	0,26741710948570614
1	0	0	1	0	0	1	15540,9196	-0,300000012	3,79183459	-0,00083308109245035379	-0,29990919691318605	0,0011372061	0,11855440723324283	-0,0044234243319680934	0,2857448895146273
1	0	0	1	0	0	1	15760,9196	-0,300000012	3,77410531	-0,00083308176900446413	-0,29990944047266874	0,00113188976	0,1002265804843121	-0,0037395884739403437	0,30407271626355802
1	0	0	1	0	0	1	15980,9196	-0,300000012	3,73710275	-0,00083307543538179661	-0,29990716036848083	0,00112078385	0,081898799884244467	-0,0030557543377887238	0,32240049686362554
1	0	0	1	0	0	1	16200,9196	-0,300000012	3,6350553	-0,00083308416944742208	-0,299910304632144	0,00109019049	0,063570965845074573	-0,0023719182077523488	0,34072833090279546
1	0	0	1	0	0	1	16420,9195	-0,300000012	2,3291018	-0,00083309476555883878	-0,29991411923230022	0,000698530523	0,045243021369632403	-0,0016880779571901725	0,35905627537823763
1	1	0	0	0	0	2	16622,0029	0,300000012	3,85807896	0,00083366506350868275	0,30011942649672973	0,00115788449	0,056825837943717485	-0,0021202484168318003	0,014172294286625254
1	1	0	0	0	0	2	16842,0029	0,300000012	3,87405443	0,000833666748944256	0,30012003325354349	0,00116268138	0,075166438762965773	-0,0028045608925980182	0,032512895105873549
1	1	0	0	0	0	2	17062,0029	0,300000012	3,89260316	0,00083365934276084109	0,30011736702748179	0,00116823777	0,093507021337432666	-0,0034888726876269114	0,050853477680340403
1	1	0	0	0	0	2	17282,0029	0,300000012	3,90482306	0,00083366728876696691	0,30012022758972173	0,00117191637	0,1118476507179717	-0,004173186229053289	0,06919410706087945
1	1	0	0	0	0	2	17502,0029	0,300000012	3,89630151	0,00083366757835116646	0,30012033184003482	0,00116935931	0,13018830315958757	-0,0048575006309194483	0,087534759502495322
1	1	0	0	0	0	2	17722,0029	0,300000012	3,89818883	0,00083366177796655232	0,30011824370154842	0,00116991764	0,14852902910258339	-0,0055418177752209171	0,1058754854454911
1	1	0	0	0	0	2	17942,0029	0,300000012	3,90339327	0,00083366050777335962	0,3001177864319936	0,00117147772	0,16686964258999267	-0,0062261307236532544	0,12421609893290032
1	1	0	0	0	0	2	18162,0029	0,300000012	3,91374493	0,00083367106826603418	0,30012158820940237	0,0011745994	0,1852102894908601	-0,0069104449187866394	0,14255674583376776
1	1	0	0	0	0	2	18382,0029	0,300000012	3,91200995	0,0008336540722846985	0,30011546965604749	0,00117405469	0,20355084168280966	-0,0075947555802029619	0,16089729802571731
1	1	0	0	0	0	2	18602,0029	0,300000012	3,9372313	0,00083365745250052877	0,30011668653376115	0,00118162879	0,22189135561519674	-0,0082790648141035686	0,17923781195810438
1	1	0	0	0	0	2	18822,0029	0,300000012	3,93986201	0,00083366731027265382	0,30012023533176915	0,00118243229	0,24023189594632035	-0,0089633750329765274	0,197578352289228
1	1	0	0	0	0	2	19042,0029	0,300000012	3,94947004	0,00083366429139673715	0,30011914853642598	0,00118531159	0,25857243602288582	-0,0096476852423515789	0,21591889236579344
1	1	0	0	0	0	2	19262,0029	0,300000012	3,97606373	0,00083366530255311066	0,30011951255272486	0,0011932943	0,27691303896001146	-0,01033199779713865	0,23425949530291891
1	1	0	0	0	0	2	19482,0029	0,300000012	3,99825382	0,00083366808347072858	0,30012051368307942	0,00119995803	0,295253591342744	-0,011016308465673341	0,2526000476856513
1	1	0	0	0	0	2	19702,0029	0,300000012	4,022789	0,00083366588238047219	0,30011972129057754	0,00120731827	0,31359416875227795	-0,011700620067991645	0,27094062509518528
1	1	0	0	0	0	2	19922,0029	0,300000012	4,0593338	0,00083366626911693146	0,30011986051570458	0,00121828669	0,33193483208758976	-0,012384934876316245	0,28928128843049709
1	1	0	0	0	0	2	20142,0029	0,300000012	4,09858608	0,00083366345902283994	0,30011884888181933	0,00123006292	0,35027545094962592	-0,013069248025283136	0,30762190729253325
1	1	0	0	0	0	2	20362,0029	0,300000012	4,1367321	0,00083365813808805414	0,30011693334527328	0,0012415034	0,36861596769505075	-0,013753557364141965	0,32596242403795814
1	1	0	0	0	0	2	20582,0029	0,300000012	4,17428732	0,00083366282921863923	0,30011862215230432	0,00125278137	0,3869565339140345	-0,014437868548925792	0,34430299025694189
1	0	0	1	0	0	1	20783,1153	-0,300000012	4,12733555	-0,00083309125569297216	-0,29991285568057293	0,00123784097	0,39372189657295622	-0,014690293325856995	0,0049944111675631757
1	0	0	1	0	0	1	21003,1153	-0,300000012	4,08207846	-0,00083308185970452096	-0,2999094731246896	0,00122425403	0,37539405240536781	-0,014006456817915709	0,023322255335151664
1	0	0	1	0	0	1	21223,1153	-0,300000012	4,02572632	-0,00083308689654204582	-0,29991128638622042	0,00120736076	0,35706623666237178	-0,013322621370534182	0,041650071078147654
1	0	0	1	0	0	1	21443,1153	-0,300000012	3,97999239	-0,00083307777726484672	-0,29990800344638899	0,00119363156	0,33873835638400794	-0,01263878351525131	0,059977951356511488
1	0	0	1	0	0	1	21663,1153	-0,300000012	3,95118737	-0,00083308829963372813	-0,29991179149923226	0,00118500763	0,32041049484724019	-0,01195494635924259	0,078305812893279232
1	0	0	1	0	0	1	21883,1153	-0,300000012	3,8949306	-0,00083308589154481894	-0,2999109245872144	0,00116813229	0,30208256774397421	-0,011271106756859661	0,096633739996545331
1	0	0	1	0	0	1	22103,1153	-0,300000012	3,89422512	-0,0008330897815889783	-0,29991232500312877	0,00116792612	0,2837545691489417	-0,010587264487022806	0,11496173859157776
1	0	0	1	0	0	1	22323,1153	-0,300000012	3,85224724	-0,00083308591568138867	-0,29991093327637965	0,00115533103	0,26542665104630141	-0,0099034252204653274	0,133289656694218
1	0	0	1	0	0	1	22543,1153	-0,300000012	3,82992363	-0,00083308340088691981	-0,29991002795035981	0,00114863249	0,24709880525782592	-0,0092195886520465638	0,15161750248269354
1	0	0	1	0	0	1	22763,1153	-0,300000012	3,81126022	-0,00083308644319242893	-0,29991112318035642	0,00114303932	0,2287709053095767	-0,0085357500628538227	0,16994540243094278
1	0	0	1	0	0	1	22983,1153	-0,300000012	3,80024147	-0,0008330786770234505	-0,29990832735949037	0,00113972405	0,21044294680056362	-0,007851909288680247	0,18827336093995587
1	0	0	1	0	0	1	23203,1153	-0,300000012	3,79072881	-0,00083308378219273357	-0,29991016522045446	0,00113687816	0,19211505902370365	-0,0071680711536184051	0,20660124871681581
1	0	0	1	0	0	1	23423,1153	-0,300000012	3,78476191	-0,00083307308175332019	-0,29990631306221901	0,00113507395	0,1737872667218055	-0,0064842365808557555	0,22492904101871398
1	0	0	1	0	0	1	23643,1153	-0,300000012	3,76421142	-0,00083307994108564326	-0,29990878242188525	0,00112892	0,15545949471507363	-0,005800402765333047	0,24325681302544582
1	0	0	1	0	0	1	23863,1153	-0,300000012	3,74484277	-0,00083307830207380992	-0,29990819237761805	0,00112310902	0,13713183043554819	-0,0051165729692572506	0,2615844773049713
1	0	0	1	0	0	1	24083,1153	-0,300000012	3,73111677	-0,00083308222283588518	-0,29990960385198221	0,00111899781	0,11880413593269944	-0,0044327420455086272	0,27991217180782003
1	0	0	1	0	0	1	24303,1153	-0,300000012	3,70153022	-0,00083308213404979968	-0,2999095718889911	0,00111012429	0,10047640780017834	-0,0037489098669917107	0,29823989994034112
1	0	0	1	0	0	1	24523,1153	-0,300000012	3,61866045	-0,00083308398842977152	-0,29991023946578906	0,00108527334	0,082148644118756672	-0,00306507636209752	0,31656766362176294
1	0	0	1	0	0	1	24743,1152	-0,300000012	3,31941891	-0,00083308213577667866	-0,29990957251066758	0,000995525508	0,063820914618678182	-0,0023812441325552	0,33489539312184134
1	1	0	0	0	0	2	24944,1280	0,300000012	3,80710292	0,00083366584866742298	0,30011970915387962	0,00114258658	0,053741950307020506	-0,0020051844227756099	0,0033346781752473779
1	1	0	0	0	0	2	25164,1280	0,300000012	3,85323691	0,0008336719522923232	0,30012190645887034	0,00115644082	0,072082644812529907	-0,0026895003941021926	0,021675372680756784
1	1	0	0	0	0	2	25384,1280	0,300000012	3,86681008	0,00083366220428380698	0,30011839717576198	0,0011605008	0,09042336902127561	-0,0033738174736964582	0,040016096889502477
1	1	0	0	0	0	2	25604,1280	0,300000012	3,87676144	0,00083365725885000486	0,30011661681957171	0,00116348057	0,10876395237386621	-0,0040581292977581926	0,058356680242093082
1	1	0	0	0	0	2	25824,1280	0,300000012	3,87805772	0,00083366929956939482	0,30012095147860454	0,00116388639	0,12710456797923709	-0,0047424423252145248	0,076697295847463962
1	1	0	0	0	0	2	26044,1280	0,300000012	3,90669131	0,00083367678957846438	0,30012364788190221	0,00117249042	0,145445316293828	-0,0054267603042302867	0,095038044162054874
1	1	0	0	0	0	2	26264,1280	0,300000012	3,91153336	0,00083366915722356915	0,30012090023410662	0,00117393292	0,16378604036525949	-0,0061110773787011738	0,11337876823348637
1	1	0	0	0	0	2	26484,1280	0,300000012	3,92985368	0,00083366949001120192	0,30012102003765594	0,00117943168	0,18212673360413376	-0,0067953933027678963	0,13171946147236064
1	1	0	0	0	0	2	26704,1280	0,300000012	3,93938541	0,00083367274817824371	0,30012219297780518	0,00118229701	0,20046748972776429	-0,0074797115731494259	0,15006021759599117
1	1	0	0	0	0	2	26924,1280	0,300000012	3,94927955	0,00083366587644318733	0,30011971915315494	0,00118525664	0,21880821384105645	-0,0081640286491821914	0,16840094170928333
1	1	0	0	0	0	2	27144,1280	0,300000012	3,97295642	0,00083367035415603059	0,30012133112979808	0,00119236892	0,23714886268507837	-0,0088483429168172826	0,18674159055330525
1	1	0	0	0	0	2	27364,1280	0,300000012	3,99114323	0,0008336797565403913	0,30012471598820883	0,00119784067	0,2554897506469015	-0,0095326661062590349	0,20508247851512832
1	1	0	0	0	0	2	27584,1280	0,300000012	3,99781537	0,00083366981892122163	0,30012113844526451	0,00119982893	0,27383053216756781	-0,010216985324238115	0,22342326003579472
1	1	0	0	0	0	2	27804,1280	0,300000012	4,02174044	0,000833673907910784	0,3001226104815248	0,00120701524	0,29217125048011443	-0,010901302183837266	0,24176397834834131
1	1	0	0	0	0	2	28024,1280	0,300000012	4,04339647	0,00083367161435219981	0,30012178480042445	0,00121351134	0,31051194082018816	-0,011585617999745843	0,26010466868841498
1	1	0	0	0	0	2	28244,1280	0,300000012	4,07284975	0,00083367470322052646	0,30012289679303552	0,00122235541	0,32885273189215117	-0,012269937574096643	0,27844545976037792
1	1	0	0	0	0	2	28464,1280	0,300000012	4,10390472	0,00083366973523298906	0,30012110831750042	0,0012316684	0,34719351531652179	-0,012954256863105493	0,29678624318474861
1	1	0	0	0	0	2	28684,1280	0,300000012	4,13476849	0,00083366686659720218	0,30012007560860461	0,00124092703	0,36553429987909139	-0,013638576194582072	0,31512702774731814
1	1	0	0	0	0	2	28904,1280	0,300000012	4,17186642	0,00083366404664516454	0,30011906042585882	0,00125205668	0,38387500180905798	-0,014322892442925136	0,3334677296772848
1	0	0	1	0	0	1	29106,9240	-0,300000012	4,13334036	-0,00083307912352018893	-0,29990848809831808	0,00123962387	0,39244769817844979	-0,01464275127058	0,0041612491828281107
1	0	0	1	0	0	1	29326,9240	-0,300000012	4,05001307	-0,00083308073920508211	-0,29990906974488672	0,00121463567	0,37411997044529459	-0,013958919106963963	0,0224889769159832
1	0	0	1	0	0	1	29546,9240	-0,300000012	4,01545095	-0,00083307291862865293	-0,29990625433733811	0,00120425888	0,35579222744984704	-0,013275086373891277	0,040816719911430765
1	0	0	1	0	0	1	29766,9240	-0,300000012	3,96943116	-0,00083307864670786598	-0,29990831644587974	0,00119046541	0,33746445526241363	-0,012591252551626352	0,059144492098864038
1	0	0	1	0	0	1	29986,9240	-0,300000012	3,94516325	-0,00083308466832670912	-0,29991048422868947	0,00118319585	0,31913667838371066	-0,011907418554323853	0,077472268977567027
1	0	0	1	0	0	1	30206,9240	-0,300000012	3,91452789	-0,00083308746217853491	-0,29991149001535898	0,00117401185	0,30080884576418771	-0,011223582477256413	0,095800101597090035
1	0	0	1	0	0	1	30426,9240	-0,300000012	3,88619947	-0,00083308238486283354	-0,29990966218168435	0,00116550876	0,28248093468910064	-0,010539743472906392	0,11412801267217714
1	0	0	1	0	0	1	30646,9240	-0,300000012	3,86370444	-0,00083308302848206618	-0,29990989388461101	0,00115876319	0,26415314229340957	-0,0098559088966442035	0,13245580506786826
1	0	0	1	0	0	1	30866,9240	-0,300000012	3,84504104	-0,00083308231543335654	-0,29990963718707238	0,00115316489	0,24582522554133939	-0,0091720696804783104	0,1507837218199384
1	0	0	1	0	0	1	31086,9240	-0,300000012	3,82841754	-0,00083308174766931264	-0,29990943279201408	0,00114817847	0,22749740970840493	-0,0084882342297410586	0,16911153765287286
1	0	0	1	0	0	1	31306,9240	-0,300000012	3,8166554	-0,00083308149530986944	-0,29990934194261344	0,00114465063	0,20916959444981594	-0,007804398800433408	0,18743935291146186
1	0	0	1	0	0	1	31526,9240	-0,300000012	3,79911685	-0,00083308439385228685	-0,29991038541789632	0,00113939459	0,19084177881268608	-0,007120563357001888	0,20576716854859171
1	0	0	1	0	0	1	31746,9240	-0,300000012	3,76668954	-0,00083307875878281062	-0,29990835679286035	0,00112966169	0,17251403252234173	-0,0064367305009921741	0,22409491483893606
1	0	0	1	0	0	1	31966,9240	-0,300000012	3,75296378	-0,00083308010673522957	-0,29990884205573702	0,00112554699	0,1541862148888023	-0,0057528949830719302	0,24242273247247552
1	0	0	1	0	0	1	32186,9240	-0,300000012	3,7310977	-0,00083308126697109811	-0,29990925974065472	0,00111899071	0,13585850475168667	-0,0050690634759877875	0,26075044260959114
1	0	0	1	0	0	1	32406,9240	-0,300000012	3,68528795	-0,00083307752822670656	-0,29990791379265754	0,00110524707	0,1175308505885827	-0,0043852340573692787	0,27907809677269501
1	0	0	1	0	0	1	32626,9240	-0,300000012	3,61559129	-0,00083306911640365914	-0,29990488553632378	0,00108433352	0,099203281522756902	-0,0037014078138446323	0,29740566583852077
1	0	0	1	0	0	1	32846,9240	-0,300000012	3,44598222	-0,00083306731729043853	-0,29990423366594272	0,00103346468	0,080875686078955162	-0,0030175805861222387	0,31573326128232256
1	0	0	1	0	0	1	33066,9240	-0,300000012	2,414011	-0,00083308021634817114	-0,29990887732671782	0,000723983336	0,062548088543119757	-0,0023337532803432557	0,33406085881815795
1	1	0	0	0	0	2	33270,7974	0,300000012	3,89555812	0,00083366781236065754	0,30012041189081888	0,00116913649	0,072231879271150694	-0,0026950685324011978	0,013338722660846179
1	1	0	0	0	0	2	33490,7974	0,300000012	3,91729069	0,00083367806267572774	0,30012410200423731	0,00117567333	0,090572643242351923	-0,0033793870955861402	0,03167948663204743
1	1	0	0	0	0	2	33710,7974	0,300000012	3,92846203	0,00083366727140049139	0,30012021714515942	0,00117901084	0,10891345140608422	-0,0040637073076538342	0,050020294795779712
1	1	0	0	0	0	2	33930,7974	0,300000012	3,94131088	0,00083366893392304589	0,30012081565327789	0,00118286943	0,12725416542650206	-0,0047480240071078886	0,068361008816197517
1	1	0	0	0	0	2	34150,7974	0,300000012	3,94885993	0,00083366606493956518	0,30011978281922682	0,00118513103	0,14559495110193008	-0,0054323433801067142	0,086701794491625472
1	1	0	0	0	0	2	34370,7974	0,300000012	3,96174693	0,00083366794837183411	0,30012046085484237	0,00118900137	0,1639357667305696	-0,0061166638707001331	0,10504261012026499
1	1	0	0	0	0	2	34590,7974	0,300000012	3,96975374	0,00083367285850478541	0,30012222850270157	0,00119141128	0,18227647494420192	-0,0068009803534952115	0,1233833183338973
1	1	0	0	0	0	2	34810,7974	0,300000012	3,98502374	0,00083366667857103885	0,30012000372655686	0,00119598536	0,20061723874011251	-0,0074852989101398246	0,14172408212980792
1	1	0	0	0	0	2	35030,7974	0,300000012	4,00073242	0,00083366577399604851	0,30011967807956096	0,00120069855	0,21895790211415731	-0,0081696137199096064	0,1600647455038527
1	1	0	0	0	0	2	35250,7974	0,300000012	4,0120368	0,0008336725640959209	0,30012212251551053	0,00120410102	0,23729863283607302	-0,0088539310425190029	0,17840547622576845
1	1	0	0	0	0	2	35470,7974	0,300000012	4,03016663	0,00083367632560763098	0,30012347665972358	0,00120954763	0,25563941757037683	-0,0095382503804032192	0,19674626096007219
1	1	0	0	0	0	2	35690,7974	0,300000012	4,04381609	0,00083367044734954842	0,30012136048681779	0,00121363555	0,27398021622496954	-0,010222570237672131	0,21508705961466483
1	1	0	0	0	0	2	35910,7974	0,300000012	4,05986786	0,00083367904706630451	0,30012445638484422	0,00121846562	0,29232099128184826	-0,010906889214478602	0,23342783467154355
1	1	0	0	0	0	2	36130,7974	0,300000012	4,08066607	0,00083366999433603558	0,30012119740195354	0,00122469442	0,31066170712019117	-0,011591205981761886	0,25176855050988643
1	1	0	0	0	0	2	36350,7974	0,300000012	4,10380936	0,00083366334852741824	0,30011880491085574	0,00123163033	0,32900238016354144	-0,012275521152306458	0,27010922355323674
1	1	0	0	0	0	2	36570,7974	0,300000012	4,13097477	0,00083366385148796774	0,30011898597665318	0,00123978395	0,34734299769232608	-0,012959834251527941	0,28844984108202138
1	1	0	0	0	0	2	36790,7974	0,300000012	4,16218233	0,00083366041789948941	0,30011774988480326	0,00124914479	0,36568346529358739	-0,013644141756751952	0,30679030868328269
1	1	0	0	0	0	2	37010,7974	0,300000012	4,19541168	0,00083366774329211981	0,30012038702614528	0,00125912856	0,38402412346042957	-0,014328456372234005	0,32513096685012486
1	0	0	1	0	0	1	37215,9274	-0,300000012	4,07521534	-0,0008330801723185513	-0,29990886147605466	0,00122219324	0,37112353934948064	-0,013847118234034691	0,014991365774171373
1	0	0	1	0	0	1	37435,9274	-0,300000012	4,02568817	-0,00083307162769966656	-0,29990578541326189	0,00120732712	0,35279581625866304	-0,013163286243630507	0,033319088864988902
1	0	0	1	0	0	1	37655,9274	-0,300000012	3,97770476	-0,00083307056415743283	-0,29990540253805856	0,00119293516	0,33446818900652134	-0,012479457829096184	0,051646716117130541
1	0	0	1	0	0	1	37875,9274	-0,300000012	3,94514418	-0,0008330712601873609	-0,29990565310883213	0,00118317106	0,31614060503773299	-0,011795631029521968	0,069974300085918925
1	0	0	1	0	0	1	38095,9274	-0,300000012	3,9156146	-0,00083307346529761958	-0,29990644694852378	0,00117431802	0,2978130379570713	-0,011111804860066466	0,088301867166580557
1	0	0	1	0	0	1	38315,9274	-0,300000012	3,88638997	-0,00083306900714172262	-0,29990484201240384	0,00116554718	0,27948550274110074	-0,010427979879525429	0,10662940238255114
1	0	0	1	0	0	1	38535,9274	-0,300000012	3,85853815	-0,00083307228260570112	-0,29990602117943386	0,0011571988	0,26115793230009309	-0,0097441535846909005	0,12495697282355875
1	0	0	1	0	0	1	38755,9274	-0,300000012	3,83779693	-0,00083306889304518694	-0,29990480093765107	0,00115097372	0,24283034750704531	-0,0090603267543624563	0,14328455761660658
1	0	0	1	0	0	1	38975,9274	-0,300000012	3,81827569	-0,00083307130368881754	-0,29990566876935648	0,00114512257	0,22450270702734989	-0,0083764978462903181	0,16161219809630202
1	0	0	1	0	0	1	39195,9274	-0,300000012	3,79650521	-0,00083307132162484851	-0,29990567522632762	0,00113859342	0,20617509504040653	-0,0076926700013210662	0,17993981008324538
1	0	0	1	0	0	1	39415,9274	-0,300000012	3,77202749	-0,0008330752585447497	-0,29990709251748941	0,00113125774	0,18784746078747088	-0,0070088413255777075	0,19826744433618102
1	0	0	1	0	0	1	39635,9274	-0,300000012	3,73553967	-0,00083308043533563622	-0,29990895616220506	0,0011203218	0,16951973727586438	-0,0063250093194733286	0,21659516784778752
1	0	0	1	0	0	1	39855,9274	-0,300000012	3,6946671	-0,00083307605907486554	-0,29990738070833056	0,00110805791	0,15119198650690822	-0,0056411762963605856	0,23492291861674368
1	0	0	1	0	0	1	40075,9274	-0,300000012	3,63232923	-0,00083307608127593997	-0,29990738870071731	0,00108936243	0,13286426625579501	-0,0049573444119095955	0,25325063886785686
1	0	0	1	0	0	1	40295,9274	-0,300000012	3,53586721	-0,00083306287273433472	-0,29990263362574829	0,00106041587	0,11453674590219296	-0,0042735199859035117	0,27157815922145885
1	0	0	1	0	0	1	40515,9274	-0,300000012	3,32673931	-0,00083306921995182835	-0,29990491862404179	0,000997705502	0,09620931711127433	-0,0035896989762242541	0,28990558801237741
1	0	0	1	0	0	1	40735,9274	-0,300000012	2,60630584	-0,00083306896636055578	-0,29990482733118381	0,000781643728	0,077881818604466701	-0,0029058753653514438	0,30823308651918502
1	1	0	0	0	0	2	40942,5100	0,300000012	3,90613842	0,0008336728797439072	0,30012223614878534	0,00117231905	0,082339763214193165	-0,0030722072725106118	0,010837752035104566
1	1	0	0	0	0	2	41162,5100	0,300000012	3,93370438	0,00083366274044414362	0,30011858600087725	0,00118057779	0,10068053941415152	-0,0037565262919669248	0,029178528235062957
1	1	0	0	0	0	2	41382,5100	0,300000012	3,95147181	0,00083366489610572659	0,30011936203904563	0,00118591322	0,1190212341678249	-0,004440842272552839	0,047519222988736301
1	1	0	0	0	0	2	41602,5100	0,300000012	3,97101188	0,0008336758830282423	0,300123317331144	0,00119179324	0,13736199896898768	-0,0051251608667047629	0,06585998778989911
1	1	0	0	0	0	2	41822,5100	0,300000012	3,98407054	0,00083368079588148326	0,30012508595830746	0,00119571947	0,15570282176187203	-0,0058094816246057894	0,084200810582783488
1	1	0	0	0	0	2	42042,5100	0,300000012	3,99661446	0,00083367252233790016	0,3001221074826231	0,00119947235	0,17404362949220406	-0,0064938018205027366	0,10254161831311554
1	1	0	0	0	0	2	42262,5100	0,300000012	3,98883653	0,00083367306169536384	0,30012230165130963	0,0011971388	0,19238436403730746	-0,0071781192857604045	0,12088235285821891
1	1	0	0	0	0	2	42482,5100	0,300000012	3,99100971	0,00083367195764018432	0,30012190419144576	0,00119778945	0,21072511891374557	-0,0078624375096075072	0,13922310773465699
1	1	0	0	0	0	2	42702,5100	0,300000012	3,98687291	0,00083366596396598554	0,30011974646873818	0,00119653926	0,22906584492240915	-0,0085467546563591283	0,15756383374332054
1	1	0	0	0	0	2	42922,5100	0,300000012	4,00484991	0,00083367008368174234	0,30012122956640794	0,00120194047	0,24740655571211776	-0,0092310712352710771	0,17590454453302918
1	1	0	0	0	0	2	43142,5100	0,300000012	4,01525879	0,00083366618547505805	0,3001198262120041	0,00120505877	0,2657472408847319	-0,0099153868583747891	0,19424522970564336
1	1	0	0	0	0	2	43362,5100	0,300000012	4,03102446	0,00083366689081324467	0,30012008013375091	0,0012097914	0,284087954555148	-0,01059970354476981	0,21258594337605939
1	1	0	0	0	0	2	43582,5100	0,300000012	4,06226969	0,00083367163793908224	0,30012178909904922	0,00121917564	0,30242867983904064	-0,011284020664479254	0,23092666865995197
1	1	0	0	0	0	2	43802,5100	0,300000012	4,09025526	0,00083367399475309581	0,30012263755209248	0,00122757815	0,32076943758370061	-0,011968338995343568	0,2492674264046119
1	1	0	0	0	0	2	44022,5100	0,300000012	4,1044383	0,00083366230830715763	0,30011843043156262	0,00123181753	0,33911011793914861	-0,012652654438712336	0,2676081067600599
1	1	0	0	0	0	2	44242,5100	0,300000012	4,12979317	0,00083366080987784589	0,30011789099701139	0,0012394248	0,35745078584417965	-0,013336969417539306	0,28594877466509101
1	1	0	0	0	0	2	44462,5100	0,300000012	4,15573883	0,0008336741420676311	0,30012269058532512	0,0012472315	0,37579147674309152	-0,014021285254298883	0,30428946556400282
1	0	0	1	0	0	1	44669,5790	-0,300000012	4,0728898	-0,00083307918410831027	-0,29990850572036851	0,00122149428	0,38638703449441894	-0,014416619759879818	0,0033281883059760147
1	0	0	1	0	0	1	44889,5790	-0,300000012	3,9962728	-0,00083307623661557837	-0,29990744462298707	0,00119851192	0,36805936032731565	-0,013732789594885202	0,021655862473079258
1	0	0	1	0	0	1	45109,5790	-0,300000012	3,94405746	-0,00083307334967785408	-0,29990640532540826	0,00118284812	0,34973164263572877	-0,013048957805933578	0,039983580164666342
1	0	0	1	0	0	1	45329,5790	-0,300000012	3,89613152	-0,00083307997095915994	-0,29990878898667392	0,0011684841	0,3314040493565111	-0,012365130658974725	0,058311173443884019
1	0	0	1	0	0	1	45549,5790	-0,300000012	3,84902549	-0,00083308203994896678	-0,29990953382300301	0,00115435943	0,31307632390136435	-0,011681298580354248	0,076638898899030746
1	0	0	1	0	0	1	45769,5790	-0,300000012	3,80885839	-0,0008330805955462985	-0,29990901383804339	0,00114231091	0,29474863169029427	-0,010997467742114966	0,094966591110100736
1	0	0	1	0	0	1	45989,5790	-0,300000012	3,77864242	-0,00083307613117661747	-0,29990740666496122	0,00113324285	0,27642089679004816	-0,010313635311085133	0,1132943260103468
1	0	0	1	0	0	1	46209,5790	-0,300000012	3,7578249	-0,0008330768611778816	-0,29990766946541581	0,00112700055	0,25809323833163651	-0,0096298057322029197	0,1316219844687585
1	0	0	1	0	0	1	46429,5790	-0,300000012	3,73308039	-0,00083307486461434099	-0,29990695070254253	0,00111957674	0,2397655835751633	-0,0089459762914450048	0,14994963922523168
1	0	0	1	0	0	1	46649,5790	-0,300000012	3,69546795	-0,00083307107657359693	-0,29990558700787725	0,00110829144	0,22143797012238602	-0,0082621483917835213	0,16827725267800896
1	0	0	1	0	0	1	46869,5790	-0,300000012	3,6590755	-0,00083306979022092288	-0,29990512392091539	0,00109737553	0,20311046689459907	-0,0075783246047646259	0,1866047559057959
1	0	0	1	0	0	1	47089,5790	-0,300000012	3,61347532	-0,00083307689542406131	-0,29990768179404051	0,00108370895	0,18478281006113251	-0,0068944950865112973	0,20493241273926246
1	0	0	1	0	0	1	47309,5790	-0,300000012	3,54221535	-0,00083307431824008627	-0,2999067540078112	0,00106233428	0,16645517678027904	-0,0062106664470376307	0,22326004602011594
1	0	0	1	0	0	1	47529,5790	-0,300000012	3,45572376	-0,0008330747527248329	-0,29990691042231968	0,00103639544	0,14812755260373706	-0,0055268381472580672	0,24158767019665792
1	0	0	1	0	0	1	47749,5790	-0,300000012	3,30849528	-0,00083307363748053709	-0,29990650893437395	0,00099223922	0,12979982841853851	-0,0048430061160210637	0,25991539438185658
1	0	0	1	0	0	1	47969,5790	-0,300000012	3,04806733	-0,00083307676134672435	-0,29990763352619923	0,000914138684	0,11147206671407704	-0,0041591726848899149	0,27824315608631805
1	0	0	1	0	0	1	48189,5790	-0,300000012	2,35752559	-0,00083307838306327667	-0,29990821734415699	0,000707041298	0,093144344425776461	-0,0034753407244287251	0,29657087837461862
1	1	0	0	0	0	2	48393,5374	0,300000012	3,86027145	0,0008336647485478057	0,30011930891819424	0,001158542	0,10115428627185411	-0,0037742024241872333	0,012505037182129091
1	1	0	0	0	0	2	48613,5374	0,300000012	3,88976288	0,00083367110531528781	0,30012159735448358	0,0011674019	0,11949495998017877	-0,0044585176195428902	0,030845710890453722
1	1	0	0	0	0	2	48833,5374	0,300000012	3,91124749	0,00083367035054994957	0,30012132563896224	0,00117384875	0,1378356436596005	-0,0051428331869335859	0,049186394569875469
1	1	0	0	0	0	2	49053,5374	0,300000012	3,93467665	0,00083367005766431488	0,30012122020013402	0,00118088	0,15617624686912253	-0,0058271457518841318	0,067526997779397491
1	1	0	0	0	0	2	49273,5374	0,300000012	3,95781994	0,00083366407263610099	0,30011906558998106	0,00118781719	0,17451692511418022	-0,0065114611165113997	0,085867676024455168
1	1	0	0	0	0	2	49493,5374	0,300000012	3,96895313	0,00083367104472716646	0,30012157554275994	0,00119116844	0,19285762697644086	-0,0071957773623282611	0,10420837788671586
1	1	0	0	0	0	2	49713,5374	0,300000012	3,98180199	0,00083366902684337562	0,30012084910459661	0,00119502179	0,21119836003502419	-0,0078800947721218675	0,1225491109452993
1	1	0	0	0	0	2	49933,5374	0,300000012	3,99585176	0,00083366773927211763	0,30012038557894458	0,00119923661	0,22953904479826205	-0,0085644103799511987	0,14088979570853715
1	1	0	0	0	0	2	50153,5374	0,300000012	4,01651716	0,00083367098203963712	0,30012155297524941	0,0012054434	0,24787967470415974	-0,009248723940979415	0,15923042561443488
1	1	0	0	0	0	2	50373,5374	0,300000012	4,04444504	0,00083367485109468314	0,3001229458350633	0,00121383078	0,26622040399650099	-0,0099330412102494656	0,17757115490677619
1	1	0	0	0	0	2	50593,5374	0,300000012	4,058743	0,00083367309742006989	0,30012231451220378	0,00121811929	0,28456120921354688	-0,010617361312372326	0,19591196012382205
1	1	0	0	0	0	2	50813,5374	0,300000012	4,07395554	0,00083366751201450816	0,30012030376620538	0,00122267683	0,30290191478934579	-0,011301677696746294	0,21425266569962093
1	1	0	0	0	0	2	51033,5374	0,300000012	4,08993101	0,00083366820158561075	0,30012055201180179	0,00122747233	0,32124259230874509	-0,01198599303429827	0,23259334321902019
1	1	0	0	0	0	2	51253,5374	0,300000012	4,12129068	0,00083366351552307597	0,30011886502929242	0,00123687705	0,33958329846673248	-0,012670309440394475	0,25093404937700749
1	1	0	0	0	0	2	51473,5374	0,300000012	4,15141106	0,00083367351058622195	0,3001224632520183	0,00124593172	0,35792401733326458	-0,013354626320663568	0,26927476824353958
1	1	0	0	0	0	2	51693,5374	0,300000012	4,18584013	0,00083366710889173875	0,30012015864200858	0,00125625497	0,37626466923572326	-0,014038940702413048	0,28761542014599834
1	0	0	1	0	0	1	51896,1132	-0,300000012	3,96634293	-0,00083307510242693952	-0,29990703631507789	0,0011895342	0,36315130252677133	-0,013549663359392998	0,014991216313290243
1	0	0	1	0	0	1	52116,1132	-0,300000012	3,90028739	-0,00083307546603017382	-0,29990716721224198	0,00116972416	0,34482368964601478	-0,012865835481074373	0,033318829194046701
1	0	0	1	0	0	1	52336,1132	-0,300000012	3,85194206	-0,00083307758965757171	-0,29990793171810368	0,001155228	0,32649608147183642	-0,01218200777836451	0,051646437368225043
1	0	0	1	0	0	1	52556,1132	-0,300000012	3,80313921	-0,00083307492745088205	-0,29990697332369728	0,00114058796	0,30816837613434022	-0,011498176450360624	0,069974142705721318
1	0	0	1	0	0	1	52776,1132	-0,300000012	3,78314161	-0,0008330902971244521	-0,29991250640617216	0,00113461143	0,28984065272540602	-0,010814344448087088	0,088301866114655475
1	0	0	1	0	0	1	52996,1132	-0,300000012	3,7431078	-0,00083307680420411955	-0,29990764895486157	0,00112258666	0,27151288207065821	-0,010130510683008722	0,10662963676940338
1	0	0	1	0	0	1	53216,1132	-0,300000012	3,69167423	-0,00083308248306645274	-0,29990969334529766	0,00110716885	0,25318511538526851	-0,0094466770660324442	0,12495740345479318
1	0	0	1	0	0	1	53436,1132	-0,300000012	3,64064097	-0,00083307615057792922	-0,29990741364943347	0,00109185523	0,23485740486054064	-0,0087628455444859686	0,14328511397952107
1	0	0	1	0	0	1	53656,1132	-0,300000012	3,58345008	-0,00083307190695570573	-0,29990588594543584	0,00107469782	0,21652977974232979	-0,0080790172095714726	0,1616127390977319
1	0	0	1	0	0	1	53876,1132	-0,300000012	3,50511765	-0,0008330738086352745	-0,2999065705500793	0,00105120777	0,19820219358984739	-0,007395190328520695	0,1799403252502143
1	0	0	1	0	0	1	54096,1132	-0,300000012	3,42377305	-0,00083307618680596352	-0,29990742669152576	0,00102681492	0,17987453148072406	-0,0067113606134255194	0,19826798735933766
1	0	0	1	0	0	1	54316,1132	-0,300000012	3,33798671	-0,00083307751637862784	-0,29990790533768403	0,00100108865	0,16154685845660938	-0,0060275304910773427	0,21659566038345232
1	0	0	1	0	0	1	54536,1132	-0,300000012	3,14083076	-0,00083308326108256986	-0,29990997343109926	0,000941966486	0,14321910498230758	-0,0053436973670245171	0,23492341385775411
1	0	0	1	0	0	1	54756,1132	-0,300000012	2,88091731	-0,00083307264826529549	-0,29990615281688768	0,000864004833	0,12489140230424474	-0,0046598661382476627	0,25325111653581699
1	0	0	1	0	0	1	54976,1132	-0,300000012	2,18581963	-0,00083308021441102029	-0,29990887662934349	0,000655546726	0,1065637214197477	-0,0039760357226180512	0,27157879742031421
1	1	0	0	0	0	2	55181,1724	0,300000012	3,89218378	0,0008336650147736073	0,30011940475948269	0,00116811984	0,11781532360601861	-0,0043958481281278528	0,014172258724850083
1	1	0	0	0	0	2	55401,1724	0,300000012	3,92705131	0,00083367446478207898	0,30012280676252614	0,00117859768	0,13615600856032408	-0,0050801637430861747	0,032512943679155584
1	1	0	0	0	0	2	55621,1724	0,300000012	3,95040417	0,0008336731007049481	0,30012231569475994	0,00118560449	0,15449671867224182	-0,0057644802967088352	0,050853653791073293
1	1	0	0	0	0	2	55841,1724	0,300000012	3,97167921	0,00083367379287216397	0,30012256487495718	0,00119199057	0,1728374451868776	-0,0064487974623389594	0,069194380305709094
1	1	0	0	0	0	2	56061,1724	0,300000012	4,0304904	0,00083366811033586662	0,30012051916189395	0,00120963284	0,19117812754418717	-0,0071331129803998733	0,087535062663018675
1	1	0	0	0	0	2	56281,1724	0,300000012	4,03039503	0,00083367841178509926	0,30012422768361082	0,00120961922	0,20951888929250269	-0,0078174314606459622	0,10587582441133424
1	1	0	0	0	0	2	56501,1724	0,300000012	4,05285215	0,00083367127337223962	0,30012165785498605	0,00121634873	0,2278596799774495	-0,0085017510205566682	0,12421661509628093
1	1	0	0	0	0	2	56721,1724	0,300000012	4,06272697	0,00083366548712386022	0,30011957480557344	0,00121930393	0,24620035316587923	-0,0091860661965143475	0,14255728828471067
1	1	0	0	0	0	2	56941,1724	0,300000012	4,07916021	0,00083366838233172902	0,30012061708040422	0,00122424006	0,26454091637266934	-0,0098703772689091814	0,16089785149150086
1	1	0	0	0	0	2	57161,1724	0,300000012	4,10773659	0,0008336617283109161	0,3001182216329161	0,00123280659	0,28288160857227706	-0,010554693154199472	0,17923854369110854
1	1	0	0	0	0	2	57381,1724	0,300000012	4,12089014	0,0008336636415521303	0,30011891039975194	0,00123675703	0,30122226649919238	-0,011239007760729526	0,19757920161802397
1	1	0	0	0	0	2	57601,1724	0,300000012	4,17346764	0,0008336620976676544	0,30011835460134157	0,00125253422	0,31956292150438906	-0,011923322258246333	0,2159198566232207
1	1	0	0	0	0	2	57821,1724	0,300000012	4,17714882	0,00083366168780293734	0,30011820705004371	0,00125363842	0,33790350696111309	-0,012607634160816118	0,23426044207994477
1	0	0	1	0	0	1	58031,1108	-0,300000012	3,9755125	-0,00083308185053865114	-0,29990946563528954	0,00119229383	0,33540435639994554	-0,012514387493235286	0,009992800647840279
1	0	0	1	0	0	1	58251,1108	-0,300000012	3,86109257	-0,00083308480359945037	-0,29991052873717523	0,00115798227	0,31707657504458278	-0,011830553328902592	0,028320582003203078
1	0	0	1	0	0	1	58471,1108	-0,300000012	3,8061893	-0,0008330802943160137	-0,29990890539514106	0,00114151009	0,29874883679018144	-0,011146720772724717	0,046648320257604499
1	0	0	1	0	0	1	58691,1108	-0,300000012	3,73977184	-0,00083307456688582886	-0,2999068435202784	0,00112158316	0,28042117141618883	-0,01046289093581288	0,064975985631597082
1	0	0	1	0	0	1	58911,1108	-0,300000012	3,68978691	-0,00083307921384937229	-0,29990851642715091	0,00110659853	0,26209340979549011	-0,009779057507807031	0,083303747252295795
1	0	0	1	0	0	1	59131,1108	-0,300000012	3,62182522	-0,00083308390840722458	-0,29991020646797459	0,00108622236	0,24376566079975725	-0,0090952245508556339	0,10163149624802874
1	0	0	1	0	0	1	59351,1108	-0,300000012	3,55451155	-0,00083308707424336013	-0,29991134616898125	0,00106603839	0,22543787772331862	-0,0084113903223072845	0,11995927932446741
1	0	0	1	0	0	1	59571,1108	-0,300000012	3,45944118	-0,00083308201400438938	-0,29990952448295514	0,00103751931	0,20711000084293946	-0,0077275525938077901	0,13828715620484658
1	0	0	1	0	0	1	59791,1108	-0,300000012	3,36294103	-0,00083307670454349786	-0,29990761307703776	0,00100857159	0,18878228782555197	-0,007043720979256832	0,15661486922223408
1	0	0	1	0	0	1	60011,1108	-0,300000012	3,23245049	-0,00083307958470450509	-0,29990864993499846	0,000969439861	0,17045458707801568	-0,006359889822510519	0,17494256996977037
1	0	0	1	0	0	1	60231,1108	-0,300000012	3,10135007	-0,00083307908334500275	-0,29990846944557792	0,000930121168	0,1521268793194416	-0,0056760584041729619	0,19327027772834442
1	0	0	1	0	0	1	60451,1108	-0,300000012	2,80696964	-0,00083308129300673792	-0,29990926492380115	0,000841836212	0,13379906867534654	-0,0049922231470382842	0,21159808837243949
1	0	0	1	0	0	1	60671,1108	-0,300000012	2,04631186	-0,00083308785124123098	-0,29991162588821421	0,000613712706	0,11547125807226931	-0,0043083878914340371	0,22992589897551674
1	1	0	0	0	0	2	60871,4826	0,300000012	3,9747293	0,00083366720293793408	0,30012019249863885	0,00119289651	0,13044693626257018	-0,0048671505797276346	0,015839693058035437
1	1	0	0	0	0	2	61091,4826	0,300000012	4,01342869	0,00083367396325866381	0,30012262621409702	0,00120452081	0,14878766760595206	-0,005551467925524768	0,034180424401417363
1	1	0	0	0	0	2	61311,4826	0,300000012	4,04339647	0,00083366538640360038	0,30011953854627994	0,00121350226	0,16712834769724867	-0,0062357833590376922	0,05252110449271401
1	1	0	0	0	0	2	61531,4826	0,300000012	4,0697999	0,0008336616724232832	0,30011820151336826	0,00122142106	0,18546899255003101	-0,0069200974777542694	0,07086174934549632
1	1	0	0	0	0	2	61751,4826	0,300000012	4,09646988	0,00083366604341400998	0,30011977507002694	0,0012294316	0,20380965121621126	-0,007604412111867296	0,089202408011676544
1	1	0	0	0	0	2	61971,4826	0,300000012	4,12235832	0,0008336646545264457	0,3001192750705047	0,00123719918	0,22215022919589187	-0,0082887237354585344	0,10754298599135712
1	1	0	0	0	0	2	62191,4826	0,300000012	4,14756012	0,00083366490595042701	0,30011936558313786	0,00124476315	0,24049086649985683	-0,0089730375725185843	0,12588362329532208
1	1	0	0	0	0	2	62411,4826	0,300000012	4,17302942	0,00083366593834923379	0,30011973724670752	0,00125240849	0,25883147815194131	-0,0096573504524724864	0,14422423494740659
1	1	0	0	0	0	2	62631,4826	0,300000012	4,19802332	0,00083366077408856819	0,30011787811287142	0,00125990179	0,27717215655424781	-0,010341665822966918	0,1625649133497129
1	0	0	1	0	0	1	62838,0356	-0,300000012	3,89260483	-0,00083308024113542502	-0,29990888625012915	0,00116742682	0,26272355702596483	-0,0098025691482180058	0,015824346516417283
1	0	0	1	0	0	1	63058,0356	-0,300000012	3,79623818	-0,00083307413069241574	-0,29990668649064992	0,00113851717	0,24439594218559795	-0,0091187411967836877	0,034151961356784058
1	0	0	1	0	0	1	63278,0356	-0,300000012	3,71331143	-0,00083307172097596864	-0,29990581899273056	0,00111364375	0,22606835760530563	-0,0084349143743934362	0,052479545937076371
1	0	0	1	0	0	1	63498,0356	-0,300000012	3,61604881	-0,00083306326933867392	-0,29990277640331021	0,00108446309	0,20774078706167536	-0,0077510880757299174	0,070807116480706637
1	0	0	1	0	0	1	63718,0356	-0,300000012	3,48500538	-0,00083306881741682675	-0,29990477371144147	0,00104516977	0,1894132019660695	-0,0070672612341126246	0,08913470157631255
1	0	0	1	0	0	1	63938,0356	-0,300000012	3,29715252	-0,00083307588232888115	-0,29990731707977632	0,000988840126	0,17108553631160886	-0,0063834313867361485	0,10746236723077315
1	0	0	1	0	0	1	64158,0356	-0,300000012	3,06270814	-0,00083308308862977562	-0,29990991134809344	0,000918536505	0,15275781435463389	-0,0056995994386371629	0,12579008918774806
1	0	0	1	0	0	1	64378,0356	-0,300000012	2,60268378	-0,00083307924261854746	-0,29990852678405395	0,000780567061	0,1344300692133032	-0,0050157666254986925	0,14411783432907875
1	1	0	0	0	0	2	64587,0438	0,300000012	3,94807839	0,00083365822612411443	0,30011696084566982	0,00118488527	0,12701847751424933	-0,0047392301742159712	0,0050019635698745651
1	1	0	0	0	0	2	64807,0438	0,300000012	4,01668835	0,00083366521114442074	0,30011947545297542	0,00120548636	0,14535907658659149	-0,0054235425848027718	0,023342562642216688
1	1	0	0	0	0	2	65027,0438	0,300000012	4,05435801	0,00083367035195065869	0,3001213261432176	0,00121679925	0,16369974235282573	-0,0061078574838283584	0,041683228408450886
1	1	0	0	0	0	2	65247,0438	0,300000012	4,08689976	0,00083367021585669786	0,30012127714939181	0,00122656557	0,18204045017933254	-0,006792173952179264	0,060023936234957645
1	1	0	0	0	0	2	65467,0438	0,300000012	4,11713457	0,00083366404297285619	0,30011905491121293	0,00123563048	0,20038116132870717	-0,0074764905445108378	0,078364647384332275
1	1	0	0	0	0	2	65687,0468	0,300000012	4,14666414	0,00083368443818224794	0,30012046582860531	0,00124449877	0,21872214715639984	-0,0081608173854597632	0,096705633212024947
1	1	0	0	0	0	2	65907,0511	0,300000012	4,17527866	0,00083369032156136307	0,30012258375038067	0,00125309546	0,2370631978442312	-0,0088451466464276723	0,11504668389985622
1	0	0	1	0	0	1	66115,3157	-0,300000012	4,02256155	-0,00082897251279583565	-0,29842420615677843	0,00120042975	0,25275866665285629	-0,0094307656904597248	0,00082897251279583565
1	0	0	1	0	0	1	66335,3200	-0,300000012	3,81852365	-0,00083309642048842381	-0,29990878358645466	0,00114520884	0,23443055126929082	-0,0087469190630856794	0,019157087896361264
1	0	0	1	0	0	1	66555,3244	-0,300000012	3,70641041	-0,00083309022594988352	-0,29990655420763456	0,0011115768	0,21610250145736304	-0,0080630748822776	0,037485137708289062
1	0	0	1	0	0	1	66775,3287	-0,300000012	3,58148646	-0,00083309027906921178	-0,29990657383645382	0,00107411132	0,19777444471410051	-0,0073792304428520998	0,055813194451551603
1	0	0	1	0	0	1	66995,3331	-0,300000012	3,40360379	-0,00083309464099340979	-0,29990814410162554	0,00102076854	0,17944639232426688	-0,0066953861658588851	0,07414124684138528
1	0	0	1	0	0	1	67215,3374	-0,300000012	3,15604353	-0,00083309365403486618	-0,29990778821353856	0,00094652205	0,1611183586915993	-0,0060115425887207552	0,092469280474052787
1	0	0	1	0	0	1	67435,3418	-0,300000012	2,75492597	-0,00083308958961897421	-0,29990632452554835	0,000826219737	0,1427902731718004	-0,005327697075603993	0,11079736599385174
1	1	0	0	0	0	2	67640,2879	0,300000012	2,83199859	0,00083368160269161062	0,30011944529531648	0,000849937845	0,12738350958400934	-0,0047528500115295546	0,00083369804748230515
1	1	0	0	0	0	2	67860,2923	0,300000012	4,02137804	0,00083368089545435379	0,30011919041892755	0,00120689278	0,14572457255164592	-0,0054371797306735046	0,019174761015118822
1	1	0	0	0	0	2	68080,2966	0,300000012	4,06669235	0,00083368190880119808	0,30011955521308742	0,00122049393	0,16406558719219901	-0,0061215076466689946	0,037515775655671949
1	1	0	0	0	0	2	68300,3010	0,300000012	4,10377121	0,00083368132435944346	0,30011934555540179	0,00123162114	0,18240660338736054	-0,0068058356206690138	0,055856791850833453
1	1	0	0	0	0	2	68520,3053	0,300000012	4,13783789	0,00083367938514716096	0,30011864783359776	0,00124184228	0,20074757181555011	-0,0074901618124190861	0,074197760279022989
1	1	0	0	0	0	2	68740,3097	0,300000012	4,17007446	0,00083367986144125466	0,3001188192995769	0,0012515178	0,21908849300854218	-0,0081744862417604326	0,092538681472015066
1	1	0	0	0	0	2	68958,4418	0,300000012	4,19991064	0,00067760221404333901	0,3001191618162599	0,00126047363	0,23727336822925162	-0,0088529883860698714	0,11072355669272445
1	0	0	1	0	0	1	69168,4966	-0,300000012	3,78304625	-0,00083309958351817395	-0,29990992302624525	0,00113457313	0,21978251379481936	-0,0082003810904173056	0,017490854434432192
1	0	0	1	0	0	1	69388,5009	-0,300000012	3,64411044	-0,00083308729673756493	-0,29990549910106432	0,00109288876	0,20145443196918723	-0,007516535715134871	0,03581893626006439
1	0	0	1	0	0	1	69608,5052	-0,300000012	3,4697547	-0,00083309233274228045	-0,29990731203042029	0,00104060478	0,18312636049224426	-0,006832690725975945	0,05414700773700736
1	0	0	1	0	0	1	69828,5096	-0,300000012	3,20875454	-0,00083310274210406669	-0,29991105958844851	0,000962340971	0,1647981472456255	-0,0061488404471998029	0,072475220983626035
1	0	0	1	0	0	1	70048,5139	-0,300000012	2,80443406	-0,00083310072697699072	-0,29991033500892749	0,000841078756	0,14646998412582266	-0,0054649920387225594	0,090803384103428915
1	1	0	0	1	0	2	70255,3003	0,300000012	2,02750731	1,6443375084135267E-008	0,098660264961311309	0,00020003441	0,12924304144726517	-0,0048222316455148109	1,6443375084135267E-008
1	1	0	0	0	0	2	70475,3046	0,300000012	4,03211117	0,00083368293437858419	0,3001199255316608	0,0012101169	0,14758404903579405	-0,0055065592983897952	0,018341024031904003
1	1	0	0	0	0	2	70695,3090	0,300000012	4,08167648	0,0008336748401754432	0,30011701167960621	0,00122498057	0,16592494846256058	-0,0061908829156039987	0,036681923458670573
1	1	0	0	0	0	2	70915,3133	0,300000012	4,12170982	0,00083368301265935104	0,3001199530273977	0,00123700732	0,18426591744208973	-0,0068752091279252941	0,055022892438199802
1	1	0	0	0	0	2	71135,3177	0,300000012	4,15775919	0,00083367459804316352	0,30011692339570746	0,00124781393	0,20260685565206384	-0,0075595341921931187	0,073363830648173926
1	1	0	0	0	0	2	71355,3220	0,300000012	4,19121599	0,00083367195351256269	0,30011597138001421	0,0012578509	0,22094772588397206	-0,0082438567201079078	0,091704700880082176
1	1	0	0	0	0	2	71419,2754	0,300000012	4,19996786	0,00032947733538846176	0,30011605946183354	0,00126047782	0,22627924625135936	-0,0084427829133205005	0,097036221247469427