File: Experimentelles/Rohdaten/Batteriemessungen/AlteZelle/Batterietest Li vs LATP/ECLab-Export/LATP vs Li Batterietest Probe1_02_GCPL_C01_loop3.mpt
EC-Lab ASCII FILE
Nb header lines : 3
mode	ox/red	error	control changes	Ns changes	counter inc.	Ns	time/s	control/V/mA	Ewe/V	dq/mA.h	<I>/mA	P/W	(Q-Qo)/mA.h	x	Capacity/mA.h
1	1	0	1	1	0	1	11169,01	0,100000001	1,21288526	0	0	0	0	0	0
1	1	0	1	0	0	1	11181,01	0,100000001	1,5115869	5,556301692831847E-005	0,1000134316818552	0,000151178989	0,00033200560233185101	-1,2387575409281237E-005	0,00033200560233185101
1	1	0	1	0	0	1	11193,01	0,100000001	1,66031706	5,5563033631278406E-005	0,10001346174718346	0,000166054058	0,00066538387429405658	-2,482636696804495E-005	0,00066538387429405658
1	1	0	1	0	0	1	11205,01	0,100000001	1,80362439	5,5563069780667622E-005	0,10001352681608483	0,000180386836	0,00099876243127366976	-3,7265169161191354E-005	0,00099876243127366976
1	1	0	1	0	0	1	11217,01	0,100000001	1,95437872	5,5563127956456608E-005	0,10001363153250629	0,000195464512	0,0013321410886444757	-4,9703975100068128E-005	0,0013321410886444757
1	1	0	1	0	0	1	11229,01	0,100000001	2,11160612	5,5563067500789958E-005	0,10001352271230499	0,000211189166	0,0016655196430317011	-6,2142777196489037E-005	0,0016655196430317011
1	1	0	1	0	0	1	11241,01	0,100000001	2,26900554	5,5563166067832051E-005	0,1000137001329829	0,000226931646	0,0019988982598912163	-7,458158162383511E-005	0,0019988982598912163
1	1	0	1	0	0	1	11253,01	0,100000001	2,40242171	5,556316515141063E-005	0,10001369848342434	0,000240275083	0,0023322770059897446	-8,7020390873262502E-005	0,0023322770059897446
1	1	0	1	0	0	1	11265,01	0,100000001	2,47437119	5,5563198986566726E-005	0,10001375938670605	0,000247471151	0,0026656562330141443	-9,9459218066680768E-005	0,0026656562330141443
1	1	0	1	0	0	1	11277,01	0,100000001	2,50408292	5,5563125032103725E-005	0,10001362626867102	0,000250442419	0,0029990351731506266	-0,00011189803455592512	0,0029990351731506266
1	1	0	1	0	0	1	11289,01	0,100000001	2,52010345	5,5563076992415725E-005	0,10001353979723158	0,000252044469	0,0033324138831552307	-0,0001243368424586397	0,0033324138831552307
1	1	0	1	0	0	1	11301,01	0,100000001	2,53094935	5,5563192280216352E-005	0,10001374731527523	0,000253129721	0,0036657929232851277	-0,00013677566267877278	0,0036657929232851277
1	1	0	1	0	0	1	11313,01	0,100000001	2,53904557	5,5563285854127674E-005	0,10001391574831765	0,000253939885	0,0039991725148651936	-0,00014921450347425309	0,0039991725148651936
1	1	0	1	0	0	1	11325,01	0,100000001	2,54590082	5,5563254985544416E-005	0,1000138601848671	0,000254625367	0,0043325522294253709	-0,00016165334885828672	0,0043325522294253709
1	1	0	1	0	0	1	11337,01	0,100000001	2,55176282	5,5563222246865434E-005	0,10001380125524422	0,000255211489	0,0046659316979760698	-0,00017409218506337597	0,0046659316979760698
1	1	0	1	0	0	1	11349,01	0,100000001	2,55688024	5,5563221862332685E-005	0,10001380056308528	0,000255723309	0,0049993111109806214	-0,00018653101919596374	0,0049993111109806214
1	1	0	1	0	0	1	11361,01	0,100000001	2,56161594	5,5563262586378394E-005	0,10001387386636842	0,00025619712	0,005332690471574064	-0,00019896985137302259	0,005332690471574064
1	1	0	1	0	0	1	11373,01	0,100000001	2,56602669	5,5563202642732192E-005	0,10001376596780397	0,000256637984	0,0056660696773067744	-0,0002114086777720193	0,0056660696773067744
1	1	0	1	0	0	1	11385,01	0,100000001	2,5700748	5,5563201340950195E-005	0,10001376362459634	0,000257042848	0,0059994490143940467	-0,00022384750907203136	0,0059994490143940467
1	1	0	1	0	0	1	11397,01	0,100000001	2,57389379	5,5563300057417818E-005	0,10001394131424022	0,000257425272	0,0063328288985940109	-0,00023628636078555347	0,0063328288985940109
1	1	0	1	0	0	1	11409,01	0,100000001	2,57763648	5,5563239474263456E-005	0,10001383226456104	0,000257799315	0,0066662083230997734	-0,00024872519534726694	0,0066662083230997734
1	1	0	1	0	0	1	11421,01	0,100000001	2,5812645	5,5563267068730464E-005	0,10001388193460226	0,000258162268	0,0069995875087895936	-0,00026116402099843648	0,0069995875087895936
1	1	0	1	0	0	1	11433,01	0,100000001	2,584759	5,5563194418946899E-005	0,10001375116499026	0,000258511456	0,0073329667523219955	-0,0002736028488077905	0,0073329667523219955
1	1	0	1	0	0	1	11445,01	0,100000001	2,58821511	5,55632069711056E-005	0,10001377375887619	0,000258857151	0,007666346073535808	-0,00028604167951554243	0,007666346073535808
1	1	0	1	0	0	1	11457,01	0,100000001	2,59157586	5,5563327454858355E-005	0,10001399062963376	0,000259193854	0,0079997256109373222	-0,0002984805182895481	0,0079997256109373222
1	1	0	1	0	0	1	11469,01	0,100000001	2,59480286	5,5563252952777677E-005	0,10001385652588693	0,000259516237	0,008333105240084873	-0,00031091936048672179	0,008333105240084873
1	1	0	1	0	0	1	11481,01	0,100000001	2,59808707	5,5563108340319661E-005	0,10001359622345936	0,000259844033	0,008666484189998999	-0,00032335817734078323	0,008666484189998999
1	1	0	1	0	0	1	11493,01	0,100000001	2,60140967	5,5563300732523206E-005	0,10001394252942992	0,000260177243	0,0089998636579979418	-0,00033579701352528563	0,0089998636579979418
1	1	0	1	0	0	1	11505,01	0,100000001	2,60459852	5,5563178828193082E-005	0,10001372310163304	0,00026049561	0,0093332431002062861	-0,00034823584874750624	0,0093332431002062861
1	1	0	1	0	0	1	11517,01	0,100000001	2,60784459	5,5563166175037619E-005	0,10001370032595294	0,000260820176	0,0096666221729059827	-0,00036067467018286227	0,0096666221729059827
1	1	0	1	0	0	1	11529,01	0,100000001	2,61107159	5,5563178499953613E-005	0,10001372251080198	0,000261142995	0,010000001247066819	-0,00037311349167273549	0,010000001247066819
1	1	0	1	0	0	1	11541,01	0,100000001	2,61426044	5,5563009300165709E-005	0,10001341795118006	0,000261461129	0,010333379941221555	-0,00038555229898407021	0,010333379941221555
1	1	0	1	0	0	1	11553,01	0,100000001	2,61754489	5,5563040177441306E-005	0,10001347353027683	0,00026178977	0,01066675835121156	-0,00039799109569283667	0,01066675835121156
1	1	0	1	0	0	1	11565,01	0,100000001	2,62081003	5,5563073196758822E-005	0,10001353296504909	0,00026211646	0,011000136770432421	-0,00041042989274601882	0,011000136770432421
1	1	0	1	0	0	1	11577,01	0,100000001	2,62399888	5,5563014752748941E-005	0,10001342776583002	0,000262435118	0,011333515016345744	-0,00042286868333286362	0,011333515016345744
1	1	0	1	0	0	1	11589,01	0,100000001	2,62732148	5,5563032756249114E-005	0,10001346017213072	0,000262767513	0,011666893388774062	-0,00043530747864015309	0,011666893388774062
1	1	0	1	0	0	1	11601,01	0,100000001	2,63058662	5,5563043168021574E-005	0,10001347891332138	0,000263094116	0,01200027171902961	-0,00044774627237391974	0,01200027171902961
1	1	0	1	0	0	1	11613,01	0,100000001	2,63396645	5,5563023135479949E-005	0,10001344285474602	0,000263432041	0,01233364996026976	-0,0004601850627864023	0,01233364996026976
1	1	0	1	0	0	1	11625,01	0,100000001	2,63730812	5,5563055543849862E-005	0,10001350118981256	0,000263766415	0,012667028092735573	-0,00047262384914036806	0,012667028092735573
1	1	0	1	0	0	1	11637,01	0,100000001	2,64053512	5,5563089068151181E-005	0,10001356153355566	0,000264089322	0,01300040643692081	-0,00048506264339387014	0,01300040643692081
1	1	0	1	0	0	1	11649,01	0,100000001	2,64401031	5,5563069729755328E-005	0,1000135267244427	0,000264436792	0,013333784641806264	-0,00049750143244991008	0,013333784641806264
1	1	0	1	0	0	1	11661,01	0,100000001	2,64746666	5,5563134917368493E-005	0,10001364406214781	0,000264782779	0,01366716321618671	-0,00050994023529230502	0,01366716321618671
1	1	0	1	0	0	1	11673,01	0,100000001	2,65092278	5,5563096036513645E-005	0,10001357407660824	0,00026512827	0,014000541772030938	-0,00052237903744308858	0,014000541772030938
1	1	0	1	0	0	1	11685,01	0,100000001	2,65435982	5,5563142299238176E-005	0,10001365734951342	0,000265472219	0,014333920445824893	-0,00053481784399473517	0,014333920445824893
1	1	0	1	0	0	1	11697,01	0,100000001	2,65802598	5,556308059187399E-005	0,10001354627625654	0,000265838607	0,014667298738605264	-0,00054725663633025254	0,014667298738605264
1	1	0	1	0	0	1	11709,01	0,100000001	2,66159678	5,5562968060374259E-005	0,10001334371955456	0,000266195188	0,015000676751673037	-0,00055969541822931699	0,015000676751673037
1	1	0	1	0	0	1	11721,01	0,100000001	2,66516757	5,5563017343067462E-005	0,10001343242840341	0,000266552554	0,015334054695344035	-0,0005721341975390944	0,015334054695344035
1	1	0	1	0	0	1	11733,01	0,100000001	2,66877651	5,556307902932167E-005	0,10001354346366232	0,00026691379	0,015667432797566701	-0,00058457298276464768	0,015667432797566701
1	1	0	1	0	0	1	11745,01	0,100000001	2,6724999	5,5563034607304467E-005	0,1000134635040304	0,00026728597	0,016000810981185302	-0,00059701177102719283	0,016000810981185302
1	1	0	1	0	0	1	11757,01	0,100000001	2,67629981	5,5563078766481741E-005	0,10001354299055043	0,000267666241	0,016334189562890083	-0,00060945057414286835	0,016334189562890083
1	1	0	1	0	0	1	11769,01	0,100000001	2,68006158	5,5563200903849466E-005	0,10001376283781501	0,000268043048	0,016667568735704061	-0,00062188939931362291	0,016667568735704061
1	1	0	1	0	0	1	11781,01	0,100000001	2,68405247	5,5563106769902835E-005	0,10001359339670902	0,000268441741	0,017000947723450995	-0,00063432821757927731	0,017000947723450995
1	1	0	1	0	0	1	11793,01	0,100000001	2,68787146	5,5563226293772461E-005	0,10001380853967696	0,000268824253	0,017334327109432707	-0,00064676705070360653	0,017334327109432707
1	1	0	1	0	0	1	11805,01	0,100000001	2,69191957	5,5563196058902477E-005	0,10001375411691032	0,000269228971	0,01766770610324193	-0,00065920586919545293	0,01766770610324193
1	1	0	1	0	0	1	11817,01	0,100000001	2,69585299	5,5563285878962944E-005	0,10001391579302114	0,000269622804	0,018001085943510787	-0,00067164471926984653	0,018001085943510787
1	1	0	1	0	0	1	11829,01	0,100000001	2,69992018	5,5563195862289933E-005	0,10001375376300773	0,000270029152	0,018334465492256637	-0,00068408355846712461	0,018334465492256637
1	1	0	1	0	0	1	11841,01	0,100000001	2,70408297	5,5563149860335718E-005	0,10001367095948915	0,000270445278	0,018667844671868435	-0,00069652238389151488	0,018667844671868435
1	1	0	1	0	0	1	11853,01	0,100000001	2,70841742	5,5563120283600358E-005	0,10001361772136486	0,000270878634	0,019001223320056397	-0,00070896118948776742	0,019001223320056397
1	1	0	1	0	0	1	11865,01	0,100000001	2,71256113	5,5563158795651462E-005	0,1000136870430577	0,000271293247	0,019334602439328426	-0,0007214000126608	0,019334602439328426
1	1	0	1	0	0	1	11877,01	0,100000001	2,71691465	5,5563132693784102E-005	0,10001364005969587	0,000271728524	0,019667981718636864	-0,00073383884180500595	0,019667981718636864
1	1	0	1	0	0	1	11889,01	0,100000001	2,72134471	5,5563207561357158E-005	0,10001377482132899	0,00027217195	0,02000136083020127	-0,0007462776646904567	0,02000136083020127
1	1	0	1	0	0	1	11901,01	0,100000001	2,72587013	5,5563093697031341E-005	0,10001356986554006	0,000272623991	0,020334739444843414	-0,00075871646903506957	0,020334739444843414
1	1	0	1	0	0	1	11913,01	0,100000001	2,73020482	5,556311749211616E-005	0,10001361269669325	0,000273057638	0,020668118320120934	-0,00077115528310433894	0,020668118320120934
1	1	0	1	0	0	1	11925,01	0,100000001	2,73490214	5,5563173530002438E-005	0,10001371356488976	0,000273527723	0,021001497584041853	-0,00078359411167441587	0,021001497584041853
1	1	0	1	0	0	1	11937,01	0,100000001	2,73979044	5,5563202774773043E-005	0,1000137662054775	0,000274016755	0,021334876383186035	-0,00079603292290304781	0,021334876383186035
1	1	0	1	0	0	1	11949,01	0,100000001	2,74448776	5,5563121886303027E-005	0,10001362060622971	0,00027448617	0,021668255108595546	-0,00080847173138054029	0,021668255108595546
1	1	0	1	0	0	1	11961,01	0,100000001	2,74935699	5,5563211465047469E-005	0,10001378184797165	0,000274973601	0,022001633871590333	-0,00082091054126038976	0,022001633871590333
1	1	0	1	0	0	1	11973,01	0,100000001	2,75428343	5,5563289865023558E-005	0,10001392296793034	0,000275466678	0,022335013186916118	-0,00083334937174845146	0,022335013186916118
1	1	0	1	0	0	1	11985,01	0,100000001	2,75938177	5,5563136224531469E-005	0,10001364641504122	0,000275975821	0,02266839230845272	-0,00084578819500597811	0,02266839230845272
1	1	0	1	0	0	1	11997,01	0,100000001	2,76453733	5,5563107614715898E-005	0,10001359491737258	0,000276491308	0,023001771044788506	-0,00085822700389114445	0,023001771044788506
1	1	0	1	0	0	1	12009,01	0,100000001	2,76969314	5,5563053186155027E-005	0,10001349694596181	0,000277006708	0,02333514985480888	-0,00087066581552558195	0,02333514985480888
1	1	0	1	0	0	1	12021,01	0,100000001	2,77515411	5,5563160911202432E-005	0,10001369085104947	0,000277553394	0,023668529009554781	-0,00088310464002219226	0,023668529009554781
1	1	0	1	0	0	1	12033,01	0,100000001	2,78073001	5,5563181865960358E-005	0,10001372856961419	0,000278111169	0,024001907887045133	-0,00089554345417402522	0,024001907887045133
1	1	0	1	0	0	1	12045,01	0,100000001	2,78634381	5,5563217220207053E-005	0,10001379220725904	0,000278672815	0,024335287442081757	-0,00090798229360602061	0,024335287442081757
1	1	0	1	0	0	1	12057,01	0,100000001	2,79220605	5,5563206276959846E-005	0,10001377250941381	0,000279259053	0,024668666454131238	-0,00092042111277843558	0,024668666454131238
1	1	0	1	0	0	1	12069,01	0,100000001	2,79812527	5,5563327757848634E-005	0,10001399117501629	0,000279851665	0,02500204611245071	-0,00093285995606405299	0,02500204611245071
1	1	0	1	0	0	1	12081,01	0,100000001	2,80442667	5,556322722716464E-005	0,1000138102197829	0,000280481385	0,025335425898581578	-0,00094529880411848525	0,025335425898581578
1	1	0	1	0	0	1	12093,01	0,100000001	2,81061339	5,5563121291498349E-005	0,10001361953558126	0,000281099608	0,025668804870121846	-0,00095773762177944704	0,025668804870121846
1	1	0	1	0	0	1	12105,01	0,100000001	2,81714392	5,5563241305450598E-005	0,10001383556069795	0,000281753368	0,026002184129701142	-0,00097017645018753229	0,026002184129701142
1	1	0	1	0	0	1	12117,01	0,100000001	2,82396078	5,5563230053418214E-005	0,10001381530703939	0,000282435096	0,02633556366856007	-0,00098261528901591603	0,02633556366856007
1	1	0	1	0	0	1	12129,01	0,100000001	2,83079672	5,5563321607394349E-005	0,10001398010419843	0,00028311924	0,026668943225218438	-0,00099505412850842086	0,026668943225218438
1	1	0	1	0	0	1	12141,01	0,100000001	2,83793831	5,5563345639655987E-005	0,1000140233622699	0,000283833622	0,027002322948386522	-0,0010074929742136272	0,027002322948386522
1	1	0	1	0	0	1	12153,01	0,100000001	2,84544253	5,5563107548074586E-005	0,10001359479741821	0,000284582929	0,027335701956598963	-0,001019931793242877	0,027335701956598963
1	1	0	1	0	0	1	12165,01	0,100000001	2,85287046	5,5563239659286208E-005	0,100013832597602	0,000285326503	0,027669081064892982	-0,0010323706160063051	0,027669081064892982
1	1	0	1	0	0	1	12177,01	0,100000001	2,86079478	5,5563098038236301E-005	0,10001357767970907	0,000286118331	0,02800245986711135	-0,0010448094273496394	0,02800245986711135
1	1	0	1	0	0	1	12189,01	0,100000001	2,86879563	5,556314136832953E-005	0,10001365567387784	0,000286918745	0,028335838635247453	-0,0010572482374213181	0,028335838635247453
1	1	0	1	0	0	1	12201,01	0,100000001	2,87723565	5,5563245808498726E-005	0,10001384366618467	0,000287763396	0,028669217932705094	-0,0010696870672426954	0,028669217932705094
1	1	0	1	0	0	1	12213,01	0,100000001	2,88590455	5,556321388234695E-005	0,10001378619911075	0,000288630254	0,029002597056069152	-0,0010821258905684069	0,029002597056069152
1	1	0	1	0	0	1	12225,01	0,100000001	2,89480281	5,5563133510864442E-005	0,1000136415304405	0,000289519783	0,02933597587202432	-0,0010945647024242794	0,02933597587202432
1	1	0	1	0	0	1	12237,01	0,100000001	2,90408301	5,5563202708545658E-005	0,10001376608626821	0,000290448283	0,029669354951114963	-0,0011070035240980902	0,029669354951114963
1	1	0	1	0	0	1	12249,01	0,100000001	2,91370678	5,5563182686352064E-005	0,10001373004631931	0,000291410688	0,030002733792913715	-0,0011194423369182218	0,030002733792913715
1	1	0	1	0	0	1	12261,01	0,100000001	2,92376995	5,5563142235494323E-005	0,10001365723477446	0,000292416924	0,030336112560792781	-0,0011318811469803102	0,030336112560792781
1	1	0	1	0	0	1	12273,01	0,100000001	2,93417668	5,5563248291611674E-005	0,10001384813578802	0,000293458288	0,030669491652857773	-0,0011443199691382117	0,030669491652857773
1	1	0	1	0	0	1	12285,01	0,100000001	2,9449842	5,5563336391829779E-005	0,10001400671618253	0,00029453967	0,031002871501918733	-0,0011567588195406499	0,031002871501918733
1	1	0	1	0	0	1	12297,01	0,100000001	2,95632672	5,5563151779688064E-005	0,10001367441432342	0,00029567309	0,03133625081781655	-0,0011691976500500554	0,03133625081781655
1	1	0	1	0	0	1	12309,01	0,100000001	2,9679172	5,5563288003206253E-005	0,10001391961665914	0,000296833023	0,031669630362296122	-0,0011816364890881528	0,031669630362296122
1	1	0	1	0	0	1	12321,01	0,100000001	2,98027158	5,5563383007215123E-005	0,10001409062387717	0,00029806915	0,032003010420541242	-0,0011940753472955336	0,032003010420541242
1	1	0	1	0	0	1	12333,01	0,100000001	2,99312258	5,5563396967533562E-005	0,10001411575245066	0,00029935452	0,032336390832936448	-0,0012065142187167306	0,032336390832936448
1	1	0	1	0	0	1	12345,01	0,100000001	3,00646996	5,5563239387753939E-005	0,10001383210884392	0,000300688582	0,032669770557745318	-0,0012189530644831565	0,032669770557745318
1	1	0	1	0	0	1	12357,01	0,100000001	3,02048564	5,5563282642927437E-005	0,10001390996815714	0,000302090571	0,0330031501208832	-0,0012313919042174208	0,0330031501208832
1	1	0	1	0	0	1	12369,01	0,100000001	3,0351696	5,5563249957644282E-005	0,10001385113464675	0,000303559005	0,033336529905911802	-0,0012438307522307261	0,033336529905911802
1	1	0	1	0	0	1	12381,01	0,100000001	3,0504837	5,5563254557136032E-005	0,100013859413732	0,000305090653	0,033669909540828582	-0,0012562695946431574	0,033669909540828582
1	1	0	1	0	0	1	12393,01	0,100000001	3,06679082	5,5563356095718016E-005	0,10001404218318179	0,000306722155	0,034003289609648134	-0,001268708453245085	0,034003289609648134
1	1	0	1	0	0	1	12405,01	0,100000001	3,08382344	5,5563455011281702E-005	0,10001422023119858	0,000308426184	0,034336669845160358	-0,0012811473180665398	0,034336669845160358
1	1	0	1	0	0	1	12417,01	0,100000001	3,10192537	5,5563389747920966E-005	0,10001410275714784	0,000310236297	0,034670050022925619	-0,0012935861807333778	0,034670050022925619
1	1	0	1	0	0	1	12429,01	0,100000001	3,1207912	5,5563418749305939E-005	0,10001415495964142	0,000312123302	0,035003430811442285	-0,0013060250661881718	0,035003430811442285
1	1	0	1	0	0	1	12441,01	0,100000001	3,1408217	5,5563448734167552E-005	0,10001420893239296	0,00031412681	0,035336811401846771	-0,0013184639442511344	0,035336811401846771
1	1	0	1	0	0	1	12453,01	0,100000001	3,1620934	5,556350553491049E-005	0,10001431117373149	0,000316254591	0,03567019204431385	-0,0013309028242566218	0,03567019204431385
1	1	0	1	0	0	1	12465,01	0,100000001	3,18462539	5,5563419193443328E-005	0,10001415575908874	0,000318507606	0,036003572591415974	-0,001343341700703915	0,036003572591415974
1	1	0	1	0	0	1	12477,01	0,100000001	3,20836043	5,5563405037340192E-005	0,10001413027810277	0,000320881372	0,036336953011080883	-0,0013557805723963542	0,036336953011080883
1	1	0	1	0	0	1	12489,01	0,100000001	3,2337184	5,556339371452729E-005	0,10001410989703931	0,00032341748	0,036670333517971398	-0,0013682194473432982	0,036670333517971398
1	1	0	1	0	0	1	12501,01	0,100000001	3,26045132	5,5563377327803104E-005	0,10001408040093541	0,000326091045	0,037003714127674554	-0,0013806583261263197	0,037003714127674554
1	1	0	1	0	0	1	12513,01	0,100000001	3,28903627	5,5563465074946477E-005	0,10001423834579539	0,000328950468	0,037337094604739558	-0,0013930971999604336	0,037337094604739558
1	1	0	1	0	0	1	12525,01	0,100000001	3,31951189	5,5563408159961306E-005	0,10001413589882083	0,000331998104	0,037670474945142714	-0,0014055360686955106	0,037670474945142714
1	1	0	1	0	0	1	12537,01	0,100000001	3,35187769	5,5563449279715622E-005	0,1000142099143795	0,000335235411	0,038003855239170138	-0,0014179749357002461	0,038003855239170138
1	1	0	1	0	0	1	12549,01	0,100000001	3,38626766	5,5563342466122573E-005	0,1000140176499097	0,000338674232	0,03833723570708873	-0,0014304138091930952	0,03833723570708873
1	1	0	1	0	0	1	12561,01	0,100000001	3,42287254	5,5563312170406182E-005	0,10001396311761952	0,000342335057	0,038670615673437562	-0,0014428526639717021	0,038670615673437562
1	1	0	1	0	0	1	12573,01	0,100000001	3,46153975	5,5563445404585862E-005	0,10001420293914586	0,000346203131	0,039003996035588544	-0,0014552915335182192	0,039003996035588544
1	1	0	1	0	0	1	12585,01	0,100000001	3,50253654	5,5563344623893498E-005	0,10001402153389741	0,000350302755	0,039337376427547635	-0,0014677304041769171	0,039337376427547635
1	1	0	1	0	0	1	12597,01	0,100000001	3,5460155	5,556329424927632E-005	0,10001393085958539	0,000354650954	0,039670756222134509	-0,0014801692525468541	0,039670756222134509
1	1	0	1	0	0	1	12609,01	0,100000001	3,59201527	5,5563313788423936E-005	0,10001396603005154	0,000359251688	0,040004136138010208	-0,0014926081054422406	0,040004136138010208
1	1	0	1	0	0	1	12621,01	0,100000001	3,6405735	5,5563298840075731E-005	0,10001393912302442	0,000364108098	0,040337516129129318	-0,0015050469611450598	0,040337516129129318
1	1	0	1	0	0	1	12633,01	0,100000001	3,69180512	5,5563351529753869E-005	0,10001403396444624	0,000369232323	0,040670895973680602	-0,0015174858113792365	0,040670895973680602
1	1	0	1	0	0	1	12645,01	0,100000001	3,74588203	5,5563365389903392E-005	0,10001405891271566	0,000374640862	0,041004276076503366	-0,0015299246712498694	0,041004276076503366
1	1	0	1	0	0	1	12657,01	0,100000001	3,80244112	5,5563357489390502E-005	0,10001404469179229	0,000380297512	0,041337656254971878	-0,0015423635339429466	0,041337656254971878
1	1	0	1	0	0	1	12669,01	0,100000001	3,86146355	5,5563258470346528E-005	0,10001386645751099	0,000386199914	0,041671036126370496	-0,0015548023851788333	0,041671036126370496
1	1	0	1	0	0	1	12681,01	0,100000001	3,92252898	5,5563351584391456E-005	0,10001403406279389	0,000392307935	0,042004415883076531	-0,0015672412321353856	0,042004415883076531
1	1	0	1	0	0	1	12693,01	0,100000001	3,98565674	5,5563273941063219E-005	0,10001389430480136	0,00039862105	0,042337795843780723	-0,0015796800867033834	0,042337795843780723
1	1	0	1	0	0	1	12705,01	0,100000001	4,05040789	5,5563204301314221E-005	0,10001376895325163	0,000405096565	0,042671175316834061	-0,001592118923076472	0,042671175316834061
1	1	0	1	0	0	1	12717,01	0,100000001	4,11414623	5,5563221565551226E-005	0,10001380002887864	0,00041147141	0,043004554674003962	-0,0016045577551257939	0,043004554674003962
1	1	0	1	0	0	1	12729,01	0,100000001	4,17547941	5,5563236599995034E-005	0,10001382709087781	0,000417605683	0,043337934271491936	-0,0016169965961417062	0,043337934271491936
1	1	0	1	0	0	1	12741,01	0,100000001	4,2326436	5,556325197344025E-005	0,10001385476307954	0,000423323014	0,043671313648067693	-0,0016294354289150867	0,043671313648067693
1	1	0	1	0	0	1	12753,01	0,100000001	4,28677797	5,556328151540624E-005	0,10001390793861896	0,000428737403	0,044004693004275642	-0,0016418742609285168	0,044004693004275642
1	1	0	1	0	0	1	12765,01	0,100000001	4,3368063	5,5563188803278739E-005	0,10001374105678744	0,000433740235	0,044338072513549978	-0,0016543130986530602	0,044338072513549978
1	1	0	1	0	0	1	12777,01	0,100000001	4,38271046	5,5563236025058566E-005	0,10001382605599216	0,000438331655	0,044671451809855245	-0,0016667519284314406	0,044671451809855245
1	1	0	1	0	0	1	12789,01	0,100000001	4,42443275	5,5563170490579475E-005	0,10001370809392835	0,000442503922	0,045004831099052256	-0,0016791907579446022	0,045004831099052256
1	1	0	1	0	0	1	12801,01	0,100000001	4,46124792	5,5563261162489658E-005	0,10001387130336867	0,000446186663	0,045338210101134522	-0,001691629576745127	0,045338210101134522
1	1	0	1	0	0	1	12813,01	0,100000001	4,49302197	5,5563258494353958E-005	0,10001386650072435	0,00044936451	0,045671589991633946	-0,0017040684286936909	0,045671589991633946
1	0	0	0	0	0	2	12821,88	-0,100000001	4,2350688	-5,5544123334603181E-005	-0,099979423212755955	0,000423419726	0,045584658354966861	-0,0017008248924488134	0,00016663719599900973
1	0	0	0	0	0	2	12833,88	-0,100000001	3,84131265	-5,5544397941066163E-005	-0,09997991750439529	0,000384054118	0,045251392232763123	-0,0016883902853483248	0,000499903318202744
1	0	0	0	0	0	2	12845,88	-0,100000001	3,48851514	-5,5544371624373728E-005	-0,099979870134348339	0,000348781294	0,044918125912864032	-0,0016759556708715571	0,00083316963810183949
1	0	0	0	0	0	2	12857,88	-0,100000001	3,15655017	-5,5544480897486208E-005	-0,09998006682595319	0,0003155921	0,044584859532180198	-0,0016635210541268291	0,0011664360187856688
1	0	0	0	0	0	2	12869,88	-0,100000001	2,85952878	-5,5544464463988941E-005	-0,099980037245657741	0,000285895803	0,044251592839260755	-0,0016510864257321706	0,0014997027117051184
1	0	0	0	0	0	2	12881,88	-0,100000001	2,63728333	-5,5544515869269766E-005	-0,099980129775164352	0,000263675931	0,043918325747224045	-0,0016386517824459098	0,0018329698037418227
1	0	0	0	0	0	2	12893,88	-0,100000001	2,55781031	-5,5544505776216582E-005	-0,099980111607668403	0,000255730149	0,043585058818082285	-0,001626217145237479	0,0021662367328835859
1	0	0	0	0	0	2	12905,88	-0,100000001	2,51723361	-5,5544605551494496E-005	-0,099980291203170829	0,000251673744	0,043251791492865997	-0,0016137824932509747	0,0024995040580998691
1	0	0	0	0	0	2	12917,88	-0,100000001	2,48904943	-5,5544514352662701E-005	-0,09998012704527159	0,000248855475	0,042918524119801261	-0,0016013478394791808	0,0028327714311646086
1	0	0	0	0	0	2	12929,88	-0,100000001	2,46712852	-5,5544442159848077E-005	-0,099979997098203712	0,000246663491	0,04258525714176009	-0,001588913200446247	0,0031660384092057741
1	0	0	0	0	0	2	12941,88	-0,100000001	2,44938946	-5,554441353885664E-005	-0,099979945580418496	0,000244889816	0,04225199083641488	-0,0015764785865125043	0,0034993047145509882
1	0	0	0	0	0	2	12953,88	-0,100000001	2,43546915	-5,5544508713814944E-005	-0,09998011689534551	0,000243498493	0,041918724086736083	-0,0015640439560000778	0,0038325714642297888
1	0	0	0	0	0	2	12965,88	-0,100000001	2,42618895	-5,5544619792037542E-005	-0,099980316836148608	0,000242571143	0,041585456885478835	-0,0015516093086386525	0,0041658386654870374
1	0	0	0	0	0	2	12977,88	-0,100000001	2,42065144	-5,5544442321691245E-005	-0,099979997389521421	0,000242016729	0,041252189952353082	-0,0015391746712815731	0,004499105598612791
1	0	0	0	0	0	2	12989,88	-0,100000001	2,41645074	-5,5544499765253728E-005	-0,099980100787935142	0,000241596994	0,040918922781846854	-0,0015267400250675098	0,0048323727691190093
1	0	0	0	0	0	2	13001,88	-0,100000001	2,4128418	-5,5544485258973306E-005	-0,099980074676630054	0,000241236106	0,040585655878274246	-0,0015143053888130982	0,0051656396726916218
1	0	0	0	0	0	2	13013,88	-0,100000001	2,4095192	-5,5544530701720051E-005	-0,099980156473575194	0,000240904104	0,040252388751683821	-0,001501870744237592	0,005498906799282048
1	0	0	0	0	0	2	13025,88	-0,100000001	2,40655947	-5,5544718395090765E-005	-0,099980494321646554	0,000240609006	0,039919120993749811	-0,0014894360761058083	0,0058321745572160486
1	0	0	0	0	0	2	13037,88	-0,100000001	2,40344691	-5,5544577570839059E-005	-0,099980240837990426	0,000240297202	0,039585853455666726	-0,0014770014161769578	0,0061654420952991424
1	0	0	0	0	0	2	13049,88	-0,100000001	2,40060186	-5,5544668671571546E-005	-0,099980404819310886	0,000240013149	0,039252585769960717	-0,0014645667507400976	0,0064987097810051456
1	0	0	0	0	0	2	13061,88	-0,100000001	2,39769936	-5,554460111922688E-005	-0,099980283225089024	0,000239722664	0,038919317710298899	-0,0014521320713504432	0,0068319778406669645
1	0	0	0	0	0	2	13073,88	-0,100000001	2,39500713	-5,5544711835268474E-005	-0,099980482513966298	0,000239453962	0,038586049646836454	-0,0014396973918189827	0,0071652459041294067
1	0	0	0	0	0	2	13085,88	-0,100000001	2,39216185	-5,554455681848857E-005	-0,099980203483759091	0,000239168832	0,038252781582292019	-0,0014272627122471514	0,0074985139686738394
1	0	0	0	0	0	2	13097,88	-0,100000001	2,3892405	-5,5544527089844147E-005	-0,099980149972198477	0,00023887663	0,037919514334370963	-0,0014148280631446365	0,007831781216594903
1	0	0	0	0	0	2	13109,88	-0,100000001	2,38631892	-5,5544454789410029E-005	-0,099980019831415501	0,000238584209	0,037586247325125114	-0,0014023934229474141	0,0081650482258407565
1	0	0	0	0	0	2	13121,88	-0,100000001	2,38339734	-5,5544489890336992E-005	-0,0999800830130848	0,000238292268	0,037252980744550067	-0,0013899587987444758	0,008498314806415799
1	0	0	0	0	0	2	13133,88	-0,100000001	2,38018942	-5,5544486997028192E-005	-0,099980077805128896	0,00023797153	0,036919714170223162	-0,0013775241747746645	0,0088315813807427046
1	0	0	0	0	0	2	13145,88	-0,100000001	2,3771534	-5,5544376249528589E-005	-0,0999798784596272	0,000237667511	0,036586447440120346	-0,0013650895449926442	0,0091648481108455181
1	0	0	0	0	0	2	13157,88	-0,100000001	2,37381172	-5,5544589687966637E-005	-0,099980262648820326	0,000237334316	0,036253180537996038	-0,0013526549087922709	0,0094981150129698214
1	0	0	0	0	0	2	13169,88	-0,100000001	2,3704319	-5,5544585103789965E-005	-0,099980254397302221	0,000236996391	0,035919913118415258	-0,0013402202532849003	0,0098313824325506022
1	0	0	0	0	0	2	13181,88	-0,100000001	2,3671093	-5,5544524079395667E-005	-0,099980144553391155	0,000236663924	0,035586645775303917	-0,001327785600630708	0,010164649775661939
1	0	0	0	0	0	2	13193,88	-0,100000001	2,36350036	-5,5544420034107238E-005	-0,099979957271869722	0,000236302658	0,03525337865147145	-0,0013153509561581051	0,01049791689949441
1	0	0	0	0	0	2	13205,88	-0,100000001	2,3599298	-5,5544425651431085E-005	-0,099979967383052749	0,000235945699	0,034920111862006963	-0,0013029163241612211	0,010831183688958898
1	0	0	0	0	0	2	13217,88	-0,100000001	2,35605335	-5,5544530762152538E-005	-0,099980156582353677	0,000235558589	0,034586844544898144	-0,0012904816724772178	0,011164451006067709
1	0	0	0	0	0	2	13229,88	-0,100000001	2,35227275	-5,554464646263255E-005	-0,099980364843220224	0,000235181084	0,034253576782086502	-0,0012780470041634427	0,011497718768879357
1	0	0	0	0	0	2	13241,88	-0,100000001	2,34830093	-5,5544643598712154E-005	-0,099980359688163443	0,000234783976	0,033920309143051763	-0,0012656123404679504	0,011830986407914094
1	0	0	0	0	0	2	13253,88	-0,100000001	2,3442719	-5,5544622501979277E-005	-0,099980321714043789	0,000234381063	0,033587041565804275	-0,0012531776790778232	0,012164253985161584
1	0	0	0	0	0	2	13265,88	-0,100000001	2,34016657	-5,5544542820089395E-005	-0,099980178286640269	0,000233970277	0,03325377469706064	-0,0012407430441229277	0,012497520853905213
1	0	0	0	0	0	2	13277,88	-0,100000001	2,33588934	-5,5544582679453824E-005	-0,099980250033497114	0,0002335428	0,032920507525720371	-0,001228308397877745	0,012830788025245486
1	0	0	0	0	0	2	13289,88	-0,100000001	2,33155465	-5,554451450912489E-005	-0,099980127326903552	0,000233109124	0,032587240328657805	-0,0012158737506728285	0,013164055222308058
1	0	0	0	0	0	2	13301,88	-0,100000001	2,32710552	-5,5544403050094842E-005	-0,099979926700647027	0,000232663835	0,032253973529949216	-0,0012034391183310344	0,013497322021016645
1	0	0	0	0	0	2	13313,88	-0,100000001	2,32256103	-5,5544407058921126E-005	-0,099979933916534426	0,000232209495	0,031920707272478131	-0,0011910045061835397	0,013830588278487739
1	0	0	0	0	0	2	13325,88	-0,100000001	2,31784463	-5,5544372231596045E-005	-0,099979871227348531	0,000231737809	0,031587440631873344	-0,0011785698797408112	0,014163854919092523
1	0	0	0	0	0	2	13337,88	-0,100000001	2,31320453	-5,5544339816603392E-005	-0,09997981288036105	0,000231273749	0,031254174687777811	-0,0011661352792857795	0,014497120863188061
1	0	0	0	0	0	2	13349,88	-0,100000001	2,30848813	-5,554419380426407E-005	-0,099979550058147072	0,000230801597	0,030920909040477395	-0,0011537006899045726	0,014830386510488474
1	0	0	0	0	0	2	13361,88	-0,100000001	2,30371428	-5,5544228977213306E-005	-0,099979613369456474	0,000230324469	0,030587643811933549	-0,0011412661161477363	0,015163651739032317
1	0	0	0	0	0	2	13373,88	-0,100000001	2,29863501	-5,5544186378932659E-005	-0,099979536692550387	0,000229816462	0,030254378466190829	-0,0011288315380180525	0,015496917084775037
1	0	0	0	0	0	2	13385,88	-0,100000001	2,29365134	-5,5544216043419309E-005	-0,099979590088626982	0,000229318321	0,029921113419138573	-0,0011163969710329114	0,015830182131827293
1	0	0	0	0	0	2	13397,88	-0,100000001	2,28853393	-5,5544250584724877E-005	-0,099979652262977766	0,000228806821	0,029587848502104333	-0,0011039624088989174	0,016163447048861533
1	0	0	0	0	0	2	13409,88	-0,100000001	2,28345466	-5,5544065715538131E-005	-0,099979319498437594	0,000228298246	0,029254583793097338	-0,0010915278545266998	0,016496711757868525
1	0	0	0	0	0	2	13421,88	-0,100000001	2,27816534	-5,5544065516028141E-005	-0,099979319139319603	0,000227769415	0,028921319701644134	-0,0010790933231962442	0,016829975849321731
1	0	0	0	0	0	2	13433,88	-0,100000001	2,27270412	-5,554414857592848E-005	-0,099979468647142029	0,000227223747	0,028588055281200195	-0,0010666587795907019	0,017163240269765667
1	0	0	0	0	0	2	13445,88	-0,100000001	2,26733851	-5,5544024439735546E-005	-0,099979245201992038	0,000226686796	0,028254790722743776	-0,0010542242308357286	0,017496504828222086
1	0	0	0	0	0	2	13457,88	-0,100000001	2,26191545	-5,5543955796708666E-005	-0,09997912164454217	0,000226144315	0,027921526407030995	-0,0010417896911378467	0,01782976914393487
1	0	0	0	0	0	2	13469,88	-0,100000001	2,25630164	-5,5543992127809261E-005	-0,099979187040524045	0,000225583208	0,027588262667750592	-0,001029355172947432	0,01816303288321527
1	0	0	0	0	0	2	13481,88	-0,100000001	2,25057316	-5,5544116080635123E-005	-0,099979410155613274	0,000225010983	0,027254998457894829	-0,0010169206371992176	0,018496297093071037
1	0	0	0	0	0	2	13493,88	-0,100000001	2,24471116	-5,5544049243132275E-005	-0,099979289848106701	0,000224424628	0,026921734064603702	-0,0010044860946067835	0,01882956148636216
1	0	0	0	0	0	2	13505,88	-0,100000001	2,23896337	-5,5543910662747098E-005	-0,099979040403410368	0,000223849405	0,026588470663067222	-0,00099205158901804838	0,019162824887898643
1	0	0	0	0	0	2	13517,88	-0,100000001	2,2328341	-5,5543845741699142E-005	-0,099978923545522624	0,000223236348	0,026255207516191171	-0,00097961709293103642	0,019496088034774691
1	0	0	0	0	0	2	13529,88	-0,100000001	2,22668552	-5,5543724435485069E-005	-0,099978705194334643	0,000222621136	0,025921944917328093	-0,0009671826172911255	0,01982935063363777
1	0	0	0	0	0	2	13541,88	-0,100000001	2,22047973	-5,554368934697575E-005	-0,099978642035017101	0,000222000541	0,025588682320035021	-0,00095474814170979328	0,020162613230930845
1	0	0	0	0	0	2	13553,88	-0,100000001	2,2141974	-5,5543785702023238E-005	-0,099978815474104678	0,000221372829	0,025255419800265238	-0,00094231366902095936	0,020495875750700627
1	0	0	0	0	0	2	13565,88	-0,100000001	2,20778155	-5,5543836799760659E-005	-0,099978907450033165	0,000220731585	0,02492215691317065	-0,00092987918262674304	0,020829138637795213
1	0	0	0	0	0	2	13577,88	-0,100000001	2,20113659	-5,554380678675241E-005	-0,099978853426617664	0,000220067115	0,024588894063380294	-0,00091744469762439782	0,021162401487585571
1	0	0	0	0	0	2	13589,88	-0,100000001	2,19439602	-5,5543905614978739E-005	-0,0999790313174272	0,000219393594	0,024255631041976579	-0,00090501020621892736	0,021495664508989286
1	0	0	0	0	0	2	13601,88	-0,100000001	2,18750262	-5,5543817535870605E-005	-0,09997887277503063	0,000218704052	0,023922368044498333	-0,00089257571570614835	0,021828927506467533
1	0	0	0	0	0	2	13613,88	-0,100000001	2,18041849	-5,5543716494407917E-005	-0,09997869090039561	0,000217995388	0,023589105510667645	-0,00088014124249268326	0,022162190040298218
1	0	0	0	0	0	2	13625,88	-0,100000001	2,17341065	-5,5543537020269363E-005	-0,09997836784694231	0,000217294044	0,023255843788350061	-0,00086770679955786291	0,022495451762615805
1	0	0	0	0	0	2	13637,88	-0,100000001	2,16584897	-5,5543746690369312E-005	-0,099978745253126758	0,000216538858	0,022922581756558125	-0,00085527234507613862	0,022828713794407738
1	0	0	0	0	0	2	13649,88	-0,100000001	2,1584785	-5,5543605843351949E-005	-0,099978491728492454	0,000215801425	0,022589319634348429	-0,00084283788722080602	0,023161975916617437
1	0	0	0	0	0	2	13661,88	-0,100000001	2,15074492	-5,5543674580752851E-005	-0,099978615455815578	0,0002150285	0,022256057717805379	-0,00083040343703917261	0,023495237833160483
1	0	0	0	0	0	2	13673,88	-0,100000001	2,1429162	-5,5543579183104966E-005	-0,099978443740047296	0,000214245432	0,021922796380756486	-0,00081796900847924518	0,023828499170209376
1	0	0	0	0	0	2	13685,88	-0,100000001	2,13474345	-5,5543529689311987E-005	-0,099978354651218854	0,000213428139	0,021589535298016195	-0,0008055345894079136	0,02416176025294967
1	0	0	0	0	0	2	13697,88	-0,100000001	2,12645626	-5,5543557984547482E-005	-0,099978405582643366	0,000212599713	0,02125627405968087	-0,0007931001645311223	0,024495021491284995
1	0	0	0	0	0	2	13709,88	-0,100000001	2,11795902	-5,5543628005931776E-005	-0,099978531621136627	0,000211750434	0,020923012722278077	-0,0007806657359579904	0,024828282828687789
1	0	0	0	0	0	2	13721,88	-0,100000001	2,10928988	-5,5543630530436838E-005	-0,099978536165245786	0,000210883722	0,020589751452942128	-0,00076823130992452403	0,025161544098023734
1	0	0	0	0	0	2	13733,88	-0,100000001	2,10016251	-5,5543525540580352E-005	-0,099978347183501837	0,000209970778	0,020256490404163651	-0,00075579689212035354	0,025494805146802211
1	0	0	0	0	0	2	13745,88	-0,100000001	2,09086347	-5,5543542830894394E-005	-0,099978378306067469	0,000209041144	0,019923228998615782	-0,00074336246100463731	0,025828066552350083
1	0	0	0	0	0	2	13757,88	-0,100000001	2,08141136	-5,5543604411184794E-005	-0,099978489150591539	0,00020809636	0,019589967505168438	-0,00073092802660927347	0,026161328045797427
1	0	0	0	0	0	2	13769,88	-0,100000001	2,07157755	-5,5543533118648659E-005	-0,099978360824024947	0,000207112927	0,019256705991469174	-0,00071849359145828314	0,026494589559496691
1	0	0	0	0	0	2	13781,88	-0,100000001	2,0614953	-5,5543567974534298E-005	-0,099978423564619866	0,000206105047	0,018923444569948912	-0,00070605915974661542	0,026827850981016954
1	0	0	0	0	0	2	13793,88	-0,100000001	2,05103135	-5,554359830584791E-005	-0,099978478160985011	0,000205058997	0,018590183179110557	-0,00069362472917973094	0,027161112371855309
1	0	0	0	0	0	2	13805,88	-0,100000001	2,04026198	-5,5543578671498426E-005	-0,099978442819155507	0,000203982214	0,018256921600374349	-0,00068119029160212493	0,027494373950591514
1	0	0	0	0	0	2	13817,88	-0,100000001	2,02932048	-5,5543723571217722E-005	-0,099978703638653414	0,000202888827	0,017923659993160368	-0,00066875585296197491	0,027827635557805498
1	0	0	0	0	0	2	13829,88	-0,100000001	2,01786351	-5,5543608633180461E-005	-0,099978496750183834	0,000201742965	0,017590397830761408	-0,00065632139360712691	0,028160897720204454
1	0	0	0	0	0	2	13841,88	-0,100000001	2,00610113	-5,5543578502618605E-005	-0,09997844251517184	0,000200566865	0,017257136778255571	-0,00064388697566388339	0,028494158772710294
1	0	0	0	0	0	2	13853,88	-0,100000001	1,99382305	-5,5543541623900333E-005	-0,099978376133478144	0,000199339192	0,016923875344320982	-0,00063145254348902067	0,028827420206644883
1	0	0	0	0	0	2	13865,88	-0,100000001	1,98122036	-5,5543452736818125E-005	-0,09997821613672823	0,00019807888	0,016590614488113939	-0,00061901813286994918	0,029160681062851923
1	0	0	0	0	0	2	13877,88	-0,100000001	1,96806395	-5,5543566875573664E-005	-0,099978421586490688	0,000196763925	0,016257353494822	-0,00060658371713605594	0,029493942056143866
1	0	0	0	0	0	2	13889,88	-0,100000001	1,95454478	-5,5543357272942861E-005	-0,099978044301750669	0,000195411558	0,015924092676887763	-0,0005941493079449943	0,029827202874078099
1	0	0	0	0	0	2	13901,88	-0,100000001	1,94062459	-5,5543662056740787E-005	-0,099978592912593587	0,000194020919	0,015590831567080333	-0,00058171488786375142	0,03016046398388553
1	0	0	0	0	0	2	13913,88	-0,100000001	1,92605519	-5,5543587727679149E-005	-0,099978459120281011	0,000192564024	0,015257570113681933	-0,00056928045496266758	0,030493725437283936
1	0	0	0	0	0	2	13925,88	-0,100000001	1,9110657	-5,5543568398803475E-005	-0,099978424328304384	0,000191065337	0,014924308338392378	-0,00055684601005139187	0,030826987212573491
1	0	0	0	0	0	2	13937,88	-0,100000001	1,89546514	-5,5543574354714816E-005	-0,099978435048944934	0,000189505634	0,014591046930972749	-0,0005444115788658377	0,03116024861999312
1	0	0	0	0	0	2	13949,88	-0,100000001	1,87934899	-5,55435166147848E-005	-0,099978331117069632	0,000187894169	0,014257785596373027	-0,00053197715039729229	0,031493509954592838
1	0	0	0	0	0	2	13961,88	-0,100000001	1,86275554	-5,5543557486600346E-005	-0,099978404686338509	0,000186235324	0,013924524326414544	-0,00051954272434059834	0,031826771224551334
1	0	0	0	0	0	2	13973,88	-0,100000001	1,84560835	-5,5543588063783117E-005	-0,09997845972526816	0,000184521079	0,013591262949236822	-0,00050710829428341037	0,032160032601729056
1	0	0	0	0	0	2	13985,88	-0,100000001	1,82783103	-5,5543816669947571E-005	-0,099978871216369152	0,000182744479	0,013258000570333094	-0,00049467382685047846	0,032493294980632781
1	0	0	0	0	0	2	13997,88	-0,100000001	1,80959535	-5,5543794286333856E-005	-0,099978830925863987	0,000180921226	0,012924737774941499	-0,000482239343877824	0,032826557776024378
1	0	0	0	0	0	2	14009,88	-0,100000001	1,79100263	-5,5543756225456794E-005	-0,099978762416284454	0,000179062234	0,012591475312193078	-0,00046980487331653376	0,033159820238772794
1	0	0	0	0	0	2	14021,88	-0,100000001	1,77177405	-5,5543824603988064E-005	-0,09997888549764224	0,000177139998	0,01225821270537568	-0,00045737039737983622	0,033493082845590189
1	0	0	0	0	0	2	14033,88	-0,100000001	1,75170529	-5,5543698331134182E-005	-0,099978658206502477	0,000175133144	0,011924950071205128	-0,00044493592042255578	0,033826345479760736
1	0	0	0	0	0	2	14045,88	-0,100000001	1,73115921	-5,5543851787017453E-005	-0,099978934427095706	0,000173079447	0,011591687612785493	-0,0004325014500227783	0,034159607938180358
1	0	0	0	0	0	2	14057,88	-0,100000001	1,70969653	-5,5543872553855181E-005	-0,09997897180740407	0,000170933708	0,011258424590331243	-0,0004200669585781111	0,034492870960634611
1	0	0	0	0	0	2	14069,88	-0,100000001	1,68762279	-5,5544022219462528E-005	-0,099979241205500557	0,000168727245	0,010925160978479363	-0,00040763244514222579	0,03482613457248649
1	0	0	0	0	0	2	14081,88	-0,100000001	1,66520536	-5,5544083459509747E-005	-0,099979351437586893	0,000166486148	0,010591896716826339	-0,00039519790746138618	0,035159398834139514
1	0	0	0	0	0	2	14093,88	-0,100000001	1,64221513	-5,5543969318270682E-005	-0,099979145983354099	0,000164187266	0,010258632648856538	-0,00038276337700712794	0,035492662902109318
1	0	0	0	0	0	2	14105,88	-0,100000001	1,61891937	-5,554393856765495E-005	-0,099979090632245107	0,000161858086	0,0099253687341737382	-0,00037032885227221389	0,035825926816792115
1	0	0	0	0	0	2	14117,88	-0,100000001	1,59543264	-5,5543896088583603E-005	-0,09997901416991575	0,000159509786	0,0095921050197981427	-0,00035789433501103091	0,036159190531167712
1	0	0	0	0	0	2	14129,88	-0,100000001	1,57183135	-5,5544005962295661E-005	-0,099979211942599846	0,000157150454	0,0092588412858523546	-0,00034545981701965773	0,03649245426511351
1	0	0	0	0	0	2	14141,88	-0,100000001	1,54800081	-5,554397398647335E-005	-0,099979154386118989	0,000154767811	0,0089255776421426176	-0,0003330253023951129	0,036825717908823245
1	0	0	0	0	0	2	14153,88	-0,100000001	1,52407491	-5,5543919971419699E-005	-0,099979057159021248	0,000152375578	0,0085923139739552397	-0,0003205907868572745	0,037158981577010618
1	0	0	0	0	0	2	14165,88	-0,100000001	1,50001538	-5,5543960344874195E-005	-0,099979129831240218	0,000149970234	0,0082590501624791245	-0,00030815626597314048	0,037492245388486726
1	0	0	0	0	0	2	14177,88	-0,100000001	1,47591758	-5,554378183434407E-005	-0,099978808512282099	0,00014756048	0,0079257871231625562	-0,0002957217738993175	0,037825508427803302
1	0	0	0	0	0	2	14189,88	-0,100000001	1,45185804	-5,5543880213465958E-005	-0,099978985594703642	0,000145155296	0,0075925242156500698	-0,00028328728674328192	0,038158771335315789
1	0	0	0	0	0	2	14201,88	-0,100000001	1,42774117	-5,5543891669147539E-005	-0,099979006214930752	0,000142744146	0,0072592609973875264	-0,000270852787992744	0,03849203455357833
1	0	0	0	0	0	2	14213,88	-0,100000001	1,40392983	-5,5543919723480941E-005	-0,099979056712731482	0,000140363583	0,0069259975634004582	-0,00025841828119323392	0,038825297987565408
1	0	0	0	0	0	2	14225,88	-0,100000001	1,38046217	-5,5543851643386816E-005	-0,099978934168560563	0,000138017131	0,0065927343575865933	-0,00024598378290717293	0,03915856119337927
1	0	0	0	0	0	2	14237,88	-0,100000001	1,3579874	-5,5543880791299872E-005	-0,09997898663480471	0,000135770199	0,0062594707567094182	-0,00023354926988076858	0,039491824794256442
1	0	0	0	0	0	2	14249,88	-0,100000001	1,33631468	-5,5544017882810701E-005	-0,099979233399527181	0,000133603724	0,0059262068854312179	-0,00022111474676533846	0,039825088665534637
1	0	0	0	0	0	2	14261,88	-0,100000001	1,31672335	-5,5543901164912512E-005	-0,099979023307307904	0,000131644716	0,0055929434034263994	-0,0002086802381742216	0,04015835214753945
1	0	0	0	0	0	2	14273,88	-0,100000001	1,299137	-5,55438736602664E-005	-0,099978973798944294	0,000129886379	0,0052596800554525594	-0,00019624573458398074	0,040491615495513286
1	0	0	0	0	0	2	14285,88	-0,100000001	1,28399467	-5,5543899459143475E-005	-0,099979020236923597	0,000128372529	0,0049264170184191802	-0,00018381124259534656	0,040824878532546662
1	0	0	0	0	0	2	14297,88	-0,100000001	1,27127743	-5,5543845455265709E-005	-0,099978923029942438	0,000127100953	0,0045931536744893498	-0,00017137673915599315	0,041158141876476493
1	0	0	0	0	0	2	14309,88	-0,100000001	1,26060343	-5,5543863079614112E-005	-0,099978954753769946	0,000126033818	0,0042598905253201805	-0,00015894224298342186	0,041491405025645651
1	0	0	0	0	0	2	14321,88	-0,100000001	1,25155246	-5,5543844500763552E-005	-0,099978921311838541	0,000125128863	0,0039266272005238547	-0,00014650774025796525	0,041824668350441984
1	0	0	0	0	0	2	14333,88	-0,100000001	1,24376166	-5,5544024995631648E-005	-0,099979246202605043	0,00012435035	0,0035933633213919155	-0,00013407321684950155	0,04215793222957392
1	0	0	0	0	0	2	14345,88	-0,100000001	1,23721218	-5,554393666196201E-005	-0,099979087201997773	0,000123695339	0,0032600991751889472	-0,00012163868347625872	0,042491196375776877
1	0	0	0	0	0	2	14357,88	-0,100000001	1,23121631	-5,5543882516109286E-005	-0,099978989739461696	0,000123095757	0,0029268357567222669	-0,00010920417725583522	0,042824459794243546
1	0	0	0	0	0	2	14369,88	-0,100000001	1,22579336	-5,5543936667342976E-005	-0,099979087211683507	0,000122553698	0,0025935720624143962	-9,6769660743406029E-005	0,043157723488551418
1	0	0	0	0	0	2	14381,88	-0,100000001	1,22090507	-5,5543933409783578E-005	-0,099979081348076506	0,000122064965	0,0022603085773900237	-8,4335152039625549E-005	0,043490986973575782
1	0	0	0	0	0	2	14393,88	-0,100000001	1,21628416	-5,5543911705414451E-005	-0,099979042280211622	0,000121602927	0,0019270449522173318	-7,1900638106722842E-005	0,043824250598748474
1	0	0	0	0	0	2	14405,88	-0,100000001	1,21191144	-5,554393381997943E-005	-0,099979082086429069	0,000121165795	0,0015937810193414566	-5,9466112693000653E-005	0,044157514531624358
1	0	0	0	0	0	2	14417,88	-0,100000001	1,20774877	-5,5543892060303027E-005	-0,099979006919010637	0,000120749522	0,0012605177122423296	-4,7031610627850298E-005	0,044490777838723488
1	0	0	0	0	0	2	14429,88	-0,100000001	1,20391059	-5,5543798430926266E-005	-0,099978838386130406	0,000120365585	0,00092725461040173107	-3,4597116221171622E-005	0,04482404094056407
1	0	0	0	0	0	2	14441,88	-0,100000001	1,20001531	-5,5543772389491405E-005	-0,09997879151154711	0,000119976081	0,00059399230092334221	-2,216265137859233E-005	0,04515730325004247
1	0	0	0	0	0	2	14441,95	-0,100000001	1,20005345	-1,9051464854015245E-006	-0,099978533972360883	0,000119979588	0,00059208715443794061	-2,2091567801725306E-005	0,045159208396527872