File: Experimentelles/Rohdaten/Batteriemessungen/AlteZelle/Batterietest Li vs LATP/ECLab-Export/LATP vs Li Batterietest Probe1_02_GCPL_C01_loop7.mpt
EC-Lab ASCII FILE
Nb header lines : 3
mode	ox/red	error	control changes	Ns changes	counter inc.	Ns	time/s	control/V/mA	Ewe/V	dq/mA.h	<I>/mA	P/W	(Q-Qo)/mA.h	x	Capacity/mA.h
1	1	0	1	1	0	1	24073,89	0,100000001	1,21246517	0	0	0	0	0	0
1	1	0	1	0	0	1	24085,89	0,100000001	1,52705371	5,5562967022260032E-005	0,10001334185094894	0,000152725741	0,00033200543955854086	-1,2387569335990182E-005	0,00033200543955854086
1	1	0	1	0	0	1	24097,89	0,100000001	1,68832934	5,5562913478662573E-005	0,10001324547247235	0,000168855302	0,00066538320393835354	-2,4826341956172362E-005	0,00066538320393835354
1	1	0	1	0	0	1	24109,89	0,100000001	1,84156597	5,5562863902085357E-005	0,10001315623463227	0,000184180826	0,00099876070890260915	-3,7265104897211322E-005	0,00099876070890260915
1	1	0	1	0	0	1	24121,89	0,100000001	2,00163865	5,5562791407108307E-005	0,100013025743672	0,000200189941	0,0013321376079239765	-4,9703845229706426E-005	0,0013321376079239765
1	1	0	1	0	0	1	24133,89	0,100000001	2,16680956	5,556296727475193E-005	0,10001334230543435	0,000216709872	0,0016655148782346797	-6,2142599415505843E-005	0,0016655148782346797
1	1	0	1	0	0	1	24145,89	0,100000001	2,32546926	5,5562934558838611E-005	0,10001328341678966	0,000232577819	0,0019988928103013981	-7,4581378292311923E-005	0,0019988928103013981
1	1	0	1	0	0	1	24157,89	0,100000001	2,43921757	5,5562948229412243E-005	0,1000133080238225	0,000243954215	0,0023322705253600234	-8,7020149072254298E-005	0,0023322705253600234
1	1	0	1	0	0	1	24169,89	0,100000001	2,48831058	5,5562972929328685E-005	0,10001335248367262	0,000248864293	0,0026656483375576621	-9,9458923476583872E-005	0,0026656483375576621
1	1	0	1	0	0	1	24181,89	0,100000001	2,51025057	5,5562925201737216E-005	0,10001326657400694	0,000251058373	0,0029990264313880749	-0,0001118977083890109	0,0029990264313880749
1	1	0	1	0	0	1	24193,89	0,100000001	2,52348328	5,5562975065161786E-005	0,10001335632817226	0,000252382044	0,0033324042400346848	-0,0001243364826608468	0,0033324042400346848
1	1	0	1	0	0	1	24205,89	0,100000001	2,53297353	5,5562998400380211E-005	0,10001339833156594	0,000253331295	0,0036657818236269869	-0,00013677524853560389	0,0036657818236269869
1	1	0	1	0	0	1	24217,89	0,100000001	2,54032493	5,556289492174983E-005	0,10001321207002902	0,00025406605	0,0039991595986582317	-0,00014921402155320531	0,0039991595986582317
1	1	0	1	0	0	1	24229,89	0,100000001	2,54656911	5,556290395061175E-005	0,10001322832198066	0,000254690589	0,0043325371227758605	-0,0001616527852088824	0,0043325371227758605
1	1	0	1	0	0	1	24241,89	0,100000001	2,55197287	5,5562787159863443E-005	0,10001301809863115	0,000255230494	0,0046659143553348864	-0,00017409153798611597	0,0046659143553348864
1	1	0	1	0	0	1	24253,89	0,100000001	2,55686116	5,5562847824560275E-005	0,10001312729508678	0,000255719671	0,0049992915605014381	-0,00018653028974129952	0,0049992915605014381
1	1	0	1	0	0	1	24265,89	0,100000001	2,56142497	5,5562852640532787E-005	0,10001313596383741	0,000256176136	0,0053326688897371283	-0,00019896904612566944	0,0053326688897371283
1	1	0	1	0	0	1	24277,89	0,100000001	2,56568313	5,556285400274727E-005	0,1000131384158235	0,000256602012	0,0056660462580188269	-0,00021140780396689843	0,0056660462580188269
1	1	0	1	0	0	1	24289,89	0,100000001	2,56952119	5,5562909504191744E-005	0,10001323831842477	0,000256986124	0,0059994235277690816	-0,00022384655813178672	0,0059994235277690816
1	1	0	1	0	0	1	24301,89	0,100000001	2,57328296	5,556288511430224E-005	0,10001319441662314	0,000257362262	0,0063328006164640179	-0,00023628530554125776	0,0063328006164640179
1	1	0	1	0	0	1	24313,89	0,100000001	2,57693005	5,5562882018172077E-005	0,10001318884358877	0,000257726992	0,0066661776093871219	-0,00024872404937735286	0,0066661776093871219
1	1	0	1	0	0	1	24325,89	0,100000001	2,58040524	5,556300625080864E-005	0,10001341246233728	0,000258075132	0,0069995553541309299	-0,00026116282126488931	0,0069995553541309299
1	1	0	1	0	0	1	24337,89	0,100000001	2,58380413	5,556288670500119E-005	0,10001319727988128	0,000258414511	0,0073329326567523174	-0,00027360157665624381	0,0073329326567523174
1	1	0	1	0	0	1	24349,89	0,100000001	2,58716488	5,5562948159459565E-005	0,10001330789790768	0,000258750923	0,0076663103886384909	-0,00028604034806404464	0,0076663103886384909
1	1	0	1	0	0	1	24361,89	0,100000001	2,59050655	5,5562899560978016E-005	0,10001322042063984	0,000259084889	0,0079996875289754726	-0,00029847909740034976	0,0079996875289754726
1	1	0	1	0	0	1	24373,89	0,100000001	2,59388614	5,5563012815184064E-005	0,1000134242782132	0,000259423425	0,0083330652339700173	-0,00031091786780478771	0,0083330652339700173
1	1	0	1	0	0	1	24385,89	0,100000001	2,59707499	5,5563021403633888E-005	0,10001343973742307	0,000259742403	0,0086664431435248077	-0,00032335664584164352	0,0086664431435248077
1	1	0	1	0	0	1	24397,89	0,100000001	2,60026383	5,5563028028441798E-005	0,10001345166207746	0,000260061352	0,0089998212838770611	-0,00033579543248986291	0,0089998212838770611
1	1	0	1	0	0	1	24409,89	0,100000001	2,60343361	5,5563016857951878E-005	0,10001343155519536	0,000260378321	0,0093331993143146227	-0,00034823421503701747	0,0093331993143146227
1	1	0	1	0	0	1	24421,89	0,100000001	2,60666084	5,556292189243767E-005	0,1000132606172677	0,000260700646	0,0096665770074151475	-0,0003606729849976736	0,0096665770074151475
1	1	0	1	0	0	1	24433,89	0,100000001	2,60988784	5,5562953522635827E-005	0,10001331755162509	0,000261023553	0,0099999546814608115	-0,00037311175424736723	0,0099999546814608115
1	1	0	1	0	0	1	24445,89	0,100000001	2,61311483	5,5562905472599802E-005	0,10001323106155918	0,000261346053	0,010333332297942046	-0,00038555052134925466	0,010333332297942046
1	1	0	1	0	0	1	24457,89	0,100000001	2,61624646	5,5563098895053069E-005	0,10001357922197928	0,000261660171	0,010666710161755238	-0,00039798929767942989	0,010666710161755238
1	1	0	1	0	0	1	24469,89	0,100000001	2,61954975	5,5562953686962528E-005	0,10001331784741314	0,000261989859	0,011000088626547165	-0,00041042809643292973	0,011000088626547165
1	1	0	1	0	0	1	24481,89	0,100000001	2,62281513	5,556283132193817E-005	0,10001309759036662	0,00026231588	0,011333466158603389	-0,0004228668603848064	0,011333466158603389
1	1	0	1	0	0	1	24493,89	0,100000001	2,62604213	5,556289364935623E-005	0,1000132097797205	0,000262638903	0,011666843320611626	-0,00043530561052969517	0,011666843320611626
1	1	0	1	0	0	1	24505,89	0,100000001	2,62932634	5,5562985591590406E-005	0,10001337527574402	0,000262967806	0,012000220707292944	-0,00044774436905743878	0,012000220707292944
1	1	0	1	0	0	1	24517,89	0,100000001	2,63278246	5,5562863168203168E-005	0,10001315491364432	0,00026331289	0,012333598099208714	-0,00046018312778048678	0,012333598099208714
1	1	0	1	0	0	1	24529,89	0,100000001	2,63618135	5,5562903564423322E-005	0,10001322762684147	0,000263652997	0,01266697548588631	-0,00047262188630809146	0,01266697548588631
1	1	0	1	0	0	1	24541,89	0,100000001	2,63948488	5,5562949801484742E-005	0,10001331085355304	0,000263983617	0,013000353106431421	-0,00048506065356160742	0,013000353106431421
1	1	0	1	0	0	1	24553,89	0,100000001	2,6430366	5,5562796588159264E-005	0,10001303506956384	0,000264338101	0,013333730426909366	-0,00049749940961921421	0,013333730426909366
1	1	0	1	0	0	1	24565,89	0,100000001	2,64649272	5,5562925231953466E-005	0,10001326662839619	0,000264684379	0,01366710780924907	-0,00050993816798496627	0,01366710780924907
1	1	0	1	0	0	1	24577,89	0,100000001	2,65002537	5,556284778358208E-005	0,10001312722132603	0,000265037321	0,014000484939947482	-0,00052237691696164326	0,014000484939947482
1	1	0	1	0	0	1	24589,89	0,100000001	2,65365338	5,5562852576375008E-005	0,10001313584835339	0,000265400187	0,014333862269212147	-0,00053481567334709434	0,014333862269212147
1	1	0	1	0	0	1	24601,89	0,100000001	2,65716672	5,5562897976073952E-005	0,10001321756781248	0,000265751791	0,014667239638570042	-0,0005472544312284777	0,014667239638570042
1	1	0	1	0	0	1	24613,89	0,100000001	2,66085219	5,5562922927240531E-005	0,10001326247991288	0,000266120507	0,01500061691771465	-0,00055969318574388186	0,01500061691771465
1	1	0	1	0	0	1	24625,89	0,100000001	2,6646328	5,5562862523727942E-005	0,1000131537535889	0,000266498333	0,015333994328618221	-0,00057213194517539034	0,015333994328618221
1	1	0	1	0	0	1	24637,89	0,100000001	2,66827989	5,5562879377355174E-005	0,10001318409011829	0,000266863179	0,015667371636037373	-0,00058457070074575578	0,015667371636037373
1	1	0	1	0	0	1	24649,89	0,100000001	2,67213726	5,5562864041990701E-005	0,10001315648646189	0,000267248892	0,016000749326213952	-0,00059700947059731571	0,016000749326213952
1	1	0	1	0	0	1	24661,89	0,100000001	2,6759944	5,5562976267602707E-005	0,10001335849256595	0,000267635187	0,016334127056377389	-0,00060944824194083878	0,016334127056377389
1	1	0	1	0	0	1	24673,89	0,100000001	2,6799469	5,5563026132682963E-005	0,1000134482497115	0,000268030737	0,016667504826236278	-0,00062188701476545267	0,016667504826236278
1	1	0	1	0	0	1	24685,89	0,100000001	2,68384242	5,5563004843890669E-005	0,1000134099298849	0,000268420234	0,017000882795768237	-0,00063432579504013722	0,017000882795768237
1	1	0	1	0	0	1	24697,89	0,100000001	2,68779492	5,556299942235152E-005	0,10001340017111432	0,000268815522	0,017334260795884838	-0,00064676457645597606	0,017334260795884838
1	1	0	1	0	0	1	24709,89	0,100000001	2,69199586	5,5562905562834605E-005	0,10001323122398182	0,000269235199	0,017667638464574774	-0,00065920334550584026	0,017667638464574774
1	1	0	1	0	0	1	24721,89	0,100000001	2,69610119	5,5562680563992928E-005	0,1000128262260619	0,00026964469	0,018001015617331043	-0,00067164209530552563	0,018001015617331043
1	1	0	1	0	0	1	24733,89	0,100000001	2,7004931	5,5562848034004371E-005	0,10001312767208614	0,000270084769	0,018334392728741558	-0,00068408084356254541	0,018334392728741558
1	1	0	1	0	0	1	24745,89	0,100000001	2,70469403	5,5562856237921446E-005	0,10001314243913707	0,000270504941	0,018667770027173235	-0,00069651959879757619	0,018667770027173235
1	1	0	1	0	0	1	24757,89	0,100000001	2,70897126	5,5562833088553613E-005	0,10001310077027446	0,000270932622	0,019001147377737869	-0,0007089583559777577	0,019001147377737869
1	1	0	1	0	0	1	24769,89	0,100000001	2,71343946	5,5562861075003942E-005	0,10001315114588566	0,000271379628	0,01933452432985497	-0,00072139709829132595	0,01933452432985497
1	1	0	1	0	0	1	24781,89	0,100000001	2,71785045	5,5563047446310522E-005	0,10001348661424157	0,000271821686	0,019667902318594528	-0,00073383587928267174	0,019667902318594528
1	1	0	1	0	0	1	24793,89	0,100000001	2,72250962	5,5562922044760653E-005	0,10001326089144907	0,000272287056	0,020001280194702006	-0,00074627465607156352	0,020001280194702006
1	1	0	1	0	0	1	24805,89	0,100000001	2,7271688	5,5562928749041427E-005	0,10001327295915461	0,000272753066	0,020334658027171021	-0,00075871343123224538	0,020334658027171021
1	1	0	1	0	0	1	24817,89	0,100000001	2,73180866	5,5562918995403578E-005	0,10001325540260627	0,000273217069	0,020668035602171565	-0,00077115219678643238	0,020668035602171565
1	1	0	1	0	0	1	24829,89	0,100000001	2,73665881	5,5562891243232627E-005	0,10001320544869795	0,000273702026	0,021001413005194493	-0,00078359095592390349	0,021001413005194493
1	1	0	1	0	0	1	24841,89	0,100000001	2,74154711	5,5562897967795533E-005	0,10001321755291133	0,000274190941	0,021334790402582301	-0,00079602971485112038	0,021334790402582301
1	1	0	1	0	0	1	24853,89	0,100000001	2,74658823	5,5562819305393427E-005	0,10001307596058582	0,000274694728	0,021668167360362253	-0,00080846845737597722	0,021668167360362253
1	1	0	1	0	0	1	24865,89	0,100000001	2,75153375	5,5562866547041466E-005	0,10001316099555331	0,000275189581	0,022001544517986646	-0,00082090720735729907	0,022001544517986646
1	1	0	1	0	0	1	24877,89	0,100000001	2,75682306	5,5563082598149779E-005	0,10001354988755299	0,000275719649	0,022334922345516342	-0,00083334598233368819	0,022334922345516342
1	1	0	1	0	0	1	24889,89	0,100000001	2,76209331	5,5563077362875142E-005	0,10001354046405853	0,000276246719	0,02266830049447153	-0,00084578476930289459	0,02266830049447153
1	1	0	1	0	0	1	24901,89	0,100000001	2,7675736	5,5563078909284538E-005	0,10001354324759549	0,000276794832	0,023001678827564506	-0,00085822356314252966	0,023001678827564506
1	1	0	1	0	0	1	24913,89	0,100000001	2,77309203	5,5563043357597459E-005	0,10001347925455798	0,000277346582	0,023335056914549901	-0,00087066234779955994	0,023335056914549901
1	1	0	1	0	0	1	24925,89	0,100000001	2,77874398	5,5562960486859085E-005	0,10001333008722709	0,000277911429	0,023668434961907728	-0,00088310113097803226	0,023668434961907728
1	1	0	1	0	0	1	24937,89	0,100000001	2,78452969	5,5562919187462989E-005	0,10001325574831323	0,000278489868	0,024001812447352704	-0,00089553989319078067	0,024001812447352704
1	1	0	1	0	0	1	24949,89	0,100000001	2,79052567	5,5562915278805626E-005	0,10001324871272989	0,000279089552	0,024335190663226525	-0,00090797868265681139	0,024335190663226525
1	1	0	1	0	0	1	24961,89	0,100000001	2,79680777	5,5563059907406566E-005	0,10001350904421474	0,000279718544	0,024668568761816205	-0,00092041746774681306	0,024668568761816205
1	1	0	1	0	0	1	24973,89	0,100000001	2,80305195	5,556315618670649E-005	0,10001368234695667	0,000280343549	0,025001947358625795	-0,00093285627142606938	0,025001947358625795
1	1	0	1	0	0	1	24985,89	0,100000001	2,80954409	5,55630898868872E-005	0,10001356300728053	0,000280992506	0,025335325909217363	-0,00094529507338086925	0,025335325909217363
1	1	0	1	0	0	1	24997,89	0,100000001	2,8163991	5,5563018929627206E-005	0,10001343528421098	0,000281677756	0,025668704071564554	-0,00095773386084974938	0,025668704071564554
1	1	0	1	0	0	1	25009,89	0,100000001	2,82342601	5,5563118388255437E-005	0,10001361430974398	0,00028238105	0,026002082599751814	-0,00097017266196861427	0,026002082599751814
1	1	0	1	0	0	1	25021,89	0,100000001	2,83058667	5,5563162840074963E-005	0,10001369432302008	0,000283097441	0,026335461178413862	-0,00098261146497076147	0,026335461178413862
1	1	0	1	0	0	1	25033,89	0,100000001	2,83803368	5,5563150638921389E-005	0,10001367236094339	0,000283842179	0,026668839760656326	-0,00099505026810649894	0,026668839760656326
1	1	0	1	0	0	1	25045,89	0,100000001	2,84572887	5,5563018400635987E-005	0,10001343433202678	0,000284611131	0,027002218243656227	-0,0010074890675393629	0,027002218243656227
1	1	0	1	0	0	1	25057,89	0,100000001	2,85369158	5,5563199577232198E-005	0,1000137604499039	0,00028540843	0,02733559697523937	-0,0010199278762472016	0,02733559697523937
1	1	0	1	0	0	1	25069,89	0,100000001	2,86180687	5,5563033515380493E-005	0,1000134615385672	0,000286219205	0,027668975229715478	-0,0010323666671535357	0,027668975229715478
1	1	0	1	0	0	1	25081,89	0,100000001	2,87041879	5,5562964435666803E-005	0,10001333719508107	0,000287080155	0,028002353153777376	-0,0010448054457316709	0,028002353153777376
1	1	0	1	0	0	1	25093,89	0,100000001	2,87920237	5,5563065278447334E-005	0,10001351871208822	0,000287959148	0,028335731386947306	-0,0010572442358430427	0,028335731386947306
1	1	0	1	0	0	1	25105,89	0,100000001	2,88836789	5,556302320957184E-005	0,10001344298811142	0,000288875628	0,028669109550106198	-0,0010696830233422085	0,028669109550106198
1	1	0	1	0	0	1	25117,89	0,100000001	2,89782	5,5563102243261203E-005	0,100013585248754	0,000289821357	0,029002487954372499	-0,001082121819837416	0,029002487954372499
1	1	0	1	0	0	1	25129,89	0,100000001	2,9077301	5,5562954828557043E-005	0,1000133199022833	0,000290811731	0,029335865927124365	-0,0010945606002322394	0,029335865927124365
1	1	0	1	0	0	1	25141,89	0,100000001	2,91773582	5,5562966557426586E-005	0,10001334101424872	0,000291812496	0,029669243827764122	-0,0011069993779364634	0,029669243827764122
1	1	0	1	0	0	1	25153,89	0,100000001	2,92850542	5,5563003981279002E-005	0,1000134083771839	0,000292889803	0,030002621574974067	-0,0011194381499160147	0,030002621574974067
1	1	0	1	0	0	1	25165,89	0,100000001	2,93956137	5,556284434224169E-005	0,10001312102691325	0,000293994701	0,030335999021797306	-0,0011318769106877341	0,030335999021797306
1	1	0	1	0	0	1	25177,89	0,100000001	2,9511137	5,5562903713434938E-005	0,10001322789506238	0,000295150414	0,03066937626011977	-0,0011443156636800094	0,03066937626011977
1	1	0	1	0	0	1	25189,89	0,100000001	2,96306729	5,5563005088518061E-005	0,10001341037021424	0,000296346465	0,031002753984050797	-0,001156754434790993	0,031002753984050797
1	1	0	1	0	0	1	25201,89	0,100000001	2,97572708	5,5562821007851091E-005	0,10001307902500968	0,000297611638	0,031336131422610106	-0,0011691931952543741	0,031336131422610106
1	1	0	1	0	0	1	25213,89	0,100000001	2,98897886	5,5562893506139514E-005	0,1000132095219304	0,000298937375	0,031669508621738374	-0,0011816319467842614	0,031669508621738374
1	1	0	1	0	0	1	25225,89	0,100000001	3,00284195	5,556291674822569E-005	0,10001325135768602	0,000300323998	0,032002886295498426	-0,0011940707160232982	0,032002886295498426
1	1	0	1	0	0	1	25237,89	0,100000001	3,01727772	5,5562913631813395E-005	0,10001324574814382	0,000301767752	0,032336263856386739	-0,0012065094810509392	0,032336263856386739
1	1	0	1	0	0	1	25249,89	0,100000001	3,03243899	5,5562946147802803E-005	0,10001330427692547	0,000303284236	0,032669641863994483	-0,0012189482627462826	0,032669641863994483
1	1	0	1	0	0	1	25261,89	0,100000001	3,04851699	5,5563016102959712E-005	0,10001343019620944	0,00030489263	0,03300301956939136	-0,0012313870331657322	0,03300301956939136
1	1	0	1	0	0	1	25273,89	0,100000001	3,06539679	5,5562931971417536E-005	0,10001327875943168	0,00030658039	0,033336397188609037	-0,0012438258003697195	0,033336397188609037
1	1	0	1	0	0	1	25285,89	0,100000001	3,08340335	5,5562957971874214E-005	0,10001332556025427	0,000308381423	0,03366977517936439	-0,0012562645814362774	0,03366977517936439
1	1	0	1	0	0	1	25297,89	0,100000001	3,10211635	5,5562943978442086E-005	0,10001330037207613	0,000310252886	0,034003152837631795	-0,001268703350097263	0,034003152837631795
1	1	0	1	0	0	1	25309,89	0,100000001	3,12208962	5,5562945894483059E-005	0,10001330382094992	0,000312250486	0,034336530626317056	-0,0012811421236243144	0,034336530626317056
1	1	0	1	0	0	1	25321,89	0,100000001	3,1432848	5,5562957700341939E-005	0,10001332507149616	0,000314370351	0,034669908525311059	-0,001293580901267133	0,034669908525311059
1	1	0	1	0	0	1	25333,89	0,100000001	3,16560674	5,5562866276750963E-005	0,10001316050903042	0,000316602323	0,035003285978965235	-0,0013060196622937242	0,035003285978965235
1	1	0	1	0	0	1	25345,89	0,100000001	3,18945646	5,556288156078921E-005	0,1000131880202996	0,000318987702	0,03533666339296992	-0,001318458421840939	0,03533666339296992
1	1	0	1	0	0	1	25357,89	0,100000001	3,21481442	5,5562999960862925E-005	0,10001340114043488	0,000321524538	0,035670040739729382	-0,0013308971788791442	0,035670040739729382
1	1	0	1	0	0	1	25369,89	0,100000001	3,24181461	5,5562951711730829E-005	0,10001331429199605	0,000324224617	0,036003418490201446	-0,0013433359509804096	0,036003418490201446
1	1	0	1	0	0	1	25381,89	0,100000001	3,27060986	5,5562877045737376E-005	0,10001317989320619	0,000327104091	0,03633679568471449	-0,0013557747023380966	0,03633679568471449
1	1	0	1	0	0	1	25393,89	0,100000001	3,30123806	5,5562891094634931E-005	0,10001320518122211	0,000330167386	0,036670173052796269	-0,0013682134601718661	0,036670173052796269
1	1	0	1	0	0	1	25405,89	0,100000001	3,3338902	5,5562759338567654E-005	0,10001296802029814	0,000333432254	0,037003550060500083	-0,0013806522045594493	0,037003550060500083
1	1	0	1	0	0	1	25417,89	0,100000001	3,36881495	5,5562769531789754E-005	0,10001298636809814	0,000336925237	0,037336926994733299	-0,0013930909462057462	0,037336926994733299
1	1	0	1	0	0	1	25429,89	0,100000001	3,40604997	5,5562909346073862E-005	0,10001323803381258	0,000340650091	0,037670304273011155	-0,0014055297006888107	0,037670304273011155
1	1	0	1	0	0	1	25441,89	0,100000001	3,44561458	5,556270126418935E-005	0,10001286348641592	0,000344605767	0,038003680994835782	-0,0014179684344098573	0,038003680994835782
1	1	0	1	0	0	1	25453,89	0,100000001	3,48760438	5,5562783031000032E-005	0,10001301066667694	0,000348805828	0,038337057800685158	-0,0014304071712659798	0,038337057800685158
1	1	0	1	0	0	1	25465,89	0,100000001	3,53226733	5,5562836666074061E-005	0,10001310720981136	0,000353273033	0,038670434728867277	-0,0014428459126865018	0,038670434728867277
1	1	0	1	0	0	1	25477,89	0,100000001	3,58010006	5,5562938814361888E-005	0,10001329107673168	0,000358057587	0,039003812196961926	-0,0014552846742518864	0,039003812196961926
1	1	0	1	0	0	1	25489,89	0,100000001	3,63077784	5,5562896048443181E-005	0,10001321409807704	0,000363125757	0,039337189614222093	-0,0014677234339205677	0,039337189614222093
1	1	0	1	0	0	1	25501,89	0,100000001	3,68453002	5,55628115526504E-005	0,10001306200564822	0,000368501118	0,039670566719896902	-0,0014801621819635808	0,039670566719896902
1	1	0	1	0	0	1	25513,89	0,100000001	3,74149013	5,556279352762633E-005	0,10001302956060448	0,000374197756	0,04000394362132233	-0,0014926009223857747	0,04000394362132233
1	1	0	1	0	0	1	25525,89	0,100000001	3,80144811	5,5562870872517427E-005	0,10001316878141014	0,000380194862	0,040337320861670099	-0,0015050396754536166	0,040337320861670099
1	1	0	1	0	0	1	25537,89	0,100000001	3,86461401	5,5562929438634048E-005	0,10001327420042134	0,000386512693	0,040670698573780365	-0,0015174784461235514	0,040670698573780365
1	1	0	1	0	0	1	25549,89	0,100000001	3,93020511	5,5563025126026739E-005	0,10001344643773027	0,000393073366	0,041004076603909549	-0,0015299172286592003	0,041004076603909549
1	1	0	1	0	0	1	25561,89	0,100000001	3,99862218	5,5562920379969811E-005	0,10001325789482552	0,00039991524	0,041337454331822906	-0,0015423559999187699	0,041337454331822906
1	1	0	1	0	0	1	25573,89	0,100000001	4,0692544	5,556253478303552E-005	0,10001256382033539	0,000406976556	0,041670831366684909	-0,0015547947453196618	0,041670831366684909
1	1	0	1	0	0	1	25585,89	0,100000001	4,13946629	5,5562363635334701E-005	0,10001225575447019	0,000413997361	0,042004205302335526	-0,0015672333750848099	0,042004205302335526
1	1	0	1	0	0	1	25597,89	0,100000001	4,20661736	5,5562836533619302E-005	0,10001310697139278	0,000420716882	0,042337582525594989	-0,0015796721275150643	0,042337582525594989
1	1	0	1	0	0	1	25609,89	0,100000001	4,27058554	5,556277361760537E-005	0,10001299372256632	0,00042711405	0,042670959671859731	-0,0015921108770725421	0,042670959671859731
1	1	0	1	0	0	1	25621,89	0,100000001	4,32995129	5,5562976848334074E-005	0,10001335953788243	0,000433052977	0,043004337442659462	-0,0016045496499322598	0,043004337442659462
1	1	0	1	0	0	1	25633,89	0,100000001	4,38446712	5,5562810880028538E-005	0,10001306079492885	0,000438503979	0,043337714822278458	-0,0016169884081964989	0,043337714822278458
1	1	0	1	0	0	1	25645,89	0,100000001	4,433465	5,5562957532289958E-005	0,10001332476900259	0,000443405588	0,043671091846276691	-0,001629427153192049	0,043671091846276691
1	1	0	1	0	0	1	25657,89	0,100000001	4,47618008	5,5562791160411309E-005	0,10001302529961741	0,000447676313	0,044004468860722867	-0,0016418658978311987	0,044004468860722867
1	0	0	0	0	0	2	25667,54	-0,100000001	4,39202881	-5,5544545685665472E-005	-0,099980183444677286	0,000439115858	0,044161385650949965	-0,00164772067425144	5,5550029625081357E-005
1	0	0	0	0	0	2	25679,54	-0,100000001	3,96212602	-5,5545013011743622E-005	-0,099981024631628134	0,000396137417	0,043828116252469728	-0,0016352859449086704	0,00038881942810532128
1	0	0	0	0	0	2	25691,54	-0,100000001	3,59292603	-5,5544932064082886E-005	-0,099980878925837043	0,000359223894	0,043494846692789133	-0,0016228512095512992	0,00072208898778590886
1	0	0	0	0	0	2	25703,54	-0,100000001	3,24486399	-5,5544988309343654E-005	-0,099980980167307648	0,000324424676	0,043161577261586778	-0,0016104164789876234	0,0010553584189882709
1	0	0	0	0	0	2	25715,54	-0,100000001	2,92471886	-5,5544832291702432E-005	-0,099980699335550054	0,00029241544	0,042828307839117734	-0,001597981748749799	0,001388627841457311
1	0	0	0	0	0	2	25727,54	-0,100000001	2,66523814	-5,5544884354290035E-005	-0,099980793048208883	0,000266472634	0,042495038661700774	-0,0015855470276551978	0,0017218970188742714
1	0	0	0	0	0	2	25739,54	-0,100000001	2,56772041	-5,5544810674256749E-005	-0,099980660424147354	0,000256722386	0,042161769465865152	-0,0015731123058733715	0,002055166214709895
1	0	0	0	0	0	2	25751,54	-0,100000001	2,52298117	-5,5544885268227923E-005	-0,099980794693297088	0,000252249651	0,041828500153743757	-0,0015606775797527661	0,0023884355268312829
1	0	0	0	0	0	2	25763,54	-0,100000001	2,49304032	-5,5545010764979648E-005	-0,099981020587452928	0,000249256729	0,041495230627374304	-0,0015482428456382781	0,0027217050532007386
1	0	0	0	0	0	2	25775,54	-0,100000001	2,47020292	-5,5544779021292922E-005	-0,099980603448811763	0,000246972369	0,041161961355856928	-0,0015358081210326637	0,0030549743247181178
1	0	0	0	0	0	2	25787,54	-0,100000001	2,45189071	-5,5544889035738176E-005	-0,099980801474815629	0,000245142	0,040828691982845254	-0,0015233733926401606	0,0033882436977297894
1	0	0	0	0	0	2	25799,54	-0,100000001	2,43764591	-5,5544899672269824E-005	-0,099980820620572826	0,000243717834	0,040495422594662963	-0,0015109386636816211	0,0037215130859120851
1	0	0	0	0	0	2	25811,54	-0,100000001	2,42830849	-5,5544905049105485E-005	-0,09998083029887712	0,000242784299	0,04016215346066592	-0,0014985039442070752	0,0040547822199091309
1	0	0	0	0	0	2	25823,54	-0,100000001	2,42261839	-5,554473701491952E-005	-0,099980527837338726	0,000242214664	0,039828884516858182	-0,0014860692318287482	0,0043880511637168614
1	0	0	0	0	0	2	25835,54	-0,100000001	2,4186275	-5,5544698627044762E-005	-0,099980458739163328	0,000241815491	0,039495615864206726	-0,0014736345303138531	0,00472131981636832
1	0	0	0	0	0	2	25847,54	-0,100000001	2,41509485	-5,5544903518425094E-005	-0,09998082754365239	0,000241463189	0,039162346681285037	-0,0014611998090138627	0,0050545889992900192
1	0	0	0	0	0	2	25859,54	-0,100000001	2,41202068	-5,5545029280914195E-005	-0,099981053916135514	0,000241156376	0,038829076782283898	-0,0014487650609959853	0,0053878588982911571
1	0	0	0	0	0	2	25871,54	-0,100000001	2,40888906	-5,5544938092430432E-005	-0,099980889776862758	0,00024084287	0,038495807128567872	-0,0014363303221300254	0,0057211285520071782
1	0	0	0	0	0	2	25883,54	-0,100000001	2,40619659	-5,5544912521209984E-005	-0,099980843748665395	0,000240573572	0,038162537749414029	-0,0014238955935083494	0,0060543979311610266
1	0	0	0	0	0	2	25895,54	-0,100000001	2,4033134	-5,554487898863024E-005	-0,09998078339002112	0,000240285153	0,037829268436333165	-0,0014114608673519454	0,0063876672442418842
1	0	0	0	0	0	2	25907,54	-0,100000001	2,40048718	-5,5545017208076186E-005	-0,099981032185026842	0,000240003181	0,037495998918588166	-0,0013990261335592474	0,0067209367619868787
1	0	0	0	0	0	2	25919,54	-0,100000001	2,39771843	-5,5545044245405331E-005	-0,099981080852219891	0,000239726476	0,037162728779585619	-0,001386591376586595	0,007054206900989431
1	0	0	0	0	0	2	25931,54	-0,100000001	2,39491153	-5,5544957724296384E-005	-0,099980925114221888	0,000239445464	0,036829458673923584	-0,0013741566208579218	0,0073874770066514611
1	0	0	0	0	0	2	25943,54	-0,100000001	2,39204741	-5,5545063205063347E-005	-0,099981114979604723	0,000239159563	0,036496188547976109	-0,0013617218643723715	0,0077207471325989402
1	0	0	0	0	0	2	25955,54	-0,100000001	2,38918304	-5,5545076063523686E-005	-0,099981138124833626	0,000238873239	0,036162917774624506	-0,0013492870837313027	0,0080540179059505459
1	0	0	0	0	0	2	25967,54	-0,100000001	2,386338	-5,5545063026249414E-005	-0,099981114657739635	0,000238588735	0,035829647526177062	-0,0013368523226751139	0,0083872881543979866
1	0	0	0	0	0	2	25979,54	-0,100000001	2,38326359	-5,5544958598083923E-005	-0,099980926687039475	0,000238280903	0,035496377280954477	-0,0013244175617392491	0,0087205583996205696
1	0	0	0	0	0	2	25991,54	-0,100000001	2,3801322	-5,5545065984543827E-005	-0,099981119982669658	0,000237968285	0,035163106985913178	-0,0013119827989445808	0,0090538286946618701
1	0	0	0	0	0	2	26003,54	-0,100000001	2,37696242	-5,5544964061015187E-005	-0,099980936520315878	0,000237650922	0,034829836971476474	-0,0012995480466196472	0,0093870987090985779
1	0	0	0	0	0	2	26015,54	-0,100000001	2,37356353	-5,5544947192072864E-005	-0,099980906156219328	0,000237311033	0,034496567470557786	-0,0012871133134547614	0,0097203682100172646
1	0	0	0	0	0	2	26027,54	-0,100000001	2,37024093	-5,5544959969404672E-005	-0,09998092915541687	0,000236978885	0,034163297831278918	-0,0012746785751274714	0,010053637849296131
1	0	0	0	0	0	2	26039,54	-0,100000001	2,36667013	-5,5544982293413747E-005	-0,09998096933863369	0,000236621971	0,03383002824623159	-0,001262243838823633	0,010386907434343466
1	0	0	0	0	0	2	26051,54	-0,100000001	2,36302304	-5,5544970580687123E-005	-0,099980948255725504	0,000236257285	0,033496758282895098	-0,0012498090884053168	0,010720177397679952
1	0	0	0	0	0	2	26063,54	-0,100000001	2,35928059	-5,5544951461669472E-005	-0,099980913841493312	0,000235883024	0,033163488469112045	-0,001237374343567041	0,011053447211463005
1	0	0	0	0	0	2	26075,54	-0,100000001	2,35527062	-5,5544925541099571E-005	-0,099980867184466931	0,000235482003	0,032830218602835923	-0,0012249395967701781	0,011386717077739126
1	0	0	0	0	0	2	26087,54	-0,100000001	2,35141349	-5,5544894029696781E-005	-0,099980810463941222	0,000235096231	0,032496949613378074	-0,0012125048826885837	0,011719986067196976
1	0	0	0	0	0	2	26099,54	-0,100000001	2,34732699	-5,554493596611751E-005	-0,099980885949499456	0,000234687832	0,032163679988573203	-0,0012000701449013379	0,012053255692001848
1	0	0	0	0	0	2	26111,54	-0,100000001	2,34316444	-5,5544926457107066E-005	-0,099980868833280448	0,000234271618	0,031830410251220269	-0,0011876354029147725	0,012386525429354773
1	0	0	0	0	0	2	26123,54	-0,100000001	2,33896351	-5,5544924520783955E-005	-0,09998086534789879	0,000233851591	0,031497140986485818	-0,0011752006785622379	0,012719794694089229
1	0	0	0	0	0	2	26135,54	-0,100000001	2,33447623	-5,5544986430555584E-005	-0,099980976785489075	0,000233403218	0,031163871404861203	-0,0011627659423861056	0,013053064275713843
1	0	0	0	0	0	2	26147,54	-0,100000001	2,330199	-5,5544829487386675E-005	-0,099980694287781645	0,000232974911	0,030830601776693222	-0,0011503312044733776	0,013386333903881822
1	0	0	0	0	0	2	26159,54	-0,100000001	2,32546329	-5,5544872547189395E-005	-0,099980771795427456	0,00023250161	0,030497332251998496	-0,0011378964704213757	0,013719603428576554
1	0	0	0	0	0	2	26171,54	-0,100000001	2,3207469	-5,5544881989558541E-005	-0,099980788791692122	0,000232030099	0,030164063064002534	-0,0011254617489320576	0,01405287261657251
1	0	0	0	0	0	2	26183,54	-0,100000001	2,31606865	-5,5544884338561037E-005	-0,099980793019896666	0,000231562386	0,029830793950235469	-0,0011130270302123194	0,014386141730339576
1	0	0	0	0	0	2	26195,54	-0,100000001	2,31114221	-5,5544801656984621E-005	-0,099980644193057318	0,000231069484	0,029497524822487392	-0,0011005923109709304	0,014719410858087654
1	0	0	0	0	0	2	26207,54	-0,100000001	2,30625391	-5,5544946427146598E-005	-0,099980904779352026	0,000230581354	0,029164255468595565	-0,0010881575832918146	0,015052680211979482
1	0	0	0	0	0	2	26219,54	-0,100000001	2,30125117	-5,5544703416526317E-005	-0,099980467360230234	0,000230080172	0,028830986313221562	-0,0010757228630196656	0,015385949367353485
1	0	0	0	0	0	2	26231,54	-0,100000001	2,29615283	-5,55448487194048E-005	-0,099980728905414682	0,000229571029	0,028497717789465565	-0,0010632881663140334	0,015719217891109488
1	0	0	0	0	0	2	26243,54	-0,100000001	2,2910161	-5,5544877080453766E-005	-0,099980779955303424	0,000229057579	0,028164448804363818	-0,0010508534523949712	0,016052486876211235
1	0	0	0	0	0	2	26255,54	-0,100000001	2,2857461	-5,5544869950248134E-005	-0,09998076712093312	0,000228530655	0,027831179694422624	-0,0010384187338179813	0,016385755986152429
1	0	0	0	0	0	2	26267,54	-0,100000001	2,28049493	-5,5544780921604896E-005	-0,099980606869373363	0,000228005272	0,027497910596185466	-0,0010259840156776848	0,016719025084389587
1	0	0	0	0	0	2	26279,54	-0,100000001	2,27493834	-5,5544808069037069E-005	-0,099980655734751859	0,000227449826	0,027164641544065747	-0,0010135492992580918	0,017052294136509306
1	0	0	0	0	0	2	26291,54	-0,100000001	2,26957273	-5,5544906196908819E-005	-0,099980832364923149	0,000226913777	0,026831372423277754	-0,0010011145802763933	0,017385563257297302
1	0	0	0	0	0	2	26303,54	-0,100000001	2,26403499	-5,5544847114632525E-005	-0,099980726016824538	0,000226359858	0,026498103041804291	-0,0009886798515681696	0,017718832638770762
1	0	0	0	0	0	2	26315,54	-0,100000001	2,25821114	-5,5544796262764269E-005	-0,099980634483460557	0,000225777389	0,026164834094530794	-0,00097624513906053018	0,018052101586044259
1	0	0	0	0	0	2	26327,54	-0,100000001	2,25240636	-5,5544849887904198E-005	-0,099980731008713613	0,000225197233	0,02583156536484985	-0,00096381043467156134	0,018385370315725203
1	0	0	0	0	0	2	26339,54	-0,100000001	2,24671602	-5,554486341733072E-005	-0,099980755361681638	0,000224628369	0,025498296584696608	-0,00095137572839940352	0,018718639095878445
1	0	0	0	0	0	2	26351,54	-0,100000001	2,24073935	-5,5544963607357606E-005	-0,099980935703732224	0,000224031217	0,025165027213878301	-0,00093894100008873766	0,019051908466696752
1	0	0	0	0	0	2	26363,54	-0,100000001	2,23451447	-5,5544879779633549E-005	-0,099980784813827098	0,000223408511	0,0248317578868632	-0,00092650627341242854	0,019385177793711853
1	0	0	0	0	0	2	26375,54	-0,100000001	2,22827029	-5,5544904059420026E-005	-0,09998082851744329	0,000222784307	0,024498488526556842	-0,00091407154549397786	0,019718447154018211
1	0	0	0	0	0	2	26387,54	-0,100000001	2,22202635	-5,5544920394404064E-005	-0,099980857920414899	0,000222160103	0,024165218859619354	-0,00090163680613470733	0,020051716820955699
1	0	0	0	0	0	2	26399,54	-0,100000001	2,21559143	-5,5544921383675603E-005	-0,099980859701103693	0,000221516733	0,023831949274660189	-0,00088920206983415834	0,020384986405914864
1	0	0	0	0	0	2	26411,54	-0,100000001	2,20904183	-5,554501329527961E-005	-0,099981025141992909	0,000220862261	0,023498679450715786	-0,00087676732461674854	0,020718256229859267
1	0	0	0	0	0	2	26423,54	-0,100000001	2,20230126	-5,554496427377065E-005	-0,099980936903275712	0,000220188143	0,02316540956729216	-0,00086433257718008934	0,021051526113282896
1	0	0	0	0	0	2	26435,54	-0,100000001	2,1954844	-5,5544926113552518E-005	-0,099980868214882253	0,00021950643	0,02283213993242487	-0,00085189783901740109	0,021384795748150182
1	0	0	0	0	0	2	26447,54	-0,100000001	2,18849564	-5,5545054280509549E-005	-0,099981098915407693	0,0002188082	0,022498869921224195	-0,00083946308681320819	0,021718065759350858
1	0	0	0	0	0	2	26459,54	-0,100000001	2,18125868	-5,5544905994501382E-005	-0,099980832000589773	0,000218084053	0,022165600023285181	-0,00082702833883496013	0,022051335657289875
1	0	0	0	0	0	2	26471,54	-0,100000001	2,1739645	-5,5544942106637696E-005	-0,099980897002435904	0,000217354915	0,021832330182667622	-0,00081459359299545267	0,022384605497907434
1	0	0	0	0	0	2	26483,54	-0,100000001	2,16636467	-5,554501914026009E-005	-0,099981035662957888	0,000216595377	0,021499060305721443	-0,00080215884580047552	0,022717875374853613
1	0	0	0	0	0	2	26495,54	-0,100000001	2,15870762	-5,5545080422941178E-005	-0,099981145971785203	0,000215830063	0,021165790187292016	-0,00078972408959543386	0,023051145493283037
1	0	0	0	0	0	2	26507,54	-0,100000001	2,15085959	-5,5544917015979686E-005	-0,099980851839250957	0,000215044769	0,02083252008995808	-0,00077728933417749312	0,023384415590616973
1	0	0	0	0	0	2	26519,54	-0,100000001	2,14276338	-5,5544969561199347E-005	-0,099980946420647488	0,000214235508	0,020499250212747408	-0,00076485458697264742	0,023717685467827648
1	0	0	0	0	0	2	26531,54	-0,100000001	2,13439989	-5,554502538467447E-005	-0,099981046902903923	0,000213399529	0,020165980315314614	-0,0007524198390132873	0,024050955365260438
1	0	0	0	0	0	2	26543,54	-0,100000001	2,12586427	-5,5545115888118746E-005	-0,099981209809105587	0,000212546482	0,01983270944190792	-0,00073998505463902848	0,024384226238667133
1	0	0	0	0	0	2	26555,54	-0,100000001	2,11700439	-5,5545090532137286E-005	-0,099981164168338419	0,000211660561	0,019499438811212992	-0,00072755027932067226	0,024717496869362061
1	0	0	0	0	0	2	26567,54	-0,100000001	2,10810614	-5,5545182989289363E-005	-0,09998133059121417	0,00021077125	0,01916616845777776	-0,00071511551434724787	0,025050767222797293
1	0	0	0	0	0	2	26579,54	-0,100000001	2,09878778	-5,5545045776499642E-005	-0,099981083608189683	0,000209839083	0,018832898293855085	-0,00070268075644479181	0,025384037386719971
1	0	0	0	0	0	2	26591,54	-0,100000001	2,08912563	-5,5545067523088723E-005	-0,099981122752050483	0,000208873127	0,018499627775706976	-0,00069024598532570854	0,025717307904868077
1	0	0	0	0	0	2	26603,54	-0,100000001	2,07929182	-5,5545070727666221E-005	-0,099981128520290061	0,000207889942	0,018166357398841325	-0,00067781121947806387	0,026050578281733728
1	0	0	0	0	0	2	26615,54	-0,100000001	2,06922889	-5,5544956783867546E-005	-0,099980923421449971	0,000206883415	0,017833087221420266	-0,0006653764610719648	0,026383848459154787
1	0	0	0	0	0	2	26627,54	-0,100000001	2,05870748	-5,5545039568510317E-005	-0,099981072433808768	0,000205831777	0,01749981709768561	-0,00065294170466897805	0,026717118582889443
1	0	0	0	0	0	2	26639,54	-0,100000001	2,04788065	-5,5545071929279302E-005	-0,099981130683193626	0,00020474942	0,017166546915670858	-0,00064050694609148211	0,027050388764904198
1	0	0	0	0	0	2	26651,54	-0,100000001	2,03676748	-5,5545087897115283E-005	-0,099981159425298739	0,000203638381	0,016833276624005907	-0,00062807218342279014	0,027383659056569146
1	0	0	0	0	0	2	26663,54	-0,100000001	2,02513862	-5,5545028547859853E-005	-0,099981052596637683	0,000202475494	0,016500006189923942	-0,00061563741544032781	0,02771692949065111
1	0	0	0	0	0	2	26675,54	-0,100000001	2,01337624	-5,5545057826158074E-005	-0,099981105297575104	0,000201299583	0,016166735737960579	-0,00060320264679068634	0,028050199942614474
1	0	0	0	0	0	2	26687,54	-0,100000001	2,00086904	-5,5545076390107475E-005	-0,099981138712684442	0,000200049166	0,015833465438318544	-0,00059076788382435853	0,028383470242256512
1	0	0	0	0	0	2	26699,54	-0,100000001	1,98803723	-5,5544985318349472E-005	-0,099980974783518042	0,000198765905	0,015500195870762278	-0,0005783331481731351	0,028716739809812778
1	0	0	0	0	0	2	26711,54	-0,100000001	1,97484267	-5,5544934390319718E-005	-0,099980883113063386	0,000197446512	0,015166926257332374	-0,00056589841081030451	0,029050009423242682
1	0	0	0	0	0	2	26723,54	-0,100000001	1,96113253	-5,554494838333792E-005	-0,099980908300496448	0,000196075809	0,014833656637764848	-0,00055346367321847104	0,029383279042810208
1	0	0	0	0	0	2	26735,54	-0,100000001	1,94684958	-5,5544888831261133E-005	-0,099980801106756941	0,000194647582	0,014500387270805946	-0,00054102894505180486	0,029716548409769107
1	0	0	0	0	0	2	26747,54	-0,100000001	1,9323374	-5,5544867915825709E-005	-0,099980763458972723	0,000193196567	0,014167118124156573	-0,00052859422510518349	0,030049817556418483
1	0	0	0	0	0	2	26759,54	-0,100000001	1,91687059	-5,5544997059636646E-005	-0,099980995917835226	0,00019165063	0,013833848631630966	-0,00051615949225345478	0,03038308704894409
1	0	0	0	0	0	2	26771,54	-0,100000001	1,90102172	-5,5544885788112877E-005	-0,09998079562909001	0,000190065664	0,013500579211561426	-0,00050372476210515936	0,030716356469013626
1	0	0	0	0	0	2	26783,54	-0,100000001	1,88454282	-5,5544888356079661E-005	-0,099980800251430272	0,000188418097	0,013167309867352043	-0,00049129003478730848	0,031049625813223008
1	0	0	0	0	0	2	26795,54	-0,100000001	1,86762476	-5,5544822502467366E-005	-0,099980681714926733	0,000186726393	0,012834040552194544	-0,00047885530855342227	0,031382895128380506
1	0	0	0	0	0	2	26807,54	-0,100000001	1,85001922	-5,554479035155641E-005	-0,099980623843286298	0,000184966077	0,012500771711270643	-0,00046642060001382918	0,031716163969304422
1	0	0	0	0	0	2	26819,54	-0,100000001	1,83163083	-5,554489279538393E-005	-0,099980808242178061	0,000183127937	0,012167502603689629	-0,0004539858815249008	0,032049433076885434
1	0	0	0	0	0	2	26831,54	-0,100000001	1,8126123	-5,5544881381508378E-005	-0,099980787697201818	0,000181226409	0,011834233415308309	-0,00044155116002120442	0,032382702265266746
1	0	0	0	0	0	2	26843,54	-0,100000001	1,79323673	-5,5544808718893261E-005	-0,099980656904493018	0,000179288982	0,011500964434343704	-0,00042911644625650451	0,032715971246231354
1	0	0	0	0	0	2	26855,54	-0,100000001	1,77311075	-5,5544868943591917E-005	-0,099980765308951923	0,000177276976	0,011167695387770944	-0,0004166817300438761	0,033049240292804115
1	0	0	0	0	0	2	26867,54	-0,100000001	1,75225914	-5,554485100797481E-005	-0,09998073302484073	0,000175192152	0,010834426254865821	-0,00040424701061007117	0,033382509425709235
1	0	0	0	0	0	2	26879,54	-0,100000001	1,73079646	-5,5544911478542624E-005	-0,099980841871864115	0,000173046486	0,010501156975021178	-0,0003918122856937552	0,033715778705553882
1	0	0	0	0	0	2	26891,54	-0,100000001	1,70843625	-5,554479666095641E-005	-0,099980635200206438	0,000170810541	0,010167887886206934	-0,00037937756790504026	0,034049047794368128
1	0	0	0	0	0	2	26903,54	-0,100000001	1,68550324	-5,5544771117054752E-005	-0,099980589221182899	0,00016851761	0,0098346190780043226	-0,00036694286058632256	0,034382316602570746
1	0	0	0	0	0	2	26915,54	-0,100000001	1,66226482	-5,5544725101027226E-005	-0,099980506392332339	0,000166194077	0,0095013504070190541	-0,00035450815838736845	0,034715585273556006
1	0	0	0	0	0	2	26927,54	-0,100000001	1,63830066	-5,5544656386805907E-005	-0,099980382706732467	0,000163797929	0,0091680817753513318	-0,00034207345765540486	0,035048853905223725
1	0	0	0	0	0	2	26939,54	-0,100000001	1,61406922	-5,5544774880011878E-005	-0,099980595994505805	0,000161375603	0,0088348132388308326	-0,00032963876047351206	0,035382122441744224
1	0	0	0	0	0	2	26951,54	-0,100000001	1,58943677	-5,5544759144385658E-005	-0,099980567670378266	0,000158912793	0,0085015445964773171	-0,00031720405934284717	0,035715391084097747
1	0	0	0	0	0	2	26963,54	-0,100000001	1,56463253	-5,5544844852967392E-005	-0,099980721945827264	0,000156433089	0,0081682757392225638	-0,00030476935019392813	0,036048659941352499
1	0	0	0	0	0	2	26975,54	-0,100000001	1,53940821	-5,554480140739017E-005	-0,099980643743787315	0,000153911024	0,0078350070106136794	-0,00029233464584495949	0,036381928669961376
1	0	0	0	0	0	2	26987,54	-0,100000001	1,51416469	-5,5544931089298592E-005	-0,099980877171225293	0,000151387518	0,0075017377278864883	-0,00027989992082109171	0,036715197952688576
1	0	0	0	0	0	2	26999,54	-0,100000001	1,48871112	-5,5544884669284026E-005	-0,099980793615198054	0,000148842519	0,0071684688148765606	-0,00026746520959187216	0,037048466865698502
1	0	0	0	0	0	2	27011,54	-0,100000001	1,46295214	-5,5544913617687091E-005	-0,099980845722324211	0,000146267193	0,0068351998798133274	-0,00025503049753981414	0,037381735800761728
1	0	0	0	0	0	2	27023,54	-0,100000001	1,43719316	-5,5544964860710835E-005	-0,099980937959768064	0,000143691926	0,0065019305287237478	-0,00024259576996525376	0,037715005151851302
1	0	0	0	0	0	2	27035,54	-0,100000001	1,41160595	-5,5544986681805722E-005	-0,099980977237739328	0,000141133743	0,0061686606759588429	-0,00023016102367251251	0,038048275004616205
1	0	0	0	0	0	2	27047,54	-0,100000001	1,38624787	-5,5544888939294554E-005	-0,099980801301217101	0,000138598174	0,0058353911777252634	-0,00021772629060781165	0,038381544502849779
1	0	0	0	0	0	2	27059,54	-0,100000001	1,36161542	-5,5544800488485235E-005	-0,099980642089758387	0,00013613519	0,0055021221775994214	-0,00020529157612818019	0,038714813502975622
1	0	0	0	0	0	2	27071,54	-0,100000001	1,33826244	-5,5544829789963034E-005	-0,099980694832419072	0,000133800408	0,0051688532465458419	-0,00019285686422572778	0,039048082434029197
1	0	0	0	0	0	2	27083,54	-0,100000001	1,31662786	-5,5544841417835821E-005	-0,099980715762590336	0,000131637396	0,0048355842266573363	-0,00018042214900872477	0,039381351453917702
1	0	0	0	0	0	2	27095,54	-0,100000001	1,29749477	-5,5544868098364934E-005	-0,099980763787543334	0,000129724518	0,004502315366701751	-0,00016798743975903408	0,039714620313873286
1	0	0	0	0	0	2	27107,54	-0,100000001	1,28120685	-5,5544777584986554E-005	-0,099980600863460275	0,000128095824	0,0041690465890990893	-0,00015555273358204166	0,040047889091475949
1	0	0	0	0	0	2	27119,54	-0,100000001	1,26793587	-5,5544805456780723E-005	-0,099980651032690381	0,000126769053	0,0038357781626182829	-0,00014311804050587778	0,040381157517956755
1	0	0	0	0	0	2	27131,54	-0,100000001	1,25703263	-5,5544770381516883E-005	-0,09998058789721472	0,000125678867	0,003502509423683719	-0,00013068333577164411	0,040714426256891328
1	0	0	0	0	0	2	27143,54	-0,100000001	1,2481153	-5,5544751592394374E-005	-0,099980554076793779	0,000124787257	0,0031692408011172902	-0,00011824863537926203	0,04104769487945776
1	0	0	0	0	0	2	27155,54	-0,100000001	1,24051559	-5,5544728430194989E-005	-0,099980512384834394	0,000124027385	0,0028359721695501472	-0,00010581393465105117	0,041380963511024909
1	0	0	0	0	0	2	27167,54	-0,100000001	1,23396599	-5,5544783104625011E-005	-0,099980610798809626	0,00012337268	0,0025027031789660166	-9,3379220527433805E-005	0,041714232501609043
1	0	0	0	0	0	2	27179,54	-0,100000001	1,22806573	-5,5544662276903789E-005	-0,099980393308908787	0,000122782498	0,0021694349734272102	-8,0944535694912998E-005	0,042047500707147846
1	0	0	0	0	0	2	27191,54	-0,100000001	1,22277641	-5,554470504075289E-005	-0,099980470283838093	0,000122253754	0,0018361669703736618	-6,8509858417389389E-005	0,042380768710201395
1	0	0	0	0	0	2	27203,54	-0,100000001	1,21794546	-5,5544728743119373E-005	-0,099980512948098278	0,000121770812	0,0015028986360966874	-5,6075168781474451E-005	0,042714037044478368
1	0	0	0	0	0	2	27215,54	-0,100000001	1,21349633	-5,5544743622756672E-005	-0,099980539731445747	0,000121326018	0,0011696302773710467	-4,3640478233346899E-005	0,043047305403204006
1	0	0	0	0	0	2	27227,54	-0,100000001	1,20916176	-5,5544831661300525E-005	-0,099980698200826598	0,000120892837	0,00083636165173829056	-3,1205777726556006E-005	0,043380574028836762
1	0	0	0	0	0	2	27239,54	-0,100000001	1,20503724	-5,5544669638905261E-005	-0,099980406560511603	0,000120480116	0,00050309312483276397	-1,8771080903410781E-005	0,043713842555742278
1	0	0	0	0	0	2	27251,54	-0,100000001	1,20106554	-5,5544807666291795E-005	-0,099980655009810368	0,000120083321	0,00016982479596325555	-6,3363914692556608E-006	0,044047110884611795
1	0	0	0	0	0	2	27255,05	-0,100000001	1,20011079	-4,1891884320312077E-005	-0,099980632045195328	0,000119987839	7,2388201718334989E-005	-2,7009011330834096E-006	0,044144547478856717