File: Experimentelles/Rohdaten/Batteriemessungen/AlteZelle/Batterietest Li vs LATP/ECLab-Export/LATP vs Li Batterietest Probe1_02_GCPL_C01.mpt
EC-Lab ASCII FILE
Nb header lines : 82

Galvanostatic Cycling with Potential Limitation

Run on channel : 1 (SN 6985)
Grouped channel(s) : 1
User :
CE vs. WE compliance from -10 V to 10 V
Electrode connection : standard
Ewe ctrl range : min = 0,00 V, max = 5,00 V
Acquisition started on : 10.28.2014 11:50:52
Saved on :
	File : LATP vs Li Batterietest Probe1_02_GCPL_C01.mpr
	Directory : C:\Hupfer\Batterietest Li vs LATP\
	Host : 192.168.0.2
Device : VMP3 (SN 0324)
Address : 192.168.0.1
EC-Lab for windows v10.33 (software)
Internet server v10.33 (firmware)
Command interpretor v10.32 (firmware)
Electrode material : Lithium - LATP folie
Initial state : unbekannt
Electrolyte : LP30
Comments : Batterietest
Mass of active material : 0,001 mg
 at x = 0,000
Molecular weight of active material (at x = 0) : 0,001 g/mol
Atomic weight of intercalated ion : 0,001 g/mol
Acquisition started at : xo = 0,000
Number of e- transfered per intercalated ion : 1
for DX = 1, DQ = 26,801 mA.h
Battery capacity : 0,000 A.h
Reference electrode : Li+/Li (-3,020 V)
Electrode surface area : 0,001 cm²
Characteristic mass : 0,001 g
Ns                  0                   1                   2
Set I/C             I                   I                   I
Is                  0,000               100,000             -100,000
unit Is             mA                  µA                  µA
vs.                 <None>              <None>              <None>
N                   1                   1                   1
I sign              > 0                 > 0                 > 0
t1 (h:m:s)          0:00:0,0000         60:00:0,0000        60:00:0,0000
I Range             100 µA              100 µA              100 µA
Bandwidth           5                   5                   5
dE1 (mV)            0,00                0,00                0,00
dt1 (s)             0,0000              2,0000              2,0000
EM (V)              0,000               4,500               1,200
tM (h:m:s)          0:00:0,0000         0:00:0,0000         0:00:0,0000
Im                  0,000               0,000               0,000
unit Im             mA                  mA                  mA
E range min (V)     0,000               0,000               0,000
E range max (V)     5,000               5,000               5,000
dq                  0,000               1,000               1,000
unit dq             mA.h                mA.h                mA.h
dtq (s)             0,0000              120,0000            120,0000
dQM                 0,000               0,000               0,000
unit dQM            mA.h                mA.h                mA.h
dxM                 0,000               0,000               0,000
tR (h:m:s)          0:00:0,0000         0:00:0,0000         0:00:0,0000
dER/dt (mV/h)       0,0                 0,1                 0,1
dER (mV)            0,00                5,00                5,00
dtR (s)             1,0000              120,0000            120,0000
EL (V)              pass                3,500               3,500
goto Ns'            0                   0                   0
nc cycles           0                   0                   0

Number of loops : 11
Loop 0 from point number 0 to 1297
Loop 1 from point number 1298 to 3017
Loop 2 from point number 3018 to 4693
Loop 3 from point number 4694 to 6333
Loop 4 from point number 6334 to 7945
Loop 5 from point number 7946 to 9554
Loop 6 from point number 9555 to 11158
Loop 7 from point number 11159 to 12751
Loop 8 from point number 12752 to 14335
Loop 9 from point number 14336 to 15911
Loop 10 from point number 15912 to 17481

mode	ox/red	error	control changes	Ns changes	counter inc.	Ns	time/s	control/V/mA	Ewe/V	dq/mA.h	<I>/mA	P/W	(Q-Qo)/mA.h	Capacity/mA.h	x
1	1	0	1	1	0	1	1800,0010	0,100000001	2,48391867	0	0	0	0	0	0
1	1	0	1	0	0	1	1924,0010	0,100000001	2,7225287	5,5562874250941805E-005	0,10001317617824061	0,000272288744	0,0034435289405723546	0,0034435289405723546	-0,00012848269464665613
1	1	0	1	0	0	1	2048,0009	0,100000001	2,83868289	5,5562946047633888E-005	0,10001330541228962	0,000283906062	0,006888424561936672	0,006888424561936672	-0,00025701638199118227
1	1	0	1	0	0	1	2172,0009	0,100000001	3,02905917	5,5562768853372998E-005	0,10001298646261194	0,000302945264	0,010333321292025197	0,010333321292025197	-0,00038555011070369926
1	1	0	1	0	0	1	2296,0009	0,100000001	3,37922168	5,5562695049991206E-005	0,10001285361652136	0,000337965612	0,013778212823397013	0,013778212823397013	-0,00051408364544510611
1	1	0	1	0	0	1	2420,0009	0,100000001	3,95649886	5,5562630583842598E-005	0,10001273757745094	0,000395700277	0,017223099197951306	0,017223099197951306	-0,00064261698777871782
1	1	0	1	0	0	1	2544,0009	0,100000001	4,38696861	5,5562785673886541E-005	0,10001301673953707	0,000438753952	0,020667986836262298	0,020667986836262298	-0,00077115037726479104
1	0	0	0	0	0	2	2665,6171	-0,100000001	2,86275601	-5,5545417249616653E-005	-0,099981753575061504	0,000286223367	0,020713388437701008	0,0016663661193106739	-0,00077284437205757171
1	0	0	0	0	0	2	2789,6171	-0,100000001	2,41444564	-5,5545164162086118E-005	-0,09998129801749504	0,000241399408	0,01726958102966455	0,0051101735273471315	-0,0006443512874154263
1	0	0	0	0	0	2	2913,6171	-0,100000001	2,38089585	-5,5545402134044301E-005	-0,099981726367030605	0,000238046079	0,013825775227978235	0,0085539793290334426	-0,00051585826270836461
1	0	0	0	0	0	2	3037,6171	-0,100000001	2,34616232	-5,5545417880846394E-005	-0,099981754711275072	0,000234573425	0,010381962909016997	0,01199779164799468	-0,00038736499483301299
1	0	0	0	0	0	2	3161,6171	-0,100000001	2,30296969	-5,5545221724030042E-005	-0,099981401628996723	0,00023025414	0,0069381491008916493	0,015441605456120026	-0,00025887167139494614
1	0	0	0	0	0	2	3285,6171	-0,100000001	2,25202441	-5,5545213603725037E-005	-0,09998138701244736	0,000225160518	0,003494344052845223	0,018885410504166448	-0,00013037867480720195
1	0	0	0	0	0	2	3409,6171	-0,100000001	2,19200921	-5,5545221534868083E-005	-0,09998140128850519	0,000219160152	5,0538142806771488E-005	0,022329216414204896	-1,8856460573763219E-006
1	0	0	0	0	0	2	3533,6171	-0,100000001	2,11874199	-5,5545209424363245E-005	-0,09998137948959593	0,000211834747	-0,0033932652260741594	0,025773019783085846	0,00012660728787844557
1	0	0	0	0	0	2	3657,6171	-0,100000001	2,02487135	-5,5545404636197619E-005	-0,099981730870906688	0,000202450145	-0,006837076561420096	0,029216831118431782	0,00025510051905378787
1	0	0	0	0	0	2	3781,6171	-0,100000001	1,89848208	-5,5545225076791315E-005	-0,099981407663967168	0,000189812912	-0,010280885639699158	0,032660640196710842	0,00038359366601493043
1	0	0	0	0	0	2	3905,6171	-0,100000001	1,73240042	-5,5545309854464397E-005	-0,099981560263782566	0,0001732081	-0,013724687441091346	0,036104441998103046	0,00051208654146563981
1	0	0	0	0	0	2	4029,6171	-0,100000001	1,52336848	-5,5545332754651706E-005	-0,099981601484120755	0,000152308814	-0,017168495224154445	0,039548249781166131	0,00064057964010053325
1	0	0	0	0	0	2	4153,6171	-0,100000001	1,32627082	-5,5545427622480525E-005	-0,099981770930963597	0,000132602901	-0,020612311702468112	0,042992066259479776	0,00076907306316691648
1	0	0	0	0	0	2	4277,6171	-0,100000001	1,23786139	-5,5545538518577811E-005	-0,09998197054394112	0,000123763821	-0,024056131299316266	0,046435885856327917	0,00089756660259001421
1	1	0	1	0	0	1	4398,0555	0,100000001	1,4327631	5,5562748033967283E-005	0,10001294767201722	0,000143294863	-0,026956573715475878	0,00022087869087776218	0,001005786008823233
1	1	0	1	0	0	1	4522,0555	0,100000001	2,52541184	5,5562850546919642E-005	0,1000131321953337	0,000252574362	-0,023511682876295686	0,0036657695300579469	0,00087725249990842637
1	1	0	1	0	0	1	4646,0555	0,100000001	2,58124542	5,5562868696533971E-005	0,10001316486463987	0,000258158514	-0,020066785551531222	0,0071106668548224282	0,0007487187490077504
1	1	0	1	0	0	1	4770,0555	0,100000001	2,61611271	5,5562873658206726E-005	0,10001317379565094	0,000261645735	-0,016621887919561094	0,010555564486792558	0,00062018498664481818
1	1	0	1	0	0	1	4894,0555	0,100000001	2,65033078	5,5563034134192602E-005	0,10001346265242902	0,000265068753	-0,01317698625688192	0,014000466149471739	0,00049165107389071206
1	1	0	1	0	0	1	5018,0555	0,100000001	2,6877377	5,5563019496699174E-005	0,10001343630494053	0,000268809876	-0,0097320807272172992	0,017445371679136352	0,00036311701685417978
1	1	0	1	0	0	1	5142,0555	0,100000001	2,72993755	5,5562979515641933E-005	0,10001336433903662	0,000273030251	-0,0062871774227182426	0,020890274983635424	0,0002345830428415664
1	1	0	1	0	0	1	5266,0555	0,100000001	2,77977514	5,5562725724445453E-005	0,10001290751487742	0,00027801338	-0,0028422807237603107	0,024335171682593363	0,0001060493152905737
1	1	0	1	0	0	1	5390,0555	0,100000001	2,84297919	5,5562716357823878E-005	0,1000128906549584	0,000284334557	0,00060260946404210266	0,027780061870395776	-2,2484169320452314E-005
1	1	0	1	0	0	1	5514,0555	0,100000001	2,92861986	5,5562633074406118E-005	0,10001274074480461	0,000292899291	0,0040474988263019731	0,031224951232655648	-0,00015101762312937606
1	1	0	1	0	0	1	5638,0555	0,100000001	3,05413079	5,5562757918404205E-005	0,10001296546400389	0,000305452675	0,0074923852396179072	0,034669837645971571	-0,0002795509669092367
1	1	0	1	0	0	1	5762,0555	0,100000001	3,2598021	5,5562694618685382E-005	0,10001285152450864	0,000326022098	0,010937275219864946	0,038114727626218598	-0,00040808444377609254
1	1	0	1	0	0	1	5886,0555	0,100000001	3,63108349	5,5562760301348237E-005	0,1000129697533032	0,000363155443	0,014382165013604493	0,041559617419958118	-0,00053661791368410317
1	1	0	1	0	0	1	6010,0555	0,100000001	4,19044971	5,5562742245280077E-005	0,10001293725238013	0,000419099175	0,017827055537605242	0,04500450794395888	-0,00066515141083914112
1	0	0	0	0	0	2	6130,1443	-0,100000001	4,03235722	-5,5545524476716915E-005	-0,099981945268591206	0,000403162907	0,020496617262616141	0,00033327762135656346	-0,00076475634806321075
1	0	0	0	0	0	2	6254,1443	-0,100000001	2,44497848	-5,5545616270353395E-005	-0,099982110497138867	0,000244454102	0,017052785630866685	0,0037771092531060166	-0,00063626235960176422
1	0	0	0	0	0	2	6378,1443	-0,100000001	2,39514065	-5,5545593267927565E-005	-0,099982069092771878	0,000239471119	0,013608961716956362	0,0072209331670163379	-0,00050776865910327264
1	0	0	0	0	0	2	6502,1443	-0,100000001	2,36302304	-5,5545483811034093E-005	-0,099981872070361229	0,000236259468	0,010165133152905238	0,010664761731067462	-0,00037927478510177555
1	0	0	0	0	0	2	6626,1443	-0,100000001	2,3220644	-5,5545624885294176E-005	-0,099982126004032461	0,000232164937	0,0067213060487709581	0,014108588835201741	-0,00025078096557173882
1	0	0	0	0	0	2	6750,1443	-0,100000001	2,2723031	-5,5545739201621875E-005	-0,099982331773424806	0,000227190161	0,0032774806571327622	0,017552414226839946	-0,00012228720993723346
1	0	0	0	0	0	2	6874,1443	-0,100000001	2,21404457	-5,5545578469832736E-005	-0,099982042456200858	0,000221364695	-0,00016634525271028448	0,020996240136682998	6,2065650321916493E-006
1	0	0	0	0	0	2	6998,1443	-0,100000001	2,14331698	-5,5545559280034566E-005	-0,099982007914563738	0,000214293133	-0,0036101672978134144	0,024440062181786144	0,00013470019580297426
1	0	0	0	0	0	2	7122,1443	-0,100000001	2,05236816	-5,5545367161018982E-005	-0,099981662100331494	0,000205199176	-0,0070539856266882189	0,02788388051066095	0,0002631936879162815
1	0	0	0	0	0	2	7246,1443	-0,100000001	1,92853749	-5,5545532729476691E-005	-0,099981960123558976	0,000192818959	-0,010497800463521851	0,031327695347494573	0,0003916870497368375
1	0	0	0	0	0	2	7370,1443	-0,100000001	1,75760567	-5,5545492303040288E-005	-0,099981887355972582	0,000175728739	-0,013941623640500634	0,034771518524473376	0,00052018072273942253
1	0	0	0	0	0	2	7494,1443	-0,100000001	1,53513086	-5,5545388346330989E-005	-0,099981700233893568	0,000153484987	-0,017385440599161091	0,03821533548313385	0,00064867416372819021
1	0	0	0	0	0	2	7618,1443	-0,100000001	1,31618869	-5,5545307921866579E-005	-0,099981555469855872	0,000131594599	-0,020829253683385123	0,041659148567357856	0,00077716746015652557
1	0	0	0	0	0	2	7742,1443	-0,100000001	1,22714913	-5,554535286087129E-005	-0,099981636360065331	0,000122692378	-0,024273060537731267	0,045102955421704013	0,00090566052413974093
1	1	0	1	0	0	1	7863,0345	0,100000001	1,8323431	5,5562806297093626E-005	0,1000130525456459	0,00018325822	-0,025408308323112349	0,0011098856064057029	0,00094801814536919014
1	1	0	1	0	0	1	7987,0344	0,100000001	2,54926133	5,5562783335645997E-005	0,10001301121503966	0,000254959305	-0,0219634136224912	0,0045547803070268538	0,00081948449237882944
1	1	0	1	0	0	1	8111,0344	0,100000001	2,59149933	5,5562774011658298E-005	0,1000129944318616	0,000259183609	-0,018518519474718029	0,0079996744548000243	0,0006909508600159703
1	1	0	1	0	0	1	8235,0344	0,100000001	2,62520194	5,5562769800838496E-005	0,10001298685238589	0,000262554298	-0,015073624857047088	0,011444569072470962	0,00056241721012059354
1	1	0	1	0	0	1	8359,0344	0,100000001	2,65987825	5,5562896350191699E-005	0,1000132146412244	0,00026602298	-0,011628725744451632	0,014889468185066419	0,00043388339251353958
1	1	0	1	0	0	1	8483,0344	0,100000001	2,6990037	5,5562883805897498E-005	0,10001319206149456	0,000269935961	-0,0081838358181666701	0,018334358111351379	0,00030534991766008134
1	1	0	1	0	0	1	8607,0344	0,100000001	2,74423957	5,55627474234336E-005	0,10001294657305656	0,000274459482	-0,004738946406270615	0,02177924752324743	0,00017681646199916477
1	1	0	1	0	0	1	8731,0344	0,100000001	2,79890823	5,5562773396571475E-005	0,10001299332470533	0,00027992719	-0,0012940543253878448	0,025224139604130202	4,8282906754765402E-005
1	1	0	1	0	0	1	8855,0344	0,100000001	2,87078142	5,5562902750240435E-005	0,10001322616131227	0,000287116098	0,0021508438109609293	0,028669037740478957	-8,0250874427212262E-005
1	1	0	1	0	0	1	8979,0344	0,100000001	2,97238541	5,556284344527456E-005	0,1000131194123724	0,000297277526	0,0055957432573684698	0,03211393718688649	-0,00020878470448924387
1	1	0	1	0	0	1	9103,0344	0,100000001	3,1305294	5,5562791389723616E-005	0,10001302571237955	0,000313093711	0,0090406367889864819	0,035558830718504506	-0,0003373183138625257
1	1	0	1	0	0	1	9227,0344	0,100000001	3,40904784	5,5562718317326573E-005	0,10001289418206328	0,000340948754	0,01248553178217496	0,039003725711693024	-0,00046585197776896666
1	1	0	1	0	0	1	9351,0344	0,100000001	3,90753937	5,5562856493310797E-005	0,1000131428988379	0,000390805304	0,015930426550312035	0,042448620479830099	-0,00059438563327843725
1	1	0	1	0	0	1	9475,0344	0,100000001	4,43934631	5,5562865863243744E-005	0,10001315976471741	0,000443993049	0,019375317336659738	0,045893511266177818	-0,0007229191402219927
1	0	0	0	0	0	2	9596,2184	-0,100000001	2,50759053	-5,5545342748363814E-005	-0,099981618157551654	0,000250712968	0,017408767403055674	0,0026661794182678893	-0,00064954451814471846
1	0	0	0	0	0	2	9720,2184	-0,100000001	2,40487909	-5,5545363284647462E-005	-0,099981655122862682	0,000240443798	0,013964947648443978	0,0061099991728795917	-0,00052105097283525094
1	0	0	0	0	0	2	9844,2184	-0,100000001	2,37465191	-5,5545523727933562E-005	-0,099981943920781146	0,000237422311	0,010521125847051824	0,009553820974271744	-0,00039255735115765254
1	0	0	0	0	0	2	9968,2184	-0,100000001	2,33632851	-5,5545385582579507E-005	-0,099981695259140838	0,000233590079	0,0070773051678586624	0,012997641653464909	-0,00026406377135080733
1	0	0	0	0	0	2	10092,2184	-0,100000001	2,2883811	-5,5545439824048013E-005	-0,099981792893785331	0,000228796445	0,003633493651711143	0,016441453169612426	-0,0001355705334295149
1	0	0	0	0	0	2	10216,2184	-0,100000001	2,23218489	-5,5545566617200774E-005	-0,099982021121463066	0,000223178358	0,0001896766281515671	0,019885270193172	-7,0770900192738125E-006
1	0	0	0	0	0	2	10340,2184	-0,100000001	2,16430235	-5,5545370715773773E-005	-0,099981668498890202	0,000216390559	-0,0032541382778486963	0,023329085099172256	0,00012141627438198221
1	0	0	0	0	0	2	10464,2184	-0,100000001	2,07789803	-5,5545168139868314E-005	-0,099981303862255936	0,000207750956	-0,0066979425883658765	0,026772889409689434	0,00024990924345151859
1	0	0	0	0	0	2	10588,2184	-0,100000001	1,96118987	-5,5545097608947091E-005	-0,099981176906596224	0,000196082066	-0,010141740816470376	0,03021668763779392	0,00037840198557806003
1	0	0	0	0	0	2	10712,2184	-0,100000001	1,79688382	-5,5545204551269613E-005	-0,099981369402779085	0,000179654904	-0,013585534181847066	0,033660481003170618	0,00050689454626968883
1	0	0	0	0	0	2	10836,2184	-0,100000001	1,57570755	-5,5545316080666253E-005	-0,099981570155695462	0,000157541712	-0,017029337889083683	0,037104284710407277	0,00063538749283001638
1	0	0	0	0	0	2	10960,2184	-0,100000001	1,33984733	-5,5544956129458214E-005	-0,099980922243513152	0,000133959169	-0,020473134852498067	0,040548081673821626	0,00076388018776926912
1	0	0	0	0	0	2	11084,2184	-0,100000001	1,22963142	-5,5545266307890419E-005	-0,099981480564697882	0,000122940372	-0,023916938063520234	0,043991884884843802	0,00089237311581516826
1	1	0	1	0	0	1	11205,0140	0,100000001	1,80362439	5,5563069780667622E-005	0,10001352681608483	0,000180386836	-0,025271772094081565	0,00099876243127366976	0,00094292379508913907
1	1	0	1	0	0	1	11329,0140	0,100000001	2,54794383	5,5563263978395194E-005	0,10001387637199869	0,000254829734	-0,021826855798607366	0,0044436787267478573	0,00081438933636577677
1	1	0	1	0	0	1	11453,0140	0,100000001	2,59044909	5,5563276997870874E-005	0,1000138998070552	0,000259080902	-0,018381935504373472	0,0078885990209817677	0,00068585472844331366
1	1	0	1	0	0	1	11577,0140	0,100000001	2,62399888	5,5563014752748941E-005	0,10001342776583002	0,000262435118	-0,014937019509009498	0,011333515016345744	0,0005573202809174672
1	1	0	1	0	0	1	11701,0140	0,100000001	2,65917182	5,5563009448763398E-005	0,1000134182186559	0,000265952869	-0,011492109838692573	0,014778424686662669	0,00042878606938763027
1	1	0	1	0	0	1	11825,0140	0,100000001	2,6985836	5,5563252268566022E-005	0,10001385529430595	0,00026989574	-0,0080471954670783322	0,018223339058276915	0,0003002516824460695
1	1	0	1	0	0	1	11949,0140	0,100000001	2,74448776	5,5563121886303027E-005	0,10001362060622971	0,00027448617	-0,0046022794167597037	0,021668255108595546	0,00017171723286979101
1	1	0	1	0	0	1	12073,0140	0,100000001	2,80022573	5,5563311874038643E-005	0,10001396258415794	0,000280061678	-0,0011573617804984861	0,025113172744856778	4,318272411986217E-005
1	1	0	1	0	0	1	12197,0140	0,100000001	2,8744669	5,5563234515488147E-005	0,10001382333876538	0,000287486415	0,0022875568944436205	0,028558091419798886	-8,5351823384647142E-005
1	1	0	1	0	0	1	12321,0140	0,100000001	2,98027158	5,5563383007215123E-005	0,10001409062387717	0,00029806915	0,0057324758951859571	0,032003010420541242	-0,00021388638304520109
1	1	0	1	0	0	1	12445,0140	0,100000001	3,14788675	5,5563337589717568E-005	0,10001400887238058	0,000314832781	0,0091774036807696307	0,035447938206124902	-0,00034242127047999667
1	1	0	1	0	0	1	12569,0140	0,100000001	3,44834518	5,5563377274821203E-005	0,10001408030556797	0,000344883068	0,012622334656950608	0,038892869182305882	-0,00047095627696026739
1	1	0	1	0	0	1	12693,0140	0,100000001	3,98565674	5,5563273941063219E-005	0,10001389430480136	0,00039862105	0,016067261318425437	0,042337795843780723	-0,00059949112245305075
1	1	0	1	0	0	1	12815,8830	0,100000001	4,50004864	2,4142311143378416E-005	0,1000141785623939	0,000450068677	0,019480761025610579	0,045751295550965875	-0,00072685338602729613
1	0	0	0	0	0	2	12937,8836	-0,100000001	2,45500326	-5,5544435397618342E-005	-0,099979984926190054	0,0002454512	0,016092545105866342	0,0033882159197442227	-0,00060043449455688461
1	0	0	0	0	0	2	13061,8836	-0,100000001	2,39769936	-5,554460111922688E-005	-0,099980283225089024	0,000239722664	0,012648783184943595	0,0068319778406669645	-0,00047194310710010989
1	0	0	0	0	0	2	13185,8836	-0,100000001	2,36586833	-5,5544520563549466E-005	-0,099980138224867904	0,00023653984	0,009205022216464992	0,01027573880914557	-0,00034345175518030682
1	0	0	0	0	0	2	13309,8836	-0,100000001	2,32403135	-5,5544375532203251E-005	-0,099979877168441574	0,000232356368	0,0057612615220828973	0,013719499503527664	-0,0002149604134874129
1	0	0	0	0	0	2	13433,8836	-0,100000001	2,27270412	-5,554414857592848E-005	-0,099979468647142029	0,000227223747	0,0023175207558448902	0,017163240269765667	-8,646981534036864E-005
1	0	0	0	0	0	2	13557,8836	-0,100000001	2,21203971	-5,5543808062457376E-005	-0,09997885572288663	0,000221157199	-0,0011262023467437309	0,020606963372354288	4,2020123752168006E-005
1	0	0	0	0	0	2	13681,8836	-0,100000001	2,13743591	-5,5543476127088064E-005	-0,09997825823921463	0,000213697116	-0,0045699122090202298	0,024050673234630781	0,00017050956883085757
1	0	0	0	0	0	2	13805,8836	-0,100000001	2,04026198	-5,5543578671498426E-005	-0,099978442819155507	0,000203982214	-0,00801361292498096	0,027494373950591514	0,00029899867264820851
1	0	0	0	0	0	2	13929,8836	-0,100000001	1,90587187	-5,5543529239793619E-005	-0,099978353842085798	0,000190545936	-0,011457313259152003	0,03093807428476256	0,00042748776222047283
1	0	0	0	0	0	2	14053,8836	-0,100000001	1,71697164	-5,5543873883783821E-005	-0,099978974201275661	0,000171661057	-0,014901022204895331	0,034381783230505875	0,0005559771731020775
1	0	0	0	0	0	2	14177,8836	-0,100000001	1,47591758	-5,554378183434407E-005	-0,099978808512282099	0,00014756048	-0,018344747402192749	0,037825508427803302	0,00068446719035101581
1	0	0	0	0	0	2	14301,8836	-0,100000001	1,26736307	-5,5543838726149664E-005	-0,099978910917533414	0,000126709579	-0,021788468528756592	0,041269229554367136	0,00081295705571541107
1	0	0	0	0	0	2	14425,8836	-0,100000001	1,20513272	-5,5543815743592051E-005	-0,099978869548929216	0,000120487806	-0,025232192294362035	0,044712953319972544	0,0009414470195459968
1	1	0	1	0	0	1	14546,0028	0,100000001	2,50757718	5,5563910006648966E-005	0,10001503922286957	0,00025079542	-0,022790500386068278	0,0028879469848490752	0,00085034421155787098
1	1	0	1	0	0	1	14670,0028	0,100000001	2,57798028	5,5563927216248378E-005	0,1000150702001489	0,000257836888	-0,019345537395961885	0,0063329099749554701	0,00072180801059499968
1	1	0	1	0	0	1	14794,0028	0,100000001	2,61351585	5,556385750903024E-005	0,1000149447271547	0,00026139064	-0,015900575673266717	0,0097778716976506304	0,00059327185692094541
1	1	0	1	0	0	1	14918,0028	0,100000001	2,64826846	5,5563662076989805E-005	0,10001459294947766	0,000264865492	-0,012455621615944938	0,013222825754972413	0,00046473598925227827
1	1	0	1	0	0	1	15042,0028	0,100000001	2,68672562	5,556371047761705E-005	0,10001468007060778	0,000268712	-0,0090106754823752205	0,016667771888542128	0,00033620041722945434
1	1	0	1	0	0	1	15166,0028	0,100000001	2,73114038	5,556360386560361E-005	0,10001448816898126	0,000273153593	-0,0055657252738495232	0,020112722097067818	0,0002076646931645439
1	1	0	1	0	0	1	15290,0028	0,100000001	2,78391886	5,5563667752262618E-005	0,10001460316496886	0,000278432533	-0,0021207777502316118	0,023557669620685731	7,9129069277152845E-005
1	1	0	1	0	0	1	15414,0028	0,100000001	2,85273671	5,5563602656953862E-005	0,10001448599341168	0,000285315007	0,0013241660197535766	0,027002613390670918	-4,9406414557154515E-005
1	1	0	1	0	0	1	15538,0028	0,100000001	2,94973898	5,5563950755943853E-005	0,10001511257160125	0,000295018486	0,004769119679617929	0,030447567050535264	-0,00017794226739615056
1	1	0	1	0	0	1	15662,0028	0,100000001	3,09961486	5,5563851596580608E-005	0,10001493408474525	0,000310007774	0,0082140828680351898	0,033892530238952531	-0,00030647847575826688
1	1	0	1	0	0	1	15786,0028	0,100000001	3,36333466	5,5563792000628186E-005	0,10001482681202958	0,000336383324	0,011659042200800584	0,037337489571717926	-0,00043501454026082803
1	1	0	1	0	0	1	15910,0028	0,100000001	3,85183954	5,5563722644829088E-005	0,10001470197158971	0,000385240593	0,01510399587713775	0,040782443248055078	-0,00056355039371444704
1	1	0	1	0	0	1	16034,0028	0,100000001	4,45204401	5,5563519312275782E-005	0,10001433597298933	0,000445268233	0,018548941405323363	0,044227388776240659	-0,00069208594314957606
1	0	0	0	0	0	2	16154,3442	-0,100000001	2,48024678	-5,5543437843521434E-005	-0,099978189328793856	0,000247970573	0,016114647269091405	0,0028882707847278157	-0,00060125915598348621
1	0	0	0	0	0	2	16278,3441	-0,100000001	2,40048718	-5,5543411678738061E-005	-0,099978142232183219	0,000239996254	0,012670944573004368	0,0063319734808148634	-0,00047276997828496038
1	0	0	0	0	0	2	16402,3441	-0,100000001	2,36825514	-5,5543102569464179E-005	-0,099977585835483494	0,000236772437	0,0092272590056187482	0,0097756590482004826	-0,00034428143968131443
1	0	0	0	0	0	2	16526,3441	-0,100000001	2,32611275	-5,5543407636384166E-005	-0,099978134955946125	0,000232560415	0,0057835754414363776	0,013219342612382861	-0,00021579297581987488
1	0	0	0	0	0	2	16650,3441	-0,100000001	2,27478552	-5,5543956280996397E-005	-0,099979122516260096	0,000227431054	0,0023398676026974173	0,016663050451121818	-8,7303606242091571E-005
1	0	0	0	0	0	2	16774,3441	-0,100000001	2,21471286	-5,5544155906058016E-005	-0,099979481841375373	0,000221425842	-0,0011038646275925258	0,02010678268141175	4,1186673417253728E-005
1	0	0	0	0	0	2	16898,3441	-0,100000001	2,14148402	-5,5544196320904621E-005	-0,099979554588100122	0,000214104613	-0,0045476075878058989	0,023550525641625117	0,00016967735342446874
1	0	0	0	0	0	2	17022,3441	-0,100000001	2,04642963	-5,5544471942716173E-005	-0,099980050707366925	0,00020460214	-0,0079913549715494246	0,02699427302536864	0,00029816819847954125
1	0	0	0	0	0	2	17146,3441	-0,100000001	1,91503739	-5,5544306532376339E-005	-0,099979752968751629	0,000191464962	-0,011435108265421302	0,030438026319240518	0,00042665926404944877
1	0	0	0	0	0	2	17270,3441	-0,100000001	1,72850502	-5,5544413201510906E-005	-0,09997994497319616	0,000172815839	-0,014878863629594704	0,03388178168341392	0,00055515040686508973
1	0	0	0	0	0	2	17394,3441	-0,100000001	1,48630524	-5,5544598549604416E-005	-0,099980278599768512	0,000148601219	-0,018322622056988637	0,037325540110807866	0,0006836416639736073
1	0	0	0	0	0	2	17518,3441	-0,100000001	1,26950169	-5,5544616550621056E-005	-0,099980311001598874	0,000126925181	-0,021766389577892784	0,040769307631711968	0,00081213326037321728
1	0	0	0	0	0	2	17642,3441	-0,100000001	1,20553374	-5,5544662218540902E-005	-0,09998039320385559	0,000120529738	-0,025210157058708243	0,044213075112527398	0,00094062485527706445
1	1	0	1	0	0	1	17763,8129	0,100000001	2,50656533	5,556327002495527E-005	0,10001388725580699	0,000250691344	-0,022805988219507818	0,002887912695581209	0,0008509220834471136
1	1	0	1	0	0	1	17887,8129	0,100000001	2,5760324	5,5562995175934496E-005	0,1000133925275636	0,00025763773	-0,019361069845465702	0,0063328310696233382	0,00072238754716958758
1	1	0	1	0	0	1	18011,8129	0,100000001	2,61089993	5,5562965653008883E-005	0,10001333938629685	0,000261124835	-0,015916165302955405	0,0097777356121336307	0,00059385352696511027
1	1	0	1	0	0	1	18135,8129	0,100000001	2,64509869	5,5563036872694886E-005	0,10001346758173322	0,000264545495	-0,012471266056259021	0,013222634858830013	0,0004653197043545705
1	1	0	1	0	0	1	18259,8129	0,100000001	2,68305945	5,5563086028728218E-005	0,10001355606259427	0,000268342323	-0,0090263566806353267	0,016667544234453699	0,00033678550382013421
1	1	0	1	0	0	1	18383,8129	0,100000001	2,72701597	5,5563044590668544E-005	0,10001348147408595	0,000272738369	-0,005581450651705641	0,020112450263383386	0,00020825142815535104
1	1	0	1	0	0	1	18507,8129	0,100000001	2,7793932	5,5562957959870496E-005	0,10001332553864757	0,00027797636	-0,0021365442530777325	0,02355735666201129	7,9717338696630131E-005
1	1	0	1	0	0	1	18631,8129	0,100000001	2,84805846	5,5563007141980858E-005	0,1000134140664473	0,000284844049	0,0013083606168549491	0,027002261531943978	-4,8816693724416518E-005
1	1	0	1	0	0	1	18755,8129	0,100000001	2,94506073	5,5562908031046394E-005	0,1000132356667631	0,000294545054	0,0047532627280942682	0,030447163643183296	-0,0001773506232149047
1	1	0	1	0	0	1	18879,8129	0,100000001	3,09573865	5,5562966208077139E-005	0,10001334038541971	0,000309615163	0,0081981669142515738	0,033892067829340582	-0,00030588463012337267
1	1	0	1	0	0	1	19003,8129	0,100000001	3,36346817	5,5563039588431514E-005	0,10001347247005918	0,000336392142	0,011643066383160277	0,037336967298249306	-0,0004344184610249529
1	1	0	1	0	0	1	19127,8129	0,100000001	3,8655498	5,5562957482619418E-005	0,10001332467959562	0,000386606494	0,01508797578761896	0,040781876702707994	-0,00056295266263526144
1	1	0	1	0	0	1	19251,8129	0,100000001	4,47205544	5,5562980832739008E-005	0,10001336670981141	0,000447265309	0,018532878815227536	0,044226779730316563	-0,00069148662631671872
1	0	0	0	0	0	2	19373,4033	-0,100000001	2,46817875	-5,5545001422365504E-005	-0,099981003770747277	0,000246771	0,015688772967440838	0,0031105244068826227	-0,00058536921319481523
1	0	0	0	0	0	2	19497,4033	-0,100000001	2,4014039	-5,5545102619462541E-005	-0,099981185925524147	0,000240095207	0,012244978725537702	0,006554318648785769	-0,00045687661979880608
1	0	0	0	0	0	2	19621,4033	-0,100000001	2,37020278	-5,5545015434838003E-005	-0,099981028993198067	0,000236975306	0,0088011840457134362	0,0099981133286100339	-0,00032838401006337094
1	0	0	0	0	0	2	19745,4033	-0,100000001	2,32926321	-5,5545294683426618E-005	-0,099981531640663654	0,000232883307	0,0053573858649739379	0,01344191150934952	-0,00019989126970408141
1	0	0	0	0	0	2	19869,4033	-0,100000001	2,27835631	-5,5545074186391302E-005	-0,099981134745995277	0,000227792654	0,0019135820570766541	0,016885715317246797	-7,1398319387969101E-005
1	0	0	0	0	0	2	19993,4033	-0,100000001	2,21824551	-5,5545007058315808E-005	-0,09998101391545792	0,000221782437	-0,001530219500741567	0,020329516875065011	5,709454697466809E-005
1	0	0	0	0	0	2	20117,4033	-0,100000001	2,14478731	-5,5545066962639494E-005	-0,099981121743241882	0,000214438245	-0,004974013444286208	0,023773310818609651	0,00018558712923852051
1	0	0	0	0	0	2	20241,4033	-0,100000001	2,04864454	-5,5545190378609632E-005	-0,099981343891990797	0,000204826239	-0,0084178117504760998	0,027217109124799542	0,00031407987427853293
1	0	0	0	0	0	2	20365,4033	-0,100000001	1,91503739	-5,5545067021002374E-005	-0,099981121848295066	0,000191467581	-0,011861607904768202	0,030660905279091635	0,00044257253902834547
1	0	0	0	0	0	2	20489,4033	-0,100000001	1,72424686	-5,5545045654806822E-005	-0,099981083389142605	0,000172392072	-0,015305403527794982	0,034104700902118432	0,00057106518395593466
1	0	0	0	0	0	2	20613,4033	-0,100000001	1,4768151	-5,5545130567418202E-005	-0,099981236231844928	0,000147653802	-0,01874920045600248	0,037548497830325914	0,0006995578775815712
1	0	0	0	0	0	2	20737,4033	-0,100000001	1,2631048	-5,5545073641671072E-005	-0,099981133765498854	0,000126286643	-0,022192995522616589	0,040992292896940013	0,00082805050174865536
1	0	0	0	0	0	2	20861,4033	-0,100000001	1,20343328	-5,5545073115577299E-005	-0,099981132818530048	0,000120320619	-0,025636789870183885	0,04443608724450729	0,00095654309908713626
1	1	0	1	0	0	1	20981,7505	0,100000001	2,51229382	5,5562857831103936E-005	0,10001314530686557	0,00025126242	-0,02286816467934487	0,0030545880639245235	0,0008532419707607735
1	1	0	1	0	0	1	21105,7505	0,100000001	2,57526875	5,5562728950960774E-005	0,10001291332260509	0,000257560139	-0,019423270147705776	0,0064994825955636096	0,00072470832407536064
1	1	0	1	0	0	1	21229,7505	0,100000001	2,60948682	5,556283582912551E-005	0,10001310570330395	0,000260982895	-0,015978374678471958	0,0099443780647974195	0,00059617464240702797
1	1	0	1	0	0	1	21353,7505	0,100000001	2,64343762	5,5562860495928262E-005	0,10001315010354944	0,000264378526	-0,01253347453956937	0,013389278203700014	0,00046764078650707494
1	1	0	1	0	0	1	21477,7505	0,100000001	2,68145537	5,5562881954842144E-005	0,1000131887295949	0,000268180913	-0,009088575679843721	0,016834177063425661	0,0003391069783349335
1	1	0	1	0	0	1	21601,7505	0,100000001	2,72546935	5,5562828539146317E-005	0,10001309258134122	0,000272582605	-0,0056436764106883917	0,020279076332580982	0,00021057315488642022
1	1	0	1	0	0	1	21725,7505	0,100000001	2,7781713	5,5562705638508E-005	0,10001287136018958	0,000277852901	-0,0021987866456509597	0,023723966097618416	8,2039686049324083E-005
1	1	0	1	0	0	1	21849,7505	0,100000001	2,84721828	5,5562903368638624E-005	0,10001322727442902	0,000284759502	0,0012461064965761242	0,027168859239845491	-4,6493908795258624E-005
1	1	0	1	0	0	1	21973,7505	0,100000001	2,94506073	5,5563031752490336E-005	0,1000134583653649	0,000294545694	0,0046910111588097965	0,030613763902079181	-0,00017502793346677597
1	1	0	1	0	0	1	22097,7505	0,100000001	3,09772444	5,5563074418654042E-005	0,1000135351644605	0,000309814379	0,0081359165730947264	0,034058669316364102	-0,0003035619861983369
1	1	0	1	0	0	1	22221,7505	0,100000001	3,37070513	5,5562959522836736E-005	0,10001332835198685	0,000337115431	0,011580823337674048	0,037503576080943398	-0,00043209608931119706
1	1	0	1	0	0	1	22345,7505	0,100000001	3,88441563	5,5562809043046502E-005	0,10001305748836115	0,000388492277	0,015025726441146093	0,04094847918441545	-0,00056063005582322234
1	1	0	1	0	0	1	22469,7505	0,100000001	4,49166632	5,5562975469562746E-005	0,100013357056094	0,000449226616	0,018470622354834765	0,044393375098104134	-0,00068916375407476314
1	0	0	0	0	0	2	22590,6311	-0,100000001	2,45857406	-5,5545184365991085E-005	-0,099981333069277299	0,000245811505	0,015273460600713379	0,0032771725066672589	-0,00056987335039879782
1	0	0	0	0	0	2	22714,6311	-0,100000001	2,40071654	-5,5545276175356576E-005	-0,099981498326137178	0,000240027235	0,011829660984465968	0,0067209721229146765	-0,00044138055647877792
1	0	0	0	0	0	2	22838,6311	-0,100000001	2,36941981	-5,554511047154665E-005	-0,099981200059275699	0,000236897438	0,008385860327511936	0,010164772779868706	-0,00031288772372859488
1	0	0	0	0	0	2	22962,6311	-0,100000001	2,32790756	-5,5545161695116096E-005	-0,099981292261701811	0,000232747203	0,0049420600326267347	0,013608573074753904	-0,00018439490448768669
1	0	0	0	0	0	2	23086,6311	-0,100000001	2,27652311	-5,5545013253887494E-005	-0,099981025067487104	0,000227609111	0,0014982631969136461	0,017052369910466995	-5,5902214313140902E-005
1	0	0	0	0	0	2	23210,6311	-0,100000001	2,21557212	-5,5545095725605888E-005	-0,099981173516582003	0,000221515496	-0,0019455324134036934	0,020496165520784346	7,2590430140241907E-005
1	0	0	0	0	0	2	23334,6311	-0,100000001	2,14043379	-5,5545011020782925E-005	-0,099981021047898829	0,00021400275	-0,0053893309958677357	0,023939964103248384	0,0002010831854884143
1	0	0	0	0	0	2	23458,6311	-0,100000001	2,04190397	-5,554523846300112E-005	-0,099981430443896538	0,000204152486	-0,0088331243128715354	0,02738375742025217	0,00032957574437518554
1	0	0	0	0	0	2	23582,6311	-0,100000001	1,90386689	-5,5544836176766291E-005	-0,099980706328665088	0,000190349951	-0,012276914835922102	0,030827547943302726	0,00045806819901580512
1	0	0	0	0	0	2	23706,6311	-0,100000001	1,70625949	-5,5544904284593133E-005	-0,09998082892275488	0,000170593237	-0,015720701763071216	0,034271334870451853	0,00058656051948850688
1	0	0	0	0	0	2	23830,6311	-0,100000001	1,45378661	-5,5545165147218445E-005	-0,099981298475486118	0,000145351471	-0,019164495809063834	0,037715128916444486	0,00071505310557483098
1	0	0	0	0	0	2	23954,6311	-0,100000001	1,25235438	-5,554524219243063E-005	-0,099981437156869747	0,000125212187	-0,022608296634240403	0,041158929741621018	0,00084354594460162317
1	1	0	1	0	0	1	24075,8939	0,100000001	1,31082308	5,419051159106857E-005	0,097542922044894451	0,000127861509	-0,025864933004829155	5,419051159106857E-005	0,00096505542618245811
1	1	0	1	0	0	1	24199,8939	0,100000001	2,52848625	5,5562860016607578E-005	0,10001314924077219	0,000252881873	-0,022420030439812211	0,0034990930766079974	0,00083652147976091674
1	1	0	1	0	0	1	24323,8939	0,100000001	2,57981324	5,5562989812758234E-005	0,10001338287384621	0,000258015847	-0,018975131168540083	0,0069439923478801203	0,00070798765623342285
1	1	0	1	0	0	1	24447,8939	0,100000001	2,61353493	5,556294889706704E-005	0,10001330922560115	0,000261388283	-0,015530228269581101	0,010388895246839114	0,00057945369735205491
1	1	0	1	0	0	1	24571,8938	0,100000001	2,64828753	5,5562847966949146E-005	0,10001312755138675	0,000264863513	-0,012085327152354786	0,01383379636406543	0,00045091980494952832
1	1	0	1	0	0	1	24695,8938	0,100000001	2,68731761	5,5562985437611744E-005	0,10001337499858242	0,000268767704	-0,0086404257199577293	0,017278697796462486	0,00032238590078755776
1	1	0	1	0	0	1	24819,8938	0,100000001	2,73262978	5,556286379032665E-005	0,10001315603346659	0,000273298938	-0,005195525050458327	0,020723598465961891	0,00019385202509032429
1	1	0	1	0	0	1	24943,8938	0,100000001	2,78760409	5,5563105965654054E-005	0,10001359194906122	0,00027879831	-0,0017506218463148643	0,024168501670105338	6,5318054822113101E-005
1	1	0	1	0	0	1	25067,8938	0,100000001	2,86058474	5,5563055987573331E-005	0,10001350198851482	0,000286097085	0,0016942886797798867	0,027613412196200099	-6,3216188637945139E-005
1	1	0	1	0	0	1	25191,8938	0,100000001	2,96514845	5,5562934208661318E-005	0,10001328278647054	0,000296554237	0,0051391934018392384	0,031058316918259456	-0,00019175021554163901
1	1	0	1	0	0	1	25315,8938	0,100000001	3,1325345	5,556299789332681E-005	0,10001339741886979	0,00031329543	0,0085840960645928858	0,034503219581013114	-0,00032028416560986829
1	1	0	1	0	0	1	25439,8938	0,100000001	3,43877864	5,5562773493015104E-005	0,10001299349830384	0,000343922555	0,012028994777151347	0,03794811829357159	-0,00044881796829100416
1	1	0	1	0	0	1	25563,8938	0,100000001	4,01030827	5,5562910603152378E-005	0,10001324029655392	0,000401083933	0,015473893726005802	0,041393017242426054	-0,00057735177978866112
1	0	0	0	0	0	2	25685,5422	-0,100000001	3,77451849	-5,5544881544593306E-005	-0,099980787990754688	0,000377379329	0,017742357947078077	0,00055545421707671558	-0,00066199122985945088
1	0	0	0	0	0	2	25809,5422	-0,100000001	2,42953062	-5,5544848191655341E-005	-0,099980727955465626	0,000242906244	0,014298574849294763	0,0039992373148600256	-0,00053349905226553606
1	0	0	0	0	0	2	25933,5422	-0,100000001	2,39439607	-5,554497694927785E-005	-0,099980959719188954	0,000239394023	0,010854790180554054	0,0074430219836007398	-0,00040500681605708832
1	0	0	0	0	0	2	26057,5422	-0,100000001	2,36109447	-5,5544958415544698E-005	-0,099980926358468877	0,000236064414	0,007410999798019785	0,010886812366135005	-0,00027651436665932074
1	0	0	0	0	0	2	26181,5422	-0,100000001	2,31694698	-5,5544875839932096E-005	-0,099980777722364378	0,000231650163	0,0039672153181537702	0,014330596846001014	-0,00014802213749804192
1	0	0	0	0	0	2	26305,5422	-0,100000001	2,26304221	-5,5544939395868115E-005	-0,099980892123050611	0,000226260978	0,0005234345859881632	0,01777437757816663	-1,9530048168504118E-005
1	0	0	0	0	0	2	26429,5422	-0,100000001	2,19890237	-5,5544977491100634E-005	-0,099980960694469978	0,000219848371	-0,0029203488368321062	0,021218161000986896	0,00010896214155297674
1	0	0	0	0	0	2	26553,5422	-0,100000001	2,11860824	-5,5545133612636064E-005	-0,099981241713237146	0,000211821083	-0,0063641396146751386	0,024661951778829923	0,00023745460570024582
1	0	0	0	0	0	2	26677,5422	-0,100000001	2,01129484	-5,5545006650189562E-005	-0,099981013180830682	0,000201091301	-0,0098079327851098662	0,028105744949264662	0,00036594715911832794
1	0	0	0	0	0	2	26801,5422	-0,100000001	1,85880291	-5,5544787282331117E-005	-0,099980618318680704	0,00018584427	-0,013251717436704717	0,03154952960085952	0,00049443939468704051
1	0	0	0	0	0	2	26925,5422	-0,100000001	1,64225328	-5,5544743084245261E-005	-0,09998053876212521	0,000164193363	-0,016695497084682118	0,034993309248836922	0,00062293144356405875
1	0	0	0	0	0	2	27049,5422	-0,100000001	1,38206613	-5,5544881116598848E-005	-0,099980787220364659	0,000138180054	-0,020139277219811587	0,038437089383966381	0,00075142351061737536
1	0	0	0	0	0	2	27173,5422	-0,100000001	1,23096812	-5,5544751773277914E-005	-0,099980554402384166	0,000123072881	-0,023583054612451885	0,041880866776606682	0,00087991547534473382
1	1	0	1	0	0	1	27295,1012	0,100000001	1,90329981	5,5563005676286093E-005	0,1000134114281967	0,000190355509	-0,024736845551352003	0,0011098897633499141	0,00092296496656351334
1	1	0	1	0	0	1	27419,1012	0,100000001	2,55077004	5,5563052518500218E-005	0,10001349574418314	0,00025511143	-0,021291937721963437	0,0045547975927384755	0,00079443082372118861
1	1	0	1	0	0	1	27543,1012	0,100000001	2,59079289	5,5563004660109677E-005	0,10001340959907912	0,000259114022	-0,017847026473723226	0,0079997088409786816	0,00066589655331691226
1	1	0	1	0	0	1	27667,1012	0,100000001	2,62432361	5,5562996707028813E-005	0,10001339528353338	0,000262467511	-0,014402119340260698	0,011444615974441208	0,00053736243644052378
1	1	0	1	0	0	1	27791,1012	0,100000001	2,66020274	5,5563070248812442E-005	0,10001352765874552	0,000266056275	-0,010957211941858003	0,014889523372843904	0,00040882830967886138
1	1	0	1	0	0	1	27915,1012	0,100000001	2,70119953	5,5562969961100154E-005	0,10001334714086122	0,000270156015	-0,007512301953123543	0,018334433361578355	0,00028029408626843808
1	1	0	1	0	0	1	28039,1012	0,100000001	2,74956703	5,5563041307032109E-005	0,10001347556354029	0,000274993741	-0,0040673941549380102	0,021779341159763885	0,00015175994459034048
1	1	0	1	0	0	1	28163,1012	0,100000001	2,80942965	5,5562926540358195E-005	0,10001326898352475	0,000280980254	-0,00062248925851520294	0,025224246056186701	2,3225911180911629E-005
1	1	0	1	0	0	1	28287,1012	0,100000001	2,89182401	5,5562987027068928E-005	0,10001337785960539	0,00028922109	0,002822416159447832	0,028669151474149731	-0,00010530814168788432
1	1	0	1	0	0	1	28411,1012	0,100000001	3,01406956	5,5562930485440627E-005	0,1000132760846732	0,000301446969	0,006267322886842953	0,032114058201544845	-0,00023384224341335197
1	1	0	1	0	0	1	28535,1012	0,100000001	3,2198174	5,5562974065956141E-005	0,1000133545296021	0,000322024745	0,0097122285655638976	0,035558963880265747	-0,00036237630601137613
1	1	0	1	0	0	1	28659,1012	0,100000001	3,61021256	5,556305397508873E-005	0,10001349836604248	0,000361069979	0,013157133930309086	0,03900386924501097	-0,00049091035689454266
1	1	0	1	0	0	1	28783,1012	0,100000001	4,27488184	5,5563005913876826E-005	0,10001341185586002	0,000427545514	0,016602043963975517	0,042448779278677421	-0,00061944458198143821
1	0	0	0	0	0	2	28904,5464	-0,100000001	2,60159492	-5,5544841429425606E-005	-0,099980715783451955	0,000260109315	0,01619829110471505	0,0018885264966707258	-0,00060438001995093734
1	0	0	0	0	0	2	29028,5464	-0,100000001	2,41240263	-5,5544807267271808E-005	-0,099980654291574387	0,0002411936	0,01275451398925249	0,0053323036121332787	-0,00047588806556545306
1	0	0	0	0	0	2	29152,5464	-0,100000001	2,38249993	-5,5544830181532435E-005	-0,099980695537244006	0,000238203997	0,009310733468632055	0,0087760841327537216	-0,00034739598412895008
1	0	0	0	0	0	2	29276,5464	-0,100000001	2,34497833	-5,5544849626306035E-005	-0,099980730537836902	0,000234452644	0,0058669535874324403	0,012219864013953336	-0,00021890392655009757
1	0	0	0	0	0	2	29400,5464	-0,100000001	2,2964201	-5,5544648476358918E-005	-0,099980368467927706	0,000229596932	0,0024231747305854182	0,015663642870800365	-9,0411907191217587E-005
1	0	0	0	0	0	2	29524,5464	-0,100000001	2,23848605	-5,5544921488397651E-005	-0,099980859889603392	0,000223805764	-0,0010206106226529654	0,019107428224038765	3,8080354556758592E-005
1	0	0	0	0	0	2	29648,5464	-0,100000001	2,16836953	-5,5545228934122458E-005	-0,099981413291914739	0,000216796645	-0,0044643947790201478	0,022551212380405942	0,00016657257164786106
1	0	0	0	0	0	2	29772,5464	-0,100000001	2,07784057	-5,5544962382978867E-005	-0,099980933499850458	0,000207744437	-0,0079081871829532224	0,025995004784339024	0,00029506509646673594
1	0	0	0	0	0	2	29896,5464	-0,100000001	1,95349455	-5,5544933685412006E-005	-0,099980881844229491	0,00019531211	-0,011351975520831696	0,029438793122217491	0,00042355746957564672
1	0	0	0	0	0	2	30020,5464	-0,100000001	1,77454281	-5,5544910116328134E-005	-0,099980839419878003	0,000177420283	-0,014795760957863446	0,032882578559249248	0,00055204973445006618
1	0	0	0	0	0	2	30144,5464	-0,100000001	1,53115916	-5,5544909879151322E-005	-0,099980838992959744	0,000153086585	-0,018239550149440208	0,036326367750825997	0,00068054213941160781
1	0	0	0	0	0	2	30268,5464	-0,100000001	1,28424287	-5,5544866322643232E-005	-0,099980760591244224	0,000128399581	-0,02168333256637207	0,039770150167757862	0,00080903429160203981
1	0	0	0	0	0	2	30392,5464	-0,100000001	1,20822608	-5,5544817246496672E-005	-0,099980672254179354	0,000120799254	-0,025127108085183901	0,043213925686569696	0,00093752618641433882
1	1	0	1	0	0	1	30513,2386	0,100000001	2,49203396	5,556327958280841E-005	0,10001390445994283	0,000249238044	-0,023145800981450582	0,0026656628219341427	0,00086360095447831578
1	1	0	1	0	0	1	30637,2386	0,100000001	2,57120156	5,5563178108798131E-005	0,10001372180672213	0,000257155451	-0,019700880647225667	0,0061105831561590426	0,00073506634506373389
1	1	0	1	0	0	1	30761,2386	0,100000001	2,60604978	5,5563139528863955E-005	0,10001365236283978	0,000260640547	-0,016255964643835347	0,0095554991595493658	0,00060653189723841382
1	1	0	1	0	0	1	30885,2386	0,100000001	2,64032507	5,5563007181303366E-005	0,10001341413722782	0,00026406793	-0,012811051518964006	0,013000412284420706	0,00047799755681450688
1	1	0	1	0	0	1	31009,2386	0,100000001	2,67857218	5,5563105120840998E-005	0,1000135904283977	0,000267893629	-0,0093661424662993869	0,016445321337085328	0,0003494633683301079
1	1	0	1	0	0	1	31133,2386	0,100000001	2,72291064	5,5563113098343213E-005	0,10001360478790186	0,000272328121	-0,0059212335329438106	0,019890230270440909	0,0002209291842972897
1	1	0	1	0	0	1	31257,2386	0,100000001	2,77607083	5,5563035322560198E-005	0,10001346479149072	0,00027764446	-0,0024763240815630221	0,023335139721821683	9,23949809362544E-005
1	1	0	1	0	0	1	31381,2386	0,100000001	2,84551883	5,5563090759019059E-005	0,10001356457711787	0,000284590467	0,00096858518956131418	0,026780048992946026	-3,6139215699170349E-005
1	1	0	1	0	0	1	31505,2386	0,100000001	2,94399142	5,5562993070731558E-005	0,10001338873819826	0,000294438563	0,004413488991315431	0,030224952794700141	-0,00016467320826503853
1	1	0	1	0	0	1	31629,2386	0,100000001	3,09925199	5,55631565021144E-005	0,10001368291469093	0,000309967611	0,0078583957902311629	0,033669859593615859	-0,00029320731265903635
1	1	0	1	0	0	1	31753,2386	0,100000001	3,3807683	5,5563148795316614E-005	0,10001366904245475	0,000338123034	0,011303308271087965	0,037114772074472659	-0,00042174162905389491
1	1	0	1	0	0	1	31877,2386	0,100000001	3,91830897	5,5562969569116826E-005	0,10001334643529123	0,000391883194	0,014748219348069542	0,04055968315145424	-0,00055027589306828134
1	0	0	0	0	0	2	31998,7490	-0,100000001	4,16392136	-5,5544569397552147E-005	-0,099980226126073805	0,000416309806	0,017679511646040051	0,00022218306422068013	-0,00065964634986997184
1	0	0	0	0	0	2	32122,7490	-0,100000001	2,43873429	-5,5544704438497619E-005	-0,099980469199778598	0,000243825794	0,014235741593708454	0,0036659531165522829	-0,00053115465901940019
1	0	0	0	0	0	2	32246,7490	-0,100000001	2,39724112	-5,5544789743920166E-005	-0,09998062274954103	0,000239677654	0,010791973480859011	0,007109721229401728	-0,00040266304053351526
1	0	0	0	0	0	2	32370,7490	-0,100000001	2,36428332	-5,554490476805303E-005	-0,099980829792982694	0,000236383014	0,0073481928509025395	0,0105535018593582	-0,00027417095501753776
1	0	0	0	0	0	2	32494,7490	-0,100000001	2,32034588	-5,5544732653018502E-005	-0,099980519985916813	0,000231989383	0,003904409705916905	0,013997285004343843	-0,0001456787756624407
1	0	0	0	0	0	2	32618,7490	-0,100000001	2,26682305	-5,554487056864633E-005	-0,099980768234049894	0,000226638716	0,0004606349012113591	0,017441059809049392	-1,7186907494407366E-005
1	0	0	0	0	0	2	32742,7489	-0,100000001	2,2027595	-5,5544781273023955E-005	-0,09998060750192768	0,00022023324	-0,0029831403801707456	0,020884835090431504	0,00011130497845906928
1	0	0	0	0	0	2	32866,7489	-0,100000001	2,12242723	-5,5544708515620896E-005	-0,099980475141889472	0,000212201281	-0,0064269115654860621	0,024328606275746829	0,00023979671158278685
1	0	0	0	0	0	2	32990,7489	-0,100000001	2,01526666	-5,5544654037803411E-005	-0,099980377081818176	0,000201487113	-0,0098706791598525043	0,027772373870113261	0,00036828831072337389
1	0	0	0	0	0	2	33114,7490	-0,100000001	1,86308014	-5,5544759779340691E-005	-0,099980567416584909	0,000186271805	-0,013314447247062026	0,031216141957322784	0,00049677992825259872
1	0	0	0	0	0	2	33238,7490	-0,100000001	1,6458813	-5,5544682190650042E-005	-0,099980427756942016	0,00016455591	-0,01675822493610504	0,034659919646365818	0,00062527190403914099
1	0	0	0	0	0	2	33362,7490	-0,100000001	1,38145506	-5,5544687812527021E-005	-0,099980437876320563	0,000138118485	-0,020201996720063747	0,038103691430324531	0,00075376365949904845
1	0	0	0	0	0	2	33486,7490	-0,100000001	1,22903955	-5,5544763538986445E-005	-0,099980574183947264	0,000122880083	-0,023645767882047571	0,041547462592308358	0,00088225539175223667
1	1	0	1	0	0	1	33607,5180	0,100000001	1,96749687	5,5563074425690707E-005	0,10001353377995355	0,000196776309	-0,024555401046063306	0,0012210162738641917	0,00091619502811646003
1	1	0	1	0	0	1	33731,5180	0,100000001	2,55277491	5,5563169661495418E-005	0,10001370520440171	0,00025531248	-0,021110488822373638	0,0046659284975538624	0,00078766072131685312
1	1	0	1	0	0	1	33855,5180	0,100000001	2,59222507	5,5563084253834355E-005	0,10001355147061206	0,000259257649	-0,017665572467657395	0,0081108448522701005	0,0006591262603830903
1	1	0	1	0	0	1	33979,5180	0,100000001	2,6262331	5,5563136436459091E-005	0,10001364539933643	0,000262659159	-0,014220655978489642	0,011555761341437858	0,00053059179443276083
1	1	0	1	0	0	1	34103,5180	0,100000001	2,66262794	5,5563109466599091E-005	0,10001359685358851	0,000266299001	-0,01077574373022008	0,015000673589707418	0,00040205748671604493
1	1	0	1	0	0	1	34227,5180	0,100000001	2,70459843	5,55631310923232E-005	0,10001363577989184	0,000270496734	-0,0073308279825672102	0,018445589337360282	0,00027352304843263286
1	1	0	1	0	0	1	34351,5180	0,100000001	2,75405431	5,5563065996600525E-005	0,10001351860759125	0,000275442668	-0,0038859186597594413	0,021890498660168054	0,00014498884986882976
1	1	0	1	0	0	1	34475,5180	0,100000001	2,81574988	5,5562986247241498E-005	0,10001337505874525	0,000281612651	-0,00044100956066445632	0,02533540775926304	1,6454659652051427E-005
1	1	0	1	0	0	1	34599,5180	0,100000001	2,90127611	5,5562854048692518E-005	0,10001313710135755	0,000290165714	0,0030038976791364832	0,028780314999063981	-0,00011207946119196624
1	1	0	1	0	0	1	34723,5180	0,100000001	3,02989936	5,556320109922025E-005	0,10001376179230629	0,000303031644	0,0064488049559812979	0,032225222275908781	-0,0002406135834181407
1	1	0	1	0	0	1	34847,5180	0,100000001	3,25126672	5,5563046544376346E-005	0,10001348359358779	0,00032517052	0,0098937173030339584	0,035670134622961453	-0,00036914789482058682
1	1	0	1	0	0	1	34971,5180	0,100000001	3,67700672	5,5562918737116787E-005	0,10001325354052101	0,000367749395	0,01333862724748341	0,039115044567410867	-0,00049768211657867699
1	1	0	1	0	0	1	35095,5180	0,100000001	4,36235523	5,5563130978908806E-005	0,10001363557574595	0,000436294999	0,016783536341420112	0,042559953661347565	-0,0006262163066029929
1	0	0	0	0	0	2	35215,7454	-0,100000001	2,52040339	-5,5544969949871302E-005	-0,099980945723539328	0,000251992315	0,015345976485518166	0,0023884344869583018	-0,00057257901555950848
1	0	0	0	0	0	2	35339,7454	-0,100000001	2,4077816	-5,5544874144097171E-005	-0,099980773273146214	0,000240731868	0,011902192371151152	0,005832218601325321	-0,00044408680003548883
1	0	0	0	0	0	2	35463,7454	-0,100000001	2,3773253	-5,5544831964290803E-005	-0,099980697349494886	0,000237686647	0,0084584109356627443	0,0092760000368137267	-0,00031559468446403168
1	0	0	0	0	0	2	35587,7454	-0,100000001	2,33728313	-5,5544838957488538E-005	-0,099980709937250778	0,000233683226	0,005014628479011831	0,012719782493464645	-0,00018710253079162851
1	0	0	0	0	0	2	35711,7454	-0,100000001	2,28652883	-5,5544729123926822E-005	-0,099980512236840064	0,000228608318	0,0015708509028467658	0,016163560069629706	-5,8610559216714202E-005
1	0	0	0	0	0	2	35835,7454	-0,100000001	2,2264564	-5,554484833776951E-005	-0,099980726821756506	0,000222602728	-0,0018729275255575155	0,019607338498033987	6,9881444156391091E-005
1	0	0	0	0	0	2	35959,7454	-0,100000001	2,15261626	-5,5544528323329158E-005	-0,099980150795764941	0,000215218897	-0,0053166988081273286	0,023051109780603805	0,00019837318090880467
1	0	0	0	0	0	2	36083,7454	-0,100000001	2,05632067	-5,5544401900221907E-005	-0,099979923234172314	0,000205590783	-0,0087604611608058419	0,026494872133282314	0,00032686458447496749
1	0	0	0	0	0	2	36207,7454	-0,100000001	1,92181611	-5,5544515202442803E-005	-0,099980127178169536	0,000192143416	-0,012204222371429555	0,029938633343906016	0,00045535594542953018
1	0	0	0	0	0	2	36331,7454	-0,100000001	1,72751212	-5,5544575591882067E-005	-0,099980235879160026	0,000172717075	-0,015647984826029936	0,0333823957985064	0,00058384735279853491
1	0	0	0	0	0	2	36455,7454	-0,100000001	1,47209859	-5,554460283037689E-005	-0,099980284908450598	0,000147180835	-0,01909174562160249	0,03682615659407897	0,00071233869826698086
1	0	0	0	0	0	2	36579,7454	-0,100000001	1,25346196	-5,5544440331558387E-005	-0,099979992410577856	0,000125321123	-0,022535507103816829	0,040269918076293318	0,00084083006935495514
1	0	0	0	0	0	2	36696,7408	-0,100000001	1,19995797	-2,7644638264758717E-005	-0,099980608375636224	0,00011997253	-0,025784743033762509	0,043519154006239021	0,00096206343054539891