File: Experimentelles/Rohdaten/Batteriemessungen/AlteZelle/Batterietest Li vs LATP/ECLab-Export/LATP vs Li Batterietest Probe1_02_GCPL_C01_loop1.mpt
EC-Lab ASCII FILE
Nb header lines : 3
mode	ox/red	error	control changes	Ns changes	counter inc.	Ns	time/s	control/V/mA	Ewe/V	dq/mA.h	<I>/mA	P/W	(Q-Qo)/mA.h	x	Capacity/mA.h
1	1	0	1	1	0	1	4390,06	0,100000001	1,21301889	0	0	0	0	0	0
1	1	0	1	0	0	1	4402,06	0,100000001	1,4859997	5,556283768018087E-005	0,10001310903520363	0,000148619452	0,00033200434660915539	-1,2387528556579126E-005	0,00033200434660915539
1	1	0	1	0	0	1	4414,06	0,100000001	1,61846101	5,5562783687065043E-005	0,10001301184759397	0,000161867167	0,00066538085957868902	-2,4826254484961254E-005	0,00066538085957868902
1	1	0	1	0	0	1	4426,06	0,100000001	1,74981499	5,5562787024925152E-005	0,10001301785574222	0,000175004272	0,00099875737197990899	-3,7264980392138835E-005	0,00099875737197990899
1	1	0	1	0	0	1	4438,06	0,100000001	1,89008617	5,556266064279609E-005	0,10001279036790717	0,000189032799	0,0013321337513936461	-4,970370133737463E-005	0,0013321337513936461
1	1	0	1	0	0	1	4450,06	0,100000001	2,03786159	5,5562807066159117E-005	0,10001305392996381	0,000203812757	0,001665509746999416	-6,2142407962219149E-005	0,001665509746999416
1	1	0	1	0	0	1	4462,06	0,100000001	2,19010544	5,5562711280667117E-005	0,10001288151607611	0,00021903876	0,0019988859358955987	-7,4581121798988813E-005	0,0019988859358955987
1	1	0	1	0	0	1	4474,06	0,100000001	2,3363533	5,5562759964416422E-005	0,10001296914682594	0,000233665633	0,00233226237378232	-8,7019844925930278E-005	0,00233226237378232
1	1	0	1	0	0	1	4486,06	0,100000001	2,44294095	5,5562783539709114E-005	0,1000130115823533	0,000244325871	0,0026656390994630323	-9,945857879085248E-005	0,0026656390994630323
1	1	0	1	0	0	1	4498,06	0,100000001	2,4905827	5,5562785439193248E-005	0,10001301500142477	0,000249090692	0,0029990154616054963	-0,00011189729909167384	0,0029990154616054963
1	1	0	1	0	0	1	4510,06	0,100000001	2,51221728	5,556276563016905E-005	0,10001297934518077	0,000251254329	0,0033323923523397478	-0,00012433603911496554	0,0033323923523397478
1	1	0	1	0	0	1	4522,06	0,100000001	2,52541184	5,5562850546919642E-005	0,1000131321953337	0,000252574362	0,0036657695300579469	-0,00013677478984601413	0,0036657695300579469
1	1	0	1	0	0	1	4534,06	0,100000001	2,5349021	5,5562922726488781E-005	0,10001326211855971	0,000253523816	0,0039991467736781862	-0,00014921354303595645	0,0039991467736781862
1	1	0	1	0	0	1	4546,06	0,100000001	2,542521	5,5562922886676262E-005	0,10001326240689718	0,000254285813	0,0043325242268439354	-0,00016165230404432346	0,0043325242268439354
1	1	0	1	0	0	1	4558,06	0,100000001	2,5487268	5,5562875123901498E-005	0,1000131764339016	0,000254906248	0,0046659017040088333	-0,00017409106594813104	0,0046659017040088333
1	1	0	1	0	0	1	4570,06	0,100000001	2,55447435	5,5562868682046733E-005	0,10001316483856285	0,000255481078	0,0049992791984412794	-0,00018652982849621402	0,0049992791984412794
1	1	0	1	0	0	1	4582,06	0,100000001	2,55945802	5,556285912916064E-005	0,10001314764336768	0,000255979452	0,0053326563116295866	-0,0001989685768195656	0,0053326563116295866
1	1	0	1	0	0	1	4594,06	0,100000001	2,56411719	5,5562892938653632E-005	0,10001320850045579	0,000256445579	0,0056660335491043392	-0,00021140732978021155	0,0056660335491043392
1	1	0	1	0	0	1	4606,06	0,100000001	2,56845188	5,5562820386969376E-005	0,10001307790742258	0,00025687879	0,005999410688642039	-0,0002238460790866944	0,005999410688642039
1	1	0	1	0	0	1	4618,06	0,100000001	2,57244277	5,5562781417121485E-005	0,10001300776169552	0,000257277745	0,0063327873779556403	-0,00023628481159471078	0,0063327873779556403
1	1	0	1	0	0	1	4630,06	0,100000001	2,57631898	5,5562858008676109E-005	0,10001314562649549	0,000257665757	0,006666164124543095	-0,00024872354623969168	0,006666164124543095
1	1	0	1	0	0	1	4642,06	0,100000001	2,58000422	5,5562896723548576E-005	0,10001321531326678	0,000258034503	0,0069995411382620109	-0,0002611622908517065	0,0069995411382620109
1	1	0	1	0	0	1	4654,06	0,100000001	2,58368945	5,5562875906212461E-005	0,10001317784206134	0,000258402986	0,0073329183399305165	-0,00027360104247637322	0,0073329183399305165
1	1	0	1	0	0	1	4666,06	0,100000001	2,58716488	5,5562874146219757E-005	0,10001317467407442	0,000258750573	0,0076662952593408115	-0,00028603978356960662	0,0076662952593408115
1	1	0	1	0	0	1	4678,06	0,100000001	2,59065914	5,5562846480558317E-005	0,10001312487588323	0,000259099907	0,0079996719894368205	-0,0002984785175992695	0,0079996719894368205
1	1	0	1	0	0	1	4690,06	0,100000001	2,59422994	5,5562801807290982E-005	0,10001304446400104	0,000259456836	0,0083330487396825101	-0,00031091725238074406	0,0083330487396825101
1	1	0	1	0	0	1	4702,06	0,100000001	2,59743786	5,5562875096996621E-005	0,1000131763854728	0,000259777997	0,0086664258258314176	-0,00032335599969521926	0,0086664258258314176
1	1	0	1	0	0	1	4714,06	0,100000001	2,60079861	5,556292985296912E-005	0,10001327494622448	0,000260114379	0,0089998032026874906	-0,00033579475785636966	0,0089998032026874906
1	1	0	1	0	0	1	4726,06	0,100000001	2,6041975	5,5562908528165683E-005	0,10001323656157782	0,000260454224	0,0093331806938387827	-0,00034823352028202842	0,0093331806938387827
1	1	0	1	0	0	1	4738,06	0,100000001	2,6073482	5,5562930302073555E-005	0,10001327575461248	0,000260769448	0,0096665582929009728	-0,00036067228673398784	0,0096665582929009728
1	1	0	1	0	0	1	4750,06	0,100000001	2,61067057	5,5562864378094675E-005	0,10001315709144906	0,000261101406	0,009999935427298601	-0,00037311103584868768	0,009999935427298601
1	1	0	1	0	0	1	4762,06	0,100000001	2,61393595	5,5562855285488896E-005	0,10001314072475845	0,000261427951	0,010333312969351021	-0,00038554980017353587	0,010333312969351021
1	1	0	1	0	0	1	4774,06	0,100000001	2,6169529	5,5562934835337933E-005	0,10001328391448845	0,000261730049	0,010666690317528982	-0,00039798855726466746	0,010666690317528982
1	1	0	1	0	0	1	4786,06	0,100000001	2,62029457	5,5562890177385677E-005	0,10001320353017341	0,000262064044	0,011000067751042584	-0,00041042731753978643	0,011000067751042584
1	1	0	1	0	0	1	4798,06	0,100000001	2,62361693	5,5562745528502592E-005	0,10001294316218072	0,000262395653	0,011333444925094685	-0,000422866068134048	0,011333444925094685
1	1	0	1	0	0	1	4810,06	0,100000001	2,62699676	5,5562958359718317E-005	0,10001332625837366	0,000262734684	0,011666822328159834	-0,00043530482727309427	0,011666822328159834
1	1	0	1	0	0	1	4822,06	0,100000001	2,63028121	5,5562972878830298E-005	0,10001335239277555	0,000263063237	0,01200020023724896	-0,00044774360529257549	0,01200020023724896
1	1	0	1	0	0	1	4834,06	0,100000001	2,63347006	5,5562958591514163E-005	0,10001332667560619	0,000263382099	0,012333577968660368	-0,00046018237668266214	0,012333577968660368
1	1	0	1	0	0	1	4846,06	0,100000001	2,63675427	5,5562964365714125E-005	0,10001333706916624	0,000263710594	0,012666955586938435	-0,00047262114385159174	0,012666955586938435
1	1	0	1	0	0	1	4858,06	0,100000001	2,6402297	5,5563053014377754E-005	0,10001349663676272	0,000264058617	0,01300033349569932	-0,00048505992185882592	0,01300033349569932
1	1	0	1	0	0	1	4870,06	0,100000001	2,64368582	5,5562900982383226E-005	0,10001322297916925	0,000264403527	0,013333711078910403	-0,00049749868771935917	0,013333711078910403
1	1	0	1	0	0	1	4882,06	0,100000001	2,64697003	5,5562895331531763E-005	0,1000132128076365	0,000264731963	0,013667088214679762	-0,00050993743688524013	0,013667088214679762
1	1	0	1	0	0	1	4894,06	0,100000001	2,65033078	5,5563034134192602E-005	0,10001346265242902	0,000265068753	0,014000466149471739	-0,00052237621586372928	0,014000466149471739
1	1	0	1	0	0	1	4906,06	0,100000001	2,65390158	5,5563009644134176E-005	0,10001341857032333	0,00026542577	0,014333844338119894	-0,00053481500431393376	0,014333844338119894
1	1	0	1	0	0	1	4918,06	0,100000001	2,6572814	5,5562982310437498E-005	0,1000133693696687	0,000265763665	0,014667222317083053	-0,00054725378494050899	0,014667222317083053
1	1	0	1	0	0	1	4930,06	0,100000001	2,66075659	5,5562957801338694E-005	0,10001332525329034	0,000266111107	0,01500060007322128	-0,00055969255725318669	0,01500060007322128
1	1	0	1	0	0	1	4942,06	0,100000001	2,66442275	5,5562957365065811E-005	0,10001332446799914	0,000266477786	0,01533397803768271	-0,00057213133733868307	0,01533397803768271
1	1	0	1	0	0	1	4954,06	0,100000001	2,66797447	5,5563001708851923E-005	0,10001340428681509	0,000266833202	0,01566735589377793	-0,00058457011338089037	0,01566735589377793
1	1	0	1	0	0	1	4966,06	0,100000001	2,67154527	5,5562969048404026E-005	0,10001334549800818	0,000267190189	0,016000734205384259	-0,0005970089064188297	0,016000734205384259
1	1	0	1	0	0	1	4978,06	0,100000001	2,67517328	5,5562986891716717E-005	0,10001337761597141	0,000267553114	0,016334111942405536	-0,0006094476780182281	0,016334111942405536
1	1	0	1	0	0	1	4990,06	0,100000001	2,67893505	5,55629902192288E-005	0,10001338360549322	0,000267929368	0,016667489788092294	-0,00062188645367208166	0,016667489788092294
1	1	0	1	0	0	1	5002,06	0,100000001	2,68256307	5,5562960830413632E-005	0,10001333070562528	0,00026829206	0,017000867698838349	-0,00063432523175338509	0,017000867698838349
1	1	0	1	0	0	1	5014,06	0,100000001	2,6864202	5,5562998861902291E-005	0,1000133991623057	0,000268678006	0,01733424565041648	-0,00064676401135818829	0,01733424565041648
1	1	0	1	0	0	1	5026,06	0,100000001	2,69031549	5,55630540019936E-005	0,10001349841447126	0,000269067852	0,017667623780935206	-0,00065920279763950554	0,017667623780935206
1	1	0	1	0	0	1	5038,06	0,100000001	2,6941154	5,5563012510952019E-005	0,1000134237305955	0,000269447715	0,018001001845040288	-0,00067164158144284058	0,018001001845040288
1	1	0	1	0	0	1	5050,06	0,100000001	2,69795346	5,5562980939116742E-005	0,10001336690129133	0,00026983142	0,018334379776857827	-0,00068408036031034931	0,018334379776857827
1	1	0	1	0	0	1	5062,06	0,100000001	2,70203972	5,5562984028624166E-005	0,10001337246240477	0,000270240096	0,018667757483967094	-0,00069651913079369062	0,018667757483967094
1	1	0	1	0	0	1	5074,06	0,100000001	2,70612621	5,5562946155253382E-005	0,10001330429033651	0,000270648627	0,019001135317939059	-0,00070895790601044941	0,019001135317939059
1	1	0	1	0	0	1	5086,06	0,100000001	2,7101934	5,5562940804494752E-005	0,10001329465897086	0,000271055382	0,019334512916447014	-0,00072139667244172954	0,019334512916447014
1	1	0	1	0	0	1	5098,06	0,100000001	2,71420336	5,556293303685056E-005	0,10001328067721115	0,000271456374	0,019667890500382458	-0,00073383543832928986	0,019667890500382458
1	1	0	1	0	0	1	5110,06	0,100000001	2,71842313	5,5562982835289504E-005	0,10001337031440234	0,000271878671	0,02000126776808753	-0,00074627419241786957	0,02000126776808753
1	1	0	1	0	0	1	5122,06	0,100000001	2,72283411	5,5562912034905619E-005	0,10001324287370979	0,000272319478	0,020334645287450861	-0,00075871295589615744	0,020334645287450861
1	1	0	1	0	0	1	5134,06	0,100000001	2,72713041	5,5562882891545696E-005	0,1000131904156613	0,000272749021	0,020668023244462125	-0,00077115173570367808	0,020668023244462125
1	1	0	1	0	0	1	5146,06	0,100000001	2,73157954	5,5562862891703846E-005	0,10001315441594552	0,000273193873	0,0210014008025544	-0,00078359050062699494	0,0210014008025544
1	1	0	1	0	0	1	5158,06	0,100000001	2,73587608	5,5562783963564371E-005	0,10001301234529275	0,000273623213	0,021334777914702109	-0,00079602924891152026	0,021334777914702109
1	1	0	1	0	0	1	5170,06	0,100000001	2,74043965	5,5562781291289466E-005	0,10001300753519786	0,000274079619	0,021668154959099206	-0,00080846799466817933	0,021668154959099206
1	1	0	1	0	0	1	5182,06	0,100000001	2,74509883	5,556287382708656E-005	0,10001317409963466	0,000274546037	0,022001532168311008	-0,0008209067465742967	0,022001532168311008
1	1	0	1	0	0	1	5194,06	0,100000001	2,74981523	5,5562840217517485E-005	0,1000131136024096	0,000275017577	0,022334909212070256	-0,00083334549230715674	0,022334909212070256
1	1	0	1	0	0	1	5206,06	0,100000001	2,75451255	5,5563034364332755E-005	0,10001346306668131	0,000275488332	0,022668286758464707	-0,0008457842567940119	0,022668286758464707
1	1	0	1	0	0	1	5218,06	0,100000001	2,75943899	5,5562842126935718E-005	0,10001311703936246	0,000275980099	0,023001664128705082	-0,00085822301470832179	0,023001664128705082
1	1	0	1	0	0	1	5230,06	0,100000001	2,76430821	5,556269712953104E-005	0,10001285604403086	0,000276466366	0,023335040661271715	-0,00087066174136789811	0,023335040661271715
1	1	0	1	0	0	1	5242,06	0,100000001	2,76938748	5,5562922476894323E-005	0,1000132616692897	0,000276975479	0,023668417662910346	-0,00088310048552918118	0,023668417662910346
1	1	0	1	0	0	1	5254,06	0,100000001	2,7745049	5,5562864124361011E-005	0,10001315663472846	0,000277486979	0,024001794894546323	-0,00089553923827197453	0,024001794894546323
1	1	0	1	0	0	1	5266,06	0,100000001	2,77977514	5,5562725724445453E-005	0,10001290751487742	0,00027801338	0,024335171682593363	-0,00090797797446386829	0,024335171682593363
1	1	0	1	0	0	1	5278,06	0,100000001	2,78529358	5,5562821787678528E-005	0,10001308042869907	0,0002785658	0,02466854853612231	-0,0009204167130989801	0,02466854853612231
1	1	0	1	0	0	1	5290,06	0,100000001	2,79079294	5,5562820624146202E-005	0,10001307833434085	0,000279115804	0,025001925739353782	-0,00093285546478196314	0,025001925739353782
1	1	0	1	0	0	1	5302,06	0,100000001	2,79642582	5,5562847189605235E-005	0,1000131261521677	0,000279679283	0,025335302517939414	-0,00094529420062083904	0,025335302517939414
1	1	0	1	0	0	1	5314,06	0,100000001	2,80238342	5,556281487602327E-005	0,10001306798771946	0,000280274951	0,025668679434757738	-0,00095773294161736256	0,025668679434757738
1	1	0	1	0	0	1	5326,06	0,100000001	2,80815029	5,5562812231894995E-005	0,1000130632282885	0,000280851702	0,02600205608454601	-0,00097017167265063565	0,02600205608454601
1	1	0	1	0	0	1	5338,06	0,100000001	2,81424141	5,5562614456233056E-005	0,10001270723209269	0,000281459914	0,026335432320987242	-0,00098261038826137523	0,026335432320987242
1	1	0	1	0	0	1	5350,06	0,100000001	2,82065725	5,5562799612681069E-005	0,10001304051370315	0,000282102497	0,026668808464310707	-0,00099504910039776538	0,026668808464310707
1	1	0	1	0	0	1	5362,06	0,100000001	2,82720685	5,5562685855974758E-005	0,10001283575162931	0,000282756984	0,027002184409364698	-0,0010074878051364552	0,027002184409364698
1	1	0	1	0	0	1	5374,06	0,100000001	2,83375645	5,5562692527555757E-005	0,10001284776047525	0,000283412053	0,0273355603432184	-0,001019926509457247	0,0273355603432184
1	1	0	1	0	0	1	5386,06	0,100000001	2,84074521	5,5562667649653222E-005	0,10001280298025014	0,000284110894	0,027668936433266074	-0,0010323652196058458	0,027668936433266074
1	1	0	1	0	0	1	5398,06	0,100000001	2,84779119	5,5562743710147008E-005	0,10001293988914064	0,000284815964	0,028002312928564899	-0,0010448039448749101	0,028002312928564899
1	1	0	1	0	0	1	5410,06	0,100000001	2,8550663	5,5562642848326099E-005	0,1000127583378608	0,000285543065	0,028335689107903645	-0,0010572426583550789	0,028335689107903645
1	1	0	1	0	0	1	5422,06	0,100000001	2,86249423	5,5562646656400627E-005	0,10001276519239504	0,000286285969	0,028669065191777683	-0,0010696813682733314	0,028669065191777683
1	1	0	1	0	0	1	5434,06	0,100000001	2,87020874	5,5562762404895488E-005	0,1000129735396883	0,000287058123	0,029002441667897478	-0,0010821200928268002	0,029002441667897478
1	1	0	1	0	0	1	5446,06	0,100000001	2,8782475	5,5562733570320742E-005	0,10001292163745312	0,000287861942	0,029335818036801338	-0,0010945588133798982	0,029335818036801338
1	1	0	1	0	0	1	5458,06	0,100000001	2,8864584	5,5562794615825018E-005	0,10001303151936214	0,000288683455	0,029669194596586182	-0,0011069975410550226	0,029669194596586182
1	1	0	1	0	0	1	5470,06	0,100000001	2,89503193	5,5562819468478362E-005	0,1000130762541387	0,000289541058	0,030002571366423174	-0,0011194362765674749	0,030002571366423174
1	1	0	1	0	0	1	5482,06	0,100000001	2,90373921	5,5562738758822285E-005	0,100012930976756	0,000290411466	0,030335948090140243	-0,0011318750103591309	0,030335948090140243
1	1	0	1	0	0	1	5494,06	0,100000001	2,91277122	5,5562670061571731E-005	0,10001280732170354	0,000291314442	0,030669324551413101	-0,0011443137343586406	0,030669324551413101
1	1	0	1	0	0	1	5506,06	0,100000001	2,92220402	5,5562639717426566E-005	0,10001275270224157	0,000292257668	0,031002700628460339	-0,0011567524440221757	0,031002700628460339
1	1	0	1	0	0	1	5518,06	0,100000001	2,93207622	5,5562625646591187E-005	0,10001272737473758	0,000293244928	0,031336076531814259	-0,0011691911472049795	0,031336076531814259
1	1	0	1	0	0	1	5530,06	0,100000001	2,94213915	5,5562713123030131E-005	0,10001288483232957	0,000294251833	0,031669452333844013	-0,0011816298466072427	0,031669452333844013
1	1	0	1	0	0	1	5542,06	0,100000001	2,95262218	5,5562723246299558E-005	0,10001290305421477	0,000295300328	0,032002828663224205	-0,0011940685656856597	0,032002828663224205
1	1	0	1	0	0	1	5554,06	0,100000001	2,96360183	5,556264012182752E-005	0,1000127534301633	0,000296397979	0,032336204678091782	-0,0012065072730291883	0,032336204678091782
1	1	0	1	0	0	1	5566,06	0,100000001	2,97500157	5,5562654349539021E-005	0,1000127790400443	0,000297538179	0,032669580912051155	-0,0012189459885473259	0,032669580912051155
1	1	0	1	0	0	1	5578,06	0,100000001	2,98678303	5,556262565114432E-005	0,10001272738293322	0,000298716302	0,033002956996186381	-0,0012313846984753237	0,033002956996186381
1	1	0	1	0	0	1	5590,06	0,100000001	2,99902296	5,5562620304110976E-005	0,10001271775827307	0,000299940439	0,033336332837216186	-0,0012438233993327312	0,033336332837216186
1	1	0	1	0	0	1	5602,06	0,100000001	3,01187372	5,5562615307254925E-005	0,1000127087639321	0,000301225664	0,033669708957381997	-0,0012562621106050782	0,033669708957381997
1	1	0	1	0	0	1	5614,06	0,100000001	3,02552652	5,5562703475770022E-005	0,10001286746726118	0,000302591594	0,034003084983121235	-0,0012687008183542429	0,034003084983121235
1	1	0	1	0	0	1	5626,06	0,100000001	3,0394659	5,5562773883756666E-005	0,10001299420163867	0,000303986075	0,034336461248933069	-0,0012811395350608389	0,034336461248933069
1	1	0	1	0	0	1	5638,06	0,100000001	3,05413079	5,5562757918404205E-005	0,10001296546400389	0,000305452675	0,034669837645971571	-0,0012935782566636782	0,034669837645971571
1	1	0	1	0	0	1	5650,06	0,100000001	3,06961679	5,556277179262704E-005	0,1000129904376053	0,000307001552	0,035003214290394592	-0,001306016987496767	0,035003214290394592
1	1	0	1	0	0	1	5662,06	0,100000001	3,08577108	5,556285090868672E-005	0,10001313284651443	0,000308617629	0,035336591339490944	-0,0013184557334287613	0,035336591339490944
1	1	0	1	0	0	1	5674,06	0,100000001	3,10286093	5,5562767252739936E-005	0,10001298226580842	0,000310326373	0,035669967915311507	-0,0013308944617021998	0,035669967915311507
1	1	0	1	0	0	1	5686,06	0,100000001	3,12069559	5,5562717384762234E-005	0,10001289250344746	0,000312109798	0,036003344075536192	-0,0013433331744691978	0,036003344075536192
1	1	0	1	0	0	1	5698,06	0,100000001	3,13954234	5,5562709472659565E-005	0,10001287826166248	0,000313994678	0,036336720377648909	-0,0013557718925302282	0,036336720377648909
1	1	0	1	0	0	1	5710,06	0,100000001	3,15940094	5,5562753191424736E-005	0,10001295695544074	0,000315981044	0,036670096902481837	-0,0013682106189012496	0,036670096902481837
1	1	0	1	0	0	1	5722,06	0,100000001	3,18048167	5,5562776214960544E-005	0,1000129983978057	0,0003180895	0,037003473314319258	-0,0013806493410562568	0,037003473314319258
1	1	0	1	0	0	1	5734,06	0,100000001	3,20270824	5,5562731051610579E-005	0,10001291710377477	0,000320312189	0,037336849663881414	-0,0013930880608876899	0,037336849663881414
1	1	0	1	0	0	1	5746,06	0,100000001	3,22627139	5,5562654424872666E-005	0,10001277917564486	0,000322668377	0,037670226130225626	-0,0014055267850764182	0,037670226130225626
1	1	0	1	0	0	1	5758,06	0,100000001	3,25113297	5,5562719052036602E-005	0,10001289550454136	0,000325155212	0,038003602264973062	-0,0014179654968928256	0,038003602264973062
1	1	0	1	0	0	1	5770,06	0,100000001	3,27763677	5,5562625507099757E-005	0,10001272712365301	0,000327805377	0,038336978260041978	-0,0014304042034976392	0,038336978260041978
1	1	0	1	0	0	1	5782,06	0,100000001	3,30570626	5,5562679492764998E-005	0,10001282429785162	0,000330613024	0,038670354362732864	-0,0014428429141179734	0,038670354362732864
1	1	0	1	0	0	1	5794,06	0,100000001	3,33541775	5,5562720118711392E-005	0,100012897424556	0,000333584787	0,039003730740781069	-0,0014552816350122595	0,039003730740781069
1	1	0	1	0	0	1	5806,06	0,100000001	3,36713457	5,5562733829435379E-005	0,10001292210385949	0,000336756959	0,03933710688913575	-0,0014677203473363712	0,03933710688913575
1	1	0	1	0	0	1	5818,06	0,100000001	3,40076065	5,5562750830004608E-005	0,10001295270488445	0,00034012011	0,039670483300639955	-0,0014801590694789456	0,039670483300639955
1	1	0	1	0	0	1	5830,06	0,100000001	3,43646812	5,5562711965292691E-005	0,10001288274840216	0,000343691092	0,040003859726853267	-0,0014925977921703366	0,040003859726853267
1	1	0	1	0	0	1	5842,06	0,100000001	3,47421885	5,5562783291356435E-005	0,10001301113531845	0,000347467081	0,040337236112242784	-0,0015050365133385363	0,040337236112242784
1	1	0	1	0	0	1	5854,06	0,100000001	3,51418447	5,5562731664213869E-005	0,1000129182064607	0,000351463852	0,040670612859846003	-0,0015174752480214173	0,040670612859846003
1	1	0	1	0	0	1	5866,06	0,100000001	3,55621219	5,5562760706577037E-005	0,10001297048271506	0,000355667347	0,041003989317819488	-0,0015299139718978227	0,041003989317819488
1	1	0	1	0	0	1	5878,06	0,100000001	3,60049343	5,5562856966008742E-005	0,10001314374969422	0,000360096659	0,041337366287938848	-0,0015423527148830794	0,041337366287938848
1	1	0	1	0	0	1	5890,06	0,100000001	3,64685583	5,5562756842623155E-005	0,10001296352759798	0,00036473287	0,041670742986888525	-0,001554791447750631	0,041670742986888525
1	1	0	1	0	0	1	5902,06	0,100000001	3,69564319	5,5562707465555936E-005	0,1000128746488759	0,000369611895	0,04200411952260137	-0,0015672301745275965	0,04200411952260137
1	1	0	1	0	0	1	5914,06	0,100000001	3,74687481	5,5562815295739309E-005	0,10001306874320834	0,000374736439	0,042337496088455546	-0,0015796689024291757	0,042337496088455546
1	1	0	1	0	0	1	5926,06	0,100000001	3,80018783	5,5562759278549088E-005	0,10001296791226472	0,000380068057	0,042670872701269901	-0,0015921076320829024	0,042670872701269901
1	1	0	1	0	0	1	5938,06	0,100000001	3,85539126	5,5562572227997914E-005	0,10001263122126851	0,000385587831	0,043004248692431398	-0,0016045463385419251	0,043004248692431398
1	1	0	1	0	0	1	5950,06	0,100000001	3,91204596	5,5562691561463802E-005	0,10001284602150971	0,000391254842	0,043337624604287264	-0,0016169850420419482	0,043337624604287264
1	1	0	1	0	0	1	5962,06	0,100000001	3,96975064	5,55627112508648E-005	0,10001288146243194	0,00039702619	0,043671000999255334	-0,001629423763567537	0,043671000999255334
1	1	0	1	0	0	1	5974,06	0,100000001	4,0282383	5,556288629811671E-005	0,1000131965474892	0,000402876991	0,04400437782721264	-0,0016418625012485363	0,04400437782721264
1	1	0	1	0	0	1	5986,06	0,100000001	4,08546591	5,5562737022423078E-005	0,10001292785123741	0,000408599415	0,044337754737762547	-0,0016543012420111766	0,044337754737762547
1	1	0	1	0	0	1	5998,06	0,100000001	4,13944721	5,5562765576773222E-005	0,10001297924906829	0,000413998438	0,044671131249714656	-0,0016667399679015974	0,044671131249714656
1	1	0	1	0	0	1	6010,06	0,100000001	4,19044971	5,5562742245280077E-005	0,10001293725238013	0,000419099175	0,04500450794395888	-0,0016791787005935821	0,04500450794395888
1	1	0	1	0	0	1	6022,06	0,100000001	4,23734093	5,5562851917412544E-005	0,10001313466222096	0,000423789752	0,045337884777367955	-0,0016916174384779942	0,045337884777367955
1	1	0	1	0	0	1	6034,06	0,100000001	4,28162193	5,5562801361497907E-005	0,1000130436615735	0,000428218045	0,04567126194754368	-0,001704056188927623	0,04567126194754368
1	1	0	1	0	0	1	6046,06	0,100000001	4,3223896	5,5562716119819219E-005	0,10001289022655	0,000432294677	0,046004638467404582	-0,0017164949151131312	0,046004638467404582
1	1	0	1	0	0	1	6058,06	0,100000001	4,3598156	5,5562756566537754E-005	0,10001296303064426	0,00043603807	0,046338014812142906	-0,0017289336347645805	0,046338014812142906
1	1	0	1	0	0	1	6070,06	0,100000001	4,39403391	5,5562784342716134E-005	0,10001301302776594	0,000439460564	0,046671391430826246	-0,0017413723646372874	0,046671391430826246
1	1	0	1	0	0	1	6082,06	0,100000001	4,42485285	5,5562795128259392E-005	0,10001303244174405	0,000442542951	0,047004767960431686	-0,0017538110911863776	0,047004767960431686
1	1	0	1	0	0	1	6094,06	0,100000001	4,45231152	5,5562718136856954E-005	0,10001289385721797	0,000445288548	0,04733814449062697	-0,0017662498177574752	0,04733814449062697
1	1	0	1	0	0	1	6106,06	0,100000001	4,47709656	5,5562655310663917E-005	0,10001278077006914	0,000447766884	0,047671520627035872	-0,0017786885296358739	0,047671520627035872
1	1	0	1	0	0	1	6118,06	0,100000001	4,49987698	5,5562730954753024E-005	0,10001291692943118	0,000450045831	0,048004896976942413	-0,0017911272494801568	0,048004896976942413
1	0	0	0	0	0	2	6126,14	-0,100000001	4,16401672	-5,5545431353151795E-005	-0,099981777646171955	0,000416325784	0,047785160741830458	-0,0017829285951096195	0,00022218654849587216
1	0	0	0	0	0	2	6138,14	-0,100000001	3,79370904	-5,5545488881982035E-005	-0,099981881198067635	0,000379302161	0,047451887611686778	-0,0017704937265334698	0,0005554596786395543
1	0	0	0	0	0	2	6150,14	-0,100000001	3,4580586	-5,5545610969679226E-005	-0,099982100955925248	0,00034574396	0,04711861429433815	-0,0017580588509724512	0,00088873299598818022
1	0	0	0	0	0	2	6162,14	-0,100000001	3,14566612	-5,5545694549878438E-005	-0,099982251400285645	0,000314510777	0,046785340376111782	-0,0017456239529918771	0,0012220069142145413
1	0	0	0	0	0	2	6174,14	-0,100000001	2,87026024	-5,5545648261904717E-005	-0,099982168081931942	0,000286974828	0,046452066369671373	-0,0017331890517199178	0,0015552809206549491
1	0	0	0	0	0	2	6186,14	-0,100000001	2,65171909	-5,5545770503580576E-005	-0,099982388116951142	0,000265125214	0,046118792184619021	-0,0017207541437837072	0,0018885551057072979
1	0	0	0	0	0	2	6198,14	-0,100000001	2,56745315	-5,554583879187703E-005	-0,099982511035886259	0,000256700412	0,045785517177321837	-0,0017083192051684358	0,0022218301130044787
1	0	0	0	0	0	2	6210,14	-0,100000001	2,52519608	-5,5545704150779386E-005	-0,099982268681907558	0,000252474827	0,045452242467371533	-0,001695884277647577	0,002555104822954783
1	0	0	0	0	0	2	6222,14	-0,100000001	2,49649644	-5,5545849039322797E-005	-0,09998252948128887	0,000249606033	0,045118967996276493	-0,0016834493590387293	0,0028883792940498221
1	0	0	0	0	0	2	6234,14	-0,100000001	2,47386909	-5,5545574940741062E-005	-0,099982036103835776	0,000247342454	0,044785694070842944	-0,0016710144607892448	0,0032216532194833779
1	0	0	0	0	0	2	6246,14	-0,100000001	2,4557097	-5,5545569779972237E-005	-0,099982026814451776	0,00024552684	0,044452420414593069	-0,0016585795725833658	0,0035549268757332518
1	0	0	0	0	0	2	6258,14	-0,100000001	2,44047213	-5,5545580186777645E-005	-0,099982045546701734	0,0002440034	0,044119146782664787	-0,0016461446852849578	0,0038882005076615328
1	0	0	0	0	0	2	6270,14	-0,100000001	2,42890048	-5,5545543464521568E-005	-0,099981979446639987	0,000242846276	0,043785873559226176	-0,0016337098132278483	0,0042214737311001446
1	0	0	0	0	0	2	6282,14	-0,100000001	2,42183542	-5,5545563954859974E-005	-0,099982016329249562	0,000242139984	0,043452599768242477	-0,0016212749199948691	0,0045547475220838349
1	0	0	0	0	0	2	6294,14	-0,100000001	2,41719532	-5,554557603556249E-005	-0,099982038074514368	0,000241676113	0,043119326497176448	-0,0016088400461607168	0,0048880207931498688
1	0	0	0	0	0	2	6306,14	-0,100000001	2,41322351	-5,5545543909486797E-005	-0,099981980247577395	0,00024127886	0,042786053352603059	-0,0015964051770461754	0,0052212939377232557
1	0	0	0	0	0	2	6318,14	-0,100000001	2,40978646	-5,5545424852106304E-005	-0,099981765944289933	0,000240934707	0,042452780346584806	-0,001583970313101312	0,0055545669437415072
1	0	0	0	0	0	2	6330,14	-0,100000001	2,40671229	-5,5545482837077645E-005	-0,099981870317239616	0,000240627603	0,042119507373717498	-0,0015715354503933549	0,0058878399166088141
1	0	0	0	0	0	2	6342,14	-0,100000001	2,40369534	-5,5545539569109677E-005	-0,099981972434898509	0,000240326204	0,041786234001215117	-0,0015591005727744762	0,0062211132891111898
1	0	0	0	0	0	2	6354,14	-0,100000001	2,40079284	-5,5545518582893741E-005	-0,099981934659709363	0,000240035908	0,041452960835081402	-0,0015466657028554899	0,0065543864552448998
1	0	0	0	0	0	2	6366,14	-0,100000001	2,39798594	-5,5545568318830598E-005	-0,099982024184396787	0,000239755493	0,04111968759774704	-0,0015342308302799114	0,0068876596925792563
1	0	0	0	0	0	2	6378,14	-0,100000001	2,39514065	-5,5545593267927565E-005	-0,099982069092771878	0,000239471119	0,040786414123309965	-0,001521795948857712	0,0072209331670163379
1	0	0	0	0	0	2	6390,14	-0,100000001	2,39239097	-5,5545537381536429E-005	-0,099981968497266611	0,000239195957	0,04045314094678311	-0,0015093610785509434	0,0075542063435431962
1	0	0	0	0	0	2	6402,14	-0,100000001	2,38954592	-5,5545609559863802E-005	-0,099982098418257459	0,000238911816	0,040119867510124192	-0,0014969261985382979	0,0078874797802021069
1	0	0	0	0	0	2	6414,14	-0,100000001	2,38647175	-5,5545586244513594E-005	-0,09998205645062656	0,000238604349	0,039786594059514899	-0,0014844913180051456	0,0082207532308114061
1	0	0	0	0	0	2	6426,14	-0,100000001	2,38355017	-5,5545769597507187E-005	-0,099982386486019034	0,000238313034	0,03945331998547289	-0,0014720564142108797	0,0085540273048534157
1	0	0	0	0	0	2	6438,14	-0,100000001	2,38055229	-5,5545634653419258E-005	-0,09998214358665783	0,000238012726	0,039120045862567488	-0,0014596215085934554	0,0088873014277588147
1	0	0	0	0	0	2	6450,14	-0,100000001	2,37749696	-5,5545794335504371E-005	-0,099982431014414502	0,000237707922	0,038786771657699494	-0,0014471865999178963	0,0092205756326268109
1	0	0	0	0	0	2	6462,14	-0,100000001	2,37436557	-5,5545699535558618E-005	-0,099982260374510093	0,00023739443	0,038453497323630989	-0,0014347516864216925	0,0095538499666953242
1	0	0	0	0	0	2	6474,14	-0,100000001	2,37104297	-5,5545546573897203E-005	-0,099981985043516211	0,000237061584	0,038120223423747546	-0,0014223167891255171	0,0098871238665787699
1	0	0	0	0	0	2	6486,14	-0,100000001	2,36772037	-5,554558298115929E-005	-0,099982050576588749	0,000236729538	0,037786949917947661	-0,0014098819065331294	0,010220397372378656
1	0	0	0	0	0	2	6498,14	-0,100000001	2,36437893	-5,5545501520650259E-005	-0,09998190394767072	0,000236395106	0,03745367647926343	-0,0013974470264449168	0,010553670811062883
1	0	0	0	0	0	2	6510,14	-0,100000001	2,36082721	-5,5545539182093408E-005	-0,09998197173826921	0,000236040156	0,037120403397947546	-0,0013850121596905976	0,010886943892378771
1	0	0	0	0	0	2	6522,14	-0,100000001	2,35719919	-5,5545360028743744E-005	-0,099981649262235917	0,000235676664	0,036787131093140691	-0,0013725773219088746	0,011220216197185629
1	0	0	0	0	0	2	6534,14	-0,100000001	2,35347557	-5,5545633291618694E-005	-0,099982141135416768	0,000235305532	0,036453857614770118	-0,0013601424403399109	0,011553489675556203
1	0	0	0	0	0	2	6546,14	-0,100000001	2,34971404	-5,5545619845390317E-005	-0,099982116932205402	0,000234929379	0,036120583992946061	-0,0013477075534185053	0,011886763297380254
1	0	0	0	0	0	2	6558,14	-0,100000001	2,34587598	-5,5545668794463078E-005	-0,099982205040537459	0,000234545849	0,035787310282763514	-0,0013352726632003254	0,012220037007562813
1	0	0	0	0	0	2	6570,14	-0,100000001	2,34190416	-5,5545652810484166E-005	-0,099982176269375053	0,000234148669	0,035454036461485773	-0,0013228377688370346	0,012553310828840566
1	0	0	0	0	0	2	6582,14	-0,100000001	2,33779883	-5,5545641013317638E-005	-0,099982155034475046	0,000233738159	0,035120762855313318	-0,0013104028824996109	0,012886584435013018
1	0	0	0	0	0	2	6594,14	-0,100000001	2,33365512	-5,5545610136042035E-005	-0,099982099455378278	0,000233323735	0,034787489016724563	-0,0012979679874904227	0,013219858273601779
1	0	0	0	0	0	2	6606,14	-0,100000001	2,32932067	-5,554567164099879E-005	-0,099982210164301786	0,000232890627	0,034454215064414278	-0,0012855330882381317	0,013553132225912061
1	0	0	0	0	0	2	6618,14	-0,100000001	2,32504344	-5,5545679739779898E-005	-0,099982224742107955	0,000232463019	0,034120940920533421	-0,0012730981818380848	0,013886406369792917
1	0	0	0	0	0	2	6630,14	-0,100000001	2,32070875	-5,5545622359961274E-005	-0,09998212145843319	0,000232029386	0,033787667169928154	-0,0012606632901116787	0,014219680120398186
1	0	0	0	0	0	2	6642,14	-0,100000001	2,31618333	-5,554555229801271E-005	-0,09998199534692425	0,000231576632	0,033454393647719187	-0,0012482284069070461	0,014552953642607149
1	0	0	0	0	0	2	6654,14	-0,100000001	2,31158137	-5,5545582327163885E-005	-0,099982049399397005	0,000231116646	0,033121120333953472	-0,0012357935314797112	0,014886226956372874
1	0	0	0	0	0	2	6666,14	-0,100000001	2,30697966	-5,5545590180489747E-005	-0,099982063535383731	0,000230656588	0,032787846808424864	-0,0012233586481512179	0,015219500481901485
1	0	0	0	0	0	2	6678,14	-0,100000001	2,30211043	-5,5545667546490829E-005	-0,099982202794187366	0,000230170073	0,032454573073971629	-0,0012109237570274662	0,01555277421635472
1	0	0	0	0	0	2	6690,14	-0,100000001	2,29743218	-5,5545537833538323E-005	-0,099981969310870029	0,000229701793	0,032121299457225555	-0,0011984888702955267	0,015886047833100794
1	0	0	0	0	0	2	6702,14	-0,100000001	2,2925055	-5,5545571426964467E-005	-0,099982029779037824	0,000229209356	0,03178802583066087	-0,0011860539831972419	0,016219321459665488
1	0	0	0	0	0	2	6714,14	-0,100000001	2,28759813	-5,5545465129531091E-005	-0,099981838443655437	0,000228718272	0,031454752944730669	-0,0011736191237330253	0,016552594345595696
1	0	0	0	0	0	2	6726,14	-0,100000001	2,28269076	-5,5545475600908205E-005	-0,099981857292134451	0,000228227669	0,031121480407318765	-0,0011611842772724946	0,01688586688300761
1	0	0	0	0	0	2	6738,14	-0,100000001	2,27743983	-5,5545669795324403E-005	-0,099982206842087846	0,000227703465	0,030788206862809798	-0,001148749393235819	0,017219140427516576
1	0	0	0	0	0	2	6750,14	-0,100000001	2,2723031	-5,5545739201621875E-005	-0,099982331773424806	0,000227190161	0,030454933063486426	-0,0011363144996916752	0,017552414226839946
1	0	0	0	0	0	2	6762,14	-0,100000001	2,26724315	-5,5545723802513549E-005	-0,099982304055029491	0,000226684191	0,030121659049621926	-0,0011238795981427133	0,017885688240704445
1	0	0	0	0	0	2	6774,14	-0,100000001	2,2618773	-5,5545709071060026E-005	-0,099982277538412826	0,000226147647	0,0297883849675304	-0,0011114446940481094	0,018218962322795974
1	0	0	0	0	0	2	6786,14	-0,100000001	2,25637794	-5,554567937056224E-005	-0,09998222407751616	0,000225597687	0,029455111068424294	-0,0010990097967809376	0,01855223622190208
1	0	0	0	0	0	2	6798,14	-0,100000001	2,2509551	-5,5545686701519622E-005	-0,099982237273239616	0,000225055526	0,029121837503930803	-0,0010865749119986123	0,018885509786395568
1	0	0	0	0	0	2	6810,14	-0,100000001	2,24545574	-5,5545573543757203E-005	-0,099982033589264794	0,000224505231	0,028788563996007088	-0,0010741400293269814	0,019218783294319283
1	0	0	0	0	0	2	6822,14	-0,100000001	2,23974633	-5,5545609287917613E-005	-0,099982097928754317	0,000223934534	0,028455290489208819	-0,0010617051466973424	0,019552056801117552
1	0	0	0	0	0	2	6834,14	-0,100000001	2,23407507	-5,5545584203882349E-005	-0,099982052777490291	0,000223367417	0,028122017118383648	-0,0010492702691410426	0,019885330171942723
1	0	0	0	0	0	2	6846,14	-0,100000001	2,22821307	-5,5545553206569619E-005	-0,099981996982326694	0,000222781193	0,027788743956111411	-0,0010368353993661331	0,020218603334214963
1	0	0	0	0	0	2	6858,14	-0,100000001	2,22210264	-5,5545365520649485E-005	-0,099981659147666355	0,000222169503	0,027455471125360618	-0,0010244005419607344	0,020551876164965757
1	0	0	0	0	0	2	6870,14	-0,100000001	2,21620226	-5,5545549583517843E-005	-0,099981990460833421	0,000221580311	0,02712219829567153	-0,0010119656845949491	0,020885148994654845
1	0	0	0	0	0	2	6882,14	-0,100000001	2,21001554	-5,5545512677894694E-005	-0,09998192403071095	0,000220961607	0,026788925074535152	-0,00099953081262373952	0,021218422215791222
1	0	0	0	0	0	2	6894,14	-0,100000001	2,20377159	-5,5545715962433152E-005	-0,099982289942884608	0,00022033813	0,026455651489508691	-0,00098709592707530163	0,021551695800817683
1	0	0	0	0	0	2	6906,14	-0,100000001	2,19729829	-5,5545659775535264E-005	-0,099982188806467174	0,000219690686	0,026122377396094342	-0,00097466102255822797	0,021884969894232029
1	0	0	0	0	0	2	6918,14	-0,100000001	2,19086337	-5,5545484944764109E-005	-0,099981874111075302	0,000219046633	0,025789104326164179	-0,00096222615622872538	0,022218242964162195
1	0	0	0	0	0	2	6930,14	-0,100000001	2,18414211	-5,5545516699966458E-005	-0,099981931270440205	0,000218374742	0,02545583138381321	-0,00094979129465937395	0,022551515906513165
1	0	0	0	0	0	2	6942,14	-0,100000001	2,17721057	-5,5545480883783763E-005	-0,099981866801310592	0,000217681576	0,025122558352329699	-0,00093735642976436787	0,022884788937996672
1	0	0	0	0	0	2	6954,14	-0,100000001	2,17035556	-5,5545443949186138E-005	-0,099981800319034061	0,00021699605	0,024789285639616794	-0,00092492157676312141	0,023218061650709578
1	0	0	0	0	0	2	6966,14	-0,100000001	2,16319489	-5,5545408843706054E-005	-0,099981737129169126	0,000216279979	0,024456012988078954	-0,00091248672604439898	0,023551334302247418
1	0	0	0	0	0	2	6978,14	-0,100000001	2,15591979	-5,5545475520607501E-005	-0,099981857147593178	0,000215552864	0,024122740147481389	-0,00090005186827160397	0,023884607142844986
1	0	0	0	0	0	2	6990,14	-0,100000001	2,14839625	-5,5545417322880691E-005	-0,099981752391683661	0,000214800428	0,023789467249068147	-0,00088761700834162816	0,024217880041258227
1	0	0	0	0	0	2	7002,14	-0,100000001	2,14079666	-5,5545631591644557E-005	-0,099982138075463283	0,000214041429	0,023456193866704925	-0,00087518213035482816	0,02455115342362145
1	0	0	0	0	0	2	7014,14	-0,100000001	2,13291049	-5,5545386702236205E-005	-0,099981697274522931	0,000213252017	0,023122920855465469	-0,00086274726621515482	0,024884426434860906
1	0	0	0	0	0	2	7026,14	-0,100000001	2,12506247	-5,5545443919797734E-005	-0,099981800266134912	0,000212467567	0,022789648150964765	-0,00085031241352031667	0,02521769913936161
1	0	0	0	0	0	2	7038,14	-0,100000001	2,11667967	-5,5545451695306432E-005	-0,099981814262050752	0,000211629478	0,022456375365477491	-0,0008378775578037609	0,02555097192484888
1	0	0	0	0	0	2	7050,14	-0,100000001	2,10822058	-5,5545509936494957E-005	-0,09998191909619136	0,000210783939	0,022123102825828746	-0,00082544271125977088	0,025884244464497629
1	0	0	0	0	0	2	7062,14	-0,100000001	2,09962797	-5,5545566288133459E-005	-0,099982020529141901	0,000209925041	0,021789829468028429	-0,00081300783418944589	0,026217517822297946
1	0	0	0	0	0	2	7074,14	-0,100000001	2,09069157	-5,5545495233601997E-005	-0,099981892630983718	0,000209031306	0,021456556307925136	-0,00080057296449546253	0,026550790982401238
1	0	0	0	0	0	2	7086,14	-0,100000001	2,08139229	-5,554549541241593E-005	-0,099981892952848794	0,000208101541	0,021123283452426829	-0,0007881381061667008	0,026884063837899546
1	0	0	0	0	0	2	7098,14	-0,100000001	2,07205486	-5,5545377529329722E-005	-0,099981680763291046	0,000207167526	0,020790010722637606	-0,00077570325252831411	0,027217336567688765
1	0	0	0	0	0	2	7110,14	-0,100000001	2,06245017	-5,5545353077765971E-005	-0,099981636750475763	0,000206207143	0,020456738720805299	-0,00076326842605097856	0,027550608569521072
1	0	0	0	0	0	2	7122,14	-0,100000001	2,05236816	-5,5545367161018982E-005	-0,099981662100331494	0,000205199176	0,020123466779665421	-0,00075083360183815923	0,02788388051066095
1	0	0	0	0	0	2	7134,14	-0,100000001	2,04217148	-5,554534559324384E-005	-0,099981623278335757	0,000204179625	0,019790194686501827	-0,00073839877195313062	0,028217152603824544
1	0	0	0	0	0	2	7146,14	-0,100000001	2,03161192	-5,5545331309239066E-005	-0,099981597567126861	0,000203123811	0,01945692249724313	-0,00072596393848266458	0,028550424793083242
1	0	0	0	0	0	2	7158,14	-0,100000001	2,0205369	-5,5545347285353472E-005	-0,099981626324133158	0,00020201657	0,019123650424148086	-0,00071352910934642061	0,028883696866178285
1	0	0	0	0	0	2	7170,14	-0,100000001	2,00928998	-5,5545484124372403E-005	-0,099981872634370214	0,00020089258	0,018790377872842493	-0,00070109426236749798	0,029216969417483878
1	0	0	0	0	0	2	7182,14	-0,100000001	1,99756563	-5,554529133025143E-005	-0,09998152560494825	0,000199719652	0,018457105438154214	-0,00068865941973972416	0,02955024185217216
1	0	0	0	0	0	2	7194,14	-0,100000001	1,98551679	-5,554533995563785E-005	-0,099981613130644864	0,000198515176	0,01812383327681201	-0,0006762245873108599	0,029883514013514362
1	0	0	0	0	0	2	7206,14	-0,100000001	1,97327685	-5,5545424145128992E-005	-0,099981764671730739	0,000197291709	0,017790560839536317	-0,00066378974458654618	0,030216786450790054
1	0	0	0	0	0	2	7218,14	-0,100000001	1,96025419	-5,554534646206432E-005	-0,099981624842212634	0,0001959894	0,017457288553732992	-0,00065135490751387034	0,030550058736593382
1	0	0	0	0	0	2	7230,14	-0,100000001	1,94702137	-5,5545442925973069E-005	-0,099981798477250496	0,000194666703	0,017124015914699296	-0,00063892005726169421	0,030883331375627078
1	0	0	0	0	0	2	7242,14	-0,100000001	1,93319666	-5,5545524505277472E-005	-0,099981945320000205	0,000193284766	0,016790743068888397	-0,00062648519929438272	0,031216604221437978
1	0	0	0	0	0	2	7254,14	-0,100000001	1,91900921	-5,5545599099662573E-005	-0,099982079589895014	0,000191866537	0,016457469689173443	-0,00061405032140639309	0,031549877601152928
1	0	0	0	0	0	2	7266,14	-0,100000001	1,90426791	-5,5545575660549933E-005	-0,099982037399491738	0,000190392588	0,01612419625708753	-0,00060161544156437248	0,031883151033238835
1	0	0	0	0	0	2	7278,14	-0,100000001	1,88899195	-5,5545655183908013E-005	-0,099982180541538022	0,000188865539	0,015790922480379155	-0,0005891805488640247	0,032216424809947226
1	0	0	0	0	0	2	7290,14	-0,100000001	1,87360144	-5,5545601371261805E-005	-0,099982083678773683	0,000187326572	0,015457648812327562	-0,00057674566021780736	0,032549698477998822
1	0	0	0	0	0	2	7302,14	-0,100000001	1,85727537	-5,5545503880828621E-005	-0,099981908195991834	0,000185693934	0,015124375890690035	-0,0005643107994213024	0,032882971399636365
1	0	0	0	0	0	2	7314,14	-0,100000001	1,84054816	-5,5545520796544026E-005	-0,09998193864427991	0,00018402157	0,014791102849792717	-0,00055187593417505434	0,033216244440533677
1	0	0	0	0	0	2	7326,14	-0,100000001	1,82347739	-5,5545513827353715E-005	-0,099981926099737203	0,000182314776	0,01445782954519369	-0,00053944105908974099	0,033549517745132698
1	0	0	0	0	0	2	7338,14	-0,100000001	1,80592918	-5,5545410024623078E-005	-0,099981739254819789	0,000180559946	0,014124556660997398	-0,00052700619969021888	0,033882790629328986
1	0	0	0	0	0	2	7350,14	-0,100000001	1,78831029	-5,5545469183888698E-005	-0,099981845741499213	0,000178798568	0,013791283665829264	-0,00051457133615018797	0,034216063624497126
1	0	0	0	0	0	2	7362,14	-0,100000001	1,76999819	-5,5545527017364902E-005	-0,099981949841757632	0,000176967864	0,013458010637328056	-0,00050213647136645555	0,034549336652998336
1	0	0	0	0	0	2	7374,14	-0,100000001	1,7512089	-5,5545481748051117E-005	-0,099981868356991846	0,000175089139	0,013124737749586115	-0,00048970161183464051	0,034882609540740282
1	0	0	0	0	0	2	7386,14	-0,100000001	1,73173201	-5,554540867937936E-005	-0,099981736833381069	0,000173141569	0,012791465033469128	-0,00047726675870638317	0,035215882256857261
1	0	0	0	0	0	2	7398,14	-0,100000001	1,71133864	-5,5545348884744774E-005	-0,099981629203037517	0,000171102423	0,012458192599796611	-0,00046483191611650893	0,035549154690529779
1	0	0	0	0	0	2	7410,14	-0,100000001	1,69018149	-5,554537852770752E-005	-0,09998168256037111	0,000168987186	0,012124920215066547	-0,00045239707535274323	0,03588242707525984
1	0	0	0	0	0	2	7422,14	-0,100000001	1,66869974	-5,5545452816618816E-005	-0,099981816280413056	0,000166839629	0,011791647419531338	-0,00043996221926128538	0,036215699870795053
1	0	0	0	0	0	2	7434,14	-0,100000001	1,64675975	-5,5545472700148826E-005	-0,099981852070767514	0,000164646088	0,011458374757712939	-0,00042752736815898144	0,036548972532613446
1	0	0	0	0	0	2	7446,14	-0,100000001	1,62466693	-5,5545475001964307E-005	-0,099981856214035418	0,000162437209	0,011125102105263234	-0,00041509251740623603	0,036882245185063162
1	0	0	0	0	0	2	7458,14	-0,100000001	1,6022495	-5,554535884658496E-005	-0,099981647134350067	0,000160195545	0,010791829260012368	-0,00040265765945982016	0,037215518030314022
1	0	0	0	0	0	2	7470,14	-0,100000001	1,57998478	-5,5545372374355795E-005	-0,099981671484337869	0,000157969524	0,010458556868191008	-0,00039022281843146874	0,037548790422135386
1	0	0	0	0	0	2	7482,14	-0,100000001	1,55756736	-5,5545400245736038E-005	-0,099981721652822912	0,000155728267	0,01012528430429683	-0,00037778797098284915	0,037882062986029574
1	0	0	0	0	0	2	7494,14	-0,100000001	1,53513086	-5,5545388346330989E-005	-0,099981700233893568	0,000153484987	0,0097920118071925555	-0,00036535312602625062	0,03821533548313385
1	0	0	0	0	0	2	7506,14	-0,100000001	1,51277077	-5,5545481071703962E-005	-0,099981867139566938	0,000151249653	0,0094587393080401997	-0,00035291828099323546	0,038548607982286208
1	0	0	0	0	0	2	7518,14	-0,100000001	1,49041057	-5,5545405941290989E-005	-0,099981731904821952	0,000149013824	0,0091254669058559104	-0,00034048343957822925	0,038881880384470496
1	0	0	0	0	0	2	7530,14	-0,100000001	1,46801233	-5,5545520030375981E-005	-0,099981937265177434	0,000146774721	0,0087921939286275315	-0,00032804857670755488	0,039215153361698874
1	0	0	0	0	0	2	7542,14	-0,100000001	1,44546115	-5,5545495339151891E-005	-0,099981892820973517	0,000144519945	0,0084589208801753267	-0,00031561371117942387	0,039548426410151085
1	0	0	0	0	0	2	7554,14	-0,100000001	1,42291009	-5,5545495422763955E-005	-0,099981892971475238	0,000142265242	0,0081256482013385613	-0,00030317885944214176	0,039881699088987846
1	0	0	0	0	0	2	7566,14	-0,100000001	1,40110373	-5,554536524083879E-005	-0,099981658644007117	0,000140084681	0,0077923757765781837	-0,0002907440171847913	0,040214971513748218
1	0	0	0	0	0	2	7578,14	-0,100000001	1,37966013	-5,5545350573129126E-005	-0,099981632242129382	0,000137940675	0,0074591038013982554	-0,00027830919170189197	0,040548243488928147
1	0	0	0	0	0	2	7590,14	-0,100000001	1,35903764	-5,5545275583449338E-005	-0,099981497260704128	0,000135878625	0,0071258324645840755	-0,00026587439003727686	0,040881514825742323
1	0	0	0	0	0	2	7602,14	-0,100000001	1,33948445	-5,5545224783735142E-005	-0,099981405821217472	0,000133923546	0,0067925613093877299	-0,00025343959514906746	0,041214785980938662
1	0	0	0	0	0	2	7614,14	-0,100000001	1,3217262	-5,5545374816076627E-005	-0,099981675879435418	0,000132148401	0,0064592893738171584	-0,0002410047711440464	0,041548057916509229
1	0	0	0	0	0	2	7626,14	-0,100000001	1,30587745	-5,5545276906341312E-005	-0,099981499641909722	0,000130563581	0,0061260177118873715	-0,00022856995734893094	0,041881329578439014
1	0	0	0	0	0	2	7638,14	-0,100000001	1,29195726	-5,5545252985838387E-005	-0,09998145658500393	0,000129171764	0,0057927460688824742	-0,00021613514425992854	0,042214601221443917
1	0	0	0	0	0	2	7650,14	-0,100000001	1,28000379	-5,5545142522288691E-005	-0,09998125775061207	0,000127976382	0,0054594749334715584	-0,0002037003501099401	0,042547872356854829
1	0	0	0	0	0	2	7662,14	-0,100000001	1,26980722	-5,5545235024144256E-005	-0,099981424253954099	0,000126957137	0,0051262039130512493	-0,00019126556025040579	0,042881143377275136
1	0	0	0	0	0	2	7674,14	-0,100000001	1,26108074	-5,5545155592262746E-005	-0,09998128127656567	0,000126084473	0,004792932905997696	-0,00017883077088960307	0,043214414384328691
1	0	0	0	0	0	2	7686,14	-0,100000001	1,2533474	-5,5545399979998669E-005	-0,099981721174495642	0,000125311824	0,0044596609912229363	-0,0001663959476605017	0,04354768629910345
1	0	0	0	0	0	2	7698,14	-0,100000001	1,24677873	-5,5545260143362816E-005	-0,09998146946854807	0,000124654776	0,0041263892773129325	-0,0001539611319259345	0,043880958013013459
1	0	0	0	0	0	2	7710,14	-0,100000001	1,24082112	-5,5545340754919578E-005	-0,099981614569351987	0,000124059297	0,0037931175707454758	-0,00014152631646532755	0,044214229719580915
1	0	0	0	0	0	2	7722,14	-0,100000001	1,23541725	-5,5545361375229222E-005	-0,099981651685909811	0,000123519058	0,003459845345984343	-0,00012909148167021786	0,044547501944342054
1	0	0	0	0	0	2	7734,14	-0,100000001	1,23018527	-5,554540086827344E-005	-0,099981722773390259	0,000122996047	0,003126573342629632	-0,00011665665513607941	0,044880773947696762
1	0	0	0	0	0	2	7746,14	-0,100000001	1,22552609	-5,5545350247787104E-005	-0,099981631656513728	0,000122530095	0,0027933011305994733	-0,00010422182081597947	0,045214046159726918
1	0	0	0	0	0	2	7758,14	-0,100000001	1,22119153	-5,5545424485786093E-005	-0,099981765284913536	0,000122096884	0,0024600286874816925	-9,1786977873689651E-005	0,045547318602844704
1	0	0	0	0	0	2	7770,14	-0,100000001	1,2169143	-5,5545387005226483E-005	-0,099981697819905434	0,00012166916	0,0021267561957107926	-7,9352133116086528E-005	0,045880591094615597
1	0	0	0	0	0	2	7782,14	-0,100000001	1,21282792	-5,5545401744130579E-005	-0,09998172434993312	0,000121260629	0,0017934837511343539	-6,6917290119372211E-005	0,046213863539192032
1	0	0	0	0	0	2	7794,14	-0,100000001	1,2090472	-5,554533329192135E-005	-0,099981601135955021	0,000120882476	0,001460211699968025	-5,4482461801318022E-005	0,046547135590358362
1	0	0	0	0	0	2	7806,14	-0,100000001	1,20513272	-5,554539846918649E-005	-0,09998171845503369	0,000120491241	0,0011269395337742515	-4,2047629191435245E-005	0,046880407756552134
1	0	0	0	0	0	2	7818,14	-0,100000001	1,20150471	-5,554538332795104E-005	-0,099981691200809549	0,000120128476	0,00079366719435696294	-2,9612790118350208E-005	0,047213680095969421
1	0	0	0	0	0	2	7822,98	-0,100000001	1,2000916	-2,3317935695664749E-005	-0,09998162163020951	0,000119987104	0,00065925847683560013	-2,4597820153185462E-005	0,047348088813490784