File: Experimentelles/Rohdaten/Batteriemessungen/AlteZelle/Batterietest Li vs LATP/ECLab-Export/LATP vs Li Batterietest Probe2_02_GCPL_C02.mpt
EC-Lab ASCII FILE
Nb header lines : 83

Galvanostatic Cycling with Potential Limitation

Run on channel : 2 (SN 6986)
Grouped channel(s) : 2
User :
CE vs. WE compliance from -10 V to 10 V
Electrode connection : standard
Ewe ctrl range : min = 0,00 V, max = 5,00 V
Acquisition started on : 10.28.2014 11:51:47
Saved on :
	File : LATP vs Li Batterietest Probe2_02_GCPL_C02.mpr
	Directory : C:\Hupfer\Batterietest Li vs LATP\
	Host : 192.168.0.2
Device : VMP3 (SN 0324)
Address : 192.168.0.1
EC-Lab for windows v10.33 (software)
Internet server v10.33 (firmware)
Command interpretor v10.32 (firmware)
Electrode material : Lithium - LATP folie
Initial state : unbekannt
Electrolyte : LP30
Comments : Batterietest
Comments : Probe 2
Mass of active material : 0,001 mg
 at x = 0,000
Molecular weight of active material (at x = 0) : 0,001 g/mol
Atomic weight of intercalated ion : 0,001 g/mol
Acquisition started at : xo = 0,000
Number of e- transfered per intercalated ion : 1
for DX = 1, DQ = 26,801 mA.h
Battery capacity : 0,000 A.h
Reference electrode : Li+/Li (-3,020 V)
Electrode surface area : 0,001 cm²
Characteristic mass : 0,001 g
Ns                  0                   1                   2
Set I/C             I                   I                   I
Is                  0,000               100,000             -100,000
unit Is             mA                  µA                  µA
vs.                 <None>              <None>              <None>
N                   1                   1                   1
I sign              > 0                 > 0                 > 0
t1 (h:m:s)          0:00:0,0000         60:00:0,0000        60:00:0,0000
I Range             100 µA              100 µA              100 µA
Bandwidth           5                   5                   5
dE1 (mV)            0,00                0,00                0,00
dt1 (s)             0,0000              2,0000              2,0000
EM (V)              0,000               4,500               1,200
tM (h:m:s)          0:00:0,0000         0:00:0,0000         0:00:0,0000
Im                  0,000               0,000               0,000
unit Im             mA                  mA                  mA
E range min (V)     0,000               0,000               0,000
E range max (V)     5,000               5,000               5,000
dq                  0,000               1,000               1,000
unit dq             mA.h                mA.h                mA.h
dtq (s)             0,0000              120,0000            120,0000
dQM                 0,000               0,000               0,000
unit dQM            mA.h                mA.h                mA.h
dxM                 0,000               0,000               0,000
tR (h:m:s)          0:00:0,0000         0:00:0,0000         0:00:0,0000
dER/dt (mV/h)       0,0                 0,1                 0,1
dER (mV)            0,00                5,00                5,00
dtR (s)             1,0000              120,0000            120,0000
EL (V)              pass                3,500               3,500
goto Ns'            0                   0                   0
nc cycles           0                   0                   0

Number of loops : 11
Loop 0 from point number 0 to 1323
Loop 1 from point number 1324 to 2973
Loop 2 from point number 2974 to 4591
Loop 3 from point number 4592 to 6182
Loop 4 from point number 6183 to 7749
Loop 5 from point number 7750 to 9314
Loop 6 from point number 9315 to 10878
Loop 7 from point number 10879 to 12434
Loop 8 from point number 12435 to 13983
Loop 9 from point number 13984 to 15525
Loop 10 from point number 15526 to 17061

mode	ox/red	error	control changes	Ns changes	counter inc.	Ns	time/s	control/V/mA	Ewe/V	dq/mA.h	<I>/mA	P/W	Capacity/mA.h	(Q-Qo)/mA.h	x
1	1	0	1	1	0	1	1800,0010	0,100000001	2,47670197	0	0	0	0	0	0
1	1	0	1	0	0	1	1920,0010	0,100000001	2,68698597	5,5559674264242253E-005	0,10000741620203589	0,000268718519	0,0033321986194345792	0,0033321986194345792	-0,00012432881067979699
1	1	0	1	0	0	1	2040,0009	0,100000001	2,7593503	5,5559428227444493E-005	0,10000697333578872	0,000275954284	0,0066657727676068838	0,0066657727676068838	-0,00024870894418621658
1	1	0	1	0	0	1	2160,0009	0,100000001	2,85170364	5,5559398213608397E-005	0,1000069193108824	0,000285190094	0,0099993459893367424	0,0099993459893367424	-0,00037308904312582291
1	1	0	1	0	0	1	2280,0009	0,100000001	2,99351406	5,5559642829000947E-005	0,10000735961860011	0,000299373438	0,013332919010180322	0,013332919010180322	-0,00049746913457009197
1	1	0	1	0	0	1	2400,0009	0,100000001	3,23988485	5,5559524613949984E-005	0,10000714683150301	0,000324011635	0,016666488542816042	0,016666488542816042	-0,0006218490958646359
1	1	0	1	0	0	1	2520,0009	0,100000001	3,67481518	5,5559571197049485E-005	0,10000723068108422	0,000367508095	0,0200000569410748	0,0200000569410748	-0,0007462290148340503
1	1	0	1	0	0	1	2640,0009	0,100000001	4,23095274	5,5559531275596883E-005	0,10000715882246771	0,000423125573	0,023333629713282582	0,023333629713282582	-0,00087060909700138368
1	0	0	0	0	0	2	2756,8115	-0,100000001	4,24430418	-5,5542289332383213E-005	-0,099976123323899085	0,000424329075	0,000166631795718852	0,026245273727998314	-0,00097924644993744064
1	0	0	0	0	0	2	2876,8115	-0,100000001	2,46090531	-5,5542529910802842E-005	-0,099976556365065357	0,00024603284	0,0034991872288303245	0,022912718294886864	-0,00085490432605961843
1	0	0	0	0	0	2	2996,8115	-0,100000001	2,39220309	-5,5542828612443475E-005	-0,099977094028032077	0,000239165514	0,0068317484478379315	0,019580157075879261	-0,00073056198630223168
1	0	0	0	0	0	2	3116,8115	-0,100000001	2,35998797	-5,5542614621006784E-005	-0,099976708843436301	0,000235943837	0,010164311562726064	0,016247593960991123	-0,00060621957580699302
1	0	0	0	0	0	2	3236,8115	-0,100000001	2,32199383	-5,5542432387255962E-005	-0,099976380822676544	0,000232144535	0,013496865914214814	0,012915039609502378	-0,00048187749228596819
1	0	0	0	0	0	2	3356,8115	-0,100000001	2,27654195	-5,5542568269289203E-005	-0,099976625410342554	0,000227600976	0,016829417240220211	0,0095824882834969702	-0,00035753552164979462
1	0	0	0	0	0	2	3476,8115	-0,100000001	2,22328925	-5,5542542885988947E-005	-0,099976579720400947	0,000222276853	0,020161973957507546	0,0062499315662096384	-0,00023319334985764371
1	0	0	0	0	0	2	3596,8115	-0,100000001	2,15931702	-5,5542657336841024E-005	-0,099976785731939878	0,000215881577	0,023494535523941926	0,0029173699997752506	-0,00010885099713729642
1	0	0	0	0	0	2	3716,8115	-0,100000001	2,07835054	-5,554264130608903E-005	-0,099976756876585549	0,000207786754	0,026827098826135171	-0,00041519330241799942	1,5491420346547744E-005
1	0	0	0	0	0	2	3836,8115	-0,100000001	1,97039521	-5,5542583182868032E-005	-0,099976652254785126	0,000196993511	0,030159651815629651	-0,0037477462919124685	0,00013983345304973485
1	0	0	0	0	0	2	3956,8115	-0,100000001	1,81933415	-5,5542442586686874E-005	-0,099976399181652646	0,000181890471	0,033492202347974387	-0,0070802968242571981	0,00026417539407336147
1	0	0	0	0	0	2	4076,8115	-0,100000001	1,60954988	-5,554254798135824E-005	-0,099976588892065894	0,000160917305	0,036824756635681222	-0,010412851111964008	0,00038851747521459648
1	0	0	0	0	0	2	4196,8115	-0,100000001	1,37517631	-5,5542637331204282E-005	-0,099976748406605542	0,000137485651	0,040157314631207955	-0,013745409107490755	0,0005128596946995785
1	0	0	0	0	0	2	4316,8115	-0,100000001	1,24732745	-5,5542749046037594E-005	-0,099976949493307942	0,000124703991	0,043489880435411706	-0,017077974911694525	0,00063720220553679923
1	0	0	0	0	0	2	4436,8115	-0,100000001	1,20183742	-5,554263760894537E-005	-0,09997674890653952	0,000120155797	0,046822437051451885	-0,020410531527734672	0,00076154437355128141
1	1	0	1	0	0	1	4554,4047	0,100000001	2,51235008	5,5559393684897158E-005	0,10000690984361787	0,000251252379	0,0031099635533705382	-0,017454492741861216	0,00065125059201392525
1	1	0	1	0	0	1	4674,4047	0,100000001	2,57929754	5,5559795805563533E-005	0,10000763366082613	0,000257949432	0,0064435407496229658	-0,01412091554560879	0,00052687034477953818
1	1	0	1	0	0	1	4794,4047	0,100000001	2,61229444	5,5559491686936883E-005	0,10000708624729152	0,000261247944	0,009777113731751255	-0,010787342563480496	0,00040249025477978835
1	1	0	1	0	0	1	4914,4047	0,100000001	2,64410901	5,5559444193210867E-005	0,10000700075858366	0,0002644294	0,013110679184446147	-0,0074537771107856051	0,00027811044571332218
1	1	0	1	0	0	1	5034,4047	0,100000001	2,67889881	5,5559487153258592E-005	0,1000070780866705	0,00026790885	0,016444250970809654	-0,0041202053244220992	0,00015373040032916438
1	1	0	1	0	0	1	5154,4047	0,100000001	2,71862864	5,5559281045777933E-005	0,10000670709320083	0,000271881087	0,019777820155618342	-0,00078663613961341939	2,935045201251495E-005
1	1	0	1	0	0	1	5274,4047	0,100000001	2,76553011	5,5559721390406285E-005	0,10000749971354147	0,000276573759	0,023111397540135773	0,0025469412449040051	-9,5029802246292378E-005
1	1	0	1	0	0	1	5394,4047	0,100000001	2,82452393	5,5559424541476704E-005	0,10000696538546174	0,000282472058	0,026444974324514301	0,0058805180292825446	-0,00021941003411311101
1	1	0	1	0	0	1	5514,4047	0,100000001	2,90480375	5,5559332168350618E-005	0,10000679911383278	0,000290500117	0,029778538009943059	0,0092140817147113062	-0,0003437897772405017
1	1	0	1	0	0	1	5634,4047	0,100000001	3,02141833	5,5559540559848154E-005	0,10000717421853288	0,000302163506	0,033112106286502797	0,012547649991271037	-0,00046816969166916166
1	1	0	1	0	0	1	5754,4047	0,100000001	3,21083617	5,5559451817638342E-005	0,1000070144825533	0,000321106141	0,036445674455815571	0,015881218160583795	-0,00059254960209629286
1	1	0	1	0	0	1	5874,4047	0,100000001	3,55591154	5,5559859760105613E-005	0,10000774877900326	0,000355618715	0,03977924945369552	0,01921479315846377	-0,00071692976730644813
1	1	0	1	0	0	1	5994,4047	0,100000001	4,1485405	5,5559517541279398E-005	0,10000713278510864	0,000414883631	0,043112823331583098	0,022548367036351376	-0,00084130989072818227
1	0	0	0	0	0	2	6111,5055	-0,100000001	4,10762453	-5,5542663013355603E-005	-0,099976794634478464	0,000410667126	0,0002777180918397175	0,025245865405400253	-0,00094195718170252608
1	0	0	0	0	0	2	6231,5055	-0,100000001	2,44946122	-5,5542785055107539E-005	-0,099977014309634624	0,000244889816	0,003610286359682679	0,021913297137557277	-0,00081761457894361421
1	0	0	0	0	0	2	6351,5055	-0,100000001	2,39668536	-5,554297601514393E-005	-0,099977358037704282	0,000239614266	0,0069428522404188096	0,018580731256821139	-0,0006932720652508681
1	0	0	0	0	0	2	6471,5055	-0,100000001	2,36672091	-5,5542678698483437E-005	-0,099976822867708928	0,000236617241	0,010275425930295966	0,015248157566943994	-0,00056892926018857126
1	0	0	0	0	0	2	6591,5055	-0,100000001	2,32880306	-5,5542883709486989E-005	-0,099977191887519782	0,000232827195	0,013608000397012467	0,011915583100227494	-0,00044458642614135379
1	0	0	0	0	0	2	6711,5055	-0,100000001	2,28241658	-5,5543081721083987E-005	-0,099977548308398694	0,000228190416	0,016940572910064211	0,0085830105871757504	-0,00032024366498799514
1	0	0	0	0	0	2	6831,5055	-0,100000001	2,22718024	-5,554282976190249E-005	-0,099977094781866509	0,000222667004	0,02027314701044641	0,0052504364867935347	-0,00019590084460920227
1	0	0	0	0	0	2	6951,5055	-0,100000001	2,15990829	-5,5542992166346976E-005	-0,099977387109870118	0,000215941982	0,023605720065358176	0,0019178634318817597	-7,1558063238317248E-005
1	0	0	0	0	0	2	7071,5055	-0,100000001	2,07287645	-5,5542714188496269E-005	-0,0999768867497328	0,000207239733	0,026938289673435178	-0,0014147061761952333	5,2784589526527744E-005
1	0	0	0	0	0	2	7191,5055	-0,100000001	1,95315289	-5,5542801867342656E-005	-0,099977044571658202	0,000195270448	0,030270851256043123	-0,0047472677588031725	0,00017712694285033197
1	0	0	0	0	0	2	7311,5055	-0,100000001	1,77890241	-5,5542692236188384E-005	-0,099976847235578125	0,000177849055	0,033603416415654534	-0,0080798329184145741	0,0003014694296369447
1	0	0	0	0	0	2	7431,5055	-0,100000001	1,53476322	-5,5542787705444627E-005	-0,099977019080241434	0,000153441055	0,036935979872636058	-0,01141239637539612	0,00042581185289614835
1	0	0	0	0	0	2	7551,5055	-0,100000001	1,3001225	-5,5542641120652358E-005	-0,09997675522761216	0,000129982029	0,040268544549497011	-0,014744961052257085	0,00055015432167069318
1	0	0	0	0	0	2	7671,5055	-0,100000001	1,22226501	-5,5542829156335859E-005	-0,099977093691846554	0,0001221985	0,043601102686714739	-0,018077519189474819	0,00067449654644235648
1	1	0	1	0	0	1	7788,4469	0,100000001	1,92435598	5,5559379768454368E-005	0,10000688479402058	0,000192448846	0,00144317401474872	-0,018436452110486317	0,00068788881631574042
1	1	0	1	0	0	1	7908,4469	0,100000001	2,55585647	5,5559506058279008E-005	0,10000711211570768	0,000255603838	0,0047767401257007546	-0,015102885999534288	0,00056350898268881542
1	1	0	1	0	0	1	8028,4468	0,100000001	2,59240103	5,5559511351916525E-005	0,10000712164425533	0,000259258552	0,0081103087220567846	-0,011769317403178253	0,00043912905632812538
1	1	0	1	0	0	1	8148,4468	0,100000001	2,62301373	5,5559458500395219E-005	0,10000702651151581	0,000262319809	0,011443878233384266	-0,0084357478918507686	0,00031474909582862035
1	1	0	1	0	0	1	8268,4468	0,100000001	2,6557436	5,55595485518376E-005	0,10000718860411408	0,000265593437	0,014777446850113491	-0,0051021792751215386	0,00019036916870777898
1	1	0	1	0	0	1	8388,4468	0,100000001	2,69278407	5,5559544412626163E-005	0,10000718115353338	0,000269297743	0,018111017561998138	-0,0017686085632368902	6,5989163413872E-005
1	1	0	1	0	0	1	8508,4468	0,100000001	2,73629045	5,5559376173549229E-005	0,10000687832319123	0,000273647864	0,021444586113445798	0,0015649599882107664	-5,8390761271226099E-005
1	1	0	1	0	0	1	8628,4468	0,100000001	2,78960061	5,5559492141008378E-005	0,10000708706462024	0,000278979831	0,024778156023340022	0,0048985298981049856	-0,0001827707366417919
1	1	0	1	0	0	1	8748,4468	0,100000001	2,86064887	5,5559330315225651E-005	0,10000679577820779	0,000286084338	0,028111720602102093	0,0082320944768670566	-0,00030715051310064941
1	1	0	1	0	0	1	8868,4468	0,100000001	2,96223378	5,5559668933351834E-005	0,10000740529084232	0,0002962453	0,031445287843682618	0,011565661718447595	-0,00043153038891284422
1	1	0	1	0	0	1	8988,4468	0,100000001	3,1222403	5,5559442532145318E-005	0,10000699776866563	0,000312245887	0,03477885759250233	0,014899231467267293	-0,00055591035827350304
1	1	0	1	0	0	1	9108,4468	0,100000001	3,40774965	5,5559442995736998E-005	0,10000699860313069	0,000340798812	0,038112422511950886	0,01823279638671585	-0,00068029014744383142
1	1	0	1	0	0	1	9228,4468	0,100000001	3,94256711	5,5559513027055398E-005	0,10000712465950531	0,000394284813	0,041445991543706426	0,021566365418471398	-0,00080467009004986266
1	1	0	1	0	0	1	9348,4468	0,100000001	4,48024178	5,5559642259031533E-005	0,10000735727706518	0,000448057137	0,044779559242851949	0,024899933117616915	-0,00092904998293442214
1	0	0	0	0	0	2	9466,2408	-0,100000001	2,48179054	-5,5542428629679808E-005	-0,099976372743856947	0,000248120428	0,0029992974707190368	0,022172693950431619	-0,00082729302279468006
1	0	0	0	0	0	2	9586,2408	-0,100000001	2,40336084	-5,5542419360743629E-005	-0,099976356059771622	0,00024027926	0,0063318458592465357	0,018840145561904109	-0,00070295116175975629
1	0	0	0	0	0	2	9706,2408	-0,100000001	2,37549472	-5,5542442836281325E-005	-0,099976398315739994	0,000237493412	0,0096644026586251968	0,015507588762525443	-0,00057860898690466739
1	0	0	0	0	0	2	9826,2408	-0,100000001	2,33957958	-5,5542800781213574E-005	-0,09997704261662583	0,000233904255	0,012996957749831184	0,012175033671319458	-0,00045426687578379782
1	0	0	0	0	0	2	9946,2408	-0,100000001	2,29416585	-5,5542456951820192E-005	-0,099976423723710259	0,0002293625	0,016329513207421955	0,0088424782137286861	-0,00032992475099261933
1	0	0	0	0	0	2	10066,2408	-0,100000001	2,2398448	-5,5542630766001011E-005	-0,099976736589239514	0,00022393238	0,019662068548422317	0,005509922872728329	-0,00020558263055158589
1	0	0	0	0	0	2	10186,2408	-0,100000001	2,17337418	-5,5542696946611008E-005	-0,099976855714338957	0,000217287117	0,022994626038321603	0,0021773653828290326	-8,1240429932243802E-005
1	0	0	0	0	0	2	10306,2408	-0,100000001	2,08781099	-5,5542720549636416E-005	-0,099976898199785203	0,000208732861	0,026327188692231149	-0,0011551972710805085	4,3101963363263565E-005
1	0	0	0	0	0	2	10426,2408	-0,100000001	1,97020447	-5,5542655583057139E-005	-0,099976781259941082	0,000196974695	0,029659749114208768	-0,0044877576930581146	0,00016744427338238957
1	0	0	0	0	0	2	10546,2408	-0,100000001	1,79759049	-5,5542596677939098E-005	-0,099976675230727322	0,000179717128	0,032992302240279008	-0,0078203108191283507	0,00029178631118140218
1	0	0	0	0	0	2	10666,2408	-0,100000001	1,55030799	-5,554267739628752E-005	-0,099976820523756237	0,000154994865	0,036324856048249549	-0,011152864627098898	0,00041612837442303219
1	0	0	0	0	0	2	10786,2408	-0,100000001	1,30204892	-5,5542788717067904E-005	-0,099977020901163366	0,000130174973	0,03965741507943015	-0,014485423658279523	0,00054047063254965286
1	0	0	0	0	0	2	10906,2408	-0,100000001	1,22129226	-5,5542458986656531E-005	-0,099976427386415706	0,000122100435	0,042989966365117133	-0,017817974943966518	0,00066481260168149248
1	1	0	1	0	0	1	11023,7478	0,100000001	1,9892627	5,5559378818505338E-005	0,10000688308411229	0,000198939961	0,0015542934855880195	-0,01797040578246497	0,00067050000121131162
1	1	0	1	0	0	1	11143,7478	0,100000001	2,55570388	5,5559420771068998E-005	0,10000695859872779	0,00025558818	0,0048878618705495552	-0,014636837397503427	0,0005461200827380343
1	1	0	1	0	0	1	11263,7478	0,100000001	2,59104681	5,5559343624860045E-005	0,10000681973555	0,000259122346	0,0082214247004057958	-0,011303274567647181	0,00042174037153320454
1	1	0	1	0	0	1	11383,7478	0,100000001	2,62148786	5,5559149783518579E-005	0,10000647082113112	0,000262165762	0,011554982595405163	-0,0079697166726478144	0,00029736084445451987
1	1	0	1	0	0	1	11503,7478	0,100000001	2,65435123	5,5559318330966765E-005	0,10000677420654154	0,000265453098	0,014888541745471392	-0,0046361575225815885	0,00017298127054760323
1	1	0	1	0	0	1	11623,7478	0,100000001	2,6918304	5,5559236622105043E-005	0,10000662713058866	0,000269200886	0,018222101283058861	-0,0013025979849941064	4,8601682181747533E-005
1	1	0	1	0	0	1	11743,7478	0,100000001	2,73648119	5,5559382224248518E-005	0,10000688921445008	0,000273666985	0,02155566289859257	0,0020309636305396067	-7,5777983715075904E-005
1	1	0	1	0	0	1	11863,7478	0,100000001	2,7913363	5,5559469030963053E-005	0,10000704546653814	0,00027915329	0,02488922852378207	0,0053645292557290976	-0,00020015779921754742
1	1	0	1	0	0	1	11983,7478	0,100000001	2,86536002	5,5559273947030304E-005	0,10000669431545494	0,00028655518	0,02822278857920023	0,0086980893111472422	-0,00032453740690436141
1	1	0	1	0	0	1	12103,7478	0,100000001	2,97283864	5,5559403463784192E-005	0,10000692744561475	0,000297304447	0,03155635183151888	0,012031652563465898	-0,00044891713387183168
1	1	0	1	0	0	1	12223,7478	0,100000001	3,14491844	5,5559190782407917E-005	0,10000654461913285	0,000314512436	0,034889908850315066	0,015365209582262086	-0,0005732966282581977
1	1	0	1	0	0	1	12343,7478	0,100000001	3,45978189	5,5559296022686688E-005	0,10000673405163691	0,0003460015	0,038223460301337088	0,018698761033284112	-0,00069767591490342374
1	1	0	1	0	0	1	12463,7478	0,100000001	4,0534215	5,5559253630538778E-005	0,10000665774576976	0,000405369123	0,041557011610357242	0,022032312342304272	-0,00082205519625036928
1	0	0	0	0	0	2	12580,8858	-0,100000001	3,9800806	-5,554186871192521E-005	-0,099975364891886464	0,000397910015	0,00038879710111021997	0,024508629219799363	-0,00091444990839316314
1	0	0	0	0	0	2	12700,8858	-0,100000001	2,44076371	-5,5541829249925082E-005	-0,099975293860285376	0,000244016075	0,0037213239195106771	0,021176102401398909	-0,00079010885216868122
1	0	0	0	0	0	2	12820,8858	-0,100000001	2,3979249	-5,5542201216436096E-005	-0,099975963400013299	0,000239734858	0,0070538458131750464	0,017843580507734547	-0,0006657679796927241
1	0	0	0	0	0	2	12940,8858	-0,100000001	2,36878085	-5,5542077978038125E-005	-0,099975741570894285	0,000236820619	0,010386369620068214	0,014511056700841389	-0,00054142703583162842
1	0	0	0	0	0	2	13060,8858	-0,100000001	2,32998562	-5,5542229750504096E-005	-0,09997601476133632	0,000232942679	0,013718898803590907	0,011178527517318698	-0,00041708589136125581
1	0	0	0	0	0	2	13180,8858	-0,100000001	2,28144383	-5,5542336877849363E-005	-0,099976207590560141	0,000228090095	0,017051433208405574	0,0078459931125040397	-0,00029274455207745984
1	0	0	0	0	0	2	13300,8858	-0,100000001	2,2230413	-5,5542006058825389E-005	-0,099975612116309786	0,000222249917	0,020383961060664733	0,0045134652602448762	-0,00016840345727831933
1	0	0	0	0	0	2	13420,8858	-0,100000001	2,15033364	-5,5541971810162067E-005	-0,099975550468715046	0,000214980784	0,023716478756502262	0,0011809475644073251	-4,4062741428924698E-005
1	0	0	0	0	0	2	13540,8858	-0,100000001	2,05405116	-5,5541793076114522E-005	-0,099975228747425562	0,000205354241	0,027048989351822682	-0,0021515630309130886	8,0277709490628826E-005
1	0	0	0	0	0	2	13660,8858	-0,100000001	1,91779089	-5,5541775025841261E-005	-0,099975196256933312	0,000191731524	0,03038149653575031	-0,0054840702148407155	0,00020461803312653078
1	0	0	0	0	0	2	13780,8858	-0,100000001	1,71538806	-5,5541756725973555E-005	-0,099975163317171034	0,000171496198	0,033713998898556659	-0,0088165725776470643	0,00032895817687991578
1	0	0	0	0	0	2	13900,8858	-0,100000001	1,44231451	-5,5541741424136691E-005	-0,099975135773864358	0,000144195583	0,037046497282755878	-0,012149070961846269	0,00045329817218611904
1	0	0	0	0	0	2	14020,8858	-0,100000001	1,25180972	-5,5541725135511821E-005	-0,099975106454339238	0,000125149803	0,04037900081421271	-0,015481574493303094	0,00057763835954342451
1	0	0	0	0	0	2	14140,8858	-0,100000001	1,20097911	-5,5541801107840403E-005	-0,099975243204532339	0,00012006818	0,043711507111281152	-0,018814080790371562	0,00070197865008941888
1	1	0	1	0	0	1	14258,0732	0,100000001	2,52188683	5,5559108869483072E-005	0,10000639717586632	0,000252204802	0,0031654961281870387	-0,015735696431154986	0,00058711999071525798
1	1	0	1	0	0	1	14378,0732	0,100000001	2,57672262	5,5558912872026362E-005	0,10000604438043997	0,000257687847	0,0064990403881147891	-0,012402152171227234	0,00046274097237942771
1	1	0	1	0	0	1	14498,0732	0,100000001	2,60830832	5,5558833836681312E-005	0,10000590211681717	0,000260846224	0,0098325758140787046	-0,009068616745263319	0,00033836228365066579
1	1	0	1	0	0	1	14618,0732	0,100000001	2,64029431	5,5558799324350227E-005	0,10000583999462045	0,000264044851	0,013166110584658509	-0,0057350819746835142	0,00021398361937516608
1	1	0	1	0	0	1	14738,0732	0,100000001	2,6762476	5,5559058858288659E-005	0,1000063071557153	0,000267641648	0,016499650757182445	-0,0024015418021595923	8,9604753545868403E-005
1	1	0	1	0	0	1	14858,0732	0,100000001	2,71853328	5,5558925060348378E-005	0,10000606631941987	0,000271869823	0,01983318602588488	0,00093199346654284736	-3,4773929315256512E-005
1	1	0	1	0	0	1	14978,0732	0,100000001	2,76966906	5,5559100506620275E-005	0,10000638212271312	0,000276984589	0,023166724964563674	0,0042655324052216467	-0,00015915274910813376
1	1	0	1	0	0	1	15098,0732	0,100000001	2,83596802	5,5558919982777702E-005	0,10000605717979254	0,000283613976	0,026500260525024653	0,007599067965682615	-0,00028353144285516163
1	1	0	1	0	0	1	15218,0732	0,100000001	2,9303813	5,5559062493758067E-005	0,10000631369956029	0,000293056626	0,029833796491819174	0,010932603932477139	-0,0004079101517630409
1	1	0	1	0	0	1	15338,0732	0,100000001	3,07621622	5,555903219473031E-005	0,10000625916130968	0,000307640876	0,033167339923427782	0,014266147364085773	-0,00053228913919317088
1	1	0	1	0	0	1	15458,0732	0,100000001	3,33326817	5,5558700456387462E-005	0,10000566203228534	0,000333345699	0,036500873429456954	0,01759968087011495	-0,00065666775628658662
1	1	0	1	0	0	1	15578,0732	0,100000001	3,83192253	5,5558937788423565E-005	0,10000608922995549	0,000383215578	0,039834401987631277	0,020933209428289299	-0,00078104618876888589
1	1	0	1	0	0	1	15698,0732	0,100000001	4,46629906	5,5558764791736998E-005	0,10000577783591589	0,0004466557	0,043167931962889888	0,024266739403547949	-0,00090542467412450598
1	0	0	0	0	0	2	15815,4036	-0,100000001	2,48257256	-5,5541570087687834E-005	-0,099974827368252685	0,000248194759	0,0028881631863555974	0,021748870469465878	-0,0008114795988831177
1	0	0	0	0	0	2	15935,4036	-0,100000001	2,40364695	-5,5541667108734445E-005	-0,099975002006138688	0,000240304609	0,006220659874795625	0,018416373781025846	-0,00068713966684796928
1	0	0	0	0	0	2	16055,4036	-0,100000001	2,37496066	-5,554153281450272E-005	-0,099974760276518669	0,000237436121	0,009553161988816329	0,015083871667005149	-0,00056279953237711123
1	0	0	0	0	0	2	16175,4036	-0,100000001	2,33761501	-5,5541446071945958E-005	-0,099974604139914586	0,000233702129	0,012885658537878762	0,011751375117942715	-0,00043845960554232838
1	0	0	0	0	0	2	16295,4035	-0,100000001	2,2897408	-5,5541443200574982E-005	-0,099974598971446784	0,000228915917	0,016218148508242435	0,0084188851475790362	-0,00031411992416764128
1	0	0	0	0	0	2	16415,4035	-0,100000001	2,23206306	-5,5541352898296384E-005	-0,099974436427343322	0,00022314924	0,019550626573122221	0,0050864070826992627	-0,0001897806870025656
1	0	0	0	0	0	2	16535,4035	-0,100000001	2,16116714	-5,5541690054453082E-005	-0,099975043308432742	0,000216062777	0,022883118840189469	0,0017539148156320288	-6,5440919934780838E-005
1	0	0	0	0	0	2	16655,4035	-0,100000001	2,06864238	-5,554196639897095E-005	-0,099975540728570931	0,000206813638	0,026215625433516608	-0,0015785917776951123	5,8899381665022938E-005
1	0	0	0	0	0	2	16775,4035	-0,100000001	1,93917215	-5,5541797968248531E-005	-0,099975237553266893	0,0001938692	0,029548136995856576	-0,0049111033400350746	0,000183239868665376
1	0	0	0	0	0	2	16895,4035	-0,100000001	1,74712622	-5,554204389784071E-005	-0,099975680226538176	0,000174670131	0,03288065431409623	-0,0082436206582747174	0,00030758057042608499
1	0	0	0	0	0	2	17015,4035	-0,100000001	1,4787066	-5,5542149640205837E-005	-0,099975870562797709	0,000147834973	0,036213174267890182	-0,011576140612068659	0,00043192137052286848
1	0	0	0	0	0	2	17135,4035	-0,100000001	1,26170874	-5,5542114446974464E-005	-0,09997580721498048	0,000126140352	0,039545702885281325	-0,014908669229459818	0,00055626249387011232
1	0	0	0	0	0	2	17255,4035	-0,100000001	1,20548046	-5,5542205681403482E-005	-0,099975971436954688	0,000120519078	0,04287822995408336	-0,018241196298261878	0,00068060355943741504
1	1	0	1	0	0	1	17372,2721	0,100000001	2,50023842	5,5559197358373139E-005	0,10000655645587037	0,000250040233	0,0027765929067206387	-0,015931657546631443	0,00059443156340620646
1	1	0	1	0	0	1	17492,2721	0,100000001	2,57109594	5,5559268575161696E-005	0,10000668464609133	0,000257126783	0,0061101468630094822	-0,0125981035903426	0,00047005218328610707
1	1	0	1	0	0	1	17612,2721	0,100000001	2,60258627	5,5559279111938342E-005	0,10000670361228952	0,00026027608	0,0094437063200835008	-0,0092645441332685811	0,00034567259792431699
1	1	0	1	0	0	1	17732,2721	0,100000001	2,63359952	5,555927800552713E-005	0,10000670162074931	0,000263377588	0,012777265606073981	-0,005930984847278103	0,00022129301894588371
1	1	0	1	0	0	1	17852,2721	0,100000001	2,66859913	5,5559377768387392E-005	0,10000688119389995	0,000266878284	0,016110825524587706	-0,0025974249287643741	9,6913416367157594E-005
1	1	0	1	0	0	1	17972,2721	0,100000001	2,70991206	5,5559272884080806E-005	0,10000669240214582	0,000271009339	0,019444388998279238	0,00073613854492716941	-2,746631886003281E-005
1	1	0	1	0	0	1	18092,2721	0,100000001	2,75948381	5,5559365033275552E-005	0,10000685827069837	0,000275967293	0,022777950833246614	0,004069700379894553	-0,0001518459929442215
1	1	0	1	0	0	1	18212,2721	0,100000001	2,82362747	5,5559426136314867E-005	0,10000696825617046	0,000282382418	0,026111507040611664	0,0074032565872595968	-0,00027622545705500051
1	1	0	1	0	0	1	18332,2721	0,100000001	2,91481733	5,5559322569933203E-005	0,10000678183668123	0,000291501492	0,029445066782780499	0,010736816329428429	-0,0004006050530540615
1	1	0	1	0	0	1	18452,2721	0,100000001	3,05498767	5,555931463796231E-005	0,10000676755913344	0,000305519439	0,032778624930564832	0,014070374477212752	-0,00052498458956449274
1	1	0	1	0	0	1	18572,2721	0,100000001	3,30055737	5,5559371384067667E-005	0,10000686970212432	0,000330078416	0,036112186041583277	0,017403935588231226	-0,00064936423663717427
1	1	0	1	0	0	1	18692,2721	0,100000001	3,78137803	5,555922175033225E-005	0,1000066003613973	0,000378162775	0,039445747805573088	0,020737497352221066	-0,00077374390807309542
1	1	0	1	0	0	1	18812,2721	0,100000001	4,44934273	5,5559446469777158E-005	0,10000700485640304	0,000444965437	0,042779308173791866	0,02407105772043985	-0,00089812352743092173
1	0	0	0	0	0	2	18928,6165	-0,100000001	2,49693489	-5,5542527073787315E-005	-0,099976549943252595	0,000249634933	0,0027215833679429357	0,021859060335725277	-0,00081559093094510669
1	0	0	0	0	0	2	19048,6165	-0,100000001	2,40755701	-5,5542372037139206E-005	-0,099976270877282624	0,000240698573	0,006054134401944361	0,018526509301723843	-0,00069124897120399398
1	0	0	0	0	0	2	19168,6165	-0,100000001	2,38054919	-5,5542573294705811E-005	-0,099976633140906906	0,000237999295	0,0093866927447443187	0,015193950958923869	-0,00056690673876178074
1	0	0	0	0	0	2	19288,6165	-0,100000001	2,34526348	-5,5542655048271021E-005	-0,099976780297326054	0,000234471896	0,012719248906176538	0,011861394797491651	-0,00044256458770933158
1	0	0	0	0	0	2	19408,6165	-0,100000001	2,29899144	-5,5542704467558202E-005	-0,099976869252044058	0,000229845973	0,016051803459975453	0,0085288402436927386	-0,0003182224966398425
1	0	0	0	0	0	2	19528,6165	-0,100000001	2,24306822	-5,5542608468068973E-005	-0,099976696452961357	0,000224254545	0,01938436073385304	0,0051962829698151616	-0,00019388030408056118
1	0	0	0	0	0	2	19648,6165	-0,100000001	2,17404175	-5,5542678651296435E-005	-0,099976822782772314	0,00021735378	0,022716914238363094	0,0018637294653050992	-6,9538252161449894E-005
1	0	0	0	0	0	2	19768,6165	-0,100000001	2,08374834	-5,5542601860645747E-005	-0,099976684559599386	0,000208326252	0,026049474030332858	-0,0014688303266646566	5,4804034351236186E-005
1	0	0	0	0	0	2	19888,6165	-0,100000001	1,95797849	-5,5542395093374784E-005	-0,099976312378507162	0,000195751476	0,029382032520492461	-0,0048013888168242656	0,00017914627229163536
1	0	0	0	0	0	2	20008,6165	-0,100000001	1,77083433	-5,5542702387604448E-005	-0,099976865508127258	0,000177042471	0,032714578527085882	-0,0081339348234177075	0,00030348804445339654
1	0	0	0	0	0	2	20128,6165	-0,100000001	1,50348282	-5,5542482196042931E-005	-0,099976469163311731	0,000150312902	0,036047130909697446	-0,011466487206029267	0,00042783005451296634
1	0	0	0	0	0	2	20248,6165	-0,100000001	1,26952887	-5,5542695596400237E-005	-0,099976853283959526	0,000126923507	0,039379686254735174	-0,014799042551067008	0,00055217217510463994
1	0	0	0	0	0	2	20368,6165	-0,100000001	1,20918071	-5,554238456818793E-005	-0,099976293433170586	0,000120889403	0,042712236471599565	-0,018131592767931392	0,00067651410435727066
1	1	0	1	0	0	1	20486,2005	0,100000001	2,45753312	5,555948190225495E-005	0,10000706863486384	0,000245770672	0,0024988015469738218	-0,01639742727662535	0,0006118100582663415
1	1	0	1	0	0	1	20606,2005	0,100000001	2,56464934	5,5559369606690272E-005	0,10000686650284498	0,000256482541	0,0058323680142411776	-0,013063860809357994	0,00048743021134481248
1	1	0	1	0	0	1	20726,2005	0,100000001	2,59619665	5,5559393899722234E-005	0,10000691023030302	0,0002596376	0,0091659295697890202	-0,0097302992538101466	0,0003630505476861424
1	1	0	1	0	0	1	20846,2005	0,100000001	2,62675214	5,5559442753593126E-005	0,10000699816727171	0,000262693589	0,012499490269435272	-0,0063967385541638886	0,00023867091596231136
1	1	0	1	0	0	1	20966,2005	0,100000001	2,66068363	5,5559374355607565E-005	0,10000687505089621	0,000266086659	0,015833053480125866	-0,0030631753434732896	0,00011429119054803984
1	1	0	1	0	0	1	21086,2005	0,100000001	2,70102382	5,5559487897488806E-005	0,10000707942628491	0,000270121498	0,019166620880860323	0,00027039205726116998	-1,0088691202401731E-005
1	1	0	1	0	0	1	21206,2005	0,100000001	2,74937487	5,5559414558112621E-005	0,10000694741540618	0,000274956576	0,022500184895440432	0,0036039560718412691	-0,00013446844661087136
1	1	0	1	0	0	1	21326,2005	0,100000001	2,81094384	5,5559496166805421E-005	0,10000709431105499	0,000281114335	0,025833752820968125	0,0069375239973689587	-0,00025884834794205395
1	1	0	1	0	0	1	21446,2005	0,100000001	2,89761305	5,5559283509436582E-005	0,10000671152778646	0,000289780757	0,029167316820195475	0,010271087996596312	-0,00038322810277769203
1	1	0	1	0	0	1	21566,2005	0,100000001	3,02941012	5,5559330817312E-005	0,10000679668196323	0,000302961591	0,032500879587688698	0,013604650764089544	-0,00050760781165567386
1	1	0	1	0	0	1	21686,2005	0,100000001	3,25573492	5,5559229729904064E-005	0,10000661472462675	0,000325595029	0,035834441979041427	0,016938213155442285	-0,00063198750649934835
1	1	0	1	0	0	1	21806,2005	0,100000001	3,69728351	5,5559420202341344E-005	0,100006957575018	0,000369754067	0,039168004790873062	0,020271775967273926	-0,00075636721703165581
1	1	0	1	0	0	1	21926,2005	0,100000001	4,39839792	5,5559298562920755E-005	0,10000673862405829	0,000439869444	0,042501568234994502	0,023605339411395357	-0,00088074695115554573
1	0	0	0	0	0	2	22043,2949	-0,100000001	2,52708983	-5,5542690989457894E-005	-0,099976844991463206	0,000252650469	0,002388336836515615	0,022080778040420339	-0,00082386351660990387
1	0	0	0	0	0	2	22163,2949	-0,100000001	2,41118097	-5,5542590082933504E-005	-0,099976663359717107	0,000241061833	0,0057208959311971258	0,018748218945738819	-0,00069952125611397939
1	0	0	0	0	0	2	22283,2949	-0,100000001	2,38478351	-5,5542583027647603E-005	-0,099976650660202342	0,000238422668	0,009053448667767561	0,015415666209168378	-0,00057517923284772774
1	0	0	0	0	0	2	22403,2949	-0,100000001	2,35108089	-5,5542514267894957E-005	-0,09997652689264608	0,000235052896	0,01238600493392803	0,012083109943007907	-0,00045083707788772672
1	0	0	0	0	0	2	22523,2949	-0,100000001	2,30602956	-5,5542428452521562E-005	-0,099976372424972096	0,000230548467	0,015718561298579389	0,0087505535783565466	-0,00032649491925289798
1	0	0	0	0	0	2	22643,2949	-0,100000001	2,25088835	-5,5542669546686938E-005	-0,099976806394475021	0,000225036623	0,019051119369153357	0,0054179955077825958	-0,00020215269696780387
1	0	0	0	0	0	2	22763,2949	-0,100000001	2,18298721	-5,5542660315831507E-005	-0,09997678977893504	0,000218248053	0,022383674869184694	0,0020854400077512493	-7,7810570593110426E-005
1	0	0	0	0	0	2	22883,2949	-0,100000001	2,09469652	-5,5542689978248544E-005	-0,099976843171286374	0,000209421152	0,025716239627910992	-0,001247124750975043	4,6531901235939891E-005
1	0	0	0	0	0	2	23003,2949	-0,100000001	1,97174942	-5,5542524339424237E-005	-0,099976545021399002	0,000197128698	0,02904879784686905	-0,0045796829699331059	0,00017087412905744474
1	0	0	0	0	0	2	23123,2949	-0,100000001	1,78920209	-5,5542650363925434E-005	-0,099976771865503898	0,000178878647	0,032381354410230278	-0,0079122395332943386	0,00029521629510640595
1	0	0	0	0	0	2	23243,2949	-0,100000001	1,52469242	-5,554279844835401E-005	-0,099977038417478554	0,000152434237	0,035713911787236326	-0,011244796910300374	0,00041955849151354867
1	0	0	0	0	0	2	23363,2949	-0,100000001	1,27696753	-5,5542632232109709E-005	-0,099976739228235187	0,000127667052	0,039046467424567386	-0,014577352547631427	0,00054390062301107878
1	0	0	0	0	0	2	23483,2949	-0,100000001	1,21160305	-5,5542547802130381E-005	-0,099976587254270579	0,00012113194	0,042379019702408877	-0,017909904825472931	0,0006682426291615369
1	1	0	1	0	0	1	23600,0117	0,100000001	2,38993716	5,5559375516656371E-005	0,1000068771407841	0,000239010158	0,0022765656473905398	-0,016596062780315235	0,00061922141597728614
1	1	0	1	0	0	1	23720,0117	0,100000001	2,5610826	5,5559414730303821E-005	0,10000694772535035	0,000256126048	0,0056101346313025926	-0,013262493796403182	0,00049484147515636
1	1	0	1	0	0	1	23840,0117	0,100000001	2,59312582	5,5559429145521587E-005	0,10000697367274264	0,000259330671	0,008943696089990409	-0,0099289323377153664	0,00037046181511166784
1	1	0	1	0	0	1	23960,0117	0,100000001	2,62337613	5,5559440168655584E-005	0,10000699351438405	0,000262355956	0,012277267964606866	-0,0065953604630989094	0,00024608176643467379
1	1	0	1	0	0	1	24080,0117	0,100000001	2,65730762	5,5559385828259917E-005	0,10000689570167069	0,000265749084	0,015610830270722477	-0,0032617981569832966	0,00012170207477131118
1	1	0	1	0	0	1	24200,0117	0,100000001	2,69730449	5,555950377840135E-005	0,10000710801192784	0,000269749609	0,018944396076451546	7,1767648745767117E-005	-2,6777474673345562E-006
1	1	0	1	0	0	1	24320,0117	0,100000001	2,74542665	5,555942148632473E-005	0,10000695988618813	0,000274561782	0,022277962817624598	0,0034053343899188192	-0,00012705760460865322
1	1	0	1	0	0	1	24440,0117	0,100000001	2,80621362	5,5559352789902022E-005	0,10000683623262576	0,000280640554	0,025611528080046147	0,0067388996523403686	-0,00025143740657576512
1	1	0	1	0	0	1	24560,0116	0,100000001	2,89154792	5,5559519800874925E-005	0,10000713685238061	0,000289175427	0,028945095963873363	0,010072467536167573	-0,00037581730635104646
1	1	0	1	0	0	1	24680,0116	0,100000001	3,02088428	5,5559611088699763E-005	0,10000730117046733	0,000302110479	0,0322786698355368	0,013406041407831035	-0,00050019742954054938
1	1	0	1	0	0	1	24800,0116	0,100000001	3,24156332	5,5559440189351642E-005	0,10000699355163696	0,000324179011	0,035612238579194138	0,016739610151488352	-0,00062457736139724838
1	1	0	1	0	0	1	24920,0116	0,100000001	3,67210674	5,5559250529027648E-005	0,10000665216304966	0,000367235101	0,03894580234492688	0,020073173917221139	-0,00074895710752089011
1	1	0	1	0	0	1	25040,0116	0,100000001	4,38420725	5,555927157443431E-005	0,10000669004478211	0,00043845005	0,042279362248877216	0,023406733821171462	-0,00087333670955623603
1	0	0	0	0	0	2	25157,0176	-0,100000001	2,53187728	-5,5542565379291776E-005	-0,099976618893161459	0,000253128528	0,0023327934934380979	0,021990815765921875	-0,00082050690319280166
1	0	0	0	0	0	2	25277,0176	-0,100000001	2,41165781	-5,5542509812861683E-005	-0,099976518873586086	0,000241109155	0,0056653479045865446	0,018658261354773427	-0,00069616481744579328
1	0	0	0	0	0	2	25397,0176	-0,100000001	2,38558459	-5,5542826267580192E-005	-0,09997708849208631	0,000238503795	0,0089979039843657843	0,015325705274994205	-0,00057182266943992691
1	0	0	0	0	0	2	25517,0176	-0,100000001	2,35157681	-5,5542448886566688E-005	-0,09997640920625376	0,000235102212	0,012330461499793258	0,011993147759566733	-0,00044748046786809434
1	0	0	0	0	0	2	25637,0176	-0,100000001	2,30635381	-5,5542509947799974E-005	-0,099976519116475008	0,000230581223	0,01566300804104408	0,0086606012183159078	-0,00032313867575754739
1	0	0	0	0	0	2	25757,0176	-0,100000001	2,25075483	-5,5542362242109242E-005	-0,09997625324622848	0,000225022042	0,018995551458775178	0,0053280578005848128	-0,00019879700018972118
1	0	0	0	0	0	2	25877,0176	-0,100000001	2,18216705	-5,5542398438271552E-005	-0,099976318399321421	0,000218165034	0,022328097411766646	0,0019955118475933341	-7,4455230027921357E-005
1	0	0	0	0	0	2	25997,0176	-0,100000001	2,09282732	-5,5542572951151264E-005	-0,099976632522508698	0,000209233825	0,02566064818964735	-0,001337038930287348	4,9886720156981811E-005
1	0	0	0	0	0	2	26117,0176	-0,100000001	1,96799195	-5,5542333445615238E-005	-0,099976201412538637	0,000196752357	0,028993190389889824	-0,0046695811305298272	0,00017422835029867085
1	0	0	0	0	0	2	26237,0176	-0,100000001	1,78218305	-5,5542161003169088E-005	-0,099975891016131814	0,000178175338	0,032325728746904698	-0,0080021194875446989	0,00029856983704437062
1	0	0	0	0	0	2	26357,0176	-0,100000001	1,51353455	-5,5542399511155155E-005	-0,099976320330511936	0,00015131761	0,035658262694406432	-0,011334653435046442	0,00042291115926520685
1	0	0	0	0	0	2	26477,0176	-0,100000001	1,27082586	-5,5542244317630931E-005	-0,099976040982164954	0,000127052132	0,038990801480155866	-0,014667192220795859	0,0005472526620075689
1	0	0	0	0	0	2	26597,0176	-0,100000001	1,20919979	-5,5542253718194035E-005	-0,099976057903178752	0,000120891025	0,042323341714754304	-0,017999732455394288	0,00067159421880843558
1	1	0	1	0	0	1	26714,8722	0,100000001	2,46048951	5,5559337314632198E-005	0,10000680837713974	0,000246065698	0,002498800223379104	-0,016273082316476774	0,00060717058061962099
1	1	0	1	0	0	1	26834,8722	0,100000001	2,56333327	5,5559207248191034E-005	0,10000657425754282	0,000256350177	0,0058323578211069325	-0,012939524718748954	0,00048279106463253747
1	1	0	1	0	0	1	26954,8722	0,100000001	2,59474707	5,5559232200599379E-005	0,10000661917187837	0,000259491877	0,0091659140630521894	-0,0096059684768036966	0,00035841159923152422
1	1	0	1	0	0	1	27074,8722	0,100000001	2,62537885	5,5559091168559264E-005	0,10000636531420309	0,000262554589	0,012499470061594846	-0,0062724124782610394	0,00023403214291218922
1	1	0	1	0	0	1	27194,8722	0,100000001	2,65988255	5,5559336072040934E-005	0,10000680614047542	0,000266006362	0,015833026676834061	-0,0029388558630218234	0,00010965266358307643
1	1	0	1	0	0	1	27314,8722	0,100000001	2,70073771	5,5559285806285011E-005	0,10000671566211368	0,000270091899	0,019166588196700656	0,00039470565684477914	-1,4726998744278458E-005
1	1	0	1	0	0	1	27434,8722	0,100000001	2,75004244	5,5559336562951405E-005	0,10000680702411429	0,000275022961	0,022500147605426205	0,003728265065570329	-0,00013910658230212222
1	1	0	1	0	0	1	27554,8722	0,100000001	2,81285119	5,5559379956374566E-005	0,10000688513227693	0,000281304499	0,025833704998952666	0,0070618224590967795	-0,00026348609067017814
1	1	0	1	0	0	1	27674,8722	0,100000001	2,90179014	5,5559504648049677E-005	0,10000710957729485	0,000290199649	0,029167266789844902	0,010395384249989008	-0,00038786576310986355
1	1	0	1	0	0	1	27794,8722	0,100000001	3,03829837	5,555921653575367E-005	0,10000659097515574	0,000303849869	0,032500826406843155	0,013728943866987254	-0,00051224535443864166
1	1	0	1	0	0	1	27914,8722	0,100000001	3,27541852	5,5559312892042931E-005	0,10000676441647853	0,000327564019	0,03583438714027072	0,01706250460041487	-0,00063662498742290048
1	1	0	1	0	0	1	28034,8722	0,100000001	3,74410868	5,5559428246070944E-005	0,10000697205373147	0,000374436961	0,039167946922469869	0,020396064382614022	-0,00076100458491554662
1	1	0	1	0	0	1	28154,8722	0,100000001	4,44816017	5,5559342799501286E-005	0,10000681824990422	0,000444846344	0,042501510079066797	0,023729627539210893	-0,00088538430831150835
1	0	0	0	0	0	2	28271,3478	-0,100000001	2,49079323	-5,5542557040436397E-005	-0,099976603883221606	0,000249021046	0,0027771307728302973	0,021410167202782339	-0,00079884212461176947
1	0	0	0	0	0	2	28391,3478	-0,100000001	2,40839624	-5,5542447171277472E-005	-0,099976406118733133	0,0002407828	0,0061096844518304678	0,018077613523782166	-0,0006745000661821975
1	0	0	0	0	0	2	28511,3478	-0,100000001	2,38180804	-5,554247311502695E-005	-0,099976452817482765	0,000238124718	0,0094422329377602355	0,014745065037852406	-0,00055015820151306483
1	0	0	0	0	0	2	28631,3478	-0,100000001	2,34623623	-5,5542513839072646E-005	-0,099976526120765914	0,00023456855	0,012774777473001437	0,011412520502611206	-0,00042581648424943405
1	0	0	0	0	0	2	28751,3478	-0,100000001	2,29922032	-5,5542271614074707E-005	-0,099976090115764352	0,000229867059	0,016107319803806224	0,0080799781718064141	-0,00030147484923628954
1	0	0	0	0	0	2	28871,3478	-0,100000001	2,24154234	-5,5542300024794202E-005	-0,099976141255060045	0,000224100761	0,019439858079755478	0,0047474398958571706	-0,00017713336551525734
1	0	0	0	0	0	2	28991,3478	-0,100000001	2,17013168	-5,5542202820380531E-005	-0,099975966287113318	0,000216961009	0,022772393722640138	0,0014149042529724989	-5,2791980037404582E-005
1	0	0	0	0	0	2	29111,3478	-0,100000001	2,07554674	-5,5542338104297715E-005	-0,099976209798167194	0,000207505291	0,026104932048667219	-0,0019176340730545805	7,154950555209897E-005
1	0	0	0	0	0	2	29231,3478	-0,100000001	1,94203317	-5,5542324121213626E-005	-0,099976184628615526	0,000194157066	0,029437474321444006	-0,0052501763458313613	0,00019589113840014035
1	0	0	0	0	0	2	29351,3478	-0,100000001	1,74132788	-5,5542220797803667E-005	-0,099975998646475366	0,000174090994	0,03277000630805559	-0,0085827083324429466	0,00032023238745752832
1	0	0	0	0	0	2	29471,3478	-0,100000001	1,46005285	-5,5542398996651174E-005	-0,099976319404404749	0,000145970713	0,036102542476131706	-0,011915244500519045	0,00044457379253097939
1	0	0	0	0	0	2	29591,3478	-0,100000001	1,25262988	-5,554236676875088E-005	-0,099976261394183514	0,000125233259	0,039435085008961901	-0,015247787033349232	0,00056891543508196301
1	0	0	0	0	0	2	29711,3478	-0,100000001	1,2014941	-5,5542256176885632E-005	-0,099976062328823667	0,000120120647	0,042767628481347968	-0,018580330505735302	0,00069325711268903987
1	1	0	1	0	0	1	29828,2628	0,100000001	2,51366615	5,5559474861870208E-005	0,10000705596217117	0,000251384365	0,003109958397013232	-0,015605461992055763	0,00058226076869040026
1	1	0	1	0	0	1	29948,2628	0,100000001	2,56926489	5,5559424853573242E-005	0,10000696594723552	0,00025694439	0,0064435244712537715	-0,012271895917815235	0,00045788093643323078
1	1	0	1	0	0	1	30068,2628	0,100000001	2,59976339	5,5559526222033632E-005	0,10000714841046645	0,000259994937	0,009777092531059968	-0,0089383278580090381	0,00033350103009193658
1	1	0	1	0	0	1	30188,2628	0,100000001	2,63100553	5,55592365351816E-005	0,10000662697412646	0,000263117981	0,013110657522626842	-0,005604762866442167	0,0002091212382307769
1	1	0	1	0	0	1	30308,2628	0,100000001	2,66678715	5,5559347875830202E-005	0,10000682738729638	0,000266696909	0,016444217431156381	-0,002271202957912631	8,47416360245744E-005
1	1	0	1	0	0	1	30428,2628	0,100000001	2,70911098	5,5559240142090451E-005	0,10000663346656246	0,000270929071	0,019777774228745661	0,0010623538396766483	-3,9637850108264403E-005
1	1	0	1	0	0	1	30548,2628	0,100000001	2,76087618	5,5559381713469818E-005	0,10000688829504843	0,000276106643	0,023111330955093722	0,0043959105660247181	-0,00016401733358299786
1	1	0	1	0	0	1	30668,2628	0,100000001	2,82810974	5,5559341652525798E-005	0,1000068161853483	0,000282830239	0,026444888884786301	0,0077294684957173005	-0,00028839686195613306
1	1	0	1	0	0	1	30788,2628	0,100000001	2,92525053	5,5559371409730778E-005	0,10000686974831792	0,000292545155	0,029778450872215334	0,011063030483146333	-0,00041277654172887085
1	1	0	1	0	0	1	30908,2628	0,100000001	3,07730341	5,5559371890707149E-005	0,10000687061407541	0,00030775147	0,033112009181406547	0,014396588792337554	-0,0005371560842616105
1	1	0	1	0	0	1	31028,2628	0,100000001	3,35108256	5,555912844629751E-005	0,10000643241413275	0,000335129822	0,036445563970090816	0,017730143581021811	-0,00066153549543950195
1	1	0	1	0	0	1	31148,2628	0,100000001	3,90051031	5,5559444855898618E-005	0,10000700195142163	0,000390078349	0,039779120319280134	0,021063699930211146	-0,00078591496484193587
1	0	0	0	0	0	2	31266,0272	-0,100000001	4,10506868	-5,5542250779353914E-005	-0,099976052613266445	0,000410408567	0,00027771500478270982	0,02377962338402601	-0,00088724972050168858
1	0	0	0	0	0	2	31386,0272	-0,100000001	2,44305253	-5,5542419950995181E-005	-0,099976357122224422	0,000244247494	0,0036102586647388	0,020447079724069914	-0,00076290803589612198
1	0	0	0	0	0	2	31506,0272	-0,100000001	2,40234995	-5,5542221373154061E-005	-0,099975999682106074	0,000240177338	0,0069427960334788582	0,017114542355329862	-0,00063856658602428454
1	0	0	0	0	0	2	31626,0272	-0,100000001	2,37423587	-5,5542266496353683E-005	-0,099976080903866381	0,000237366796	0,01027533816961075	0,013782000219197973	-0,00051422495827464774
1	0	0	0	0	0	2	31746,0272	-0,100000001	2,33532619	-5,5542323405130042E-005	-0,099976183339665062	0,000233476996	0,013607872033375006	0,010449466355433717	-0,00038988363917816973
1	0	0	0	0	0	2	31866,0272	-0,100000001	2,28539205	-5,5542267445474861E-005	-0,099976082612284518	0,00022848454	0,016940408786229379	0,0071169296025793446	-0,00026554221228585504
1	0	0	0	0	0	2	31986,0272	-0,100000001	2,22433829	-5,5542267635050752E-005	-0,099976082953521126	0,000222380637	0,020272943120171645	0,0037843952686370944	-0,0001412008756464039
1	0	0	0	0	0	2	32106,0272	-0,100000001	2,14709115	-5,5542269803169696E-005	-0,099976086856135283	0,000214657775	0,023605480948159674	0,00045185744064904237	-1,6859408639406093E-005
1	0	0	0	0	0	2	32226,0272	-0,100000001	2,04333186	-5,5542364344414739E-005	-0,099976257030378406	0,000204284675	0,026938017233418093	-0,0028806788446093734	0,00010748200080627478
1	0	0	0	0	0	2	32346,0272	-0,100000001	1,89341509	-5,5542258259322906E-005	-0,099976066077210803	0,000189296188	0,030270554801626342	-0,0062132164128176192	0,00023182345812053875
1	0	0	0	0	0	2	32466,0272	-0,100000001	1,66688454	-5,5542420356637901E-005	-0,099976357852381325	0,000166649043	0,033603091914359059	-0,0095457535255503462	0,00035616489844039872
1	0	0	0	0	0	2	32586,0272	-0,100000001	1,37492836	-5,5542417918228442E-005	-0,09997635346324425	0,000137460316	0,036935632397016282	-0,012878294008207586	0,00048050646449667315
1	0	0	0	0	0	2	32706,0272	-0,100000001	1,23290801	-5,5542225410540896E-005	-0,09997600694940247	0,000123261227	0,040268170677515347	-0,01621083228870665	0,00060484794838746534
1	1	0	1	0	0	1	32822,9589	0,100000001	1,65980828	5,555931976313392E-005	0,10000677538736394	0,000165992067	0,00077645949102894874	-0,017902703061844106	0,0006679739216776713
1	1	0	1	0	0	1	32942,9589	0,100000001	2,53951049	5,5559252204994355E-005	0,10000665378271293	0,000253967941	0,0041100191039455245	-0,014569143448927526	0,00054359433050118566
1	1	0	1	0	0	1	33062,9589	0,100000001	2,57851553	5,5559258855879302E-005	0,10000666575430582	0,000257868727	0,0074435798610291354	-0,011235582691843914	0,0004192146966342896
1	1	0	1	0	0	1	33182,9590	0,100000001	2,60851812	5,5559160016063187E-005	0,10000648784263714	0,00026086875	0,010777135919546482	-0,0079020266333265664	0,0002948352380772183
1	1	0	1	0	0	1	33302,9590	0,100000001	2,64090466	5,5559246607538726E-005	0,10000664370729282	0,000264108006	0,014110691244515264	-0,0045684713083577875	0,0001704558068898303
1	1	0	1	0	0	1	33422,9590	0,100000001	2,67863178	5,5559067766285606E-005	0,10000632179303781	0,000267880125	0,017444249625931581	-0,0012349129269414712	4,6076261662275283E-005
1	1	0	1	0	0	1	33542,9590	0,100000001	2,72377849	5,555934918920199E-005	0,10000682835428637	0,000272396457	0,02077780471695792	0,0020986421640848714	-7,830316079640585E-005
1	1	0	1	0	0	1	33662,9590	0,100000001	2,77951074	5,5559026966906253E-005	0,1000062483541551	0,000277968444	0,024111359645384451	0,0054321970925113984	-0,00020268257718826925
1	1	0	1	0	0	1	33782,9590	0,100000001	2,8550415	5,5559314996831942E-005	0,10000676680802038	0,000285523478	0,027444912425866544	0,0087657498729934886	-0,00032706191343743776
1	1	0	1	0	0	1	33902,9590	0,100000001	2,96637273	5,5559268032511078E-005	0,10000668227224298	0,00029665709	0,030778468775621715	0,01209930622274865	-0,00045144138286098349
1	1	0	1	0	0	1	34022,9590	0,100000001	3,14840889	5,5559378401272826E-005	0,10000688093601376	0,000314862555	0,034112026645487386	0,01543286409261431	-0,00057582090900189581
1	1	0	1	0	0	1	34142,9590	0,100000001	3,49232101	5,5559135964761178E-005	0,1000064445502936	0,000349254609	0,037445580847323757	0,018766418294450694	-0,00070020029828370394
1	1	0	1	0	0	1	34262,9590	0,100000001	4,17379379	5,5559264703343309E-005	0,10000667627974101	0,000417407253	0,040779133313961338	0,02209997076108825	-0,00082457962282291098
1	0	0	0	0	0	2	34380,6840	-0,100000001	2,87207007	-5,5542300641122797E-005	-0,09997614096780096	0,000287138479	0,001444101013857871	0,022481670500366864	-0,00083882135329615373
1	0	0	0	0	0	2	34500,6840	-0,100000001	2,41989756	-5,5542215312934586E-005	-0,099975987377062464	0,000241931644	0,0047766366464934413	0,019149134867731296	-0,00071447996820070874
1	0	0	0	0	0	2	34620,6840	-0,100000001	2,3934238	-5,5542180267886982E-005	-0,099975924295976909	0,000239284753	0,0081091680702070362	0,015816603444017699	-0,00059013874014580147
1	0	0	0	0	0	2	34740,6840	-0,100000001	2,36193347	-5,5542365333686272E-005	-0,099976257414415002	0,000236137275	0,011441705260308248	0,012484066253916485	-0,00046579729693921926
1	0	0	0	0	0	2	34860,6840	-0,100000001	2,31878948	-5,5542185174094304E-005	-0,099975933127150054	0,000231823142	0,014774240718992218	0,0091515307952325171	-0,00034145591833414234
1	0	0	0	0	0	2	34980,6840	-0,100000001	2,2647357	-5,5542089439928531E-005	-0,099975760805652006	0,000226418677	0,018106779262682637	0,0058189922515421082	-0,00021711442462332733
1	0	0	0	0	0	2	35100,6840	-0,100000001	2,19820762	-5,554242403474119E-005	-0,099976363076313664	0,000219768801	0,021439317639736666	0,0024864538744880691	-9,2772937129939341E-005
1	0	0	0	0	0	2	35220,6840	-0,100000001	2,11218667	-5,5542542641361555E-005	-0,099976576568229914	0,000211169187	0,024771863993958054	-0,00084609247973331725	3,1568848002287827E-005
1	0	0	0	0	0	2	35340,6840	-0,100000001	1,99316883	-5,5542398549202413E-005	-0,099976317202343936	0,000199269678	0,028104409829407501	-0,0041786383151827827	0,00015591061377843712
1	0	0	0	0	0	2	35460,6840	-0,100000001	1,81658757	-5,5542136859976582E-005	-0,09997584616173833	0,000181614872	0,031436946186270118	-0,007511174672045417	0,00028025202589576768
1	0	0	0	0	0	2	35580,6840	-0,100000001	1,5555532	-5,5542384269750784E-005	-0,099976291499331046	0,000155518443	0,034769489590754048	-0,010843718076529379	0,0004045937009693255
1	0	0	0	0	0	2	35700,6840	-0,100000001	1,28665674	-5,554215658373303E-005	-0,099975881664499866	0,000128634638	0,038102026633430637	-0,014176255119205952	0,00052893513867529619
1	0	0	0	0	0	2	35820,6840	-0,100000001	1,21394908	-5,5542346951034336E-005	-0,099976224325641574	0,000121366043	0,041434569497765306	-0,017508797983540614	0,00065327679359515738
1	0	0	0	0	0	2	35861,9164	-0,100000001	1,199911	-3,4225001375294394E-005	-0,099975661089102131	0,000119961893	0,04257963723775408	-0,018653865723529402	0,00069600081053408947