File: Experimentelles/Rohdaten/Batteriemessungen/AlteZelle/Batterietest Li vs LATP/ECLab-Export/LATP vs Li Batterietest Probe1_02_GCPL_C01_loop4.mpt
EC-Lab ASCII FILE
Nb header lines : 3
mode	ox/red	error	control changes	Ns changes	counter inc.	Ns	time/s	control/V/mA	Ewe/V	dq/mA.h	<I>/mA	P/W	(Q-Qo)/mA.h	x	Capacity/mA.h
1	1	0	1	1	0	1	14442,00	0,100000001	1,21313345	0	0	0	0	0	0
1	1	0	1	0	0	1	14454,00	0,100000001	1,53154111	5,5563802428543571E-005	0,10001484558227752	0,00015317685	0,00033201035103536275	-1,2387752589793958E-005	0,00033201035103536275
1	1	0	1	0	0	1	14466,00	0,100000001	1,69503164	5,5563781347953613E-005	0,10001480763721514	0,00016952827	0,00066539310374114202	-2,4826711331124829E-005	0,00066539310374114202
1	1	0	1	0	0	1	14478,00	0,100000001	1,84929943	5,5563788702090579E-005	0,10001482087466182	0,000184957345	0,000998775852265904	-3,726566991645632E-005	0,000998775852265904
1	1	0	1	0	0	1	14490,00	0,100000001	2,00899005	5,5563781829757824E-005	0,10001480850446272	0,000200928756	0,0013321588590522109	-4,9704638137873293E-005	0,0013321588590522109
1	1	0	1	0	0	1	14502,00	0,100000001	2,17234707	5,5563889183931878E-005	0,10001500174197835	0,000217267298	0,0016655420810195635	-6,2143614387984397E-005	0,0016655420810195635
1	1	0	1	0	0	1	14514,00	0,100000001	2,32881069	5,5563748646113613E-005	0,10001474877390242	0,000232915423	0,0019989250276097322	-7,4582580363402522E-005	0,0019989250276097322
1	1	0	1	0	0	1	14526,00	0,100000001	2,44189072	5,5563782832688755E-005	0,10001481030973842	0,00024422523	0,002332307968855351	-8,7021546139408294E-005	0,002332307968855351
1	1	0	1	0	0	1	14538,00	0,100000001	2,49132752	5,5563886248403123E-005	0,10001499645802653	0,000249170116	0,0026656912562081718	-9,9460524829139123E-005	0,0026656912562081718
1	1	0	1	0	0	1	14550,00	0,100000001	2,51357317	5,5563963628477517E-005	0,10001513574216213	0,000251395366	0,0029990749174729318	-0,00011189951747002714	0,0029990749174729318
1	1	0	1	0	0	1	14562,00	0,100000001	2,52690125	5,5563948964079219E-005	0,1000151093462449	0,000252728292	0,0033324584643832845	-0,00012433850584419846	0,0033324584643832845
1	1	0	1	0	0	1	14574,00	0,100000001	2,53648686	5,5563866889725126E-005	0,10001496161240573	0,000253686623	0,0036658419677259533	-0,00013677749259280093	0,0036658419677259533
1	1	0	1	0	0	1	14586,00	0,100000001	2,54416323	5,5563951864838598E-005	0,10001511456761182	0,00025445479	0,003999225404774183	-0,00014921647686786874	0,003999225404774183
1	1	0	1	0	0	1	14598,00	0,100000001	2,55052161	5,5563793645964723E-005	0,10001482977363541	0,000255089981	0,0043326088094132154	-0,00016165545993370579	0,0043326088094132154
1	1	0	1	0	0	1	14610,00	0,100000001	2,55607843	5,5563957560393542E-005	0,10001512481961083	0,000255646504	0,0046659923562031174	-0,00017409444830338294	0,0046659923562031174
1	1	0	1	0	0	1	14622,00	0,100000001	2,56104302	5,5563986790676909E-005	0,10001517743412154	0,000256143161	0,0049993762265800115	-0,00018653344874652586	0,0049993762265800115
1	1	0	1	0	0	1	14634,00	0,100000001	2,56575942	5,5563899743060269E-005	0,1000150207484097	0,000256614469	0,0053327595828047558	-0,00019897243000596074	0,0053327595828047558
1	1	0	1	0	0	1	14646,00	0,100000001	2,5699985	5,556394945250617E-005	0,10001511022541341	0,000257038686	0,0056661429549389741	-0,00021141141185899949	0,0056661429549389741
1	1	0	1	0	0	1	14658,00	0,100000001	2,57389379	5,5563892100834189E-005	0,10001500699240259	0,000257428008	0,0059995262887660326	-0,00022385039228274662	0,0059995262887660326
1	1	0	1	0	0	1	14670,00	0,100000001	2,57798028	5,5563927216248378E-005	0,1000150702001489	0,000257836888	0,0063329099749554701	-0,00023628938585360784	0,0063329099749554701
1	1	0	1	0	0	1	14682,00	0,100000001	2,58166552	5,556398765163289E-005	0,10001517898384234	0,00025820575	0,0066662937866540749	-0,00024872838410738486	0,0066662937866540749
1	1	0	1	0	0	1	14694,00	0,100000001	2,5853126	5,5563993125326106E-005	0,10001518883649022	0,000258570537	0,0069996773787534387	-0,00026116737416761901	0,0069996773787534387
1	1	0	1	0	0	1	14706,00	0,100000001	2,58876872	5,5563968738747968E-005	0,10001514494064906	0,000258916087	0,0073330612226803584	-0,00027360637362387773	0,0073330612226803584
1	1	0	1	0	0	1	14718,00	0,100000001	2,592206	5,5563906437820858E-005	0,1000150327989789	0,00025925957	0,0076664448456031898	-0,00028604536483417683	0,0076664448456031898
1	1	0	1	0	0	1	14730,00	0,100000001	2,59575748	5,5564036110623014E-005	0,10001526621002562	0,000259615364	0,0079998286003470733	-0,00029848436096289664	0,0079998286003470733
1	1	0	1	0	0	1	14742,00	0,100000001	2,59890819	5,5563882043792141E-005	0,10001498888972669	0,000259929773	0,0083332122239421107	-0,00031092335219827667	0,0083332122239421107
1	1	0	1	0	0	1	14754,00	0,100000001	2,60251713	5,5563854221254586E-005	0,10001493880915848	0,000260290602	0,0086665957572075507	-0,00032336234006333792	0,0086665957572075507
1	1	0	1	0	0	1	14766,00	0,100000001	2,60566783	5,5563766896310784E-005	0,10001478162425771	0,000260605302	0,0089999782865618957	-0,00033580129047112653	0,0089999782865618957
1	1	0	1	0	0	1	14778,00	0,100000001	2,60904765	5,5563808275593651E-005	0,10001485610696778	0,000260943518	0,0093333608367029466	-0,00034824024165449504	0,0093333608367029466
1	1	0	1	0	0	1	14790,00	0,100000001	2,61225557	5,5563821884493037E-005	0,10001488060298698	0,000261264417	0,0096667439866852723	-0,00036067921521874797	0,0096667439866852723
1	1	0	1	0	0	1	14802,00	0,100000001	2,61561632	5,5563791243980326E-005	0,10001482545006344	0,00026160042	0,010000126959116125	-0,00037311818215831674	0,010000126959116125
1	1	0	1	0	0	1	14814,00	0,100000001	2,61895776	5,5563875083294182E-005	0,10001497636083019	0,000261934998	0,01033351000132663	-0,00038555715170145824	0,01033351000132663
1	1	0	1	0	0	1	14826,00	0,100000001	2,62226129	5,5563847989671757E-005	0,10001492759230923	0,000262265268	0,01066689330831297	-0,00039799613112374202	0,01066689330831297
1	1	0	1	0	0	1	14838,00	0,100000001	2,6255455	5,5563817108670867E-005	0,10001487200650698	0,000262593589	0,01100027588869841	-0,00041043508343556934	0,01100027588869841
1	1	0	1	0	0	1	14850,00	0,100000001	2,62888718	5,5563745532184838E-005	0,10001474316883056	0,000262927468	0,011333658559696982	-0,00042287403912829446	0,011333658559696982
1	1	0	1	0	0	1	14862,00	0,100000001	2,63232422	5,5563664165221984E-005	0,10001459670829565	0,000263270835	0,0116670410989308	-0,00043531298990469946	0,0116670410989308
1	1	0	1	0	0	1	14874,00	0,100000001	2,63568497	5,556370584004455E-005	0,10001467172297718	0,000263607159	0,012000423058396029	-0,00044775191904915891	0,012000423058396029
1	1	0	1	0	0	1	14886,00	0,100000001	2,63912201	5,5563841994851827E-005	0,10001491680163325	0,000263951573	0,012333805609113258	-0,00046019087025402534	0,012333805609113258
1	1	0	1	0	0	1	14898,00	0,100000001	2,6425209	5,5563781126919718E-005	0,10001480723935411	0,000264291215	0,012667188177821155	-0,00047262982213014784	0,012667188177821155
1	1	0	1	0	0	1	14910,00	0,100000001	2,64607263	5,5563729646305248E-005	0,10001471457424694	0,000264646194	0,013000570886601621	-0,00048506877923256621	0,013000570886601621
1	1	0	1	0	0	1	14922,00	0,100000001	2,64952874	5,5563607356200614E-005	0,10001449445205594	0,000264991279	0,013333952999543843	-0,00049750771410345856	0,013333952999543843
1	1	0	1	0	0	1	14934,00	0,100000001	2,65313768	5,5563649045924346E-005	0,10001456949355957	0,000265352428	0,013667334706413693	-0,0005099466338232448	0,013667334706413693
1	1	0	1	0	0	1	14946,00	0,100000001	2,65663218	5,556367172259424E-005	0,10001461031156586	0,000265702023	0,014000716397735424	-0,00052238555296290982	0,014000716397735424
1	1	0	1	0	0	1	14958,00	0,100000001	2,66010737	5,5563701327476237E-005	0,10001466360035411	0,000266049756	0,014334098156078026	-0,00053482447460321363	0,014334098156078026
1	1	0	1	0	0	1	14970,00	0,100000001	2,66385007	5,5563741370207731E-005	0,10001473567727168	0,000266424264	0,014667480357856006	-0,00054726341278868768	0,014667480357856006
1	1	0	1	0	0	1	14982,00	0,100000001	2,66753531	5,5563535882367027E-005	0,10001436579915394	0,000266791845	0,015000861873546029	-0,00055970232537529734	0,015000861873546029
1	1	0	1	0	0	1	14994,00	0,100000001	2,67129707	5,5563539995915354E-005	0,10001437320354101	0,0002671681	0,015334243478207987	-0,00057214124128156966	0,015334243478207987
1	1	0	1	0	0	1	15006,00	0,100000001	2,67507768	5,5563707970082765E-005	0,10001467555704598	0,000267547031	0,015667625270582355	-0,00058458016419164442	0,015667625270582355
1	1	0	1	0	0	1	15018,00	0,100000001	2,67887759	5,5563661517782342E-005	0,10001459194290422	0,000267926836	0,016001007473217568	-0,00059701910240910285	0,016001007473217568
1	1	0	1	0	0	1	15030,00	0,100000001	2,68283033	5,5563599948253894E-005	0,10001448111775168	0,000268321892	0,01633438944576063	-0,00060945803204151386	0,01633438944576063
1	1	0	1	0	0	1	15042,00	0,100000001	2,68672562	5,556371047761705E-005	0,10001468007060778	0,000268712	0,016667771888542128	-0,0006218969792191529	0,016667771888542128
1	1	0	1	0	0	1	15054,00	0,100000001	2,69071651	5,5563632386426131E-005	0,10001453950646243	0,00026911078	0,017001154138375107	-0,00063433591919762355	0,017001154138375107
1	1	0	1	0	0	1	15066,00	0,100000001	2,69476461	5,5563754554837939E-005	0,10001475940960635	0,000269516226	0,017334536332088243	-0,00064677485708218739	0,017334536332088243
1	1	0	1	0	0	1	15078,00	0,100000001	2,69894648	5,556366799440649E-005	0,10001460360082784	0,000269934069	0,017667918643590509	-0,00065921379936162202	0,017667918643590509
1	1	0	1	0	0	1	15090,00	0,100000001	2,70305181	5,5563566633810605E-005	0,10001442115175302	0,000270344171	0,018001300888817789	-0,00067165273916824768	0,018001300888817789
1	1	0	1	0	0	1	15102,00	0,100000001	2,70732903	5,5563696884860595E-005	0,10001465560364586	0,00027077258	0,018334683126598211	-0,00068409167869702131	0,018334683126598211
1	1	0	1	0	0	1	15114,00	0,100000001	2,7116828	5,556377789709303E-005	0,100014801425666	0,00027120841	0,018668065576314128	-0,00069653062613339302	0,018668065576314128
1	1	0	1	0	0	1	15126,00	0,100000001	2,71590281	5,556368772395783E-005	0,10001463911402069	0,000271630037	0,019001448039357898	-0,00070896957406704474	0,019001448039357898
1	1	0	1	0	0	1	15138,00	0,100000001	2,72040915	5,5563663986408051E-005	0,10001459638643056	0,000272080622	0,019334830421054979	-0,00072140851896554227	0,019334830421054979
1	1	0	1	0	0	1	15150,00	0,100000001	2,72497272	5,556370359079705E-005	0,10001466767433163	0,000272537232	0,019668212648942275	-0,00073384745812518989	0,019668212648942275
1	1	0	1	0	0	1	15162,00	0,100000001	2,72955561	5,5563727753443846E-005	0,10001471116709638	0,000272995705	0,020001594766205418	-0,00074628639315730163	0,020001594766205418
1	1	0	1	0	0	1	15174,00	0,100000001	2,73423386	5,5563662545548544E-005	0,10001459379288341	0,000273463287	0,020334977042019402	-0,00075872533410515853	0,020334977042019402
1	1	0	1	0	0	1	15186,00	0,100000001	2,73885489	5,5563687189585632E-005	0,10001463815215072	0,000273925572	0,020668359190519517	-0,00077116427030276365	0,020668359190519517
1	1	0	1	0	0	1	15198,00	0,100000001	2,74360943	5,5563699402328998E-005	0,10001466013508902	0,000274401158	0,021001741138297267	-0,00078360319901114752	0,021001741138297267
1	1	0	1	0	0	1	15210,00	0,100000001	2,74878407	5,556364880667792E-005	0,100014569062916	0,00027491845	0,021335123100181034	-0,00079604212824584589	0,021335123100181034
1	1	0	1	0	0	1	15222,00	0,100000001	2,75363421	5,5563645079318022E-005	0,1000145623536681	0,000275403523	0,02166850509086047	-0,00080848105855494925	0,02166850509086047
1	1	0	1	0	0	1	15234,00	0,100000001	2,75867534	5,5563602406117658E-005	0,10001448554190651	0,000275907485	0,022001887141595309	-0,00082091999110480064	0,022001887141595309
1	1	0	1	0	0	1	15246,00	0,100000001	2,76377368	5,5563705277111795E-005	0,10001467070969819	0,000276417908	0,02233526921405439	-0,00083335892446521254	0,02233526921405439
1	1	0	1	0	0	1	15258,00	0,100000001	2,76910114	5,5563683883183533E-005	0,10001463220062686	0,000276950625	0,022668651031217264	-0,00084579784830017971	0,022668651031217264
1	1	0	1	0	0	1	15270,00	0,100000001	2,77458143	5,5563639035241472E-005	0,10001455147433018	0,000277498504	0,023002033174578966	-0,00085823678430606387	0,023002033174578966
1	1	0	1	0	0	1	15282,00	0,100000001	2,78011894	5,5563576567504141E-005	0,1000144390324016	0,00027805203	0,023335415062400656	-0,00087067571077740646	0,023335415062400656
1	1	0	1	0	0	1	15294,00	0,100000001	2,78578997	5,5563889408277139E-005	0,10001500214579982	0,000278620777	0,023668797220899453	-0,0008831146473480759	0,023668797220899453
1	1	0	1	0	0	1	15306,00	0,100000001	2,79161406	5,5563576601031757E-005	0,10001443909275133	0,000279201719	0,024002179070493453	-0,00089555357239309197	0,024002179070493453
1	1	0	1	0	0	1	15318,00	0,100000001	2,79764795	5,5563596992443008E-005	0,10001447579729202	0,000279805303	0,024335560723179366	-0,00090799249009120269	0,024335560723179366
1	1	0	1	0	0	1	15330,00	0,100000001	2,80379653	5,5563634287979872E-005	0,1000145429292592	0,000280420441	0,024668942642565027	-0,00092043141774023962	0,024668942642565027
1	1	0	1	0	0	1	15342,00	0,100000001	2,81015515	5,5563554880519712E-005	0,10001439999582917	0,000281055982	0,025002324461539626	-0,00093287034164280474	0,025002324461539626
1	1	0	1	0	0	1	15354,00	0,100000001	2,81676197	5,5563629671931264E-005	0,10001453462037158	0,000281717133	0,025335705911851632	-0,00094530925179007283	0,025335705911851632
1	1	0	1	0	0	1	15366,00	0,100000001	2,82344532	5,5563616729031008E-005	0,10001451132315085	0,000282385503	0,025669087321503334	-0,00095774816042025037	0,025669087321503334
1	1	0	1	0	0	1	15378,00	0,100000001	2,83037663	5,5563534173286624E-005	0,10001436272280915	0,00028307832	0,026002468575252877	-0,00097018706323350861	0,026002468575252877
1	1	0	1	0	0	1	15390,00	0,100000001	2,83772826	5,5563552898251347E-005	0,10001439642774608	0,000283813686	0,026335850127781466	-0,00098262597719461491	0,026335850127781466
1	1	0	1	0	0	1	15402,00	0,100000001	2,84506059	5,5563604391697376E-005	0,10001448911595005	0,000284547277	0,026669231848230416	-0,00099506489742105562	0,026669231848230416
1	1	0	1	0	0	1	15414,00	0,100000001	2,85273671	5,5563602656953862E-005	0,10001448599341168	0,000285315007	0,027002613390670918	-0,0010075038110057618	0,027002613390670918
1	1	0	1	0	0	1	15426,00	0,100000001	2,86071849	5,5563597343448134E-005	0,10001447642910126	0,000286113267	0,027335995134115251	-0,001019942732090191	0,027335995134115251
1	1	0	1	0	0	1	15438,00	0,100000001	2,868891	5,556376140895817E-005	0,10001477174702288	0,000286931492	0,027669377587572189	-0,0010323816796661451	0,027669377587572189
1	1	0	1	0	0	1	15450,00	0,100000001	2,87721658	5,5563834212306477E-005	0,10001490279305142	0,000287764531	0,028002760180592982	-0,0010448206324494146	0,028002760180592982
1	1	0	1	0	0	1	15462,00	0,100000001	2,88613391	5,5563731562760141E-005	0,10001471802386579	0,000288655865	0,028336142886240896	-0,0010572595894349533	0,028336142886240896
1	1	0	1	0	0	1	15474,00	0,100000001	2,89514661	5,5563729379740026E-005	0,10001471409442954	0,000289557269	0,028669525326659728	-0,0010696985365244384	0,028669525326659728
1	1	0	1	0	0	1	15486,00	0,100000001	2,90463686	5,5563769818180141E-005	0,10001478688362262	0,000290506636	0,029002907808030266	-0,0010821374851418864	0,029002907808030266
1	1	0	1	0	0	1	15498,00	0,100000001	2,9142797	5,5563837736017178E-005	0,10001490913573078	0,000291471428	0,029336290473451667	-0,0010945764406265198	0,029336290473451667
1	1	0	1	0	0	1	15510,00	0,100000001	2,92459083	5,5563821317007142E-005	0,10001487958151235	0,000292502606	0,029669673559622662	-0,0011070154118098864	0,029669673559622662
1	1	0	1	0	0	1	15522,00	0,100000001	2,93501687	5,5563709464752013E-005	0,10001467824745067	0,000293544756	0,030003056178007309	-0,0011194543655395152	0,030003056178007309
1	1	0	1	0	0	1	15534,00	0,100000001	2,94607282	5,5563964386781056E-005	0,10001513710710851	0,000294651865	0,030336439230934234	-0,0011318933354825005	0,030336439230934234
1	1	0	1	0	0	1	15546,00	0,100000001	2,95737696	5,5563937611050074E-005	0,10001508891079216	0,000295782316	0,030669822797504602	-0,0011443323245902134	0,030669822797504602
1	1	0	1	0	0	1	15558,00	0,100000001	2,96934938	5,5563902876029408E-005	0,10001502638775421	0,000296979561	0,031003206563308038	-0,0011567713211315802	0,031003206563308038
1	1	0	1	0	0	1	15570,00	0,100000001	2,98181844	5,5563957535144358E-005	0,1000151247741623	0,000298226951	0,031336590300261184	-0,0011692103165965034	0,031336590300261184
1	1	0	1	0	0	1	15582,00	0,100000001	2,99493647	5,5563999144567386E-005	0,10001519967112467	0,000299539155	0,031669974246672909	-0,0011816493198766083	0,031669974246672909
1	1	0	1	0	0	1	15594,00	0,100000001	3,00841761	5,5563838823388019E-005	0,1000149110929983	0,000300886633	0,032003357627740371	-0,0011940883020629584	0,032003357627740371
1	1	0	1	0	0	1	15606,00	0,100000001	3,02289152	5,556389634476768E-005	0,10001501463148294	0,000302334549	0,032336740920388902	-0,0012065272809502792	0,032336740920388902
1	1	0	1	0	0	1	15618,00	0,100000001	3,03786182	5,5563955427871808E-005	0,10001512098107168	0,000303832116	0,032670124272960787	-0,0012189662620734211	0,032670124272960787
1	1	0	1	0	0	1	15630,00	0,100000001	3,05348158	5,5563946588999693E-005	0,10001510507110166	0,000305394293	0,033003507966987827	-0,0012314052559367134	0,033003507966987827
1	1	0	1	0	0	1	15642,00	0,100000001	3,07015133	5,5563908788065114E-005	0,10001503702941862	0,000307061302	0,033336891475846419	-0,0012438442428911227	0,033336891475846419
1	1	0	1	0	0	1	15654,00	0,100000001	3,0875659	5,5563919672535526E-005	0,10001505662146558	0,000308803079	0,033670274889894701	-0,0012562832263080315	0,033670274889894701
1	1	0	1	0	0	1	15666,00	0,100000001	3,10593534	5,5563823149022125E-005	0,10001488287913936	0,000310639763	0,034003657849239437	-0,0012687221927593395	0,034003657849239437
1	1	0	1	0	0	1	15678,00	0,100000001	3,12535477	5,5563876776645581E-005	0,10001497940886274	0,000312582299	0,034337041021303629	-0,001281161167147497	0,034337041021303629
1	1	0	1	0	0	1	15690,00	0,100000001	3,14588189	5,5563879575166432E-005	0,10001498444620035	0,000314635341	0,034670424271039296	-0,001293600144433681	0,034670424271039296
1	1	0	1	0	0	1	15702,00	0,100000001	3,16766906	5,5563871928801139E-005	0,10001497068274264	0,000316814316	0,035003807861304582	-0,001306039134425483	0,035003807861304582
1	1	0	1	0	0	1	15714,00	0,100000001	3,19085026	5,5563871283084154E-005	0,10001496952045206	0,000319132785	0,035337191081621626	-0,0013184781106140189	0,035337191081621626
1	1	0	1	0	0	1	15726,00	0,100000001	3,21523452	5,5563957185380986E-005	0,10001512414458824	0,000321572094	0,035670574475967277	-0,0013309170932957962	0,035670574475967277
1	1	0	1	0	0	1	15738,00	0,100000001	3,24129915	5,5563983812514278E-005	0,10001517207342875	0,000324179098	0,036003958204693734	-0,001343356088453771	0,036003958204693734
1	1	0	1	0	0	1	15750,00	0,100000001	3,26894855	5,556385635212064E-005	0,10001494264471741	0,0003269437	0,036337341418296992	-0,0013557950643918062	0,036337341418296992
1	1	0	1	0	0	1	15762,00	0,100000001	3,29856467	5,5563816430254112E-005	0,1000148707853568	0,00032990551	0,036670724179761331	-0,0013682340234599309	0,036670724179761331
1	1	0	1	0	0	1	15774,00	0,100000001	3,32999492	5,5563776863118016E-005	0,10001479956451094	0,000333048782	0,037004106894177338	-0,0013806729807726187	0,037004106894177338
1	1	0	1	0	0	1	15786,00	0,100000001	3,36333466	5,5563792000628186E-005	0,10001482681202958	0,000336383324	0,037337489571717926	-0,0013931119367094354	0,037337489571717926
1	1	0	1	0	0	1	15798,00	0,100000001	3,39879394	5,5563772822833728E-005	0,10001479229199914	0,000339929684	0,037670872176188608	-0,0014055508899199152	0,037670872176188608
1	1	0	1	0	0	1	15810,00	0,100000001	3,4364872	5,5563758240805728E-005	0,10001476604434843	0,000343699474	0,038004254563276602	-0,001417989835019555	0,038004254563276602
1	1	0	1	0	0	1	15822,00	0,100000001	3,47658658	5,5563778345369632E-005	0,1000148022325639	0,000347710127	0,03833763739481904	-0,0014304287967023877	0,03833763739481904
1	1	0	1	0	0	1	15834,00	0,100000001	3,51905346	5,5563763257530003E-005	0,10001477507445224	0,000351957337	0,038671019884030067	-0,001442867745612375	0,038671019884030067
1	1	0	1	0	0	1	15846,00	0,100000001	3,56409836	5,5563739719490208E-005	0,10001473270598008	0,000356462348	0,039004402424929498	-0,0014553066964509261	0,039004402424929498
1	1	0	1	0	0	1	15858,00	0,100000001	3,61210299	5,5563748767392499E-005	0,10001474899220442	0,000361263577	0,039337784947660678	-0,0014677456466115958	0,039337784947660678
1	1	0	1	0	0	1	15870,00	0,100000001	3,66268539	5,5563781859560141E-005	0,1000148085581069	0,000366322784	0,039671167620444077	-0,0014801846023709152	0,039671167620444077
1	1	0	1	0	0	1	15882,00	0,100000001	3,71605563	5,5563804283324218E-005	0,10001484892088272	0,000371660746	0,040004550400194643	-0,0014926235621213232	0,040004550400194643
1	1	0	1	0	0	1	15894,00	0,100000001	3,77253842	5,5563773560441203E-005	0,10001479361969262	0,000377309654	0,04033793336616377	-0,0015050625288197968	0,04033793336616377
1	1	0	1	0	0	1	15906,00	0,100000001	3,83150363	5,5563774859739674E-005	0,1000147959584299	0,000383207051	0,040671315826853562	-0,0015175014766656186	0,040671315826853562
1	1	0	1	0	0	1	15918,00	0,100000001	3,89306545	5,5563734190331565E-005	0,10001472275349443	0,00038936385	0,041004698090238733	-0,0015299404171497392	0,041004698090238733
1	1	0	1	0	0	1	15930,00	0,100000001	3,95689988	5,5563751703749101E-005	0,10001475427764637	0,000395748357	0,041338080752829318	-0,001542379372528751	0,041338080752829318
1	1	0	1	0	0	1	15942,00	0,100000001	4,02313995	5,5563721704814163E-005	0,10001470027956283	0,000402373145	0,041671463356561152	-0,001554818325711664	0,041671463356561152
1	1	0	1	0	0	1	15954,00	0,100000001	4,09008694	5,5563711129956774E-005	0,1000146812448193	0,000409068743	0,042004845416114579	-0,0015672572585905485	0,042004845416114579
1	1	0	1	0	0	1	15966,00	0,100000001	4,1552577	5,5563549786392186E-005	0,10001439082639952	0,000415585557	0,042338227029461843	-0,0015796961748208813	0,042338227029461843
1	1	0	1	0	0	1	15978,00	0,100000001	4,2169857	5,5563532714628512E-005	0,10001436009722451	0,000421759119	0,042671608354112774	-0,0015921350802795658	0,042671608354112774
1	1	0	1	0	0	1	15990,00	0,100000001	4,27528286	5,5563614347742662E-005	0,10001450703683178	0,000427590305	0,043004990101561382	-0,0016045740015134	0,043004990101561382
1	1	0	1	0	0	1	16002,00	0,100000001	4,32951212	5,5563546162098643E-005	0,10001438430267106	0,000433013483	0,043338371456893792	-0,0016170129081168518	0,043338371456893792
1	1	0	1	0	0	1	16014,00	0,100000001	4,37950277	5,5563581188105875E-005	0,10001444734948483	0,000438013551	0,043671752777668339	-0,001629451813430903	0,043671752777668339
1	1	0	1	0	0	1	16026,00	0,100000001	4,42464304	5,5563538737181158E-005	0,10001437093781942	0,000442527904	0,044005134269284704	-0,0016418907251192925	0,044005134269284704
1	1	0	1	0	0	1	16038,00	0,100000001	4,46474218	5,556351352151897E-005	0,10001432554962694	0,000446538179	0,044338515831212198	-0,0016543296394310842	0,044338515831212198
1	1	0	1	0	0	1	16050,00	0,100000001	4,49911308	5,5563557253529626E-005	0,10001440426724707	0,000449976127	0,044671897396191533	-0,0016667685538567446	0,044671897396191533
1	0	0	0	0	0	2	16058,34	-0,100000001	4,16310024	-5,5543491730673446E-005	-0,099978286325668659	0,000416219642	0,04445918679938464	-0,0016588320354974403	0,00022217862535185283
1	0	0	0	0	0	2	16070,34	-0,100000001	3,77713466	-5,5543627157393427E-005	-0,09997853009376759	0,000377632357	0,044125925600998502	-0,001646397612111207	0,00055543982373798886
1	0	0	0	0	0	2	16082,34	-0,100000001	3,42387891	-5,5543623264465069E-005	-0,099978523086496435	0,000342314364	0,043792664243662515	-0,0016339631827943405	0,00088870118107398349
1	0	0	0	0	0	2	16094,34	-0,100000001	3,09126472	-5,5543588272399373E-005	-0,099978460100777421	0,000309059891	0,043459402846400928	-0,0016215287519877968	0,0012219625783355699
1	0	0	0	0	0	2	16106,34	-0,100000001	2,79573274	-5,554363028539552E-005	-0,099978535724171392	0,000279513275	0,043126141015535834	-0,0016090943050029229	0,001555224409200665
1	0	0	0	0	0	2	16118,34	-0,100000001	2,60831618	-5,554363130281369E-005	-0,099978537555524134	0,000260775647	0,042792879230698771	-0,001596659859735417	0,0018884861940377286
1	0	0	0	0	0	2	16130,34	-0,100000001	2,54341269	-5,554364195217689E-005	-0,099978556724378138	0,000254286715	0,042459617373983475	-0,0015842254117860374	0,0022217480507530275
1	0	0	0	0	0	2	16142,34	-0,100000001	2,50667405	-5,5543579186002413E-005	-0,099978443745262694	0,000250613375	0,042126355723346272	-0,0015717909715257082	0,0025550097013902336
1	0	0	0	0	0	2	16154,34	-0,100000001	2,48024678	-5,5543437843521434E-005	-0,099978189328793856	0,000247970573	0,041793094640008685	-0,0015593565524320912	0,0028882707847278157
1	0	0	0	0	0	2	16166,34	-0,100000001	2,45964336	-5,5543553891281286E-005	-0,099978398214764122	0,000245911215	0,041459833188650918	-0,0015469221196071459	0,0032215322360855846
1	0	0	0	0	0	2	16178,34	-0,100000001	2,44304991	-5,554373897860448E-005	-0,099978731371949901	0,000244253024	0,04112657137081895	-0,0015344876731085558	0,003554794053917545
1	0	0	0	0	0	2	16190,34	-0,100000001	2,43075275	-5,5543577266650067E-005	-0,099978440290428442	0,000243022863	0,040793309654951078	-0,0015220532304143827	0,0038880557697854118
1	0	0	0	0	0	2	16202,34	-0,100000001	2,42330575	-5,5543773928864134E-005	-0,099978794282418061	0,000242279188	0,040460047072527699	-0,0015096187553878592	0,0042213183522087846
1	0	0	0	0	0	2	16214,34	-0,100000001	2,4184556	-5,5543641651256218E-005	-0,099978556182720909	0,000241793692	0,040126784749414739	-0,0014971842900365555	0,004554580675321737
1	0	0	0	0	0	2	16226,34	-0,100000001	2,41440749	-5,5543580804848006E-005	-0,099978446659184819	0,000241388712	0,039793522953855872	-0,0014847498443690045	0,0048878424708806003
1	0	0	0	0	0	2	16238,34	-0,100000001	2,4108367	-5,5543651942163706E-005	-0,099978574706354611	0,000241032016	0,039460261470784294	-0,0014723154103607747	0,0052211039539521779
1	0	0	0	0	0	2	16250,34	-0,100000001	2,40766692	-5,5543458087990682E-005	-0,09997822576883895	0,00024071426	0,039127000542150566	-0,0014598809970393661	0,0055543648825859053
1	0	0	0	0	0	2	16262,34	-0,100000001	2,40455461	-5,5543516195482682E-005	-0,099978330362325811	0,000240403358	0,038793739334275712	-0,0014474465732990957	0,0058876260904607706
1	0	0	0	0	0	2	16274,34	-0,100000001	2,40149927	-5,5543455502225293E-005	-0,099978221114461197	0,000240097623	0,038460478690880838	-0,0014350121706203325	0,0062208867338556403
1	0	0	0	0	0	2	16286,34	-0,100000001	2,398597	-5,5543376890321568E-005	-0,099978079613032794	0,000239807123	0,038127218326685715	-0,0014225777783588874	0,0065541470980507648
1	0	0	0	0	0	2	16298,34	-0,100000001	2,39575171	-5,5543443861520947E-005	-0,099978200161193126	0,000239522939	0,037793957974673946	-0,0014101433865520195	0,0068874074500625344
1	0	0	0	0	0	2	16310,34	-0,100000001	2,39267755	-5,5543408391376339E-005	-0,099978136314932045	0,000239215442	0,03746069748994665	-0,0013977089897933568	0,0072206679347898406
1	0	0	0	0	0	2	16322,34	-0,100000001	2,38971782	-5,5543320390913222E-005	-0,099977977914096525	0,00023891915	0,037127437472908845	-0,0013852746104848179	0,0075539279518276467
1	0	0	0	0	0	2	16334,34	-0,100000001	2,38675809	-5,554336315062311E-005	-0,099978054881575258	0,000238623426	0,036794177108004672	-0,0013728402181969173	0,0078871883167318182
1	0	0	0	0	0	2	16346,34	-0,100000001	2,38366461	-5,5543228605141242E-005	-0,09997781269970496	0,000238313572	0,03646091742286871	-0,0013604058512720822	0,0082204480018677824
1	0	0	0	0	0	2	16358,34	-0,100000001	2,38055229	-5,5543324722597997E-005	-0,099977985711129216	0,000238002816	0,036127657533130694	-0,0013479714767132698	0,0085537078916057946
1	0	0	0	0	0	2	16370,34	-0,100000001	2,37734437	-5,5543317625919974E-005	-0,099977972937108608	0,000237682078	0,03579439762335392	-0,0013355371014067843	0,0088869678013825562
1	0	0	0	0	0	2	16382,34	-0,100000001	2,37390709	-5,5543154646952947E-005	-0,099977679574964429	0,000237337721	0,035461137954997075	-0,0013231027351080008	0,0092202274697393997
1	0	0	0	0	0	2	16394,34	-0,100000001	2,37054658	-5,5543133222808442E-005	-0,099977641011503846	0,000237001659	0,035127878793096352	-0,0013106683877057762	0,0095534866316401293
1	0	0	0	0	0	2	16406,34	-0,100000001	2,36695671	-5,5543212768104346E-005	-0,099977784193038195	0,000236643085	0,03479462006190873	-0,0012982340563740362	0,0098867453628277632
1	0	0	0	0	0	2	16418,34	-0,100000001	2,36351967	-5,5543200949827827E-005	-0,099977762920140211	0,000236299413	0,034461360993625798	-0,0012857997124648174	0,010220004431110706
1	0	0	0	0	0	2	16430,34	-0,100000001	2,35970068	-5,5543222840047539E-005	-0,099977802322536166	0,000235917687	0,034128101594501888	-0,0012733653562114765	0,01055326383023461
1	0	0	0	0	0	2	16442,34	-0,100000001	2,35582423	-5,5543296531670624E-005	-0,099977934967459328	0,000235530446	0,033794841877720403	-0,001260930988105905	0,010886523547016086
1	0	0	0	0	0	2	16454,34	-0,100000001	2,35187173	-5,5543166424251264E-005	-0,099977700774101645	0,000235134721	0,03346158262165344	-0,001248496637190211	0,01121978280308305
1	0	0	0	0	0	2	16466,34	-0,100000001	2,34774709	-5,5543299226297274E-005	-0,099977939817787354	0,000234722917	0,033128323225600416	-0,0012360622810514493	0,011553042199136069
1	0	0	0	0	0	2	16478,34	-0,100000001	2,34371805	-5,554328704832329E-005	-0,099977917897433907	0,000234320047	0,032795063564485958	-0,0012236279150228893	0,011886301860250534
1	0	0	0	0	0	2	16490,34	-0,100000001	2,33947897	-5,554332785349753E-005	-0,099977991346748454	0,000233896411	0,032461803685768602	-0,001211193540875272	0,012219561738967901
1	0	0	0	0	0	2	16502,34	-0,100000001	2,33510637	-5,5543360705176992E-005	-0,099978050479772173	0,000233459388	0,032128543791847904	-0,0011987591661603978	0,012552821632888586
1	0	0	0	0	0	2	16514,34	-0,100000001	2,33065724	-5,5543410123636326E-005	-0,099978139433000064	0,000233014769	0,031795283509085152	-0,001186324776937304	0,01288608191565135
1	0	0	0	0	0	2	16526,34	-0,100000001	2,32611275	-5,5543407636384166E-005	-0,099978134955946125	0,000232560415	0,031462022812353651	-0,0011738903722684795	0,013219342612382861
1	0	0	0	0	0	2	16538,34	-0,100000001	2,32154894	-5,5543474818269414E-005	-0,09997825588334103	0,000232104416	0,031128761912472538	-0,0011614559600198699	0,013552603512263966
1	0	0	0	0	0	2	16550,34	-0,100000001	2,31698537	-5,5543566759675744E-005	-0,099978421377874432	0,000231648533	0,030795500674814394	-0,0011490215351683448	0,013885864749922115
1	0	0	0	0	0	2	16562,34	-0,100000001	2,31215429	-5,5543619047022528E-005	-0,099978515495099789	0,000231165759	0,030462239186815085	-0,0011365871009762546	0,014219126237921424
1	0	0	0	0	0	2	16574,34	-0,100000001	2,30724692	-5,5543693030460013E-005	-0,09997864866528887	0,000230675432	0,030128977221576282	-0,0011241526489777171	0,014552388203160224
1	0	0	0	0	0	2	16586,34	-0,100000001	2,30235863	-5,5543612215254042E-005	-0,099978503197916365	0,000230186371	0,029795715312117498	-0,001111718199060407	0,014885650112619008
1	0	0	0	0	0	2	16598,34	-0,100000001	2,29729843	-5,5543704363207021E-005	-0,099978669064233741	0,000229680838	0,029462453207200179	-0,0010992837418502762	0,015218912217536326
1	0	0	0	0	0	2	16610,34	-0,100000001	2,29225731	-5,5543730477905933E-005	-0,099978716070692339	0,000229176949	0,029129190702931322	-0,001086849269739803	0,015552174721805178
1	0	0	0	0	0	2	16622,34	-0,100000001	2,28710175	-5,5543761157327232E-005	-0,099978771293651354	0,000228661622	0,028795928372387661	-0,0010744148041112499	0,015885437052348838
1	0	0	0	0	0	2	16634,34	-0,100000001	2,28194618	-5,55438010820912E-005	-0,099978843158227354	0,000228146338	0,028462665889211402	-0,0010619803327877694	0,016218699535525101
1	0	0	0	0	0	2	16646,34	-0,100000001	2,27659965	-5,5543837811797856E-005	-0,099978909271700134	0,000227611949	0,028129402821377734	-0,001049545839649935	0,016551962603358765
1	0	0	0	0	0	2	16658,34	-0,100000001	2,27117658	-5,5543952140957114E-005	-0,099979115064189299	0,000227070224	0,027796139219704173	-0,0010371113265938166	0,016885226205032326
1	0	0	0	0	0	2	16670,34	-0,100000001	2,26586819	-5,5544110153284339E-005	-0,099979399486381734	0,000226540142	0,027462875377870253	-0,0010246768045769923	0,017218490046866246
1	0	0	0	0	0	2	16682,34	-0,100000001	2,26019692	-5,5544014655881459E-005	-0,099979227591054477	0,000225972748	0,027129610966323552	-0,0010122422613034179	0,01755175445841295
1	0	0	0	0	0	2	16694,34	-0,100000001	2,25464034	-5,5544059344877798E-005	-0,099979308031248858	0,000225417374	0,026796346625895952	-0,0009998077206833929	0,017885018798840547
1	0	0	0	0	0	2	16706,34	-0,100000001	2,24891186	-5,5544147612733978E-005	-0,09997946691339191	0,000224845004	0,026463081789996051	-0,00098737316157663027	0,018218283634740448
1	0	0	0	0	0	2	16718,34	-0,100000001	2,24322176	-5,5544082305497594E-005	-0,099979349360364979	0,000224275849	0,026129817292268483	-0,00097493861508753203	0,018551548132468016
1	0	0	0	0	0	2	16730,34	-0,100000001	2,2373023	-5,5543962652070656E-005	-0,099979133984193894	0,000223683543	0,025796553167037658	-0,00096250408249678797	0,018884812257698842
1	0	0	0	0	0	2	16742,34	-0,100000001	2,23130631	-5,5544090592612819E-005	-0,099979364277172582	0,000223084586	0,025463288661206752	-0,00095006953570534323	0,019218076763529747
1	0	0	0	0	0	2	16754,34	-0,100000001	2,2252152	-5,5544068538066413E-005	-0,09997932457898857	0,000222475515	0,025130024174991162	-0,00093763498964577229	0,019551341249745338
1	0	0	0	0	0	2	16766,34	-0,100000001	2,21893287	-5,5544168911460378E-005	-0,099979505251099891	0,000221847804	0,024796759268717213	-0,00092520042791325926	0,019884606156019286
1	0	0	0	0	0	2	16778,34	-0,100000001	2,21259332	-5,5544206817530925E-005	-0,099979573482027712	0,000221214141	0,024463494273268928	-0,00091276586285353178	0,020217871151467574
1	0	0	0	0	0	2	16790,34	-0,100000001	2,20625401	-5,5544230625861216E-005	-0,099979616337022746	0,000220580434	0,024130228795575187	-0,00090033127980057792	0,020551136629161315
1	0	0	0	0	0	2	16802,34	-0,100000001	2,19964719	-5,5544246697591411E-005	-0,099979645266137446	0,000219919952	0,023796963148574864	-0,00088789669043056794	0,020884402276161635
1	0	0	0	0	0	2	16814,34	-0,100000001	2,19292569	-5,5544177480869824E-005	-0,099979520676037094	0,000219247653	0,02346369795272624	-0,00087546211789363443	0,021217667472010259
1	0	0	0	0	0	2	16826,34	-0,100000001	2,1860323	-5,5544325673331814E-005	-0,099979787422471898	0,000218559042	0,023130432346795584	-0,00086302753005598899	0,021550933077940915
1	0	0	0	0	0	2	16838,34	-0,100000001	2,17898631	-5,554420260133015E-005	-0,099979565892866214	0,000217854104	0,022797167005924301	-0,00085059295210806502	0,021884198418812202
1	0	0	0	0	0	2	16850,34	-0,100000001	2,17182589	-5,5544308685594138E-005	-0,099979756844543718	0,00021713863	0,022463901516910227	-0,00083815836863273446	0,022217463907826272
1	0	0	0	0	0	2	16862,34	-0,100000001	2,16453147	-5,5544313889410765E-005	-0,099979766211413747	0,000216409346	0,022130635822211293	-0,00082572377748302502	0,02255072960252521
1	0	0	0	0	0	2	16874,34	-0,100000001	2,15704632	-5,5544261968384192E-005	-0,099979672753564774	0,000215660781	0,021797370478807638	-0,00081328919944061504	0,022883994945928864
1	0	0	0	0	0	2	16886,34	-0,100000001	2,14925551	-5,5544213242414925E-005	-0,099979585046819046	0,000214881671	0,021464105163041917	-0,00080085462242941325	0,023217260261694586
1	0	0	0	0	0	2	16898,34	-0,100000001	2,14148402	-5,5544196320904621E-005	-0,099979554588100122	0,000214104613	0,021130839783111386	-0,00078842004302413632	0,023550525641625117
1	0	0	0	0	0	2	16910,34	-0,100000001	2,13342595	-5,5544253116266598E-005	-0,099979656819752922	0,000213299194	0,02079757433930247	-0,00077598546123547085	0,023883791085434032
1	0	0	0	0	0	2	16922,34	-0,100000001	2,12500501	-5,5544121020783981E-005	-0,099979419047881344	0,000212456769	0,020464309134066934	-0,00076355088834829914	0,024217056290669568
1	0	0	0	0	0	2	16934,34	-0,100000001	2,11667967	-5,5544224503139654E-005	-0,099979605316123802	0,000211624792	0,020131043925917811	-0,00075111631535241741	0,024550321498818691
1	0	0	0	0	0	2	16946,34	-0,100000001	2,10801053	-5,5544433015502157E-005	-0,099979980638380864	0,000210758852	0,019797778005545338	-0,00073868171578252493	0,024883587419191168
1	0	0	0	0	0	2	16958,34	-0,100000001	2,09895968	-5,554432078699271E-005	-0,099979778627061389	0,000209853519	0,019464511741750771	-0,00072624710339909248	0,025216853682985731
1	0	0	0	0	0	2	16970,34	-0,100000001	2,08971763	-5,5544273646755347E-005	-0,099979693774633126	0,000208929327	0,019131245813270829	-0,00071381250352669926	0,025550119611465677
1	0	0	0	0	0	2	16982,34	-0,100000001	2,08015108	-5,5544389130754605E-005	-0,099979901645834304	0,000207973295	0,018797979916868941	-0,00070137790485118157	0,025883385507867562
1	0	0	0	0	0	2	16994,34	-0,100000001	2,07045102	-5,5544356624285382E-005	-0,099979843134188992	0,000207003366	0,018464714167626374	-0,00068894331166637594	0,026216651257110128
1	0	0	0	0	0	2	17006,34	-0,100000001	2,06029248	-5,5544395163655277E-005	-0,099979912505055654	0,000205987861	0,018131447666704659	-0,00067650869043541082	0,026549917758031846
1	0	0	0	0	0	2	17018,34	-0,100000001	2,04994297	-5,554438364133239E-005	-0,099979891764874176	0,000204953074	0,017798181244696186	-0,00066407407214880474	0,026883184180040317
1	0	0	0	0	0	2	17030,34	-0,100000001	2,03930712	-5,5544333892563974E-005	-0,099979802217089958	0,000203889518	0,017464914830781114	-0,00065163945416417421	0,027216450593955392
1	0	0	0	0	0	2	17042,34	-0,100000001	2,02807927	-5,5544513326966099E-005	-0,09998012519901769	0,000202767624	0,017131648060941869	-0,00063920482289953446	0,027549717363794634
1	0	0	0	0	0	2	17054,34	-0,100000001	2,01681328	-5,5544436125291718E-005	-0,099979986236002125	0,000201640971	0,01679838111816471	-0,00062677018518234854	0,027882984306571792
1	0	0	0	0	0	2	17066,34	-0,100000001	2,00503182	-5,554448133914007E-005	-0,09998006762093015	0,000200463212	0,016465114397225283	-0,00061433555574222656	0,028216251027511219
1	0	0	0	0	0	2	17078,34	-0,100000001	1,99284923	-5,5544334834648499E-005	-0,099979803912842125	0,000199244678	0,016131848067838701	-0,00060190094091146765	0,028549517356897802
1	0	0	0	0	0	2	17090,34	-0,100000001	1,98017013	-5,5544356825037139E-005	-0,099979843495542144	0,000197977104	0,015798581822275293	-0,00058946632920826419	0,02888278360246121
1	0	0	0	0	0	2	17102,34	-0,100000001	1,96707106	-5,5544376430826054E-005	-0,099979878785962637	0,000196667519	0,015465315849554627	-0,00057703172768519027	0,029216049575181875
1	0	0	0	0	0	2	17114,34	-0,100000001	1,95351362	-5,5544520289119744E-005	-0,099980137730894413	0,000195312561	0,015132048986613344	-0,00056459709294678822	0,029549316438123155
1	0	0	0	0	0	2	17126,34	-0,100000001	1,93961263	-5,5544414677967622E-005	-0,099979947630818291	0,000193922373	0,014798782523685866	-0,00055216247313343904	0,02988258290105063
1	0	0	0	0	0	2	17138,34	-0,100000001	1,92498589	-5,554429705647959E-005	-0,099979735912137267	0,000192459585	0,014465516251352931	-0,00053972786043142861	0,030215849173383565
1	0	0	0	0	0	2	17150,34	-0,100000001	1,91001546	-5,5544325788815814E-005	-0,099979787630343104	0,000190962935	0,014132250528844288	-0,00052729326824410157	0,030549114895892211
1	0	0	0	0	0	2	17162,34	-0,100000001	1,89435768	-5,5544354940040243E-005	-0,099979840102547712	0,000189397571	0,013798984345210517	-0,00051485865885157613	0,030882381079525984
1	0	0	0	0	0	2	17174,34	-0,100000001	1,87816513	-5,5544454582863386E-005	-0,099980019459631526	0,000187778991	0,013465717743649672	-0,0005024240338656297	0,031215647681086822
1	0	0	0	0	0	2	17186,34	-0,100000001	1,86136162	-5,5544430894156294E-005	-0,099979976819958246	0,000186098885	0,013132451139464566	-0,00048998940878176858	0,03154891428527193
1	0	0	0	0	0	2	17198,34	-0,100000001	1,84417617	-5,5544390021098982E-005	-0,099979903248454195	0,000184380551	0,012799184598154499	-0,00047755478604385952	0,03188218082658199
1	0	0	0	0	0	2	17210,34	-0,100000001	1,82632244	-5,5544473703122803E-005	-0,099980053876098906	0,000182595817	0,012465918073727445	-0,00046512016393587853	0,032215447351009043
1	0	0	0	0	0	2	17222,34	-0,100000001	1,8078959	-5,5544451093508134E-005	-0,099980013178792	0,000180753457	0,012132651472844605	-0,00045268553897522925	0,032548713951891891
1	0	0	0	0	0	2	17234,34	-0,100000001	1,78901672	-5,554446901712153E-005	-0,099980045441296512	0,000178865972	0,011799384504966032	-0,00044025090032147571	0,032881980919770464
1	0	0	0	0	0	2	17246,34	-0,100000001	1,76944447	-5,5544401805847878E-005	-0,09997992446100247	0,000176908929	0,011466117601569749	-0,00042781626407364326	0,033215247823166752
1	0	0	0	0	0	2	17258,34	-0,100000001	1,74939489	-5,5544553261664179E-005	-0,09998019708147511	0,000174904853	0,011132850529378909	-0,00041538162152785888	0,033548514895357594
1	0	0	0	0	0	2	17270,34	-0,100000001	1,72850502	-5,5544413201510906E-005	-0,09997994497319616	0,000172815839	0,010799583741322582	-0,0004029469895835152	0,03388178168341392
1	0	0	0	0	0	2	17282,34	-0,100000001	1,7067368	-5,554458354951607E-005	-0,099980251599609178	0,000170639978	0,01046631669060183	-0,0003905123478388087	0,034215048734134682
1	0	0	0	0	0	2	17294,34	-0,100000001	1,68458676	-5,5544544754342899E-005	-0,099980181768296627	0,000168425293	0,010133049498182627	-0,00037807770080714246	0,034548315926553888
1	0	0	0	0	0	2	17306,34	-0,100000001	1,66176832	-5,5544541819641984E-005	-0,099980176485834918	0,000166143887	0,0097997823175303718	-0,00036564305421451686	0,034881583107206131
1	0	0	0	0	0	2	17318,34	-0,100000001	1,63854885	-5,5544448680761792E-005	-0,099980008835848538	0,000163822129	0,009466515597586839	-0,00035320842481155309	0,03521484982714967
1	0	0	0	0	0	2	17330,34	-0,100000001	1,6151768	-5,554445507087641E-005	-0,099980020338054989	0,000161485412	0,0091332489132678438	-0,00034077379673778874	0,035548116511468666
1	0	0	0	0	0	2	17342,34	-0,100000001	1,59138453	-5,554449925447504E-005	-0,099980099868533478	0,000159106785	0,0087999823126917171	-0,00032833917178858342	0,035881383112044794
1	0	0	0	0	0	2	17354,34	-0,100000001	1,56740129	-5,5544538512825965E-005	-0,099980170533566016	0,000156709051	0,0084667155539604621	-0,00031590454093839763	0,036214649870776058
1	0	0	0	0	0	2	17366,34	-0,100000001	1,54318893	-5,5544468758834733E-005	-0,099980044976380275	0,000154288093	0,0081334487448881165	-0,00030346990820991802	0,036547916679848397
1	0	0	0	0	0	2	17378,34	-0,100000001	1,51888108	-5,5544560368690227E-005	-0,09998020987412215	0,000151858054	0,0078001816971144819	-0,00029103526657517242	0,036881183727622029
1	0	0	0	0	0	2	17390,34	-0,100000001	1,49447787	-5,5544594527532653E-005	-0,09998027136003927	0,000149418309	0,0074669145359678477	-0,00027860062071032774	0,037214450888768666
1	0	0	0	0	0	2	17402,34	-0,100000001	1,46995997	-5,5544600085251866E-005	-0,099980281363933952	0,00014696701	0,0071336469055737139	-0,00026616595733722794	0,037547718519162797
1	0	0	0	0	0	2	17414,34	-0,100000001	1,44532752	-5,554470755739344E-005	-0,099980474813791142	0,000144504535	0,0068003792144784576	-0,00025373129169928771	0,037880986210258054
1	0	0	0	0	0	2	17426,34	-0,100000001	1,42098153	-5,5544579469081434E-005	-0,099980244254826739	0,000142070086	0,0064671113699028979	-0,00024129662033479091	0,038214254054833613
1	0	0	0	0	0	2	17438,34	-0,100000001	1,39673102	-5,5544647077305453E-005	-0,09998036594963145	0,000139645679	0,0061338434731053901	-0,00022886194702182307	0,038547521951631117
1	0	0	0	0	0	2	17450,34	-0,100000001	1,37309146	-5,5544650427997114E-005	-0,099980371980876506	0,000137282201	0,0058005753914896064	-0,0002164272668130369	0,038880790033246899
1	0	0	0	0	0	2	17462,34	-0,100000001	1,35021579	-5,5544630920721427E-005	-0,099980336867779853	0,000134995033	0,0054673073144406163	-0,00020399258677464384	0,039214058110295885
1	0	0	0	0	0	2	17474,34	-0,100000001	1,32882953	-5,5544666820102272E-005	-0,09998040148666615	0,000132856905	0,0051340392158635872	-0,00019155790593301075	0,039547326208872922
1	0	0	0	0	0	2	17486,34	-0,100000001	1,30937183	-5,5544550541788339E-005	-0,099980192185698547	0,000130911241	0,0048007716268176922	-0,00017912324410266938	0,039880593797918816
1	0	0	0	0	0	2	17498,34	-0,100000001	1,29237735	-5,5544574648555782E-005	-0,099980235577880448	0,000129212189	0,004467504133402896	-0,00016668858584045286	0,040213861291333606
1	0	0	0	0	0	2	17510,34	-0,100000001	1,27786517	-5,5544725307987802E-005	-0,099980506764861376	0,00012776161	0,0041342362693900122	-0,00015425391375072339	0,040547129155346477
1	0	0	0	0	0	2	17522,34	-0,100000001	1,26579726	-5,5544487570308979E-005	-0,099980078837034317	0,000126554514	0,0038009687152964461	-0,00014181925322450035	0,040880396709440038
1	0	0	0	0	0	2	17534,34	-0,100000001	1,25573421	-5,554460212712487E-005	-0,099980285039305421	0,000125548657	0,003467701313104489	-0,00012938459836593064	0,041213664111631994
1	0	0	0	0	0	2	17546,34	-0,100000001	1,24735153	-5,5544666587478586E-005	-0,099980401067943514	0,000124710699	0,0031344336523388909	-0,00011694993385963067	0,0415469317723976
1	0	0	0	0	0	2	17558,34	-0,100000001	1,24019098	-5,5544660087260934E-005	-0,099980389367551603	0,000123994774	0,0028011655372849024	-0,00010451525240322006	0,041880199887451584
1	0	0	0	0	0	2	17570,34	-0,100000001	1,23387051	-5,5544677983141606E-005	-0,099980421580137203	0,000123362886	0,0024678976332835107	-9,2080578821465638E-005	0,042213467791452973
1	0	0	0	0	0	2	17582,34	-0,100000001	1,22812295	-5,5544681590464384E-005	-0,099980428073318259	0,00012278826	0,0021346297443082845	-7,9645905800357632E-005	0,042546735680428192
1	0	0	0	0	0	2	17594,34	-0,100000001	1,22298646	-5,554466353481015E-005	-0,099980395573140262	0,000122274665	0,0018013618098605094	-6,721123108260768E-005	0,042880003614875968
1	0	0	0	0	0	2	17606,34	-0,100000001	1,21817458	-5,554459935095575E-005	-0,099980280042200947	0,000121793433	0,0014680939404198778	-5,4776558790361658E-005	0,043213271484316595
1	0	0	0	0	0	2	17618,34	-0,100000001	1,21385908	-5,554474376017849E-005	-0,099980539978805018	0,000121362289	0,0011348259846191526	-4,2341883275904435E-005	0,043546539440117312
1	0	0	0	0	0	2	17630,34	-0,100000001	1,20958185	-5,5544625906894605E-005	-0,099980327842891469	0,00012093439	0,00080155787910439117	-2,9907202175415226E-005	0,043879807545632077
1	0	0	0	0	0	2	17642,34	-0,100000001	1,20553374	-5,5544662218540902E-005	-0,09998039320385559	0,000120529738	0,00046829031220907174	-1,7472541171541584E-005	0,044213075112527398
1	0	0	0	0	0	2	17654,34	-0,100000001	1,20169568	-5,5544602222740653E-005	-0,099980285211413837	0,00012014588	0,00013502246145739362	-5,0378695766055494E-006	0,044546342963279078
1	0	0	0	0	0	2	17659,76	-0,100000001	1,2000916	-3,9386749932335482E-005	-0,099980469236875238	0,000119985722	-1,5453544171725322E-005	5,7659251055818982E-007	0,044696818968908192