File: Experimentelles/Rohdaten/Batteriemessungen/AlteZelle/Batterietest Li vs LATP/ECLab-Export/LATP_LP30_Li_Entladen bis 0k5V_02_GCPL_C01.mpt
EC-Lab ASCII FILE
Nb header lines : 68

Galvanostatic Cycling with Potential Limitation

Run on channel : 1 (SN 6985)
Grouped channel(s) : 1
User :
CE vs. WE compliance from -10 V to 10 V
Electrode connection : standard
Ewe ctrl range : min = 0,00 V, max = 5,00 V
Acquisition started on : 07.09.2015 17:19:07
Saved on :
	File : LATP_LP30_Li_Entladen bis 0k5V_02_GCPL_C01.mpr
	Directory : C:\Hupfer\Batterietest Li vs LATP\
	Host : 192.168.0.2
Device : VMP3 (SN 0324)
Address : 192.168.0.1
EC-Lab for windows v10.33 (software)
Internet server v10.33 (firmware)
Command interpretor v10.32 (firmware)
Electrode material :
Initial state :
Electrolyte :
Comments :
Mass of active material : 0,001 mg
 at x = 0,000
Molecular weight of active material (at x = 0) : 0,001 g/mol
Atomic weight of intercalated ion : 0,001 g/mol
Acquisition started at : xo = 0,000
Number of e- transfered per intercalated ion : 1
for DX = 1, DQ = 26,801 mA.h
Battery capacity : 0,000 A.h
Electrode surface area : 0,001 cm²
Characteristic mass : 0,001 g
Ns                  0                   1
Set I/C             I                   I
Is                  0,000               -500,000
unit Is             mA                  nA
vs.                 <None>              <None>
N                   1                   1
I sign              > 0                 > 0
t1 (h:m:s)          0:00:0,0000         10:00:0,0000
I Range             10 µA               10 µA
Bandwidth           5                   5
dE1 (mV)            0,00                10,00
dt1 (s)             0,0000              10,0000
EM (V)              0,000               0,500
tM (h:m:s)          0:00:0,0000         24:00:0,0000
Im                  0,000               0,000
unit Im             mA                  mA
E range min (V)     0,000               0,000
E range max (V)     5,000               5,000
dq                  0,000               1,000
unit dq             mA.h                mA.h
dtq (s)             0,0000              120,0000
dQM                 0,000               0,000
unit dQM            mA.h                mA.h
dxM                 0,000               0,000
tR (h:m:s)          0:00:10,0000        0:00:0,0000
dER/dt (mV/h)       0,0                 0,1
dER (mV)            0,00                5,00
dtR (s)             1,0000              120,0000
EL (V)              pass                0,000
goto Ns'            0                   0
nc cycles           0                   0

mode	ox/red	error	control changes	Ns changes	counter inc.	Ns	time/s	control/V/mA	Ewe/V	dq/mA.h	<I>/mA	P/W	(Q-Qo)/mA.h	x	Capacity/mA.h
3	1	0	0	0	0	0	7230,0005	0	1,34046638	0	0	0	0	0	0
1	0	0	0	0	0	1	7240,0167	-0,000500000024	1,33055615	-2,2502788407210675E-009	-0,0005000619704994768	6,65360517E-007	-2,2779174517684928E-009	8,4992162818069619E-011	2,2779174517684928E-009
1	0	0	0	0	0	1	7328,3167	-0,000500000024	1,21711326	-1,3891853794371451E-006	-0,00050010674265226138	6,08686548E-007	-1,2268604816406472E-005	4,5775814101473702E-007	1,2268604816406472E-005
1	0	0	0	0	0	1	7448,3167	-0,000500000024	1,14861989	-1,3892080898545424E-006	-0,00050011491840262336	5,7444197E-007	-2,8938369740618829E-005	1,0797294830744114E-006	2,8938369740618829E-005
1	0	0	0	0	0	1	7568,3167	-0,000500000024	1,10030973	-1,3891707469237091E-006	-0,00050010147494736051	5,5026652E-007	-4,5608609423814208E-005	1,7017185390300624E-006	4,5608609423814208E-005
1	0	0	0	0	0	1	7688,3167	-0,000500000024	1,06129885	-1,3892193094005859E-006	-0,000500118957439248	5,30775651E-007	-6,227876933247575E-005	2,3237046184905981E-006	6,227876933247575E-005
1	0	0	0	0	0	1	7808,3167	-0,000500000024	1,02799737	-1,3891233301126499E-006	-0,00050008440489517267	5,14085457E-007	-7,8948640472578995E-005	2,9456799236079706E-006	7,8948640472578995E-005
1	0	0	0	0	0	1	7928,3167	-0,000500000024	0,999316752	-1,3892200192268421E-006	-0,00050011921297670317	4,99777514E-007	-9,5618053190009139E-005	3,5676381243590528E-006	9,5618053190009139E-005
1	0	0	0	0	0	1	8048,3166	-0,000500000024	0,973672271	-1,3892679096154299E-006	-0,00050013645351680352	4,86968986E-007	-0,00011228962181641446	4,1896767649726502E-006	0,00011228962181641446
1	0	0	0	0	0	1	8168,3166	-0,000500000024	0,950930238	-1,3892463406114581E-006	-0,00050012868867527962	4,75587484E-007	-0,00012896104627785904	4,8117100265977299E-006	0,00012896104627785904
1	0	0	0	0	0	1	8288,3166	-0,000500000024	0,930460513	-1,3891740474985757E-006	-0,00050010266315432691	4,65325769E-007	-0,00014563183294213699	5,4337194911529958E-006	0,00014563183294213699
1	0	0	0	0	0	1	8408,3166	-0,000500000024	0,912205756	-1,3892097435988638E-006	-0,0005001155137505863	4,56208255E-007	-0,00016230224577717789	6,055715007636809E-006	0,00016230224577717789
1	0	0	0	0	0	1	8528,3166	-0,000500000024	0,895860553	-1,3891773483224419E-006	-0,00050010385145093318	4,48023314E-007	-0,00017897280500144954	6,6777159860996416E-006	0,00017897280500144954
1	0	0	0	0	0	1	8648,3166	-0,000500000024	0,881157458	-1,3891136515368189E-006	-0,00050008092060783136	4,40650041E-007	-0,00019564298221036896	7,2997027110560602E-006	0,00019564298221036896
1	0	0	0	0	0	1	8768,3166	-0,000500000024	0,868134737	-1,3892273938884803E-006	-0,00050012186785492512	4,3417316E-007	-0,00021231318714544701	7,9216904705127347E-006	0,00021231318714544701
1	0	0	0	0	0	1	8888,3166	-0,000500000024	0,85650593	-1,3891773720388301E-006	-0,00050010385998883296	4,28341934E-007	-0,00022898375010691565	8,5436915884154125E-006	0,00022898375010691565
1	0	0	0	0	0	1	9008,3166	-0,000500000024	0,845793724	-1,3892159412627938E-006	-0,00050011774490962803	4,22996436E-007	-0,00024565432039627926	9,1656929797317069E-006	0,00024565432039627926
1	0	0	0	0	0	1	9128,3166	-0,000500000024	0,836456299	-1,3892130544344482E-006	-0,00050011670565141101	4,18325754E-007	-0,00026232484279238272	9,7876925840860698E-006	0,00026232484279238272
1	0	0	0	0	0	1	9248,3166	-0,000500000024	0,827920854	-1,389131057548285E-006	-0,00050008718677203488	4,14032598E-007	-0,00027899497514794998	1,0409677635503611E-005	0,00027899497514794998
1	0	0	0	0	0	1	9368,3166	-0,000500000024	0,820321083	-1,3892527647161237E-006	-0,0005001310013529872	4,10268001E-007	-0,00029566517705563149	1,1031665282004048E-005	0,00029566517705563149
1	0	0	0	0	0	1	9488,3166	-0,000500000024	0,813370526	-1,389223460625443E-006	-0,00050012045188021459	4,06783244E-007	-0,00031233597290403059	1,1653675089231222E-005	0,00031233597290403059
1	0	0	0	0	0	1	9608,3166	-0,000500000024	0,807202876	-1,389232527859147E-006	-0,00050012371608438752	4,03701307E-007	-0,00032900658813928352	1,2275678157539077E-005	0,00032900658813928352
1	0	0	0	0	0	1	9728,3166	-0,000500000024	0,801264405	-1,3891250507149379E-006	-0,00050008502431200384	4,00700316E-007	-0,00034567692238389946	1,2897670741708467E-005	0,00034567692238389946
1	0	0	0	0	0	1	9848,3166	-0,000500000024	0,795956016	-1,3891761180970611E-006	-0,00050010340856979066	3,98060308E-007	-0,00036234692062081197	1,3519650788978678E-005	0,00036234692062081197
1	0	0	0	0	0	1	9968,3166	-0,000500000024	0,791144073	-1,3891392770811866E-006	-0,00050009014580391526	3,95643355E-007	-0,00037901683514487642	1,4141627712809974E-005	0,00037901683514487642
1	0	0	0	0	0	1	10088,3166	-0,000500000024	0,786351264	-1,3891891849537693E-006	-0,00050010811263826253	3,93260649E-007	-0,0003956864340295952	1,4763592859712902E-005	0,0003956864340295952
1	0	0	0	0	0	1	10208,3166	-0,000500000024	0,782303154	-1,389099799546077E-006	-0,00050007593389110374	3,91210989E-007	-0,00041235627770096659	1,5385567139934957E-005	0,00041235627770096659
1	0	0	0	0	0	1	10328,3166	-0,000500000024	0,778274119	-1,3891584965199906E-006	-0,00050009706480196851	3,89212602E-007	-0,00042902557305753664	1,600752096179455E-005	0,00042902557305753664
1	0	0	0	0	0	1	10448,3166	-0,000500000024	0,774646103	-1,3890831781189061E-006	-0,00050006995017724986	3,87377241E-007	-0,00044569511922911315	1,6629484141899267E-005	0,00044569511922911315
1	0	0	0	0	0	1	10568,3166	-0,000500000024	0,771132588	-1,3890614852554992E-006	-0,00050006214074632877	3,85614214E-007	-0,00046236439122936461	1,7251437092303216E-005	0,00046236439122936461
1	0	0	0	0	0	1	10688,3166	-0,000500000024	0,76771462	-1,3891761924541141E-006	-0,00050010343533833018	3,83936708E-007	-0,00047903358373936845	1,7873387076819152E-005	0,00047903358373936845
1	0	0	0	0	0	1	10808,3166	-0,000500000024	0,764602184	-1,3891449378635218E-006	-0,00050009218368558067	3,82371582E-007	-0,00049570353322129837	1,8495365304975411E-005	0,00049570353322129837
1	0	0	0	0	0	1	10928,3166	-0,000500000024	0,761546969	-1,3891770612293232E-006	-0,00050010374809740922	3,80852498E-007	-0,00051237340389872173	1,9117340592829574E-005	0,00051237340389872173
1	0	0	0	0	0	1	11048,3166	-0,000500000024	0,758720934	-1,3891389445893258E-006	-0,00050009002610684403	3,79428769E-007	-0,00052904308894382387	1,9739308954492246E-005	0,00052904308894382387
1	0	0	0	0	0	1	11168,3166	-0,000500000024	0,756028533	-1,3891842133533726E-006	-0,00050010632286209811	3,78094654E-007	-0,00054571244068979949	2,0361264880316384E-005	0,00054571244068979949
1	0	0	0	0	0	1	11288,3166	-0,000500000024	0,753450751	-1,3891538604608891E-006	-0,00050009539582067181	3,7679726E-007	-0,00056238250296937062	2,0983247317104294E-005	0,00056238250296937062
1	0	0	0	0	0	1	11408,3166	-0,000500000024	0,75098747	-1,389119043228372E-006	-0,00050008286161681382	3,7555597E-007	-0,00057905186499803034	2,16052036265892E-005	0,00057905186499803034
1	0	0	0	0	0	1	11528,3166	-0,000500000024	0,748524249	-1,3892052803971131E-006	-0,00050011390699793658	3,74347394E-007	-0,00059572157975276224	2,2227173096758109E-005	0,00059572157975276224
1	0	0	0	0	0	1	11648,3166	-0,000500000024	0,746099174	-1,3891606798214422E-006	-0,00050009785079050067	3,73122589E-007	-0,00061239137748855859	2,2849145663062093E-005	0,00061239137748855859
1	0	0	0	0	0	1	11768,3166	-0,000500000024	0,743788719	-1,3890749800516963E-006	-0,00050006699887301869	3,71944196E-007	-0,00062906060831541722	2,3471097077231398E-005	0,00062906060831541722
1	0	0	0	0	0	1	11888,3166	-0,000500000024	0,741516411	-1,3890373118629214E-006	-0,00050005343832489542	3,70797835E-007	-0,00064572923802661978	2,4093026062967363E-005	0,00064572923802661978
1	0	0	0	0	0	1	12008,3166	-0,000500000024	0,739358664	-1,389053304663523E-006	-0,0005000591957331817	3,69723097E-007	-0,00066239818679935168	2,4714966953317981E-005	0,00066239818679935168
1	0	0	0	0	0	1	12128,3166	-0,000500000024	0,737334609	-1,3890897395160413E-006	-0,00050007231228024698	3,68720634E-007	-0,00067906712537771699	2,5336907463303066E-005	0,00067906712537771699
1	0	0	0	0	0	1	12248,3166	-0,000500000024	0,735176921	-1,3890809764108982E-006	-0,00050006915756235738	3,67639302E-007	-0,00069573613145527002	2,59588504917736E-005	0,00069573613145527002
1	0	0	0	0	0	1	12368,3166	-0,000500000024	0,73322922	-1,3890914708317725E-006	-0,00050007293555391782	3,66668075E-007	-0,00071240529379384704	2,6580799350553034E-005	0,00071240529379384704
1	0	0	0	0	0	1	12488,3166	-0,000500000024	0,731186092	-1,3890636337972765E-006	-0,00050006291422137798	3,65639039E-007	-0,00072907420085682867	2,7202738684656787E-005	0,00072907420085682867
1	0	0	0	0	0	1	12608,3166	-0,000500000024	0,729276597	-1,3890613047406077E-006	-0,00050006207576096704	3,64683558E-007	-0,00074574273547383654	2,7824664122300493E-005	0,00074574273547383654
1	0	0	0	0	0	1	12728,3166	-0,000500000024	0,727271616	-1,3890068942693888E-006	-0,00050004248799109114	3,63666715E-007	-0,00076241144146117632	2,8446595954001693E-005	0,00076241144146117632
1	0	0	0	0	0	1	12848,3166	-0,000500000024	0,725171149	-1,3890459654826877E-006	-0,00050005655362804902	3,62626594E-007	-0,0007790796355729879	2,9068508686938714E-005	0,0007790796355729879
1	0	0	0	0	0	1	12968,3166	-0,000500000024	0,723166227	-1,3889873929664542E-006	-0,0005000354675219497	3,61608755E-007	-0,00079574804933920154	2,9690429615476806E-005	0,00079574804933920154
1	0	0	0	0	0	1	13088,3166	-0,000500000024	0,72135222	-1,3890097956011434E-006	-0,00050004353247053536	3,60707503E-007	-0,00081241612722321715	3,031233801179849E-005	0,00081241612722321715
1	0	0	0	0	0	1	13208,3166	-0,000500000024	0,719366312	-1,3890443544175165E-006	-0,00050005597364458035	3,5972343E-007	-0,00082908400757393459	3,0934239037887232E-005	0,00082908400757393459
1	0	0	0	0	0	1	13328,3166	-0,000500000024	0,717418611	-1,3889870145875546E-006	-0,00050003533130554419	3,58734667E-007	-0,00084575225016325632	3,1556153579585338E-005	0,00084575225016325632
1	0	0	0	0	0	1	13448,3166	-0,000500000024	0,71564281	-1,3890320010250435E-006	-0,00050005152642323622	3,57858283E-007	-0,00086242081467295706	3,2178080132565613E-005	0,00086242081467295706
1	0	0	0	0	0	1	13568,3166	-0,000500000024	0,713542402	-1,3890268415141488E-006	-0,00050004966899929165	3,56806652E-007	-0,00087908932359590989	3,2800004611529581E-005	0,00087908932359590989
1	0	0	0	0	0	1	13688,3166	-0,000500000024	0,711842954	-1,3890409762550715E-006	-0,00050005475750608544	3,55960452E-007	-0,00089575796177408307	3,3421933913179603E-005	0,00089575796177408307
1	0	0	0	0	0	1	13808,3166	-0,000500000024	0,709857047	-1,3889542652727363E-006	-0,00050002354155206682	3,54945229E-007	-0,00091242547884349978	3,4043821384754586E-005	0,00091242547884349978
1	0	0	0	0	0	1	13928,3166	-0,000500000024	0,708119392	-1,3890129338283763E-006	-0,00050004466223235296	3,54091327E-007	-0,00092909321573702925	3,4665717058262765E-005	0,00092909321573702925
1	0	0	0	0	0	1	14048,3166	-0,000500000024	0,706171751	-1,3890060464618726E-006	-0,0005000421827803817	3,53115666E-007	-0,00094576127788864614	3,5287624867587501E-005	0,00094576127788864614
1	0	0	0	0	0	1	14168,3166	-0,000500000024	0,704319537	-1,3889369328422216E-006	-0,00050001730187700589	3,52171952E-007	-0,00096242925518261248	3,59095295107592E-005	0,00096242925518261248
1	0	0	0	0	0	1	14288,3166	-0,000500000024	0,702410042	-1,3889997107617091E-006	-0,00050003990192829517	3,51233041E-007	-0,00097909701255443123	3,6531425948339878E-005	0,00097909701255443123
1	0	0	0	0	0	1	14408,3166	-0,000500000024	0,700786948	-1,3889883187431325E-006	-0,00050003580080155776	3,5041856E-007	-0,00099576491567697485	3,7153327824076083E-005	0,00099576491567697485
1	0	0	0	0	0	1	14528,3166	-0,000500000024	0,698896587	-1,3889656929111677E-006	-0,000500027655501952	3,49467626E-007	-0,001012432849805375	3,7775230856682477E-005	0,001012432849805375
1	0	0	0	0	0	1	14648,3166	-0,000500000024	0,697101653	-1,3890986264644501E-006	-0,00050007551158171296	3,48603464E-007	-0,0010291008510338272	3,8397136392882016E-005	0,0010291008510338272
1	0	0	0	0	0	1	14768,3166	-0,000500000024	0,695153952	-1,3889687709807834E-006	-0,00050002876360702701	3,47596966E-007	-0,0010457684345325784	3,9019026343024781E-005	0,0010457684345325784
1	0	0	0	0	0	1	14888,3166	-0,000500000024	0,693359077	-1,3889315302561347E-006	-0,00050001535694599123	3,466902E-007	-0,0010624355999792267	3,9640900695081498E-005	0,0010624355999792267
1	0	0	0	0	0	1	15008,3166	-0,000500000024	0,691583216	-1,3889334204044037E-006	-0,00050001603739937626	3,45802704E-007	-0,0010791035053570589	4,0262802654965536E-005	0,0010791035053570589
1	0	0	0	0	0	1	15128,3166	-0,000500000024	0,689864695	-1,389029322295553E-006	-0,000500050562080608	3,44967219E-007	-0,001095771338276827	4,0884701911341798E-005	0,001095771338276827
1	0	0	0	0	0	1	15248,3166	-0,000500000024	0,688088834	-1,388982205832791E-006	-0,00050003360015380826	3,4406753E-007	-0,001112439234773457	4,150660353985625E-005	0,001112439234773457
1	0	0	0	0	0	1	15368,3166	-0,000500000024	0,68623668	-1,3889336465217642E-006	-0,00050001611880162688	3,43129415E-007	-0,0011291070281046722	4,2128501319130355E-005	0,0011291070281046722
1	0	0	0	0	0	1	15488,3166	-0,000500000024	0,684499025	-1,3889873610298512E-006	-0,00050003545602477242	3,42273779E-007	-0,0011457749095783541	4,2750402387118413E-005	0,0011457749095783541
1	0	0	0	0	0	1	15608,3166	-0,000500000024	0,682818651	-1,3889443426903907E-006	-0,00050001996942237914	3,41422975E-007	-0,0011624425450602166	4,3372294276820954E-005	0,0011624425450602166
1	0	0	0	0	0	1	15728,3166	-0,000500000024	0,681023777	-1,3890476578801301E-006	-0,00050005716289113562	3,40550827E-007	-0,0011791103108656077	4,3994191029069562E-005	0,0011791103108656077
1	0	0	0	0	0	1	15848,3166	-0,000500000024	0,679171562	-1,3889296470378115E-006	-0,0005000146789873865	3,39595744E-007	-0,0011957778741203325	4,4616080223880486E-005	0,0011957778741203325
1	0	0	0	0	0	1	15968,3166	-0,000500000024	0,677510262	-1,3890080044932093E-006	-0,0005000428876716713	3,3878419E-007	-0,0012124457172053315	4,5237979859535168E-005	0,0012124457172053315
1	0	0	0	0	0	1	16088,3166	-0,000500000024	0,675925434	-1,3890068628081482E-006	-0,00050004247666504435	3,37991423E-007	-0,0012291132636629427	4,5859868427623194E-005	0,0012291132636629427
1	0	0	0	0	0	1	16208,3165	-0,000500000024	0,674073219	-1,3890332413171158E-006	-0,00050005197292838778	3,3707164E-007	-0,001245781069490185	4,648176667314087E-005	0,001245781069490185
1	0	0	0	0	0	1	16328,3165	-0,000500000024	0,672316492	-1,3890543895670109E-006	-0,00050005958629844205	3,36198298E-007	-0,0012624491978605602	4,7103676953176512E-005	0,0012624491978605602
1	0	0	0	0	0	1	16448,3165	-0,000500000024	0,670617044	-1,3890578455401635E-006	-0,00050006083044879206	3,35349313E-007	-0,0012791173472689334	4,7725588018168147E-005	0,0012791173472689334
1	0	0	0	0	0	1	16568,3165	-0,000500000024	0,668917596	-1,3890049441898658E-006	-0,00050004178596245434	3,34486742E-007	-0,0012957853368210576	4,8347493118708205E-005	0,0012957853368210576
1	0	0	0	0	0	1	16688,3165	-0,000500000024	0,667237222	-1,3889289825165179E-006	-0,00050001443975971802	3,33628236E-007	-0,0013124532816307933	4,8969396549849574E-005	0,0013124532816307933
1	0	0	0	0	0	1	16808,3165	-0,000500000024	0,665499568	-1,3889245547923363E-006	-0,00050001284577899334	3,32758333E-007	-0,0013291207821788906	4,959128340499191E-005	0,0013291207821788906
1	0	0	0	0	0	1	16928,3165	-0,000500000024	0,663761973	-1,3889857212747704E-006	-0,00050003486571293626	3,31904118E-007	-0,0013457886975590784	5,0213185738077293E-005	0,0013457886975590784
1	0	0	0	0	0	1	17048,3165	-0,000500000024	0,662081599	-1,3890274956324395E-006	-0,00050004990448187917	3,31073835E-007	-0,0013624566951182968	5,08350911373728E-005	0,0013624566951182968
1	0	0	0	0	0	1	17168,3165	-0,000500000024	0,660401225	-1,3890335099390034E-006	-0,00050005206963226835	3,30234997E-007	-0,001379125034246379	5,145700928106185E-005	0,001379125034246379
1	0	0	0	0	0	1	17288,3165	-0,000500000024	0,658816397	-1,388983993694031E-006	-0,00050003424378386246	3,29430748E-007	-0,0013957931336504461	5,2078918480325594E-005	0,0013957931336504461
1	0	0	0	0	0	1	17408,3165	-0,000500000024	0,657078743	-1,3890088031475899E-006	-0,00050004317518725178	3,28567751E-007	-0,0014124610673367754	5,2700821496437728E-005	0,0014124610673367754
1	0	0	0	0	0	1	17528,3165	-0,000500000024	0,655532062	-1,3890217604639472E-006	-0,00050004783982119693	3,2779738E-007	-0,0014291295132058014	5,3322743622774912E-005	0,0014291295132058014
1	0	0	0	0	0	1	17648,3165	-0,000500000024	0,653775334	-1,3889849297766986E-006	-0,00050003458077362701	3,26910282E-007	-0,0014457974761348704	5,3944647729972973E-005	0,0014457974761348704
1	0	0	0	0	0	1	17768,3165	-0,000500000024	0,652171373	-1,3890124959030395E-006	-0,00050004450457922982	3,26114701E-007	-0,0014624652680710419	5,4566545457196134E-005	0,0014624652680710419
1	0	0	0	0	0	1	17888,3165	-0,000500000024	0,650490999	-1,3889520360486738E-006	-0,00050002273903139462	3,25260288E-007	-0,0014791332417143274	5,5188449964156019E-005	0,0014791332417143274
1	0	0	0	0	0	1	18008,3165	-0,000500000024	0,648906112	-1,3889720890179482E-006	-0,00050002995810042086	3,24472495E-007	-0,0014958008439915782	5,5810340614949843E-005	0,0014958008439915782
1	0	0	0	0	0	1	18128,3165	-0,000500000024	0,647244871	-1,3889371022168133E-006	-0,00050001736285185971	3,23633685E-007	-0,0015124683928756141	5,6432229273571053E-005	0,0015124683928756141
1	0	0	0	0	0	1	18248,3165	-0,000500000024	0,645621777	-1,3889360002196757E-006	-0,00050001696613288544	3,22821847E-007	-0,001529135487527735	5,7054100984188768E-005	0,001529135487527735
1	0	0	0	0	0	1	18368,3165	-0,000500000024	0,643998742	-1,3889119784839245E-006	-0,00050000831830791021	3,22004723E-007	-0,0015458025457092858	5,7675971334040486E-005	0,0015458025457092858
1	0	0	0	0	0	1	18488,3165	-0,000500000024	0,642356575	-1,3889245870523154E-006	-0,00050001285739258592	3,21186548E-007	-0,0015624693874332938	5,8297833607570253E-005	0,0015624693874332938
1	0	0	0	0	0	1	18608,3165	-0,000500000024	0,640752614	-1,3889358099129618E-006	-0,00050001689762246758	3,2038713E-007	-0,0015791367284157664	5,8919714509104589E-005	0,0015791367284157664
1	0	0	0	0	0	1	18728,3165	-0,000500000024	0,639129519	-1,3889712617286328E-006	-0,00050002966027626362	3,19583705E-007	-0,0015958039140676454	5,9541589615045632E-005	0,0015958039140676454
1	0	0	0	0	0	1	18848,3165	-0,000500000024	0,637601912	-1,3890103294268355E-006	-0,00050004372464778682	3,18828825E-007	-0,0016124721081407718	6,0163502346539251E-005	0,0016124721081407718
1	0	0	0	0	0	1	18968,3165	-0,000500000024	0,635940671	-1,3889847005905014E-006	-0,00050003449826659488	3,17992289E-007	-0,00162913914886484	6,0785372045028826E-005	0,00162913914886484
1	0	0	0	0	0	1	19088,3165	-0,000500000024	0,634470344	-1,388936590154319E-006	-0,00050001717850935962	3,17246077E-007	-0,0016458064543797549	6,1407251623220902E-005	0,0016458064543797549
1	0	0	0	0	0	1	19208,3165	-0,000500000024	0,632904589	-1,3889273743390934E-006	-0,00050001386081583821	3,16461069E-007	-0,001662473511318049	6,2029121926685056E-005	0,001662473511318049
1	0	0	0	0	0	1	19328,3165	-0,000500000024	0,631262422	-1,388984936612865E-006	-0,00050003458323464691	3,1565304E-007	-0,0016791415653560576	6,2651029433280154E-005	0,0016791415653560576
1	0	0	0	0	0	1	19448,3165	-0,000500000024	0,629639328	-1,3890191317801106E-006	-0,00050004689349500429	3,14849188E-007	-0,0016958094264450259	6,3272929740687117E-005	0,0016958094264450259
1	0	0	0	0	0	1	19568,3165	-0,000500000024	0,628073573	-1,3889221911991222E-006	-0,00050001199488542598	3,14044314E-007	-0,0017124772330831686	6,3894828016460608E-005	0,0017124772330831686
1	0	0	0	0	0	1	19688,3165	-0,000500000024	0,626412332	-1,3887871607310242E-006	-0,00049996338391632211	3,13183222E-007	-0,0017291437858735866	6,4516679509489651E-005	0,0017291437858735866
1	0	0	0	0	0	1	19808,3165	-0,000500000024	0,624980211	-1,3888215359669022E-006	-0,00049997575900138803	3,12474953E-007	-0,0017458091351911072	6,5138486099326822E-005	0,0017458091351911072
1	0	0	0	0	0	1	19928,3165	-0,000500000024	0,62343353	-1,3889342681763486E-006	-0,00050001634259728013	3,1172695E-007	-0,001762475650426311	6,5760336191120307E-005	0,001762475650426311
1	0	0	0	0	0	1	20048,3165	-0,000500000024	0,621924996	-1,388869730897972E-006	-0,0004999931091767833	3,109582E-007	-0,0017791424308933293	6,6382196179069453E-005	0,0017791424308933293
1	0	0	0	0	0	1	20168,3165	-0,000500000024	0,620359242	-1,3889428870396739E-006	-0,00050001944538811482	3,10191695E-007	-0,0017958093888151792	6,7004062788096922E-005	0,0017958093888151792
1	0	0	0	0	0	1	20288,3165	-0,000500000024	0,618793428	-1,3889414174191189E-006	-0,00050001891632470854	3,09408421E-007	-0,0018124764976178925	6,7625935026692262E-005	0,0018124764976178925
1	0	0	0	0	0	1	20408,3165	-0,000500000024	0,617227674	-1,3889264027885576E-006	-0,00050001351105764109	3,08622162E-007	-0,0018291429939981866	6,8247784414983744E-005	0,0018291429939981866
1	0	0	0	0	0	1	20528,3165	-0,000500000024	0,615833759	-1,3888687947732654E-006	-0,0004999927721718848	3,07912416E-007	-0,0018458095716914134	6,8869636837170086E-005	0,0018458095716914134
1	0	0	0	0	0	1	20648,3165	-0,000500000024	0,614267945	-1,3889746933451128E-006	-0,00050003089565821139	3,07152959E-007	-0,001862476633400792	6,9491507318649792E-005	0,001862476633400792
1	0	0	0	0	0	1	20768,3165	-0,000500000024	0,612835824	-1,3889357282346787E-006	-0,00050001686821828531	3,06428262E-007	-0,0018791440523695328	7,0113391129956646E-005	0,0018791440523695328
1	0	0	0	0	0	1	20888,3165	-0,000500000024	0,61121279	-1,3888983786002629E-006	-0,0005000034223497328	3,05608495E-007	-0,0018958111698343574	7,0735263691747021E-005	0,0018958111698343574
1	0	0	0	0	0	1	21008,3165	-0,000500000024	0,609761536	-1,3889227385936666E-006	-0,00050001219194746432	3,04888204E-007	-0,0019124780488552608	7,1357127356874086E-005	0,0019124780488552608
1	0	0	0	0	0	1	21128,3165	-0,000500000024	0,608272135	-1,3889764456350046E-006	-0,00050003152648258016	3,04155236E-007	-0,0019291449878299219	7,197899325895648E-005	0,0019291449878299219
1	0	0	0	0	0	1	21248,3165	-0,000500000024	0,606801867	-1,388896812403497E-006	-0,00050000285851889024	3,03402658E-007	-0,0019458117850226474	7,2600853870964224E-005	0,0019458117850226474
1	0	0	0	0	0	1	21368,3165	-0,000500000024	0,60527426	-1,3889678272729117E-006	-0,00050002842387218912	3,02654342E-007	-0,0019624787098069242	7,3222719243584294E-005	0,0019624787098069242
1	0	0	0	0	0	1	21488,3165	-0,000500000024	0,603861213	-1,3889021344980898E-006	-0,00050000477447296685	3,01933483E-007	-0,0019791455070721949	7,384457985829879E-005	0,0019791455070721949
1	0	0	0	0	0	1	21608,3165	-0,000500000024	0,602276325	-1,3888991799515981E-006	-0,00050000371083621696	3,01140403E-007	-0,0019958121631218976	7,4466435204070592E-005	0,0019958121631218976
1	0	0	0	0	0	1	21728,3165	-0,000500000024	0,600939691	-1,3888842112307126E-006	-0,0004999983220966329	3,00468827E-007	-0,0020124785149151181	7,5088279197623962E-005	0,0020124785149151181
1	0	0	0	0	0	1	21848,3165	-0,000500000024	0,59939301	-1,3889170278303531E-006	-0,00050001013607264659	2,99702577E-007	-0,0020291457458635034	7,5710155993638554E-005	0,0020291457458635034
1	0	0	0	0	0	1	21968,3165	-0,000500000024	0,598056376	-1,388916808772289E-006	-0,00050001005721174259	2,99034213E-007	-0,0020458128211875312	7,6332026983099149E-005	0,0020458128211875312
1	0	0	0	0	0	1	22088,3165	-0,000500000024	0,596624255	-1,3888848655430288E-006	-0,0004999985576490697	2,98311278E-007	-0,0020624792889134256	7,6953875302256435E-005	0,0020624792889134256
1	0	0	0	0	0	1	22208,3165	-0,000500000024	0,595058501	-1,388844380811659E-006	-0,00049998398314560006	2,97519733E-007	-0,0020791456112376336	7,7575718196281318E-005	0,0020791456112376336
1	0	0	0	0	0	1	22328,3165	-0,000500000024	0,593664527	-1,388879780906589E-006	-0,00049999672717992915	2,96830308E-007	-0,0020958123355143632	7,8197576087695219E-005	0,0020958123355143632
1	0	0	0	0	0	1	22448,3165	-0,000500000024	0,592289746	-1,3888593595927685E-006	-0,00049998937550686483	2,9613858E-007	-0,0021124788312630067	7,881942545241897E-005	0,0021124788312630067
1	0	0	0	0	0	1	22568,3165	-0,000500000024	0,590838492	-1,3889594596241498E-006	-0,00050002541151859827	2,95434262E-007	-0,0021291457242086278	7,9441289637095987E-005	0,0021291457242086278
1	0	0	0	0	0	1	22688,3165	-0,000500000024	0,589463651	-1,388888886929231E-006	-0,00050000000534811994	2,94731819E-007	-0,0021458126210571171	8,0063153967394266E-005	0,0021458126210571171
1	0	0	0	0	0	1	22808,3165	-0,000500000024	0,58791697	-1,3888780385540386E-006	-0,00049999609993300333	2,93956191E-007	-0,0021624792426508742	8,0685008027568397E-005	0,0021624792426508742
1	0	0	0	0	0	1	22928,3165	-0,000500000024	0,58654213	-1,3888490315520256E-006	-0,00049998565741215226	2,93262644E-007	-0,0021791455073830518	8,1306848772757197E-005	0,0021791455073830518
1	0	0	0	0	0	1	23048,3165	-0,000500000024	0,585148215	-1,3887861149333832E-006	-0,00049996300742916685	2,92552471E-007	-0,0021958113419107763	8,1928673466439437E-005	0,0021958113419107763
1	0	0	0	0	0	1	23168,3165	-0,000500000024	0,583887935	-1,3888313313331712E-006	-0,00049997928533328762	2,91931883E-007	-0,0022124775058530067	8,2550510451019789E-005	0,0022124775058530067
1	0	0	0	0	0	1	23288,3165	-0,000500000024	0,582417667	-1,3888431126284155E-006	-0,00049998352659962682	2,91199228E-007	-0,0022291436844810976	8,317234798354935E-005	0,0022291436844810976
1	0	0	0	0	0	1	23408,3165	-0,000500000024	0,580966413	-1,388873645773856E-006	-0,00049999451853211853	2,90480017E-007	-0,0022458100038530518	8,3794190767421683E-005	0,0022458100038530518
1	0	0	0	0	0	1	23528,3165	-0,000500000024	0,579515219	-1,3888873181551594E-006	-0,0004999994405894473	2,89757281E-007	-0,002262476079592111	8,4416024461023117E-005	0,002262476079592111
1	0	0	0	0	0	1	23648,3165	-0,000500000024	0,578083098	-1,3888486388799114E-006	-0,00049998551605018944	2,89033181E-007	-0,0022791417526635549	8,5037843130554458E-005	0,0022791417526635549
1	0	0	0	0	0	1	23768,3165	-0,000500000024	0,57684195	-1,3888316138472875E-006	-0,00049997938703837062	2,88409097E-007	-0,0022958077172083286	8,565967267534761E-005	0,0022958077172083286
1	0	0	0	0	0	1	23888,3165	-0,000500000024	0,57546711	-1,3888644694816323E-006	-0,00049999121506687789	2,87728511E-007	-0,0023124739226592726	8,6281511208673869E-005	0,0023124739226592726
1	0	0	0	0	0	1	24008,3165	-0,000500000024	0,574092269	-1,3888413604096662E-006	-0,0004999828958008695	2,87036329E-007	-0,0023291400231628394	8,6903345826272397E-005	0,0023291400231628394
1	0	0	0	0	0	1	24128,3165	-0,000500000024	0,572621942	-1,3888183948842602E-006	-0,0004999746282116233	2,86296455E-007	-0,0023458060110085952	8,7525176240456525E-005	0,0023458060110085952
1	0	0	0	0	0	1	24248,3165	-0,000500000024	0,571266234	-1,3887559273991632E-006	-0,00049995213991671603	2,85605779E-007	-0,0023624715493807526	8,8146989884176371E-005	0,0023624715493807526
1	0	0	0	0	0	1	24368,3165	-0,000500000024	0,570025027	-1,3887837614133278E-006	-0,0004999621601619367	2,84990932E-007	-0,0023791370099246669	8,8768800624019827E-005	0,0023791370099246669
1	0	0	0	0	0	1	24488,3164	-0,000500000024	0,568535626	-1,3887252380211267E-006	-0,00049994109174048915	2,84234318E-007	-0,0023958022747123178	8,9390604059933888E-005	0,0023958022747123178
1	0	0	0	0	0	1	24608,3164	-0,000500000024	0,567141712	-1,3887474046851922E-006	-0,00049994907173964934	2,83541965E-007	-0,0024124673622641693	9,001240088294199E-005	0,0024124673622641693
1	0	0	0	0	0	1	24728,3164	-0,000500000024	0,565786004	-1,3887871755416402E-006	-0,000499963389248144	2,82872293E-007	-0,002429132742734695	9,0634208635139661E-005	0,002429132742734695
1	0	0	0	0	0	1	24848,3164	-0,000500000024	0,564525723	-1,388804326952797E-006	-0,0004999695637562352	2,82245679E-007	-0,002445798221685744	9,1256020061778035E-005	0,002445798221685744
1	0	0	0	0	0	1	24968,3164	-0,000500000024	0,563265443	-1,3886997925874312E-006	-0,00049993193138424781	2,81594367E-007	-0,0024624630355648973	9,1877806673689818E-005	0,0024624630355648973
1	0	0	0	0	0	1	25088,3164	-0,000500000024	0,561661482	-1,3887163123452211E-006	-0,0004999378784971241	2,80795859E-007	-0,0024791277086570995	9,2499588032651149E-005	0,0024791277086570995
1	0	0	0	0	0	1	25208,3164	-0,000500000024	0,560420334	-1,3887278603506275E-006	-0,00049994203577912083	2,80177687E-007	-0,002495792207366769	9,3121362885165734E-005	0,002495792207366769
1	0	0	0	0	0	1	25328,3164	-0,000500000024	0,559217334	-1,3887397297496338E-006	-0,00049994630876281485	2,79578643E-007	-0,002512457402204816	9,3743163711166029E-005	0,002512457402204816
1	0	0	0	0	0	1	25448,3164	-0,000500000024	0,557918906	-1,3887642282287642E-006	-0,00049995512821540851	2,78934408E-007	-0,0025291229405554694	9,4364977354083533E-005	0,0025291229405554694
1	0	0	0	0	0	1	25568,3164	-0,000500000024	0,556524932	-1,3887805816452278E-006	-0,00049996101544540672	2,78240776E-007	-0,0025457880674319184	9,4986775644345242E-005	0,0025457880674319184
1	0	0	0	0	0	1	25688,3164	-0,000500000024	0,555169225	-1,3887835213746358E-006	-0,00049996207374800646	2,77563544E-007	-0,0025624535793555312	9,5608588301234317E-005	0,0025624535793555312
1	0	0	0	0	0	1	25808,3164	-0,000500000024	0,553851664	-1,388803394634225E-006	-0,00049996922812154515	2,76908793E-007	-0,0025791186300193094	9,6230383747898803E-005	0,0025791186300193094
1	0	0	0	0	0	1	25928,3164	-0,000500000024	0,552648664	-1,388754199663203E-006	-0,00049995151793176282	2,76297527E-007	-0,0025957840579767187	9,6852193271895936E-005	0,0025957840579767187
1	0	0	0	0	0	1	26048,3164	-0,000500000024	0,551273882	-1,3887626906022584E-006	-0,00049995457466985984	2,7561191E-007	-0,0026124494202777008	9,7474000346163507E-005	0,0026124494202777008
1	0	0	0	0	0	1	26168,3164	-0,000500000024	0,549918115	-1,3887695960293059E-006	-0,00049995706062362701	2,74935445E-007	-0,0026291145175642726	9,809579753238711E-005	0,0026291145175642726
1	0	0	0	0	0	1	26288,3164	-0,000500000024	0,548715115	-1,3887656662037546E-006	-0,00049995564588641139	2,74333217E-007	-0,0026457799468121917	9,8717607104534899E-005	0,0026457799468121917
1	0	0	0	0	0	1	26408,3164	-0,000500000024	0,54726392	-1,3887447044997115E-006	-0,00049994809967286445	2,73603547E-007	-0,002662445228536199	9,9339411172367194E-005	0,002662445228536199
1	0	0	0	0	0	1	26528,3164	-0,000500000024	0,546099126	-1,3888007866787827E-006	-0,00049996828925757466	2,73032242E-007	-0,0026791102962949853	9,9961207256869414E-005	0,0026791102962949853
1	0	0	0	0	0	1	26648,3164	-0,000500000024	0,544647932	-1,3887733162037974E-006	-0,00049995839988646022	2,72301321E-007	-0,002695775516208513	0,00010058300901846962	0,002695775516208513
1	0	0	0	0	0	1	26768,3164	-0,000500000024	0,543406785	-1,3886877533126E-006	-0,00049992759724525626	2,71664049E-007	-0,0027124401577985264	0,00010120478920204194	0,0027124401577985264
1	0	0	0	0	0	1	26888,3164	-0,000500000024	0,542222857	-1,3888040552588386E-006	-0,0004999694659464089	2,71094876E-007	-0,002729105247058449	0,00010182658608878046	0,002729105247058449
1	0	0	0	0	0	1	27008,3164	-0,000500000024	0,54092443	-1,3887060649738283E-006	-0,00049993418944337811	2,70426625E-007	-0,0027457701889502832	0,00010244837747701746	0,0027457701889502832
1	0	0	0	0	0	1	27128,3164	-0,000500000024	0,539606869	-1,3888071050071933E-006	-0,00049997056385582995	2,69787563E-007	-0,0027624351469344646	0,00010307016946568158	0,0027624351469344646
1	0	0	0	0	0	1	27248,3164	-0,000500000024	0,538346589	-1,3887637726212334E-006	-0,00049995496419669549	2,69149041E-007	-0,0027790998252025578	0,00010369195101776238	0,0027790998252025578
1	0	0	0	0	0	1	27368,3164	-0,000500000024	0,537029028	-1,3887560086214864E-006	-0,00049995216915675277	2,68488833E-007	-0,0027957643808209837	0,00010431372799361917	0,0027957643808209837
1	0	0	0	0	0	1	27488,3164	-0,000500000024	0,535749674	-1,388684173745181E-006	-0,00049992630860096966	2,67835361E-007	-0,0028124289987303354	0,00010493550729363414	0,0028124289987303354
1	0	0	0	0	0	1	27608,3164	-0,000500000024	0,534432173	-1,3886987503113536E-006	-0,00049993155616485536	2,67179502E-007	-0,0028290936635285187	0,0001055572883431345	0,0028290936635285187
1	0	0	0	0	0	1	27728,3164	-0,000500000024	0,533190966	-1,3887225845666965E-006	-0,00049994013649688275	2,66563575E-007	-0,0028457583390107632	0,00010617906979127152	0,0028457583390107632
1	0	0	0	0	0	1	27848,3164	-0,000500000024	0,532007098	-1,3886922197966165E-006	-0,00049992920517952147	2,65965895E-007	-0,0028624230970099994	0,00010680085431822845	0,0028624230970099994
1	0	0	0	0	0	1	27968,3164	-0,000500000024	0,530613184	-1,3886451557627878E-006	-0,00049991226212713805	2,65260041E-007	-0,0028790870630834752	0,00010742260929737051	0,0028790870630834752
1	0	0	0	0	0	1	28088,3164	-0,000500000024	0,529429257	-1,3886758028529587E-006	-0,00049992329507973312	2,64674014E-007	-0,0028957512141310656	0,00010804437117814549	0,0028957512141310656
1	0	0	0	0	0	1	28208,3164	-0,000500000024	0,528226316	-1,388659184413781E-006	-0,0004999173124415568	2,64069485E-007	-0,0029124154988383578	0,00010866613804594362	0,0029124154988383578
1	0	0	0	0	0	1	28328,3164	-0,000500000024	0,526966035	-1,3886348833200624E-006	-0,00049990856404771226	2,63434828E-007	-0,0029290793319204512	0,00010928788806299842	0,0029290793319204512
1	0	0	0	0	0	1	28448,3164	-0,000500000024	0,525667608	-1,3886815345677962E-006	-0,00049992535849709965	2,62794572E-007	-0,0029457433814284429	0,00010990964615519442	0,0029457433814284429
1	0	0	0	0	0	1	28568,3164	-0,000500000024	0,524388254	-1,388667926201985E-006	-0,00049992045948534835	2,62152412E-007	-0,0029624074840907328	0,00011053140623064878	0,0029624074840907328
1	0	0	0	0	0	1	28688,3164	-0,000500000024	0,523242533	-1,3886816224419614E-006	-0,00049992539013179949	2,61582215E-007	-0,0029790714144098566	0,00011115315987574787	0,0029790714144098566
1	0	0	0	0	0	1	28808,3164	-0,000500000024	0,521944106	-1,3887667687506309E-006	-0,00049995604280329171	2,60949122E-007	-0,0029957361397519072	0,00011177494318422133	0,0029957361397519072
1	0	0	0	0	0	1	28928,3164	-0,000500000024	0,520645618	-1,3886148196858509E-006	-0,00049990134113930848	2,60271435E-007	-0,0030124006818355354	0,00011239671965507661	0,0030124006818355354
1	0	0	0	0	0	1	29048,3164	-0,000500000024	0,519519031	-1,3886290355100451E-006	-0,00049990645883608051	2,5971093E-007	-0,003029064398869223	0,00011301846534220933	0,003029064398869223
1	0	0	0	0	0	1	29168,3164	-0,000500000024	0,51814419	-1,3886241482913546E-006	-0,00049990469943733056	2,59022727E-007	-0,0030457282315055437	0,00011364021534263171	0,0030457282315055437
1	0	0	0	0	0	1	29288,3164	-0,000500000024	0,517017603	-1,3887122026547635E-006	-0,00049993639900854144	2,58475922E-007	-0,0030623925386437056	0,00011426198304735576	0,0030623925386437056
1	0	0	0	0	0	1	29408,3164	-0,000500000024	0,515833735	-1,3886980365334442E-006	-0,0004999312992048048	2,57881425E-007	-0,003079057382185408	0,00011488377076601714	0,003079057382185408
1	0	0	0	0	0	1	29528,3164	-0,000500000024	0,514420688	-1,3886986582753403E-006	-0,00049993152303189018	2,57175117E-007	-0,0030957217345963757	0,00011550554015993045	0,0030957217345963757
1	0	0	0	0	0	1	29648,3164	-0,000500000024	0,513408661	-1,3886593076749706E-006	-0,00049991735681558554	2,56661906E-007	-0,0031123860043373926	0,00011612730646931674	0,0031123860043373926
1	0	0	0	0	0	1	29768,3164	-0,000500000024	0,512243867	-1,3886872198878941E-006	-0,00049992740521235968	2,56084746E-007	-0,0031290498271531398	0,00011674905610332035	0,0031290498271531398
1	0	0	0	0	0	1	29888,3164	-0,000500000024	0,510811746	-1,3886135229646848E-006	-0,00049990087431968314	2,55355246E-007	-0,0031457135933652128	0,00011737080362536474	0,0031457135933652128
1	0	0	0	0	0	1	30008,3164	-0,000500000024	0,509742439	-1,3885470092969221E-006	-0,00049987692939899866	2,54808498E-007	-0,0031623765842032704	0,00011799252221716211	0,0031623765842032704
1	0	0	0	0	0	1	30128,3164	-0,000500000024	0,508424878	-1,3886426255113395E-006	-0,0004999113512366057	2,54167361E-007	-0,003179040156696457	0,00011861426251129442	0,003179040156696457
1	0	0	0	0	0	1	30248,3164	-0,000500000024	0,507241011	-1,3886702793113526E-006	-0,00049992130660473094	2,53580595E-007	-0,0031957042707338406	0,00011923602301116882	0,0031957042707338406
1	0	0	0	0	0	1	30368,3164	-0,000500000024	0,50615257	-1,3886529577786051E-006	-0,0004999150708528663	2,53033306E-007	-0,0032123685223323885	0,0001198577886436352	0,0032123685223323885
1	0	0	0	0	0	1	30488,3164	-0,000500000024	0,504873216	-1,3886674628819389E-006	-0,00049992029269012979	2,52396376E-007	-0,0032290324240492896	0,00012047954122154691	0,0032290324240492896
1	0	0	0	0	0	1	30608,3164	-0,000500000024	0,503784835	-1,3887336024296624E-006	-0,00049994410292759853	2,51864265E-007	-0,0032456969798368646	0,0001211013182037149	0,0032456969798368646
1	0	0	0	0	0	1	30728,3164	-0,000500000024	0,502639115	-1,3886442617480904E-006	-0,00049991194028184307	2,51275281E-007	-0,0032623607707719782	0,0001217230666482092	0,0032623607707719782
1	0	0	0	0	0	1	30848,3164	-0,000500000024	0,501436174	-1,3886515018918242E-006	-0,00049991454673361882	2,50675242E-007	-0,0032790245920544032	0,00012234481622500246	0,0032790245920544032
1	0	0	0	0	0	1	30968,3164	-0,000500000024	0,50027138	-1,3886898025812117E-006	-0,00049992833498196531	2,50099845E-007	-0,003295688595466192	0,0001229665725972872	0,003295688595466192
2	1	0	1	0	0	1	31949,7742	0,499964178	0,499889433	-1,5511784353354922E-005	-0,00046535353623477286	2,32625311E-007	-0,0034266607100394413	0,000127853318285896	0,0034266607100394413
2	1	0	1	0	0	1	33389,7742	0,499964178	0,499851257	-1,4231286497026706E-005	-0,00042693859411556614	2,13405798E-007	-0,0036040559926810726	0,00013447217479174947	0,0036040559926810726
2	1	0	1	0	0	1	34829,7742	0,499964178	0,499889433	-1,3265904937937093E-005	-0,00039797714739682253	1,98944576E-007	-0,0037682508716118483	0,00014059850648701934	0,0037682508716118483
2	1	0	1	0	0	1	36269,7742	0,499964178	0,49998492	-1,2507146486812014E-005	-0,00037521439390546912	1,87601543E-007	-0,0039223069782678042	0,00014634654695699139	0,0039223069782678042
2	1	0	1	0	0	1	37709,7742	0,499964178	0,499889433	-1,190357910570391E-005	-0,00035710737250595296	1,78514199E-007	-0,004068363862910247	0,00015179612569857088	0,004068363862910247
2	1	0	1	0	0	1	39149,7742	0,499964178	0,499908537	-1,1386308427686646E-005	-0,00034158925219433984	1,70763386E-007	-0,0042077006396019034	0,00015699496817722531	0,0042077006396019034
2	1	0	1	0	0	1	40589,7742	0,499964178	0,49998492	-1,0947913734945662E-005	-0,00032843741143660755	1,64213759E-007	-0,0043414851552824589	0,00016198664833246122	0,0043414851552824589
2	1	0	1	0	0	1	42029,7742	0,499964178	0,500004053	-1,0573252510098326E-005	-0,00031719757471212326	1,58600074E-007	-0,0044703830124972102	0,00016679600069015581	0,0044703830124972102
2	1	0	1	0	0	1	43469,7742	0,499964178	0,49998492	-1,0256389765623478E-005	-0,00030769169239558394	1,53841199E-007	-0,0045951021121840384	0,00017144943798608432	0,0045951021121840384
2	1	0	1	0	0	1	44909,7742	0,499964178	0,500061333	-9,974482463367168E-006	-0,00029923447334364736	1,49635596E-007	-0,004716364060628345	0,00017597388432096509	0,004716364060628345
2	1	0	1	0	0	1	46349,7742	0,499964178	0,499946743	-9,7389861712290432E-006	-0,00029216958459266304	1,46069226E-007	-0,004834503979823065	0,00018038184354693082	0,004834503979823065
2	1	0	1	0	0	1	47789,7742	0,499964178	0,49998492	-9,5341609996135552E-006	-0,00028602482945564387	1,43008108E-007	-0,0049499880536306682	0,00018469070961068109	0,0049499880536306682
2	1	0	1	0	0	1	49229,7742	0,499964178	0,499965817	-9,3637686551551782E-006	-0,00028091305913141398	1,40446929E-007	-0,0050633005414558029	0,00018891855088169706	0,0050633005414558029
2	1	0	1	0	0	1	50669,7742	0,499964178	0,499946743	-9,2113480855736653E-006	-0,00027634044205248579	1,38155499E-007	-0,0051746790800118118	0,00019307423390525949	0,0051746790800118118
2	1	0	1	0	0	1	52109,7742	0,499964178	0,49992764	-9,0663092524676659E-006	-0,0002719892770674105	1,35974958E-007	-0,0052842109899528058	0,00019716101673237715	0,0052842109899528058
2	1	0	1	0	0	1	53549,7742	0,499964178	0,500061333	-8,9381570055589274E-006	-0,00026814470966730941	1,34088808E-007	-0,005392169897775927	0,00020118910873555315	0,005392169897775927
2	1	0	1	0	0	1	54989,7742	0,499964178	0,499889433	-8,8237194046814682E-006	-0,00026471158164738032	1,3232652E-007	-0,0054986985626719635	0,00020516383645213754	0,0054986985626719635
2	1	0	1	0	0	1	56429,7742	0,499964178	0,499965817	-8,7066686050626829E-006	-0,00026120005766535747	1,30591104E-007	-0,0056038193755932224	0,00020908603531866589	0,0056038193755932224
2	1	0	1	0	0	1	57869,7742	0,499964178	0,499965817	-8,5886342633716096E-006	-0,00025765902742122093	1,28820702E-007	-0,0057075191019009382	0,00021295521153297165	0,0057075191019009382
2	1	0	1	0	0	1	59309,7742	0,499964178	0,499946743	-8,4725919805908544E-006	-0,00025417775894428266	1,27075339E-007	-0,0058098474171943706	0,00021677321855845277	0,0058098474171943706
2	1	0	1	0	0	1	60749,7742	0,499964178	0,499908537	-8,3566555598994854E-006	-0,00025069966633002003	1,25326906E-007	-0,0059107670656001907	0,00022053866632838429	0,0059107670656001907
2	1	0	1	0	0	1	62189,7742	0,499964178	0,49992764	-8,3083468969392333E-006	-0,00024925040644391197	1,24607169E-007	-0,00601060468931152	0,00022426374230216672	0,00601060468931152
2	1	0	1	0	0	1	63629,7742	0,499964178	0,500023127	-8,2474810371228774E-006	-0,00024742443065282243	1,23717939E-007	-0,0061101312070442022	0,00022797721049359933	0,0061101312070442022
2	1	0	1	0	0	1	65069,7742	0,499964178	0,5000422	-8,0821912096192435E-006	-0,0002424657358369497	1,21243104E-007	-0,0062080117984896883	0,00023162926696228531	0,0062080117984896883
2	1	0	1	0	0	1	66509,7758	0,499964178	0,500023127	-7,9369768834100493E-006	-0,00023810896603160688	1,1905999E-007	-0,0063040652103064742	0,00023521314890235526	0,0063040652103064742
2	1	0	1	0	0	1	67949,7778	0,499964178	0,500023127	-7,839913727090688E-006	-0,00023519707546875856	1,17603975E-007	-0,0063986981231746701	0,00023874403011677222	0,0063986981231746701
2	1	0	1	0	0	1	69389,7799	0,499964178	0,500023127	-7,7488270365122138E-006	-0,00023246447858947318	1,16237615E-007	-0,006492165678583232	0,00024223143027753046	0,006492165678583232
2	1	0	1	0	0	1	70829,7820	0,499964178	0,5000422	-7,6853954753783501E-006	-0,00023056153451133446	1,15290497E-007	-0,0065847699704169062	0,00024568662091363942	0,0065847699704169062
2	1	0	1	0	0	1	72269,7840	0,499964178	0,500023127	-7,6077428057057357E-006	-0,00022823195782222845	1,14121256E-007	-0,0066764771786820992	0,00024910834015566666	0,0066764771786820992
2	1	0	1	0	0	1	73709,7861	0,499964178	0,499908537	-7,54296105667648E-006	-0,00022628850809604362	1,13123555E-007	-0,0067673515022444787	0,00025249898334960653	0,0067673515022444787
2	1	0	1	0	0	1	75149,7881	0,499964178	0,499908537	-7,4621155541188083E-006	-0,0002238631464219016	1,11911099E-007	-0,0068573180453712947	0,00025585575603497174	0,0068573180453712947
2	1	0	1	0	0	1	76589,7902	0,499964178	0,499908537	-7,4038636427228787E-006	-0,00022211559161378467	1,1103748E-007	-0,0069465103451630285	0,00025918364066052384	0,0069465103451630285
2	1	0	1	0	0	1	78029,7923	0,499964178	0,49998492	-7,3372553503496525E-006	-0,00022011734576634042	1,10055353E-007	-0,0070349182157889958	0,00026248225717922493	0,0070349182157889958
2	1	0	1	0	0	1	79469,7943	0,499964178	0,500004053	-7,2705954110755955E-006	-0,00021811755041206208	1,09059663E-007	-0,007122536130562953	0,00026575139938298058	0,007122536130562953
2	1	0	1	0	0	1	80909,7964	0,499964178	0,499851257	-7,2466759128833984E-006	-0,00021739996642815482	1,08667649E-007	-0,0072095415792186637	0,00026899768965239501	0,0072095415792186637
2	1	0	1	0	0	1	82349,7984	0,499964178	0,49992764	-7,2405652882969446E-006	-0,00021721664798564461	1,08592609E-007	-0,007296473200782761	0,00027224122533375978	0,007296473200782761
2	1	0	1	0	0	1	83789,8005	0,499964178	0,499946743	-7,2287817003760013E-006	-0,00021686314091861101	1,08420018E-007	-0,0073832402440905574	0,0002754786203791041	0,0073832402440905574
2	1	0	1	0	0	1	85229,8026	0,499964178	0,499946743	-7,2530552254546726E-006	-0,00021759134559593648	1,08784086E-007	-0,0074701410218833997	0,00027872100523789344	0,0074701410218833997
2	1	0	1	0	0	1	86669,8046	0,499964178	0,500004053	-7,3098780271264128E-006	-0,00021929602714428976	1,09648902E-007	-0,0075575117966212646	0,00028198092631461917	0,0075575117966212646
2	1	0	1	0	0	1	88109,8067	0,499964178	0,499908537	-7,384158612784329E-006	-0,00022152444156033395	1,10741958E-007	-0,0076456801601487616	0,00028527060650145562	0,0076456801601487616
2	1	0	1	0	0	1	89549,8087	0,499964178	0,499832153	-7,4400546803848947E-006	-0,00022320132125547888	1,11563196E-007	-0,0077347871830123123	0,00028859530933016109	0,0077347871830123123
2	1	0	1	0	0	1	90989,8108	0,499964178	0,49998492	-7,2808194836551488E-006	-0,00021842427215103146	1,09208841E-007	-0,0078230904833408269	0,00029189002419046797	0,0078230904833408269
2	1	0	1	0	0	1	92429,8128	0,499964178	0,499965817	-7,1106563503910566E-006	-0,00021331938539167914	1,06652401E-007	-0,0079092864673592794	0,0002951061122459296	0,0079092864673592794
2	1	0	1	0	0	1	93869,8149	0,499964178	0,500004053	-6,9972174556427891E-006	-0,00020991622344647661	1,04958964E-007	-0,0079938608190885747	0,00029826169502037485	0,0079938608190885747
2	1	0	1	0	0	1	95309,8170	0,499964178	0,500004053	-6,9141729818285158E-006	-0,00020742489285713526	1,0371329E-007	-0,0080772488821770112	0,00030137301577064762	0,0080772488821770112
2	1	0	1	0	0	1	96749,8190	0,499964178	0,49992764	-6,8467277513506509E-006	-0,0002054015388063111	1,0268591E-007	-0,0081597541748825062	0,00030445139917103552	0,0081597541748825062
2	1	0	1	0	0	1	98189,8211	0,499964178	0,49998492	-6,7839472678824678E-006	-0,00020351812693719453	1,01755994E-007	-0,0082415183087621811	0,00030750212893913331	0,0082415183087621811
2	1	0	1	0	0	1	99629,8231	0,499964178	0,49987036	-6,7216863196259098E-006	-0,0002016503011875256	1,00799006E-007	-0,0083225227232086656	0,00031052451255372525	0,0083225227232086656
2	1	0	1	0	0	1	101069,8252	0,499964178	0,499946743	-6,6594376051450842E-006	-0,00019978284248441965	9,98807792E-008	-0,0084028038288493056	0,00031351990854427206	0,0084028038288493056
2	1	0	1	0	0	1	102509,8273	0,499964178	0,49998492	-6,5912278546279091E-006	-0,00019773655286669952	9,88652928E-008	-0,008482272785030871	0,00031648500214655418	0,008482272785030871
2	1	0	1	0	0	1	103949,8293	0,499964178	0,499851257	-6,528631576922231E-006	-0,00019585866716246752	9,79001982E-008	-0,0085609433439136102	0,00031942030647216058	0,0085609433439136102
2	1	0	1	0	0	1	105389,8314	0,499964178	0,49992764	-6,4629478646658957E-006	-0,00019388815863754621	9,69300515E-008	-0,0086388627414894438	0,00032232758395945914	0,0086388627414894438
2	1	0	1	0	0	1	106829,8334	0,499964178	0,500023127	-6,4036872263653402E-006	-0,00019211034209158006	9,60596154E-008	-0,008716004892760951	0,00032520586134212461	0,008716004892760951
2	1	0	1	0	0	1	108269,8355	0,499964178	0,500118613	-6,3392429437808461E-006	-0,00019017701635397779	9,51110621E-008	-0,0087924370598907674	0,00032805764826187968	0,0087924370598907674
2	1	0	1	0	0	1	109709,8376	0,499964178	0,49998492	-6,2798314704697178E-006	-0,00018839467464514915	9,41944975E-008	-0,0088681369655604288	0,00033088211352202042	0,0088681369655604288
2	1	0	1	0	0	1	111149,8396	0,499964178	0,49992764	-6,2195940892100531E-006	-0,00018658755581569014	9,32802777E-008	-0,008943107713715159	0,00033367937293491635	0,008943107713715159
2	1	0	1	0	0	1	112589,8417	0,499964178	0,500023127	-6,1618158752438221E-006	-0,00018485421193350531	9,24313781E-008	-0,0090174008283782925	0,0003364513489311529	0,0090174008283782925
2	1	0	1	0	0	1	114029,8437	0,499964178	0,49998492	-6,1090739877601856E-006	-0,00018327195754713238	9,16332183E-008	-0,0090910204459998707	0,00033919819584724256	0,0090910204459998707
2	1	0	1	0	0	1	115469,8458	0,499964178	0,499889433	-6,0548909663573594E-006	-0,00018164646917243866	9,08031481E-008	-0,0091639606993777242	0,000341919694769984	0,0091639606993777242
2	1	0	1	0	0	1	116909,8479	0,499964178	0,499908537	-6,0020912146452851E-006	-0,00018006247890997206	9,00147725E-008	-0,0092362722147730739	0,00034461773463325094	0,0092362722147730739
2	1	0	1	0	0	1	117389,7671	0,499964178	0,499965817	-5,9831885732944806E-006	-0,00017961724066524522	8,98024837E-008	-0,009260232839958231	0,00034551173777431232	0,009260232839958231