File: Experimentelles/Rohdaten/Batteriemessungen/AlteZelle/Batterietest Li vs LATP/ECLab-Export/LATP_LP30_Li_Aufladen_C01.mpt
EC-Lab ASCII FILE
Nb header lines : 74

Galvanostatic Cycling with Potential Limitation

Run on channel : 1 (SN 6985)
Grouped channel(s) : 1
User :
CE vs. WE compliance from -10 V to 10 V
Electrode connection : standard
Ewe ctrl range : min = 0,00 V, max = 5,00 V
Acquisition started on : 07.06.2015 16:55:48
Saved on :
	File : LATP_LP30_Li_Aufladen_C01.mpr
	Directory : C:\Hupfer\Batterietest Li vs LATP\
	Host : 192.168.0.2
Device : VMP3 (SN 0324)
Address : 192.168.0.1
EC-Lab for windows v10.33 (software)
Internet server v10.33 (firmware)
Command interpretor v10.32 (firmware)
Electrode material :
Initial state :
Electrolyte :
Comments :
Mass of active material : 0,001 mg
 at x = 0,000
Molecular weight of active material (at x = 0) : 0,001 g/mol
Atomic weight of intercalated ion : 0,001 g/mol
Acquisition started at : xo = 0,000
Number of e- transfered per intercalated ion : 1
for DX = 1, DQ = 26,801 mA.h
Battery capacity : 0,000 A.h
Electrode surface area : 0,001 cm²
Characteristic mass : 0,001 g
Ns                  0                   1
Set I/C             I                   I
Is                  0,000               500,000
unit Is             mA                  nA
vs.                 <None>              <None>
N                   1                   1
I sign              > 0                 > 0
t1 (h:m:s)          0:00:0,0000         10:00:0,0000
I Range             1 mA                1 mA
Bandwidth           5                   5
dE1 (mV)            0,00                10,00
dt1 (s)             0,0000              10,0000
EM (V)              0,000               3,800
tM (h:m:s)          0:00:0,0000         24:00:0,0000
Im                  0,000               0,000
unit Im             mA                  mA
E range min (V)     0,000               0,000
E range max (V)     5,000               5,000
dq                  0,000               1,000
unit dq             mA.h                mA.h
dtq (s)             0,0000              120,0000
dQM                 0,000               0,000
unit dQM            mA.h                mA.h
dxM                 0,000               0,000
tR (h:m:s)          0:00:10,0000        0:15:0,0000
dER/dt (mV/h)       0,0                 0,1
dER (mV)            0,00                5,00
dtR (s)             1,0000              120,0000
EL (V)              pass                3,700
goto Ns'            0                   0
nc cycles           0                   0

Modify on : 07.07.2015 15:30
Ns                  0                   1
Is                                      -500,000
EM (V)                                  1,000
EL (V)                                  1,100

mode	ox/red	error	control changes	Ns changes	counter inc.	Ns	time/s	control/V/mA	Ewe/V	dq/mA.h	<I>/mA	P/W	(Q-Qo)/mA.h	x	Capacity/mA.h
3	1	0	0	0	0	0	0,0000	0	3,25884032	0	0	0	0	0	0
3	1	0	0	0	0	0	4,0000	0	3,24125385	0	0	0	0	0	0
3	1	0	0	0	0	0	8,0000	0	3,22681808	0	0	0	0	0	0
1	1	0	0	0	0	1	10,2260	0,000500000024	3,23302388	2,5299633532995357E-008	0,00040300302221072723	1,30291835E-006	2,5323770681603088E-008	-9,448639323024119E-010	2,5323770681603088E-008
1	1	0	0	0	0	1	50,2260	0,000500000024	3,21102667	1,1233527615339779E-006	0,00040440700436841235	1,29856164E-006	4,5126748745598086E-006	-1,6837396692572464E-007	4,5126748745598086E-006
1	1	0	0	0	0	1	90,2260	0,000500000024	3,18339634	1,1211096074669814E-006	0,0004035994688838935	1,28481702E-006	9,0128443516813504E-006	-3,3628134065934189E-007	9,0128443516813504E-006
1	1	0	0	0	0	1	130,2260	0,000500000024	3,16088343	1,1186237317742781E-006	0,00040270455361191283	1,27290218E-006	1,3494928337610974E-005	-5,035139204003872E-007	1,3494928337610974E-005
1	1	0	0	0	0	1	170,2260	0,000500000024	3,1420939	1,1250083634238562E-006	0,00040500302106382502	1,27255748E-006	1,798035779862807E-005	-6,7087132431498509E-007	1,798035779862807E-005
1	1	0	0	0	0	1	210,2260	0,000500000024	3,13084698	1,1246780204762925E-006	0,00040488409759969786	1,26763018E-006	2,2484185429302874E-005	-8,389151886761143E-007	2,2484185429302874E-005
1	1	0	0	0	0	1	250,2260	0,000500000024	3,1268754	1,1232591346132621E-006	0,0004043732986761031	1,2644249E-006	2,6978739426751014E-005	-1,0066130413130243E-006	2,6978739426751014E-005
1	1	0	0	0	0	1	290,2260	0,000500000024	3,12458396	1,1308980106647747E-006	0,0004071232941241184	1,27209091E-006	3,1481856554766835E-005	-1,1746303958646659E-006	3,1481856554766835E-005
1	1	0	0	0	0	1	330,2260	0,000500000024	3,12603521	1,1283813966971746E-006	0,0004062173130728953	1,26984958E-006	3,5992887432044275E-005	-1,3429430230414075E-006	3,5992887432044275E-005
1	1	0	0	0	0	1	370,2260	0,000500000024	3,13105702	1,1240865828521136E-006	0,00040467118004961478	1,26704856E-006	4,0480475959304179E-005	-1,5103809846204202E-006	4,0480475959304179E-005
1	1	0	0	0	0	1	410,2260	0,000500000024	3,14075732	1,1240798694739675E-006	0,00040466876323342106	1,27096644E-006	4,4971902119388685E-005	-1,6779621334398707E-006	4,4971902119388685E-005
1	1	0	0	0	0	1	450,2260	0,000500000024	3,14977002	1,1211682570380315E-006	0,00040362058273000486	1,27131204E-006	4,945221779816105E-005	-1,8451287352633642E-006	4,945221779816105E-005
1	1	0	0	0	0	1	490,2260	0,000500000024	3,16365218	1,1190572405402134E-006	0,000402860616771592	1,27451085E-006	5,3933241505728806E-005	-2,012321754593169E-006	5,3933241505728806E-005
1	1	0	0	0	0	1	530,2260	0,000500000024	3,18051291	1,1167487250107419E-006	0,00040202955115998778	1,27866019E-006	5,8406760241103859E-005	-2,1792347533199213E-006	5,8406760241103859E-005
1	1	0	0	0	0	1	570,2260	0,000500000024	3,20161271	1,1232580752225154E-006	0,00040437291729542464	1,29464547E-006	6,2901057738252954E-005	-2,3469230355858051E-006	6,2901057738252954E-005
1	1	0	0	0	0	1	610,2260	0,000500000024	3,22059321	1,126458693648197E-006	0,0004055251399577776	1,30603155E-006	6,7402254282563162E-005	-2,5148687305771382E-006	6,7402254282563162E-005
1	1	0	0	0	0	1	650,2260	0,000500000024	3,2356782	1,1270844024790373E-006	0,00040575039514257062	1,31287766E-006	7,191690268240119E-005	-2,6833163323844266E-006	7,191690268240119E-005
1	1	0	0	0	0	1	690,2260	0,000500000024	3,24879622	1,1235605069151562E-006	0,00040448179270752582	1,31407887E-006	7,6416803292867072E-005	-2,8512136743416259E-006	7,6416803292867072E-005
1	1	0	0	0	0	1	730,2260	0,000500000024	3,26218176	1,1222811775902907E-006	0,00040402123413893946	1,31799072E-006	8,0918896180237222E-005	-3,019192813097671E-006	8,0918896180237222E-005
1	1	0	0	0	0	1	770,2260	0,000500000024	3,27339053	1,1224013022874715E-006	0,00040406447903101702	1,32266086E-006	8,5426845504191693E-005	-3,1873904633767405E-006	8,5426845504191693E-005
1	1	0	0	0	0	1	810,2260	0,000500000024	3,28591681	1,1188812929144157E-006	0,00040279727562470464	1,32355831E-006	8,9904830407885645E-005	-3,3544701008482976E-006	8,9904830407885645E-005
1	1	0	0	0	0	1	850,2260	0,000500000024	3,30602384	1,1241975213536837E-006	0,00040471111791118886	1,3379846E-006	9,4398895073794445E-005	-3,5221496958675616E-006	9,4398895073794445E-005
1	1	0	0	0	0	1	890,2260	0,000500000024	3,32160521	1,127494593296433E-006	0,00040589806384056339	1,34823313E-006	9,8895818002833254E-005	-3,6899359365271821E-006	9,8895818002833254E-005
1	1	0	0	0	0	1	930,2260	0,000500000024	3,33518171	1,119635959349883E-006	0,00040306895554833619	1,3443082E-006	0,00010339998339601395	-3,8579924032615328E-006	0,00010339998339601395
1	1	0	0	0	0	1	970,2260	0,000500000024	3,34724975	1,1257439510841827E-006	0,00040526783262823238	1,35653261E-006	0,00010789426781960438	-4,0256801977353658E-006	0,00010789426781960438
1	1	0	0	0	0	1	1010,2260	0,000500000024	3,35822916	1,1287968869065582E-006	0,00040636688955205203	1,36467315E-006	0,00011238700934686979	-4,1933104246728659E-006	0,00011238700934686979
1	1	0	0	0	0	1	1050,2260	0,000500000024	3,36993432	1,1307390221271717E-006	0,00040706605824913536	1,37178586E-006	0,00011690086315700723	-4,361728379270087E-006	0,00011690086315700723
1	1	0	0	0	0	1	1090,2260	0,000500000024	3,38244152	1,1170175925265842E-006	0,00040212634346813626	1,36016888E-006	0,00012139008114117718	-4,5292271380772416E-006	0,00012139008114117718
1	1	0	0	0	0	1	1130,2260	0,000500000024	3,39680099	1,1191787786681541E-006	0,00040290437049875603	1,36858591E-006	0,00012584875280731083	-4,6955861726885011E-006	0,00012584875280731083
1	1	0	0	0	0	1	1170,2260	0,000500000024	3,41039658	1,120114692024395E-006	0,00040324129931551424	1,37521272E-006	0,00013031900768210877	-4,8623773923888141E-006	0,00013031900768210877
1	1	0	0	0	0	1	1210,2260	0,000500000024	3,4212234	1,1226867753397933E-006	0,00040416724933244909	1,3827464E-006	0,00013481160859212029	-5,0300023727075085E-006	0,00013481160859212029
1	1	0	0	0	0	1	1250,2260	0,000500000024	3,42798281	1,1155071999948834E-006	0,00040158260214298784	1,37661823E-006	0,00013928525911134546	-5,1969202884668947E-006	0,00013928525911134546
1	1	0	0	0	0	1	1290,2260	0,000500000024	3,43768311	1,1185686155303202E-006	0,00040268471176358669	1,38430244E-006	0,00014374204093194165	-5,3632088104002266E-006	0,00014374204093194165
1	1	0	0	0	0	1	1330,2260	0,000500000024	3,45353198	1,1174327296418294E-006	0,00040227579283339987	1,38927237E-006	0,00014821184745847702	-5,5299833016240525E-006	0,00014821184745847702
1	1	0	0	0	0	1	1370,2260	0,000500000024	3,46909428	1,1159343496288379E-006	0,00040173637601509613	1,39366136E-006	0,00015266098934360912	-5,6959867672932166E-006	0,00015266098934360912
1	1	0	0	0	0	1	1410,2260	0,000500000024	3,47879457	1,1123903154067296E-006	0,00040046052366290637	1,39311987E-006	0,0001571263929431985	-5,8625969793928896E-006	0,0001571263929431985
1	1	0	0	0	0	1	1450,2260	0,000500000024	3,49097705	1,113098345055025E-006	0,00040071541434273184	1,39888834E-006	0,00016158629164915408	-6,0290017965096768E-006	0,00016158629164915408
1	1	0	0	0	0	1	1490,2260	0,000500000024	3,50491619	1,1176888779995757E-006	0,00040236800624451802	1,41026612E-006	0,0001660543397614545	-6,1957106789341837E-006	0,0001660543397614545
1	1	0	0	0	0	1	1530,2260	0,000500000024	3,51977205	1,1142098525079845E-006	0,00040111555703590566	1,41183534E-006	0,00017051805631540227	-6,3622579450927117E-006	0,00017051805631540227
1	1	0	0	0	0	1	1570,2260	0,000500000024	3,53382587	1,1186078322821738E-006	0,00040269882979461062	1,42306749E-006	0,00017497883016524189	-6,5286954150044557E-006	0,00017497883016524189
1	1	0	0	0	0	1	1610,2260	0,000500000024	3,54843354	1,1175443751061618E-006	0,00040231598520157491	1,42759154E-006	0,00017945081766339395	-6,695551281211648E-006	0,00017945081766339395
1	1	0	0	0	0	1	1650,2260	0,000500000024	3,56206727	1,119342713702483E-006	0,00040296338711260525	1,43538273E-006	0,00018392519529142256	-6,8624963263780979E-006	0,00018392519529142256
1	1	0	0	0	0	1	1690,2260	0,000500000024	3,57377243	1,1107078616930973E-006	0,00039985484031069792	1,42899023E-006	0,00018838524980572083	-7,0289069569136371E-006	0,00018838524980572083
1	1	0	0	0	0	1	1730,2260	0,000500000024	3,58500028	1,1165738373270466E-006	0,00040196659159226694	1,44105036E-006	0,0001928441786798568	-7,1952755883012826E-006	0,0001928441786798568
1	1	0	0	0	0	1	1770,2260	0,000500000024	3,59372663	1,1157909066459979E-006	0,00040168473653996922	1,4435451E-006	0,00019730311214769773	-7,3616443910862362E-006	0,00019730311214769773
1	1	0	0	0	0	1	1810,2260	0,000500000024	3,60233855	1,1214834080423722E-006	0,0004037340370944336	1,45438673E-006	0,00020177522683645011	-7,5285050029457357E-006	0,00020177522683645011
1	1	0	0	0	0	1	1850,2260	0,000500000024	3,61116028	1,1206591400308146E-006	0,0004034373006027767	1,4568767E-006	0,00020626154875357562	-7,6958957055976576E-006	0,00020626154875357562
1	1	0	0	0	0	1	1890,2260	0,000500000024	3,61721349	1,1223974157862054E-006	0,00040406307989052595	1,46158243E-006	0,0002107418117882351	-7,863060343198519E-006	0,0002107418117882351
1	1	0	0	0	0	1	1930,2260	0,000500000024	3,62431669	1,1178054696469592E-006	0,00040240997923863648	1,45846116E-006	0,00021522658833571526	-8,0303933860312038E-006	0,00021522658833571526
1	1	0	0	0	0	1	1970,2260	0,000500000024	3,62614989	1,1090964230372467E-006	0,00039927472237993664	1,44782996E-006	0,00021967320724664835	-8,1963027161408282E-006	0,00021967320724664835
1	1	0	0	0	0	1	2010,2259	0,000500000024	3,63644195	1,1156241454381314E-006	0,00040162470250362067	1,4604849E-006	0,00022411471131547459	-8,3620212046144678E-006	0,00022411471131547459
1	1	0	0	0	0	1	2050,2259	0,000500000024	3,6427052	1,1184799348799667E-006	0,00040265278672865299	1,4667454E-006	0,00022857441287493325	-8,5284186659303872E-006	0,00022857441287493325
1	1	0	0	0	0	1	2090,2259	0,000500000024	3,64490104	1,1193762780409694E-006	0,00040297547027476563	1,46880575E-006	0,0002330485237549009	-8,6953537583680371E-006	0,0002330485237549009
1	1	0	0	0	0	1	2130,2259	0,000500000024	3,65399027	1,1194999357685446E-006	0,00040301998705781734	1,47263108E-006	0,00023752535546092826	-8,8623903684841626E-006	0,00023752535546092826
1	1	0	0	0	0	1	2170,2259	0,000500000024	3,65704536	1,1141635694786803E-006	0,00040109889514493523	1,46683681E-006	0,00024199889574897843	-9,0293041713702029E-006	0,00024199889574897843
1	1	0	0	0	0	1	2210,2259	0,000500000024	3,66164732	1,1219278698667442E-006	0,00040389404335524966	1,47891751E-006	0,00024647482581295968	-9,1963071400093184E-006	0,00024647482581295968
1	1	0	0	0	0	1	2250,2259	0,000500000024	3,67001081	1,1244487233343534E-006	0,0004048015506265145	1,48562606E-006	0,00025096578030716694	-9,363870690340727E-006	0,00025096578030716694
1	1	0	0	0	0	1	2290,2259	0,000500000024	3,67123294	1,129442381113121E-006	0,00040659926747228493	1,49272057E-006	0,00025546989765065274	-9,5319253642763558E-006	0,00025546989765065274
1	1	0	0	0	0	1	2330,2259	0,000500000024	3,68032217	1,1166437928162245E-006	0,00040199177556900723	1,47945923E-006	0,00025993844958074054	-9,6986530448199014E-006	0,00025993844958074054
1	1	0	0	0	0	1	2370,2259	0,000500000024	3,68595505	1,1163463069226256E-006	0,00040188468064460621	1,48132892E-006	0,00026440995834611059	-9,8654910488633331E-006	0,00026440995834611059
1	1	0	0	0	0	1	2410,2259	0,000500000024	3,69380307	1,1103640931032714E-006	0,00039973108361523424	1,47652793E-006	0,0002688594114953392	-1,0031506128214437E-005	0,0002688594114953392
1	1	0	0	0	0	1	2450,2259	0,000500000024	3,70019984	1,1093815431086115E-006	0,00039937736560822099	1,4777761E-006	0,00027329955709388096	-1,019717393033528E-005	0,00027329955709388096
1	1	0	0	0	0	1	2490,2259	0,000500000024	3,70201397	1,1111088665946026E-006	0,00039999920207888666	1,48080267E-006	0,00027774332516140083	-1,0362976891644158E-005	0,00027774332516140083
1	1	0	0	0	0	1	2530,2259	0,000500000024	3,70579481	1,112097069465057E-006	0,00040035495512123744	1,48363335E-006	0,00028218448122155517	-1,0528682395446344E-005	0,00028218448122155517
1	1	0	0	0	0	1	2570,2259	0,000500000024	3,70745587	1,1117013642546629E-006	0,00040021250124189683	1,48377023E-006	0,00028662431732203229	-1,069433864977827E-005	0,00028662431732203229
1	1	0	0	0	0	1	2610,2259	0,000500000024	3,71053028	1,1150044424818285E-006	0,00040140160943371584	1,48941285E-006	0,00029107235971156966	-1,0860301091788509E-005	0,00029107235971156966
1	1	0	0	0	0	1	2650,2259	0,000500000024	3,70997643	1,1129178045650608E-006	0,00040065041976470278	1,48640356E-006	0,00029551921851921523	-1,1026219372767018E-005	0,00029551921851921523
1	1	0	0	0	0	1	2690,2259	0,000500000024	3,71578145	1,1101478687309686E-006	0,00039965324283923885	1,48502409E-006	0,00029996342044890797	-1,1192038522056901E-005	0,00029996342044890797
1	1	0	0	0	0	1	2730,2259	0,000500000024	3,71853113	1,1135046494422973E-006	0,00040086168392584493	1,49061668E-006	0,00030440010822020851	-1,1357577307994274E-005	0,00030440010822020851
1	1	0	0	0	0	1	2770,2259	0,000500000024	3,72038317	1,1064483781212605E-006	0,00039832142618609939	1,48190838E-006	0,00030884681651792442	-1,1523489973244946E-005	0,00030884681651792442
1	1	0	0	0	0	1	2810,2259	0,000500000024	3,71954298	1,0906657489928571E-006	0,00039263967955634118	1,46044022E-006	0,00031322371606663686	-1,168679798021144E-005	0,00031322371606663686
1	1	0	0	0	0	1	2850,2259	0,000500000024	3,717309	1,0929795644486955E-006	0,0003934726531414857	1,46265938E-006	0,00031759816930931674	-1,1850014712210765E-005	0,00031759816930931674
1	1	0	0	0	0	1	2890,2259	0,000500000024	3,71709895	1,1022422446759366E-006	0,00039680721810753062	1,47497167E-006	0,00032200038833525472	-1,2014267422914939E-005	0,00032200038833525472
1	1	0	0	0	0	1	2930,2259	0,000500000024	3,72049785	1,0989600119404106E-006	0,00039562561429289146	1,47192429E-006	0,00032639462471618278	-1,2178222290401016E-005	0,00032639462471618278
1	1	0	0	0	0	1	2970,2259	0,000500000024	3,72257924	1,0945330605965058E-006	0,00039403191176882541	1,46681498E-006	0,00033078185746900198	-1,2341915843105874E-005	0,00033078185746900198
1	1	0	0	0	0	1	3010,2259	0,000500000024	3,72072697	1,1000587997049378E-006	0,00039602117789811405	1,47348669E-006	0,00033517667822063885	-1,2505892514248789E-005	0,00033517667822063885
1	1	0	0	0	0	1	3050,2259	0,000500000024	3,71513224	1,1030463739848022E-006	0,00039709670466603533	1,4752668E-006	0,00033958541260276826	-1,2670388321652458E-005	0,00033958541260276826
1	1	0	0	0	0	1	3090,2259	0,000500000024	3,70902181	1,1035636172374426E-006	0,00039728291224168992	1,47353103E-006	0,0003439919592998672	-1,2834802503586262E-005	0,0003439919592998672
1	1	0	0	0	0	1	3130,2259	0,000500000024	3,71201968	1,1065748629739069E-006	0,00039836696073420237	1,47874596E-006	0,0003484085865865863	-1,2999592805872298E-005	0,0003484085865865863
1	1	0	0	0	0	1	3170,2259	0,000500000024	3,71341348	1,1014367019492461E-006	0,00039651722271859616	1,47243236E-006	0,00035281620168730381	-1,3164046851381598E-005	0,00035281620168730381
1	1	0	0	0	0	1	3210,2259	0,000500000024	3,71742344	1,1019150813226587E-006	0,00039668943929737523	1,47466267E-006	0,00035720431735712512	-1,3327773346906896E-005	0,00035720431735712512
1	1	0	0	0	0	1	3250,2259	0,000500000024	3,72284651	1,09321451396358E-006	0,0003935572349689808	1,46515322E-006	0,00036158698360145997	-1,3491296517040464E-005	0,00036158698360145997
1	1	0	0	0	0	1	3290,2259	0,000500000024	3,73107648	1,0952456829529386E-006	0,00039428845582362202	1,47112041E-006	0,00036595545251026803	-1,3654289965497008E-005	0,00036595545251026803
1	1	0	0	0	0	1	3330,2259	0,000500000024	3,74344993	1,0952463893619197E-006	0,00039428871013086176	1,47600008E-006	0,00037034122292041293	-1,3817928956230546E-005	0,00037034122292041293
1	1	0	0	0	0	1	3370,2259	0,000500000024	3,75217628	1,1012766533773781E-006	0,0003964596052312681	1,48758636E-006	0,00037473860303740928	-1,3982001120736128E-005	0,00037473860303740928
1	1	0	0	0	0	1	3410,2259	0,000500000024	3,75771379	1,0960261402651667E-006	0,00039456942046312198	1,48267895E-006	0,0003791444826892103	-1,4146390414313019E-005	0,0003791444826892103
1	1	0	0	0	0	1	3450,2259	0,000500000024	3,75502133	1,1010254514937211E-006	0,00039636917255086707	1,48837466E-006	0,00038353921794108787	-1,431036389534496E-005	0,00038353921794108787
1	1	0	0	0	0	1	3490,2259	0,000500000024	3,75423861	1,1024468101321771E-006	0,00039688086167363763	1,48998549E-006	0,00038794165849094054	-1,4474624871404234E-005	0,00038794165849094054
1	1	0	0	0	0	1	3530,2259	0,000500000024	3,75101137	1,0944991426723493E-006	0,00039401970131582061	1,47797243E-006	0,00039233873970850336	-1,463868588357008E-005	0,00039233873970850336
1	1	0	0	0	0	1	3570,2259	0,000500000024	3,756778	1,1007604699285974E-006	0,00039627377918501274	1,48871266E-006	0,00039673006200314963	-1,480253202257895E-005	0,00039673006200314963
1	1	0	0	0	0	1	3610,2259	0,000500000024	3,77205396	1,1000128701392291E-006	0,00039600464325404115	1,49375091E-006	0,00040112334091838502	-1,4966451165732704E-005	0,00040112334091838502
1	1	0	0	0	0	1	3650,2259	0,000500000024	3,77713323	1,094608314608599E-006	0,00039405900321386336	1,48841332E-006	0,0004055223625045328	-1,5130584575659306E-005	0,0004055223625045328
1	1	0	0	0	0	1	3690,2259	0,000500000024	3,78463769	1,1018331136074267E-006	0,0003966599309191463	1,50121411E-006	0,00040992309551606342	-1,5294781841167974E-005	0,00040992309551606342
1	1	0	0	0	0	1	3730,2259	0,000500000024	3,79580808	1,1001156827842352E-006	0,00039604165580717837	1,50329811E-006	0,0004143171096659143	-1,545872841691377E-005	0,0004143171096659143
1	1	0	0	0	0	1	3770,2259	0,000500000024	3,79743123	1,0937080853861213E-006	0,00039373492068558438	1,49518132E-006	0,00041870629373941811	-1,5622494776016947E-005	0,00041870629373941811
2	1	0	1	0	0	1	3800,1719	3,79999971	3,79993272	2,1310684840298362E-011	0,000383592336815728	1,4576251E-006	0,00042198959905961888	-1,5744999311964589E-005	0,00042198959905961888
2	1	0	1	0	0	1	4280,1725	3,79996467	3,79951262	1,0555428614136568E-005	0,00031666286225799558	1,20316452E-006	0,00046757323828948819	-1,7445786179485782E-005	0,00046757323828948819
2	1	0	1	0	0	1	4760,1725	3,79996467	3,79949331	8,9086966576942349E-006	0,0002672609029666065	1,01545606E-006	0,00050547335744270138	-1,8859890582344326E-005	0,00050547335744270138
2	1	0	1	0	0	1	5240,1725	3,79996467	3,79945517	7,2955308573590528E-006	0,00021886592837062371	8,31571299E-007	0,00053723107180081722	-2,0044813603746704E-005	0,00053723107180081722
2	1	0	1	0	0	1	5720,1725	3,79996467	3,79941702	6,5232296826545485E-006	0,00019569689284897658	7,43534088E-007	0,00056383731260878541	-2,1037528220763222E-005	0,00056383731260878541
2	1	0	1	0	0	1	6200,1725	3,79996467	3,79947424	5,1884467348503827E-006	0,00015565340393003734	5,9140109E-007	0,00058612635415945459	-2,1869162328953776E-005	0,00058612635415945459
2	1	0	1	0	0	1	6680,1725	3,79996467	3,79949331	4,7180229058655341E-006	0,00014154068888962653	5,3778291E-007	0,00060559997733681805	-2,2595749392266032E-005	0,00060559997733681805
2	1	0	1	0	0	1	7160,1725	3,79996467	3,79951262	4,5690402616235392E-006	0,00013707120950825382	5,20803781E-007	0,00062401323008983245	-2,328277260936263E-005	0,00062401323008983245
2	1	0	1	0	0	1	7640,1725	3,79996467	3,79943609	4,1188570670418714E-006	0,00012356571350729013	4,69480028E-007	0,00064168886399857178	-2,3942274275640237E-005	0,00064168886399857178
2	1	0	1	0	0	1	8120,1724	3,79996467	3,7995317	3,855273942450393E-006	0,00011565821967380822	4,39447064E-007	0,0006582171877950153	-2,4558968259053242E-005	0,0006582171877950153
2	1	0	1	0	0	1	8600,1724	3,79996467	3,79934072	3,7976419522471789E-006	0,00011392925994677896	4,32856069E-007	0,00067325636514841907	-2,5120100186497741E-005	0,00067325636514841907
2	1	0	1	0	0	1	9080,1724	3,79996467	3,79951262	3,7067385721340243E-006	0,00011120215851036675	4,22514006E-007	0,00068766157328387597	-2,5657577870039965E-005	0,00068766157328387597
2	1	0	1	0	0	1	9560,1724	3,79996467	3,79930258	3,5588282024841389E-006	0,00010676484736714685	4,05631965E-007	0,0007020359888426121	-2,6193906641143677E-005	0,0007020359888426121
2	1	0	1	0	0	1	10040,1724	3,79996467	3,79945517	3,4410878810036563E-006	0,00010323263767996722	3,92227776E-007	0,00071594049350230886	-2,6712702404802304E-005	0,00071594049350230886
2	1	0	1	0	0	1	10520,1724	3,79996467	3,79949331	3,4229105256622592E-006	0,00010268731701312298	3,90159784E-007	0,0007294460697115671	-2,7216613611610067E-005	0,0007294460697115671
2	1	0	1	0	0	1	11000,1724	3,79996467	3,79956985	3,0990653759237024E-006	9,2971962403340595E-005	3,53253455E-007	0,00074251716123983232	-2,770431361079911E-005	0,00074251716123983232
2	1	0	1	0	0	1	11480,1724	3,79996467	3,79945517	3,421985211628352E-006	0,00010265955759176968	3,90050388E-007	0,000755709163675216	-2,8196524958499194E-005	0,000755709163675216
2	1	0	1	0	0	1	11960,1724	3,79996467	3,79937887	3,6090191692520518E-006	0,00010827057638841437	4,11360929E-007	0,00076948444585012659	-2,871049925750897E-005	0,00076948444585012659
2	1	0	1	0	0	1	12440,1724	3,79996467	3,79949331	3,3583741849625491E-006	0,00010075122676869106	3,8280362E-007	0,00078316253187070464	-2,9220847037318982E-005	0,00078316253187070464
2	1	0	1	0	0	1	12920,1724	3,79996467	3,79955077	3,3425007518086682E-006	0,00010027502376830915	3,81000035E-007	0,00079679922606436378	-2,9729650432414746E-005	0,00079679922606436378
2	1	0	1	0	0	1	13400,1724	3,79996467	3,79939795	3,4817169145852E-006	0,00010445150870217064	3,9685284E-007	0,00081025555181277696	-3,0231724038310432E-005	0,00081025555181277696
2	1	0	1	0	0	1	13880,1724	3,79996467	3,79949331	3,5561211547752064E-006	0,00010668363593489562	4,05343769E-007	0,00082478103596292979	-3,0773689381673786E-005	0,00082478103596292979
2	1	0	1	0	0	1	14360,1724	3,79996467	3,79939795	3,3504925841405363E-006	0,00010051477874116797	3,81895632E-007	0,00083799722058067533	-3,1266802999111072E-005	0,00083799722058067533
2	1	0	1	0	0	1	14840,1724	3,79996467	3,79943609	3,3406914603683494E-006	0,00010022074502444243	3,80782325E-007	0,0008517666187606048	-3,1780557758356992E-005	0,0008517666187606048
2	1	0	1	0	0	1	15320,1724	3,79996467	3,7993598	3,451225000591623E-006	0,00010353675127128818	3,93373369E-007	0,00086517127636098253	-3,2280703556180909E-005	0,00086517127636098253
2	1	0	1	0	0	1	15800,1724	3,79996467	3,79955077	3,3830700768980429E-006	0,00010149210353572581	3,85624389E-007	0,0008782947235750921	-3,2770357016401773E-005	0,0008782947235750921
2	1	0	1	0	0	1	16280,1723	3,79996467	3,79947424	3,288973849112608E-006	9,8669216667985536E-005	3,74891158E-007	0,00089129993195132864	-3,3255598826607795E-005	0,00089129993195132864
2	1	0	1	0	0	1	16760,1723	3,79996467	3,79956985	2,8618874415870122E-006	8,585662428709312E-005	3,26218242E-007	0,00090317021006533747	-3,3698494862800128E-005	0,00090317021006533747
2	1	0	1	0	0	1	17240,1723	3,79996467	3,7995317	2,6367308234374352E-006	7,910192566082537E-005	3,00550283E-007	0,00091434414239723699	-3,4115409301615104E-005	0,00091434414239723699
2	1	0	1	0	0	1	17720,1723	3,79996467	3,79945517	2,7046221785532854E-006	8,113866633896009E-005	3,08282722E-007	0,00092588555945004122	-3,4546035089455488E-005	0,00092588555945004122
2	1	0	1	0	0	1	18200,1723	3,79996467	3,79951262	2,6723259242479315E-006	8,0169778698068966E-005	3,0460609E-007	0,00093667002353424691	-3,4948417944303386E-005	0,00093667002353424691
2	1	0	1	0	0	1	18680,1723	3,79996467	3,7993598	2,6701746355373392E-006	8,0105240035969818E-005	3,04348617E-007	0,00094714346122722086	-3,5339195986314982E-005	0,00094714346122722086
2	1	0	1	0	0	1	19160,1723	3,79996467	3,79951262	2,4314944372182736E-006	7,2944833999705421E-005	2,77154811E-007	0,00095684846942512077	-3,5701302890700928E-005	0,00095684846942512077
2	1	0	1	0	0	1	19640,1723	3,79996467	3,79949331	2,3365128216904749E-006	7,0095385499372634E-005	2,66326936E-007	0,00096619566613672077	-3,6050059367450362E-005	0,00096619566613672077
2	1	0	1	0	0	1	20120,1723	3,79996467	3,79958892	2,3804950997873171E-006	7,1414853858252966E-005	2,71347091E-007	0,00097559106503492083	-3,6400614332590374E-005	0,00097559106503492083
2	1	0	1	0	0	1	20600,1723	3,79996467	3,79934072	2,200533676277713E-006	6,6016011087600013E-005	2,50817322E-007	0,00098491645061719885	-3,674855700677943E-005	0,00098491645061719885
2	1	0	1	0	0	1	21080,1723	3,79996467	3,79949331	1,9837889909018966E-006	5,9513670447600422E-005	2,26121799E-007	0,00099285165532610662	-3,7044630163464979E-005	0,00099285165532610662
2	1	0	1	0	0	1	21560,1723	3,79996467	3,79949331	2,0105156957326042E-006	6,031547160222921E-005	2,29168236E-007	0,0010007594281359933	-3,7339679799115475E-005	0,0010007594281359933
2	1	0	1	0	0	1	22040,1723	3,79996467	3,79947424	1,8706854968937958E-006	5,6120565586276422E-005	2,13228645E-007	0,001008867229216015	-3,7642192758465581E-005	0,001008867229216015
2	1	0	1	0	0	1	22520,1723	3,79996467	3,79945517	1,9273377559799328E-006	5,782013337943753E-005	2,19685006E-007	0,0010169558968771981	-3,7943991824233658E-005	0,0010169558968771981
2	1	0	1	0	0	1	23000,1723	3,79996467	3,79943609	2,1326133571648522E-006	6,3978401489544448E-005	2,43081843E-007	0,0010251177226542659	-3,824852051766752E-005	0,0010251177226542659
2	1	0	1	0	0	1	23480,1723	3,79996467	3,79937887	2,1744913356334714E-006	6,5234740858813786E-005	2,47851489E-007	0,0010333688516841443	-3,8556381235533254E-005	0,0010333688516841443
2	1	0	1	0	0	1	23960,1723	3,79996467	3,79951262	1,8565203076185018E-006	5,5695609902872582E-005	2,11616168E-007	0,0010411013574724853	-3,8844891422960851E-005	0,0010411013574724853
2	1	0	1	0	0	1	24440,1723	3,79996467	3,79945517	1,4776997324164794E-006	4,4330992509218285E-005	1,68433615E-007	0,0010474579723314621	-3,9082065269908851E-005	0,0010474579723314621
2	1	0	1	0	0	1	24920,1722	3,79996467	3,7995317	1,5847362143183293E-006	4,7542087005151123E-005	1,8063767E-007	0,0010536670986829168	-3,93137361223408E-005	0,0010536670986829168
2	1	0	1	0	0	1	25400,1722	3,79996467	3,79937887	1,7345788140918458E-006	5,2037365052781818E-005	1,97709667E-007	0,00106063547658494	-3,9573735670949018E-005	0,00106063547658494
2	1	0	1	0	0	1	25880,1722	3,79996467	3,79943609	1,5629713741265808E-006	4,6889141791493331E-005	1,78152291E-007	0,001066981965288913	-3,9810531697439066E-005	0,001066981965288913
2	1	0	1	0	0	1	26360,1722	3,79996467	3,79949331	1,6210750359816378E-006	4,8632251668249216E-005	1,84777917E-007	0,0010735219241790315	-4,0054546356697638E-005	0,0010735219241790315
2	1	0	1	0	0	1	26840,1722	3,79996467	3,79956985	1,7620435989223827E-006	5,2861308607673574E-005	2,00850238E-007	0,0010802986282245819	-4,0307394296012614E-005	0,0010802986282245819
2	1	0	1	0	0	1	27320,1722	3,79996467	3,79941702	1,6581561320292621E-006	4,9744684563146387E-005	1,89000801E-007	0,0010872386061844698	-4,0566334204595635E-005	0,0010872386061844698
2	1	0	1	0	0	1	27800,1722	3,79996467	3,79947424	1,6920316745265606E-006	5,0760950850369478E-005	1,92864931E-007	0,0010939606692719459	-4,0817143416299315E-005	0,0010939606692719459
2	1	0	1	0	0	1	28280,1722	3,79996467	3,7995317	1,7232892049861827E-006	5,1698676775511366E-005	1,96430761E-007	0,0011009752001778179	-4,1078864995534502E-005	0,0011009752001778179
2	1	0	1	0	0	1	28760,1722	3,79996467	3,79960799	1,7117388536609798E-006	5,1352166231560013E-005	1,95118105E-007	0,0011079256367354448	-4,1338195128460902E-005	0,0011079256367354448
2	1	0	1	0	0	1	29240,1722	3,79996467	3,79958892	1,6362570327017037E-006	4,908771157536553E-005	1,8651312E-007	0,0011144135536562173	-4,1580268031872006E-005	0,0011144135536562173
2	1	0	1	0	0	1	29720,1722	3,79996467	3,79951262	1,6277292325481891E-006	4,8831877567662669E-005	1,85537331E-007	0,0011211521536925118	-4,1831694259370259E-005	0,0011211521536925118
2	1	0	1	0	0	1	30200,1722	3,79996467	3,79941702	1,5681971604172483E-006	4,7045915382111443E-005	1,78747058E-007	0,0011275822528109059	-4,2071609902837754E-005	0,0011275822528109059
2	1	0	1	0	0	1	30680,1722	3,79996467	3,79949331	1,5560620871930016E-006	4,6681863180976397E-005	1,77367426E-007	0,0011342248092350651	-4,2319452614035232E-005	0,0011342248092350651
2	1	0	1	0	0	1	31160,1722	3,79996467	3,79945517	1,3607201023059413E-006	4,0821603563413286E-005	1,55099855E-007	0,0011397888909661846	-4,2527055984410752E-005	0,0011397888909661846
2	1	0	1	0	0	1	31640,1722	3,79996467	3,79945517	1,3510401675845666E-006	4,0531205518256147E-005	1,53996496E-007	0,0011451067430379069	-4,2725472195134861E-005	0,0011451067430379069
2	1	0	1	0	0	1	32120,1722	3,79996467	3,79945517	1,429097955361663E-006	4,2872939179920864E-005	1,62893812E-007	0,0011507539225039218	-4,2936176053725427E-005	0,0011507539225039218
2	1	0	1	0	0	1	32600,1722	3,79996467	3,79956985	1,5661091037212851E-006	4,6983273680474138E-005	1,78516231E-007	0,001156639087167921	-4,3155759460027277E-005	0,001156639087167921
2	1	0	1	0	0	1	33080,1721	3,79996467	3,7995317	1,4245893853028016E-006	4,2737681479478906E-005	1,62383174E-007	0,0011628192373137298	-4,3386349171267648E-005	0,0011628192373137298
2	1	0	1	0	0	1	33560,1722	3,79996467	3,7995317	1,4164696570846267E-006	4,2494089633387392E-005	1,61457635E-007	0,0011684053569716083	-4,3594774806320858E-005	0,0011684053569716083
2	1	0	1	0	0	1	34040,1722	3,79996467	3,79947424	1,4007244789653949E-006	4,2021734290690266E-005	1,59660502E-007	0,0011740299003111134	-4,3804634080596749E-005	0,0011740299003111134
2	1	0	1	0	0	1	34520,1722	3,79996467	3,79951262	1,3175239349239974E-006	3,952571797409753E-005	1,50178465E-007	0,00117956305307404	-4,401108344958455E-005	0,00117956305307404
2	1	0	1	0	0	1	35000,1722	3,79996467	3,79947424	1,3035145573820726E-006	3,910543664862263E-005	1,48580099E-007	0,0011851197778521374	-4,4218412322151283E-005	0,0011851197778521374
2	1	0	1	0	0	1	35480,1722	3,79996467	3,79939795	1,2830562488862192E-006	3,8491687394890221E-005	1,46245242E-007	0,0011904935246720466	-4,4418914041081542E-005	0,0011904935246720466
2	1	0	1	0	0	1	35960,1722	3,79996467	3,79945517	1,3732643072837491E-006	4,1197929141775354E-005	1,5652968E-007	0,0011960601343039885	-4,4626611730835539E-005	0,0011960601343039885
2	1	0	1	0	0	1	36440,1722	3,79996467	3,79947424	1,3629925786469432E-006	4,0889777283245152E-005	1,55359658E-007	0,0012015257896548976	-4,4830542680629734E-005	0,0012015257896548976
2	1	0	1	0	0	1	36920,1722	3,79996467	3,79943609	1,3826502942039901E-006	4,1479508748858099E-005	1,57598748E-007	0,0012070505018893952	-4,503667712215344E-005	0,0012070505018893952
2	1	0	1	0	0	1	37400,1722	3,79996467	3,79947424	1,2477914979823104E-006	3,7433744869743526E-005	1,42228544E-007	0,0012121945655345424	-4,5228609053021011E-005	0,0012121945655345424
2	1	0	1	0	0	1	37880,1722	3,79996467	3,7995317	1,2413690591695286E-006	3,7241071705718957E-005	1,41498631E-007	0,0012171264008282698	-4,5412622458753056E-005	0,0012171264008282698
2	1	0	1	0	0	1	38360,1722	3,79996467	3,79955077	1,251218231678927E-006	3,7536546880450547E-005	1,42622014E-007	0,0012222973918437219	-4,5605559086010944E-005	0,0012222973918437219
2	1	0	1	0	0	1	38840,1722	3,79996467	3,79945517	1,3088901395031421E-006	3,926670411195433E-005	1,49192076E-007	0,0012274925304123907	-4,5799396690946054E-005	0,0012274925304123907
2	1	0	1	0	0	1	39320,1722	3,79996467	3,79949331	1,3142636030450555E-006	3,9427908017911456E-005	1,4980607E-007	0,0012325454981201638	-4,5987929709910413E-005	0,0012325454981201638
2	1	0	1	0	0	1	39800,1722	3,79996467	3,79945517	1,258522171096628E-006	3,7755665062573434E-005	1,43450961E-007	0,001237857982348117	-4,6186145639166355E-005	0,001237857982348117
2	1	0	1	0	0	1	40280,1722	3,79996467	3,79956985	1,3723308624821458E-006	4,1169925797779411E-005	1,56428015E-007	0,0012430182568152307	-4,6378682417597184E-005	0,0012430182568152307
2	1	0	1	0	0	1	40760,1722	3,79996467	3,79939795	1,4346968241863278E-006	4,3040904645419898E-005	1,63529521E-007	0,0012486367720001592	-4,6588316773320883E-005	0,0012486367720001592
2	1	0	1	0	0	1	41240,1722	3,79996467	3,79960799	1,187341171412552E-006	3,5620235076028704E-005	1,3534293E-007	0,0012538474942821974	-4,6782735827554336E-005	0,0012538474942821974
2	1	0	1	0	0	1	41720,1722	3,79996467	3,79955077	1,2629212103878064E-006	3,788763624106297E-005	1,43956001E-007	0,0012587614408705805	-4,6966081781638362E-005	0,0012587614408705805
2	1	0	1	0	0	1	42200,1722	3,79996467	3,79945517	1,1279949360378826E-006	3,3839848018104845E-005	1,28572992E-007	0,0012634900638935395	-4,714251306432624E-005	0,0012634900638935395
2	1	0	1	0	0	1	42680,1722	3,79996467	3,79949331	1,1015558252544477E-006	3,30466746960792E-005	1,25560618E-007	0,0012679789726150472	-4,7310000284127654E-005	0,0012679789726150472
2	1	0	1	0	0	1	43160,1722	3,79996467	3,79951262	1,2267908554411707E-006	3,6803725594682842E-005	1,39836217E-007	0,0012726751757247326	-4,7485221936262259E-005	0,0012726751757247326
2	1	0	1	0	0	1	43640,1722	3,79996467	3,79955077	1,1751004554985987E-006	3,5253013599294106E-005	1,33945619E-007	0,0012772579485370576	-4,765621135149367E-005	0,0012772579485370576
2	1	0	1	0	0	1	44120,1722	3,79996467	3,79951262	1,1167752808665656E-006	3,3503258363592288E-005	1,27296047E-007	0,0012816852456109458	-4,7821399757884666E-005	0,0012816852456109458
2	1	0	1	0	0	1	44600,1722	3,79996467	3,7995317	1,1338043829421168E-006	3,4014131424907245E-005	1,29237776E-007	0,0012863765910878301	-4,7996440165208294E-005	0,0012863765910878301
2	1	0	1	0	0	1	45080,1722	3,79996467	3,79945517	1,2133195686426589E-006	3,639958699148025E-005	1,38298603E-007	0,0012910449305473246	-4,8170622187091206E-005	0,0012910449305473246
2	1	0	1	0	0	1	45560,1722	3,79996467	3,79943609	1,111928247655404E-006	3,3357847367528282E-005	1,26741014E-007	0,0012956433065104093	-4,8342193776856128E-005	0,0012956433065104093
2	1	0	1	0	0	1	46040,1722	3,79996467	3,79949331	1,2389043807498992E-006	3,7167131353267802E-005	1,41216262E-007	0,001300439761171041	-4,8521155949146182E-005	0,001300439761171041
2	1	0	1	0	0	1	46520,1722	3,79996467	3,79943609	1,191030768678641E-006	3,573092299380519E-005	1,35757361E-007	0,0013052456155939904	-4,8700468839206413E-005	0,0013052456155939904
2	1	0	1	0	0	1	47000,1722	3,79996467	3,7995317	1,1337008641783466E-006	3,4011025861999923E-005	1,29225967E-007	0,0013100636404261394	-4,8880235823597171E-005	0,0013100636404261394
2	1	0	1	0	0	1	47480,1722	3,79996467	3,79956985	1,2747188781163333E-006	3,8241566272259533E-005	1,45301499E-007	0,0013149357291820091	-4,9062020005671667E-005	0,0013149357291820091
2	1	0	1	0	0	1	47960,1722	3,79996467	3,79949331	1,2959060634879178E-006	3,8877181832223142E-005	1,47713592E-007	0,0013202177674278925	-4,9259099954401536E-005	0,0013202177674278925
2	1	0	1	0	0	1	48440,1722	3,79996467	3,79956985	1,190337931811137E-006	3,5710137887818803E-005	1,35683166E-007	0,001325051994973289	-4,9439471483808333E-005	0,001325051994973289
2	1	0	1	0	0	1	48920,1722	3,79996467	3,79951262	1,1739334796230246E-006	3,5218004323092096E-005	1,33811255E-007	0,0013297107749742843	-4,9613296829441798E-005	0,0013297107749742843
2	1	0	1	0	0	1	49400,1722	3,79996467	3,79939795	1,2667531915633014E-006	3,8002595676113683E-005	1,44386988E-007	0,0013346970017059357	-4,9799339652852858E-005	0,0013346970017059357
2	1	0	1	0	0	1	49880,1722	3,79996467	3,79951262	1,3298211783201549E-006	3,9894635275295098E-005	1,51580167E-007	0,0013400876359463594	-5,0000471464147891E-005	0,0013400876359463594
2	1	0	1	0	0	1	50360,1722	3,79996467	3,79951262	1,2143582966356106E-006	3,6430748831210765E-005	1,38419097E-007	0,0013452697226111734	-5,0193822085001722E-005	0,0013452697226111734
2	1	0	1	0	0	1	50840,1722	3,79996467	3,79955077	1,2189364634361181E-006	3,6568093834970157E-005	1,38942326E-007	0,0013501612178841872	-5,03763303503232E-005	0,0013501612178841872
2	1	0	1	0	0	1	51320,1722	3,79996467	3,79939795	1,2512023331530851E-006	3,7536069924676179E-005	1,42614468E-007	0,0013549297057316805	-5,055424904321328E-005	0,0013549297057316805
2	1	0	1	0	0	1	51800,1722	3,79996467	3,79956985	1,2644881384358973E-006	3,7934644082418138E-005	1,44135328E-007	0,0013600040549575453	-5,0743579835365382E-005	0,0013600040549575453
2	1	0	1	0	0	1	52280,1722	3,79996467	3,79945517	1,1821588495808758E-006	3,5464765421367994E-005	1,34746784E-007	0,0013647852869934878	-5,0921974031061248E-005	0,0013647852869934878
2	1	0	1	0	0	1	52760,1722	3,79996467	3,79943609	1,2983357731215568E-006	3,8950073121096538E-005	1,47988317E-007	0,001369804026942563	-5,110922996632887E-005	0,001369804026942563
2	1	0	1	0	0	1	53240,1722	3,79996467	3,79945517	1,1923023301815445E-006	3,5769069838821248E-005	1,3590298E-007	0,0013747633157139395	-5,1294267698223603E-005	0,0013747633157139395
2	1	0	1	0	0	1	53720,1722	3,79996467	3,79949331	1,164551384076895E-006	3,4936541457232467E-005	1,3274115E-007	0,0013795022454563277	-5,1471083538470899E-005	0,0013795022454563277
2	1	0	1	0	0	1	54200,1722	3,79996467	3,79951262	1,1749838686013418E-006	3,5249515992382912E-005	1,33930982E-007	0,0013842845112709939	-5,1649516305840877E-005	0,0013842845112709939
2	1	0	1	0	0	1	54680,1722	3,79996467	3,79945517	1,1824909580870502E-006	3,5474728676534682E-005	1,34784642E-007	0,0013888323140009818	-5,1819200940282522E-005	0,0013888323140009818
2	1	0	1	0	0	1	55160,1722	3,79996467	3,79945517	1,080720535031244E-006	3,2421615990547354E-005	1,23184478E-007	0,001393271421108093	-5,1984829994891814E-005	0,001393271421108093
2	1	0	1	0	0	1	55640,1722	3,79996467	3,79949331	1,1659536609685624E-006	3,4978609763904141E-005	1,32900993E-007	0,0013978171386066091	-5,2154436826543635E-005	0,0013978171386066091
2	1	0	1	0	0	1	56120,1722	3,79996467	3,79947424	1,2496763980792086E-006	3,7490291872545152E-005	1,42443398E-007	0,0014025540036138627	-5,2331175628747002E-005	0,0014025540036138627
2	1	0	1	0	0	1	56600,1722	3,79996467	3,79955077	1,1692525004169866E-006	3,5077574947172518E-005	1,3327903E-007	0,0014072271978853166	-5,2505538790191475E-005	0,0014072271978853166
2	1	0	1	0	0	1	57080,1722	3,79996467	3,79951262	1,1154228189988469E-006	3,3462684507636294E-005	1,27141888E-007	0,0014116149329268096	-5,2669251083962086E-005	0,0014116149329268096
2	1	0	1	0	0	1	57560,1722	3,79996467	3,79945517	1,132850451549479E-006	3,3985513483181414E-005	1,29126434E-007	0,001415991801620321	-5,2832557939679546E-005	0,001415991801620321
2	1	0	1	0	0	1	58040,1722	3,79996467	3,79955077	1,2762306841859123E-006	3,8286920454262426E-005	1,45473095E-007	0,0014209761346206618	-5,3018530105429254E-005	0,0014209761346206618
2	1	0	1	0	0	1	58520,1722	3,79996467	3,79949331	1,2168540636376973E-006	3,6505621841133901E-005	1,38702859E-007	0,0014258940446214958	-5,3202023939760685E-005	0,0014258940446214958
2	1	0	1	0	0	1	59000,1722	3,79996467	3,7995317	1,1532935682673093E-006	3,4598806983573978E-005	1,31459259E-007	0,0014306808380702664	-5,3380625639246554E-005	0,0014306808380702664
2	1	0	1	0	0	1	59480,1722	3,79996467	3,79945517	1,0496046842449686E-006	3,1488140468697824E-005	1,19637775E-007	0,0014351568725961237	-5,354763250549872E-005	0,0014351568725961237
2	1	0	1	0	0	1	59960,1722	3,79996467	3,79943609	1,0810766706751894E-006	3,2432300059845818E-005	1,23224453E-007	0,0014396107522255795	-5,3713812742778566E-005	0,0014396107522255795
2	1	0	1	0	0	1	60440,1722	3,79996467	3,79945517	1,1320431430945571E-006	3,3961294229578867E-005	1,29034419E-007	0,0014443045743960627	-5,388894555887033E-005	0,0014443045743960627
2	1	0	1	0	0	1	60920,1722	3,79996467	3,79949331	1,0398162821025179E-006	3,119448840497127E-005	1,18523253E-007	0,0014486297530458029	-5,4050323789556672E-005	0,0014486297530458029
2	1	0	1	0	0	1	61400,1722	3,79996467	3,79949331	1,0169091934637008E-006	3,050727574708679E-005	1,15912194E-007	0,0014527799847919875	-5,4205174516052749E-005	0,0014527799847919875
2	1	0	1	0	0	1	61880,1722	3,79996467	3,79956985	1,1527445339975581E-006	3,4582335955512122E-005	1,31397996E-007	0,001457060426152304	-5,4364883538320774E-005	0,001457060426152304
2	1	0	1	0	0	1	62360,1722	3,79996467	3,79956985	1,1883678888053611E-006	3,5651036597755603E-005	1,35458606E-007	0,0014616505799509594	-5,4536148348076026E-005	0,0014616505799509594
2	1	0	1	0	0	1	62840,1722	3,79996467	3,79949331	1,1048585556880602E-006	3,3145756608903021E-005	1,25937078E-007	0,0014661232951665274	-5,4703031366398426E-005	0,0014661232951665274
2	1	0	1	0	0	1	63320,1722	3,79996467	3,79947424	1,134196204275996E-006	3,4025886064901728E-005	1,2928048E-007	0,0014706641426756474	-5,4872456492198106E-005	0,0014706641426756474
2	1	0	1	0	0	1	63800,1722	3,79996467	3,79941702	1,0757438394905674E-006	3,2272315124605152E-005	1,22615987E-007	0,0014750901042553658	-5,5037595069506035E-005	0,0014750901042553658
2	1	0	1	0	0	1	64280,1722	3,79996467	3,79956985	1,1398155729507253E-006	3,41944671248296E-005	1,2992426E-007	0,0014796635681191274	-5,5208237155350534E-005	0,0014796635681191274
2	1	0	1	0	0	1	64760,1722	3,79996467	3,79951262	1,1196731177517325E-006	3,3590193469985363E-005	1,27626365E-007	0,0014840789311599146	-5,5372980286921056E-005	0,0014840789311599146
2	1	0	1	0	0	1	65240,1722	3,79996467	3,79949331	1,175553400747137E-006	3,5266601956724947E-005	1,33995215E-007	0,0014888874622603322	-5,5552393047416474E-005	0,0014888874622603322
2	1	0	1	0	0	1	65720,1726	3,79996467	3,79958892	1,200969094052021E-006	3,602902130354761E-005	1,36895466E-007	0,0014936739528119062	-5,5730983445400685E-005	0,0014936739528119062
2	1	0	1	0	0	1	66200,1733	3,79996467	3,7995317	1,1402287030309709E-006	3,4206812178830624E-005	1,29969862E-007	0,0014983631241408765	-5,5905942732342477E-005	0,0014983631241408765
2	1	0	1	0	0	1	66680,1739	3,79996467	3,79945517	1,1624811103964702E-006	3,487438344063856E-005	1,32503658E-007	0,0015030286520870445	-5,6080019852883034E-005	0,0015030286520870445
2	1	0	1	0	0	1	67160,1746	3,79996467	3,79956985	1,2012602161311683E-006	3,6037754944658502E-005	1,36927966E-007	0,0015077220203587456	-5,625513573340096E-005	0,0015077220203587456
2	1	0	1	0	0	1	67640,1753	3,79996467	3,79947424	1,1862654616502621E-006	3,558791294846169E-005	1,35215359E-007	0,001512444751716209	-5,6431347190127763E-005	0,001512444751716209
2	1	0	1	0	0	1	68120,1760	3,79996467	3,79934072	1,1905037472826808E-006	3,571506133342697E-005	1,35693682E-007	0,0015171602165852042	-5,6607287524399923E-005	0,0015171602165852042
2	1	0	1	0	0	1	68600,1767	3,79996467	3,7995317	1,1072010970948315E-006	3,3215985402861408E-005	1,26205194E-007	0,001521767231740153	-5,6779181454028806E-005	0,001521767231740153
2	1	0	1	0	0	1	69080,1774	3,79996467	3,7995317	1,1029818902124034E-006	3,3089409376985254E-005	1,25724256E-007	0,0015262513249689379	-5,6946489001322253E-005	0,0015262513249689379
2	1	0	1	0	0	1	69560,1781	3,79996467	3,79955077	1,0529675842634054E-006	3,1588982348234368E-005	1,20023941E-007	0,0015305631709215776	-5,7107369771153766E-005	0,0015305631709215776
2	1	0	1	0	0	1	70040,1787	3,79996467	3,79951262	1,0855093871792986E-006	3,2565235043736966E-005	1,23732022E-007	0,0015349060493435469	-5,7269408404139584E-005	0,0015349060493435469
2	1	0	1	0	0	1	70520,1794	3,79996467	3,79951262	1,126086831949389E-006	3,3782556650663712E-005	1,28357257E-007	0,0015393198254108931	-5,7434092323597306E-005	0,0015393198254108931
2	1	0	1	0	0	1	71000,1801	3,79996467	3,79947424	1,019524844206924E-006	3,0585701591711437E-005	1,16209584E-007	0,0015434243586026131	-5,7587237975583955E-005	0,0015434243586026131
2	1	0	1	0	0	1	71480,1808	3,79996467	3,79941702	1,0583671925270816E-006	3,1750970374951955E-005	1,20635178E-007	0,001547396479305919	-5,7735443139597376E-005	0,001547396479305919
2	1	0	1	0	0	1	71960,1815	3,79996467	3,7995317	1,0783033127385502E-006	3,2349053126204544E-005	1,2291126E-007	0,0015517004323512227	-5,7896029414444083E-005	0,0015517004323512227
2	1	0	1	0	0	1	72440,1822	3,79996467	3,79949331	1,0168040181109366E-006	3,0504076922047578E-005	1,15900036E-007	0,0015557376158153952	-5,8046662157543258E-005	0,0015557376158153952
2	1	0	1	0	0	1	72920,1829	3,79996467	3,79951262	9,2355644994127782E-007	2,770665387360479E-005	1,05271781E-007	0,0015595491848027098	-5,818887692116896E-005	0,0015595491848027098
2	1	0	1	0	0	1	73400,1836	3,79996467	3,7995317	9,0932413688307802E-007	2,7279685088570838E-005	1,03650031E-007	0,0015631651832275475	-5,8323794684161254E-005	0,0015631651832275475
2	1	0	1	0	0	1	73880,1842	3,79996467	3,79947424	9,7159081743264614E-007	2,9147682831804832E-005	1,10745873E-007	0,0015670977839382883	-5,847052530411689E-005	0,0015670977839382883
2	1	0	1	0	0	1	74360,1849	3,79996467	3,79949331	1,0611399540884651E-006	3,1834153088782822E-005	1,20953658E-007	0,0015712880148502925	-5,8626868453269133E-005	0,0015712880148502925
2	1	0	1	0	0	1	74840,1856	3,79996467	3,79945517	1,0354304247919749E-006	3,1062868313062502E-005	1,18021973E-007	0,0015754614696320112	-5,8782585662444698E-005	0,0015754614696320112
2	1	0	1	0	0	1	75320,1863	3,79996467	3,79949331	1,0318076036179618E-006	3,0954183836782099E-005	1,17610213E-007	0,0015795357564597341	-5,893460278192393E-005	0,0015795357564597341
2	1	0	1	0	0	1	75800,1870	3,79996467	3,79939795	8,8002923616401549E-007	2,6400839328845926E-005	1,00307297E-007	0,0015832100076291558	-5,9071694033138291E-005	0,0015832100076291558
2	1	0	1	0	0	1	76280,1877	3,79996467	3,79945517	9,2225945611808896E-007	2,7667744119793251E-005	1,05122353E-007	0,0015867725802043229	-5,9204618405847539E-005	0,0015867725802043229
2	1	0	1	0	0	1	76760,1884	3,79996467	3,79962707	9,2282969595721114E-007	2,768485129189761E-005	1,05192107E-007	0,0015905679687366509	-5,9346229454942861E-005	0,0015905679687366509
2	1	0	1	0	0	1	77240,1890	3,79996467	3,79949331	9,3875223522894029E-007	2,8162526787344835E-005	1,07003331E-007	0,0015942736392518515	-5,9484493004192E-005	0,0015942736392518515
2	1	0	1	0	0	1	77720,1897	3,79996467	3,79945517	1,0309695554582909E-006	3,0929042438361862E-005	1,17513508E-007	0,001598358339838063	-5,9636898675001894E-005	0,001598358339838063
2	1	0	1	0	0	1	78200,1904	3,79996467	3,7995317	1,0035507210921221E-006	3,0106478579879405E-005	1,14390517E-007	0,0016022861737132726	-5,9783451437914778E-005	0,0016022861737132726
2	1	0	1	0	0	1	78680,1911	3,79996467	3,79955077	1,0412670763471018E-006	3,1237967615718368E-005	1,18690245E-007	0,0016062344129014278	-5,9930765550488896E-005	0,0016062344129014278
2	1	0	1	0	0	1	79160,1918	3,79996467	3,79945517	9,6629720105896563E-007	2,898887456926329E-005	1,10141926E-007	0,0016101406161909133	-6,0076511247165773E-005	0,0016101406161909133
2	1	0	1	0	0	1	79640,1925	3,79996467	3,79937887	9,9572989202570419E-007	2,9871854033783597E-005	1,13494494E-007	0,0016140273264080189	-6,022152963110345E-005	0,0016140273264080189
2	1	0	1	0	0	1	80120,1932	3,79996467	3,79951262	9,1763147167404838E-007	2,7528904774347405E-005	1,04596424E-007	0,0016179152781498563	-6,0366594337998118E-005	0,0016179152781498563
2	1	0	1	0	0	1	80600,1938	3,79996467	3,79943609	9,0445837706046298E-007	2,7133712501175427E-005	1,03092809E-007	0,0016213697599734419	-6,0495485699436301E-005	0,0016213697599734419
2	1	0	1	0	0	1	81080,1945	3,79996467	3,79955077	9,8255715003613709E-007	2,9476672342430202E-005	1,11998112E-007	0,0016250731703755558	-6,0633664920827418E-005	0,0016250731703755558
3	1	0	1	0	0	1	81295,6317	0	3,71278334	0	0	0	0,00162614600196024	-6,0673693709689395E-005	0,00162614600196024
2	1	0	0	0	0	1	81374,7127	3,79996467	3,79943609	1,1927037596151168E-006	5,4295537620104909E-005	2,06292427E-007	0,0016273387057198554	-6,0718195090567898E-005	0,0016273387057198554