File: Experimentelles/Rohdaten/Batterietests/AlteZelle/Batterietest Li vs LATP/ZView-Export/LATP_LP30_Li_Entladen_C01.txt
EC-Lab ASCII FILE
Nb header lines : 68

Galvanostatic Cycling with Potential Limitation

Run on channel : 1 (SN 6985)
Grouped channel(s) : 1
User :
CE vs. WE compliance from -10 V to 10 V
Electrode connection : standard
Ewe ctrl range : min = 0,00 V, max = 5,00 V
Acquisition started on : 07.07.2015 15:32:27
Saved on :
	File : LATP_LP30_Li_Entladen_C01.mpr
	Directory : C:\Hupfer\Batterietest Li vs LATP\
	Host : 192.168.0.2
Device : VMP3 (SN 0324)
Address : 192.168.0.1
EC-Lab for windows v10.33 (software)
Internet server v10.33 (firmware)
Command interpretor v10.32 (firmware)
Electrode material :
Initial state :
Electrolyte :
Comments :
Mass of active material : 0,001 mg
 at x = 0,000
Molecular weight of active material (at x = 0) : 0,001 g/mol
Atomic weight of intercalated ion : 0,001 g/mol
Acquisition started at : xo = 0,000
Number of e- transfered per intercalated ion : 1
for DX = 1, DQ = 26,801 mA.h
Battery capacity : 0,000 A.h
Electrode surface area : 0,001 cm²
Characteristic mass : 0,001 g
Ns                  0                   1
Set I/C             I                   I
Is                  0,000               -500,000
unit Is             mA                  nA
vs.                 <None>              <None>
N                   1                   1
I sign              > 0                 > 0
t1 (h:m:s)          0:00:0,0000         10:00:0,0000
I Range             100 µA              100 µA
Bandwidth           5                   5
dE1 (mV)            0,00                10,00
dt1 (s)             0,0000              10,0000
EM (V)              0,000               1,000
tM (h:m:s)          0:00:0,0000         24:00:0,0000
Im                  0,000               0,000
unit Im             mA                  mA
E range min (V)     0,000               0,000
E range max (V)     5,000               5,000
dq                  0,000               1,000
unit dq             mA.h                mA.h
dtq (s)             0,0000              120,0000
dQM                 0,000               0,000
unit dQM            mA.h                mA.h
dxM                 0,000               0,000
tR (h:m:s)          0:00:10,0000        0:15:0,0000
dER/dt (mV/h)       0,0                 0,1
dER (mV)            0,00                5,00
dtR (s)             1,0000              120,0000
EL (V)              pass                1,100
goto Ns'            0                   0
nc cycles           0                   0

mode	ox/red	error	control changes	Ns changes	counter inc.	Ns	time/s	control/V/mA	Ewe/V	dq/mA.h	<I>/mA	P/W	(Q-Qo)/mA.h	x	Capacity/mA.h
3	1	0	0	0	0	0	0,0000	0	3,76500797	0	0	0	0	0	0
1	0	0	0	0	0	1	12,8766	-0,000500000024	3,64425182	-5,2048418884320806E-008	-0,00050505205584104627	1,84053692E-006	-4,0333585096070438E-007	1,504900289016303E-008	4,0333585096070438E-007
1	0	0	0	0	0	1	25,3304	-0,000500000024	3,42382026	-1,1787156094214878E-007	-0,00050492340565374323	1,72876696E-006	-2,1495148162001795E-006	8,0201287845836237E-008	2,1495148162001795E-006
1	0	0	0	0	0	1	73,6542	-0,000500000024	3,20336962	-6,9747639345910605E-007	-0,00050513299265386496	1,61812773E-006	-8,9302092515443072E-006	3,3319811396915501E-007	8,9302092515443072E-006
1	0	0	0	0	0	1	273,9704	-0,000500000024	3,01513195	-1,4028163060041456E-006	-0,00050501388291921613	1,52268353E-006	-3,7025444295532205E-005	1,3814691079056102E-006	3,7025444295532205E-005
1	0	0	0	0	0	1	493,9704	-0,000500000024	2,90445781	-1,4031461168035294E-006	-0,00050513261480999386	1,46713637E-006	-6,7898558339686131E-005	2,5333865022362982E-006	6,7898558339686131E-005
1	0	0	0	0	0	1	713,9704	-0,000500000024	2,82040215	-1,4031843927999338E-006	-0,00050514639416904749	1,42471595E-006	-9,8773076097671757E-005	3,68535627101736E-006	9,8773076097671757E-005
1	0	0	0	0	0	1	933,9704	-0,000500000024	2,74927354	-1,4036580104891779E-006	-0,00050531689654148256	1,38925441E-006	-0,00012965512642925992	4,8376070902471853E-006	0,00012965512642925992
1	0	0	0	0	0	1	1153,9704	-0,000500000024	2,68022633	-1,4035976471916203E-006	-0,00050529516575381293	1,35430537E-006	-0,00016052928355841299	5,9895634034816333E-006	0,00016052928355841299
1	0	0	0	0	0	1	1373,9704	-0,000500000024	2,61713672	-1,403477129988864E-006	-0,00050525177955972454	1,32231298E-006	-0,00019140323743330851	7,141512133026455E-006	0,00019140323743330851
1	0	0	0	0	0	1	1593,9704	-0,000500000024	2,55574656	-1,403579233537635E-006	-0,00050528853683821069	1,29138948E-006	-0,00022227639809419626	8,2934312666901594E-006	0,00022227639809419626
1	0	0	0	0	0	1	1813,9704	-0,000500000024	2,52643609	-1,4028142924329992E-006	-0,00050501315803358515	1,27588351E-006	-0,00025314562886839184	9,4452037709975885E-006	0,00025314562886839184
1	0	0	0	0	0	1	2033,9703	-0,000500000024	2,51902723	-1,402687449913679E-006	-0,00050496749472547635	1,27202691E-006	-0,00028400916446153933	1,0596763780442864E-005	0,00028400916446153933
1	0	0	0	0	0	1	2253,9703	-0,000500000024	2,50608087	-1,402926962065976E-006	-0,00050505371910248141	1,26570546E-006	-0,00031488097661620275	1,174863259952625E-005	0,00031488097661620275
1	0	0	0	0	0	1	2473,9703	-0,000500000024	2,49090028	-1,4024930686864534E-006	-0,00050489751748190739	1,25764939E-006	-0,00034574527241459213	1,2900220973251205E-005	0,00034574527241459213
1	0	0	0	0	0	1	2693,9703	-0,000500000024	2,46731806	-1,4042082858472392E-006	-0,00050551499567538899	1,24726625E-006	-0,00037661579211082886	1,4052041568972963E-005	0,00037661579211082886
1	0	0	0	0	0	1	2913,9703	-0,000500000024	2,43584967	-1,4032861775227098E-006	-0,00050518303667017254	1,23054997E-006	-0,0004074955204726928	1,5204205752390458E-005	0,0004074955204726928
1	0	0	0	0	0	1	3133,9703	-0,000500000024	2,40071511	-1,4039861256896982E-006	-0,00050543501801665389	1,21340554E-006	-0,00043837147689645126	1,6356229199725811E-005	0,00043837147689645126
1	0	0	0	0	0	1	3353,9703	-0,000500000024	2,37428784	-1,4037020120336414E-006	-0,0005053327370978896	1,19980541E-006	-0,00046925499045784608	1,7508534614027056E-005	0,00046925499045784608
1	0	0	0	0	0	1	3573,9703	-0,000500000024	2,35230947	-1,4033138851324718E-006	-0,00050519301140993875	1,18837033E-006	-0,00050012729912972941	1,8660421958835494E-005	0,00050012729912972941
1	0	0	0	0	0	1	3793,9703	-0,000500000024	2,33243179	-1,403190965702783E-006	-0,00050514876041413286	1,17822503E-006	-0,00053100249318797197	1,9812416961288435E-005	0,00053100249318797197
1	0	0	0	0	0	1	4013,9703	-0,000500000024	2,31169462	-1,4037806479480222E-006	-0,00050536104602778182	1,16824037E-006	-0,00056187349653970099	2,0964255602846896E-005	0,00056187349653970099
1	0	0	0	0	0	1	4233,9703	-0,000500000024	2,29641867	-1,4043580999164582E-006	-0,00050556892209094579	1,16099795E-006	-0,00059275529421253901	2,211649699503905E-005	0,00059275529421253901
1	0	0	0	0	0	1	4453,9703	-0,000500000024	2,28419805	-1,4040285357914398E-006	-0,00050545027900450272	1,1545485E-006	-0,00062363701116569293	2,3268735375471264E-005	0,00062363701116569293
1	0	0	0	0	0	1	4673,9703	-0,000500000024	2,26960945	-1,4034090619631266E-006	-0,00050522726842360986	1,14666864E-006	-0,0006545123486086999	2,442073572780255E-005	0,0006545123486086999
1	0	0	0	0	0	1	4893,9703	-0,000500000024	2,2561667	-1,4029905070524869E-006	-0,00050507658865395526	1,13953695E-006	-0,00068537821910402342	2,5572382855587315E-005	0,00068537821910402342
1	0	0	0	0	0	1	5113,9703	-0,000500000024	2,24132991	-1,4038289597115686E-006	-0,00050537843161487917	1,13271983E-006	-0,00071625048455496755	2,6724268587764403E-005	0,00071625048455496755
1	0	0	0	0	0	1	5333,9703	-0,000500000024	2,22565293	-1,4036340488302006E-006	-0,00050530826369673709	1,12464079E-006	-0,00074713230414151872	2,7876510797586656E-005	0,00074713230414151872
1	0	0	0	0	0	1	5553,9703	-0,000500000024	2,20896411	-1,403143785934339E-006	-0,00050513176905209018	1,11581789E-006	-0,00077801437239156083	2,9028762285378093E-005	0,00077801437239156083
1	0	0	0	0	0	1	5773,9703	-0,000500000024	2,1912632	-1,4036611212876675E-006	-0,00050531800978154323	1,10728479E-006	-0,00080888727933464384	3,0180671952489376E-005	0,00080888727933464384
1	0	0	0	0	0	1	5993,9703	-0,000500000024	2,17216825	-1,4035024708880682E-006	-0,0005052608956369959	1,0975117E-006	-0,00083978001467328755	3,1333321443698592E-005	0,00083978001467328755
1	0	0	0	0	0	1	6213,9703	-0,000500000024	2,15229034	-1,4039694445447014E-006	-0,00050542900615541933	1,08783001E-006	-0,00087066825847724915	3,2485803349709882E-005	0,00087066825847724915
1	0	0	0	0	0	1	6433,9703	-0,000500000024	2,1318779	-1,4041486276934546E-006	-0,00050549351208975136	1,0776505E-006	-0,00090155641424126989	3,3638281970832602E-005	0,00090155641424126989
1	0	0	0	0	0	1	6653,9703	-0,000500000024	2,11135101	-1,4035668639181597E-006	-0,0005052840771281095	1,06683206E-006	-0,00093245207232931571	3,4791040513751686E-005	0,00093245207232931571
1	0	0	0	0	0	1	6873,9703	-0,000500000024	2,09055662	-1,4046154951663792E-006	-0,00050566158438203923	1,05711422E-006	-0,00096334220632426714	3,5943592945330195E-005	0,00096334220632426714
1	0	0	0	0	0	1	7093,9703	-0,000500000024	2,06964755	-1,4044227048903445E-006	-0,00050559217988182637	1,04639764E-006	-0,00099424445027929549	3,709659721580119E-005	0,00099424445027929549
1	0	0	0	0	0	1	7313,9703	-0,000500000024	2,04854774	-1,4055455906782301E-006	-0,0005059964187703593	1,03655782E-006	-0,0010251522477356618	3,8249808694873862E-005	0,0010251522477356618
1	0	0	0	0	0	1	7533,9703	-0,000500000024	2,02819252	-1,4047250911179515E-006	-0,00050570103892508288	1,02565912E-006	-0,001056056000089553	3,9402869245734502E-005	0,001056056000089553
1	0	0	0	0	0	1	7753,9703	-0,000500000024	2,00871587	-1,4042447934916707E-006	-0,00050552813177752845	1,01546243E-006	-0,001086955677301711	4,0555777747577978E-005	0,001086955677301711
1	0	0	0	0	0	1	7973,9702	-0,000500000024	1,98996449	-1,403961067670025E-006	-0,00050542599048049926	1,00577972E-006	-0,0011178504470324963	4,1708503144693267E-005	0,0011178504470324963
1	0	0	0	0	0	1	8193,9702	-0,000500000024	1,9719007	-1,4045986016927702E-006	-0,00050565550273220205	9,97102461E-007	-0,0011487403742054485	4,2861047859464902E-005	0,0011487403742054485
1	0	0	0	0	0	1	8413,9702	-0,000500000024	1,95425701	-1,4044161667989102E-006	-0,00050558982616888141	9,8805242E-007	-0,0011796411693208086	4,4013998071779898E-005	0,0011796411693208086
1	0	0	0	0	0	1	8633,9702	-0,000500000024	1,93605959	-1,40486928622704E-006	-0,00050575294916498323	9,79167794E-007	-0,0012105477563486472	4,5167164388136762E-005	0,0012105477563486472
1	0	0	0	0	0	1	8853,9702	-0,000500000024	1,91877866	-1,4050885481345984E-006	-0,00050583188345265997	9,70579435E-007	-0,0012414548808909355	4,6320350759880448E-005	0,0012414548808909355
1	0	0	0	0	0	1	9073,9702	-0,000500000024	1,90237617	-1,4051191889933154E-006	-0,00050584291416193165	9,62303488E-007	-0,0012723678156177738	4,7473753917421562E-005	0,0012723678156177738
1	0	0	0	0	0	1	9293,9702	-0,000500000024	1,88591635	-1,4049722378290931E-006	-0,00050579001174217101	9,53877702E-007	-0,0013032885764023373	4,862744907569865E-005	0,0013032885764023373
1	0	0	0	0	0	1	9513,9702	-0,000500000024	1,87008667	-1,4060441236587293E-006	-0,000506175890645512	9,46592763E-007	-0,0013342230163278787	4,9781654621117434E-005	0,0013342230163278787
1	0	0	0	0	0	1	9733,9702	-0,000500000024	1,85456252	-1,4052563514560461E-006	-0,00050589229264911251	9,38208871E-007	-0,0013651394698427331	5,0935189069370496E-005	0,0013651394698427331
1	0	0	0	0	0	1	9953,9702	-0,000500000024	1,83924842	-1,4054935312112018E-006	-0,00050597767736200224	9,30618626E-007	-0,001396066735877315	5,2089126947272179E-005	0,001396066735877315
1	0	0	0	0	0	1	10173,9702	-0,000500000024	1,82611108	-1,4058694283497365E-006	-0,00050611300033351315	9,24218568E-007	-0,0014269923085387331	5,3243001643144346E-005	0,0014269923085387331
1	0	0	0	0	0	1	10393,9702	-0,000500000024	1,81476879	-1,4053764075021414E-006	-0,00050593551282623008	9,1815599E-007	-0,0014579168317910896	5,4396837184153498E-005	0,0014579168317910896
1	0	0	0	0	0	1	10613,9702	-0,000500000024	1,8040756	-1,4057670781136645E-006	-0,00050607615424808115	9,12999667E-007	-0,0014888366064969082	5,5550495550506822E-005	0,0014888366064969082
1	0	0	0	0	0	1	10833,9702	-0,000500000024	1,79349303	-1,4061524473492885E-006	-0,00050621488717458534	9,07892854E-007	-0,0015197595268147536	5,6704271283874182E-005	0,0015197595268147536
1	0	0	0	0	0	1	11053,9702	-0,000500000024	1,78079498	-1,4058291739687168E-006	-0,00050609850875617062	9,01257692E-007	-0,0015506877455296851	5,7858244707560602E-005	0,0015506877455296851
1	0	0	0	0	0	1	11273,9702	-0,000500000024	1,76786768	-1,4052444412761058E-006	-0,00050588800498428198	8,94343032E-007	-0,001581609578728487	5,901197987905481E-005	0,001581609578728487
1	0	0	0	0	0	1	11493,9702	-0,000500000024	1,75492132	-1,4059198261367984E-006	-0,0005061311435370752	8,88220313E-007	-0,001612530498689913	6,0165680976434637E-005	0,001612530498689913
1	0	0	0	0	0	1	11713,9702	-0,000500000024	1,74220407	-1,405495510753503E-006	-0,0005059783899972393	8,81517622E-007	-0,0016434564076965088	6,1319568221797632E-005	0,0016434564076965088
1	0	0	0	0	0	1	11933,9702	-0,000500000024	1,73042262	-1,4049260453094677E-006	-0,00050577338243490451	8,75201692E-007	-0,0016743673542254051	6,2472897197000371E-005	0,0016743673542254051
1	0	0	0	0	0	1	12153,9702	-0,000500000024	1,71942389	-1,4048708759461683E-006	-0,00050575352146387635	8,69604662E-007	-0,0017052834009530672	6,3626416467476352E-005	0,0017052834009530672
1	0	0	0	0	0	1	12373,9702	-0,000500000024	1,70955181	-1,4052339799721571E-006	-0,00050588423891481485	8,64835329E-007	-0,0017362018567687507	6,4780025624265472E-005	0,0017362018567687507
1	0	0	0	0	0	1	12593,9702	-0,000500000024	1,70015717	-1,4048135519357555E-006	-0,00050573288481987782	8,59825377E-007	-0,0017671156485380608	6,5933460759213517E-005	0,0017671156485380608
1	0	0	0	0	0	1	12813,9702	-0,000500000024	1,6909343	-1,4045778557903962E-006	-0,00050564803420652122	8,55017618E-007	-0,0017980190674389037	6,7086508868492582E-005	0,0017980190674389037
1	0	0	0	0	0	1	13033,9702	-0,000500000024	1,68209338	-1,4047830169212019E-006	-0,00050572189221450547	8,50671427E-007	-0,0018289244305011162	6,8239629517046298E-005	0,0018289244305011162
1	0	0	0	0	0	1	13253,9702	-0,000500000024	1,6731379	-1,4046264165307446E-006	-0,0005056655160732583	8,46048124E-007	-0,0018598322523375706	6,9392841905772838E-005	0,0018598322523375706
1	0	0	0	0	0	1	13473,9702	-0,000500000024	1,66425872	-1,4055869048623006E-006	-0,00050601129187680486	8,42133716E-007	-0,0018907439762148867	7,0546199884890278E-005	0,0018907439762148867
1	0	0	0	0	0	1	13693,9702	-0,000500000024	1,6554178	-1,404806553842112E-006	-0,00050573036550613568	8,37195046E-007	-0,0019216522372140694	7,1699428659368691E-005	0,0019216522372140694
1	0	0	0	0	0	1	13913,9702	-0,000500000024	1,64627135	-1,4049851726902288E-006	-0,00050579466829223629	8,32675255E-007	-0,001952549961887409	7,2852264309363622E-005	0,001952549961887409
1	0	0	0	0	0	1	14133,9702	-0,000500000024	1,6375258	-1,4049270347362227E-006	-0,00050577373862854074	8,28217537E-007	-0,0019834579359797834	7,4005482378963251E-005	0,0019834579359797834
1	0	0	0	0	0	1	14353,9702	-0,000500000024	1,6286658	-1,4045881760604163E-006	-0,00050565174950377338	8,23537732E-007	-0,0020143653976829789	7,515868133063369E-005	0,0020143653976829789
1	0	0	0	0	0	1	14573,9702	-0,000500000024	1,61971033	-1,405376019619224E-006	-0,00050593537318837811	8,19468767E-007	-0,0020452712925724749	7,6311821822378419E-005	0,0020452712925724749
1	0	0	0	0	0	1	14793,9702	-0,000500000024	1,6111176	-1,4055409249138192E-006	-0,00050599473909515117	8,15217049E-007	-0,0020761824660332045	7,7465159264712973E-005	0,0020761824660332045
1	0	0	0	0	0	1	15013,9702	-0,000500000024	1,60300231	-1,4044234823797726E-006	-0,00050559245977802381	8,10465906E-007	-0,0021070821634587926	7,8618068520746701E-005	0,0021070821634587926
1	0	0	0	0	0	1	15233,9702	-0,000500000024	1,59496331	-1,4040863559510195E-006	-0,00050547109426220339	8,06207822E-007	-0,0021379752589012394	7,9770731447912973E-005	0,0021379752589012394
1	0	0	0	0	0	1	15453,9702	-0,000500000024	1,58736348	-1,4044084616826795E-006	-0,00050558705232700486	8,02550403E-007	-0,0021688740062291869	8,0923605254526323E-005	0,0021688740062291869
1	0	0	0	0	0	1	15673,9702	-0,000500000024	1,58047032	-1,4041773252150354E-006	-0,00050550384319764563	7,98933797E-007	-0,0021997726722009408	8,2076476025630694E-005	0,0021997726722009408
1	0	0	0	0	0	1	15893,9702	-0,000500000024	1,5737679	-1,4040280060920243E-006	-0,00050545008831271085	7,95461119E-007	-0,0022306665026863114	8,3229166378236736E-005	0,0022306665026863114
1	0	0	0	0	0	1	16113,9702	-0,000500000024	1,56735206	-1,404794078596751E-006	-0,00050572587441775136	7,92650496E-007	-0,0022615658536179261	8,4382062706114445E-005	0,0022615658536179261
1	0	0	0	0	0	1	16333,9701	-0,000500000024	1,56108892	-1,4050753300737902E-006	-0,0005058271249507113	7,89641092E-007	-0,0022924665449330048	8,5535009045501376E-005	0,0022924665449330048
1	0	0	0	0	0	1	16553,9701	-0,000500000024	1,55537951	-1,4040968519887731E-006	-0,00050547487283584038	7,86205248E-007	-0,0023233736932963584	8,6688196306041037E-005	0,0023233736932963584
1	0	0	0	0	0	1	16773,9701	-0,000500000024	1,54982293	-1,4055032154073059E-006	-0,00050598116367264205	7,84181225E-007	-0,0023542781529138989	8,7841283245859341E-005	0,0023542781529138989
1	0	0	0	0	0	1	16993,9701	-0,000500000024	1,54422808	-1,4042378310081808E-006	-0,00050552562528344173	7,80646872E-007	-0,0023851771140634912	8,8994165030445747E-005	0,0023851771140634912
1	0	0	0	0	0	1	17213,9701	-0,000500000024	1,53880513	-1,404740075522568E-006	-0,00050570643331081018	7,78183676E-007	-0,0024160804078550099	9,0147208471727718E-005	0,0024160804078550099
1	0	0	0	0	0	1	17433,9701	-0,000500000024	1,5348525	-1,4046937779833874E-006	-0,00050568976619650317	7,76159197E-007	-0,0024469843385435309	9,1300275676493158E-005	0,0024469843385435309
1	0	0	0	0	0	1	17653,9701	-0,000500000024	1,53376412	-1,404215177407928E-006	-0,00050551746998725184	7,75344574E-007	-0,0024778797467626883	9,2453024896468058E-005	0,0024778797467626883
1	0	0	0	0	0	1	17873,9701	-0,000500000024	1,52767289	-1,4044772731657659E-006	-0,00050561182446121587	7,72409464E-007	-0,002508781037296912	9,3605993593526938E-005	0,002508781037296912
1	0	0	0	0	0	1	18093,9701	-0,000500000024	1,52583969	-1,4039608559234896E-006	-0,0005054259142517456	7,71198927E-007	-0,0025396701804449258	9,475850905527401E-005	0,0025396701804449258
1	0	0	0	0	0	1	18313,9701	-0,000500000024	1,52184892	-1,4037797639612109E-006	-0,00050536072114453587	7,69082646E-007	-0,0025705586754577658	9,5911000334226291E-005	0,0025705586754577658
1	0	0	0	0	0	1	18533,9701	-0,000500000024	1,51556671	-1,4043765479032624E-006	-0,00050557556336627558	7,66233484E-007	-0,0026014467608553379	9,7063476329882214E-005	0,0026014467608553379
1	0	0	0	0	0	1	18753,9701	-0,000500000024	1,51195776	-1,4038272634530181E-006	-0,00050537782096179354	7,64109927E-007	-0,0026323400430774579	9,8216146226049229E-005	0,0026323400430774579
1	0	0	0	0	0	1	18973,9701	-0,000500000024	1,50410974	-1,40380619956866E-006	-0,00050537023796333286	7,60132309E-007	-0,0026632260306148435	9,9368543947720973E-005	0,0026632260306148435
1	0	0	0	0	0	1	19193,9701	-0,000500000024	1,49857223	-1,4042069428315802E-006	-0,00050551450553973075	7,57550026E-007	-0,0026941163793137683	0,00010052110439019341	0,0026941163793137683
1	0	0	0	0	0	1	19413,9701	-0,000500000024	1,49500144	-1,4037425486248038E-006	-0,00050534732362326726	7,55494966E-007	-0,0027249995704847152	0,00010167339777567357	0,0027249995704847152
1	0	0	0	0	0	1	19633,9701	-0,000500000024	1,49099147	-1,4045263630751936E-006	-0,00050562949682882381	7,53889253E-007	-0,0027558865319012877	0,0001028258318340872	0,0027558865319012877
1	0	0	0	0	0	1	19853,9701	-0,000500000024	1,48564494	-1,4040258853023664E-006	-0,0005054493248284247	7,50918218E-007	-0,0027867748008306406	0,00010397831467756061	0,0027867748008306406
1	0	0	0	0	0	1	20073,9701	-0,000500000024	1,47995472	-1,4036060928063104E-006	-0,00050529819952801485	7,47818433E-007	-0,0028176630866166669	0,00010513079814997918	0,0028176630866166669
1	0	0	0	0	0	1	20293,9701	-0,000500000024	1,47548652	-1,4043794821773189E-006	-0,0005055766197049488	7,45971477E-007	-0,0028485509289350947	0,00010628326507602542	0,0028485509289350947
1	0	0	0	0	0	1	20513,9701	-0,000500000024	1,47145748	-1,4036825737275648E-006	-0,00050532573265999974	7,43565352E-007	-0,0028794415150612214	0,00010743583437722598	0,0028794415150612214
1	0	0	0	0	0	1	20733,9701	-0,000500000024	1,46574807	-1,4038212909815936E-006	-0,00050537567087205472	7,40753421E-007	-0,002910334519602537	0,00010858849391274882	0,002910334519602537
1	0	0	0	0	0	1	20953,9701	-0,000500000024	1,46114624	-1,4045289786396702E-006	-0,00050563043843204685	7,38799997E-007	-0,0029412301259883546	0,00010974125052658826	0,0029412301259883546
1	0	0	0	0	0	1	21173,9701	-0,000500000024	1,45660162	-1,4038784386421965E-006	-0,00050539624403012096	7,36160985E-007	-0,0029721268837051501	0,00011089405009813445	0,0029721268837051501
1	0	0	0	0	0	1	21393,9701	-0,000500000024	1,45226705	-1,403755907958839E-006	-0,00050535213298357805	7,33906234E-007	-0,0030030158947798125	0,0001120465606320472	0,0030030158947798125
1	0	0	0	0	0	1	21613,9701	-0,000500000024	1,44789433	-1,4032005792444882E-006	-0,0005051522146439913	7,31407056E-007	-0,0030338923236539917	0,00011319860170714294	0,0030338923236539917
1	0	0	0	0	0	1	21833,9701	-0,000500000024	1,44348335	-1,4039003508967453E-006	-0,00050540413244185389	7,29542478E-007	-0,0030647673502323654	0,00011435059046069682	0,0030647673502323654
1	0	0	0	0	0	1	22053,9701	-0,000500000024	1,4392252	-1,4034406574856904E-006	-0,00050523864281187053	7,27152212E-007	-0,0030956408458283072	0,00011550252209123771	0,0030956408458283072
1	0	0	0	0	0	1	22273,9701	-0,000500000024	1,4354254	-1,4035384128510486E-006	-0,0005052738347438256	7,25282916E-007	-0,003126513374364857	0,00011665441763949248	0,003126513374364857
1	0	0	0	0	0	1	22493,9701	-0,000500000024	1,43151093	-1,403273808119896E-006	-0,00050517857703945734	7,23168625E-007	-0,0031573815723747718	0,00011780615160997602	0,0031573815723747718
1	0	0	0	0	0	1	22713,9701	-0,000500000024	1,42782557	-1,4029480969669142E-006	-0,00050506132102296429	7,21139486E-007	-0,003188259068649319	0,00011895823251121464	0,003188259068649319
1	0	0	0	0	0	1	22933,9701	-0,000500000024	1,42393017	-1,4029665803989499E-006	-0,00050506797505857773	7,19181514E-007	-0,0032191326718990477	0,00012011016815846307	0,0032191326718990477
1	0	0	0	0	0	1	23153,9701	-0,000500000024	1,41974843	-1,4029099270927773E-006	-0,00050504757986810848	7,17040507E-007	-0,003250007687378249	0,00012126215649789189	0,003250007687378249
1	0	0	0	0	0	1	23373,9701	-0,000500000024	1,41612041	-1,403869249912936E-006	-0,00050539293608754701	7,1569724E-007	-0,0032808758397990829	0,00012241388876738554	0,0032808758397990829
1	0	0	0	0	0	1	23593,9701	-0,000500000024	1,41214871	-1,4033134618625302E-006	-0,0005051928523869785	7,13407417E-007	-0,0033117441741596653	0,00012356562782529581	0,0033117441741596653
1	0	0	0	0	0	1	23813,9701	-0,000500000024	1,40844429	-1,4029413816978275E-006	-0,00050505890352606374	7,11347354E-007	-0,0033426180852733363	0,00012471757495936186	0,0033426180852733363
1	0	0	0	0	0	1	24033,9701	-0,000500000024	1,40498805	-1,403430903841379E-006	-0,00050523513149987603	7,09849303E-007	-0,0033734882818392307	0,00012586938349865608	0,0033734882818392307
1	0	0	0	0	0	1	24253,9701	-0,000500000024	1,40132189	-1,4029031407262664E-006	-0,0005050451367761351	7,07730806E-007	-0,0034043598642660435	0,0001270212437462845	0,0034043598642660435
1	0	0	0	0	0	1	24473,9700	-0,000500000024	1,39740741	-1,4032840220736238E-006	-0,00050518225406284378	7,05945411E-007	-0,0034352207407630701	0,0001281727045412783	0,0034352207407630701
1	0	0	0	0	0	1	24693,9700	-0,000500000024	1,3936075	-1,4025451268793808E-006	-0,00050491625178969587	7,03655076E-007	-0,0034660838446877978	0,00012932424844459446	0,0034660838446877978
1	0	0	0	0	0	1	24913,9700	-0,000500000024	1,38986492	-1,4022553584978189E-006	-0,00050481193517107066	7,01620422E-007	-0,003496945502562057	0,00013047573839382336	0,003496945502562057
1	0	0	0	0	0	1	25133,9700	-0,000500000024	1,38604593	-1,403203866324879E-006	-0,00050515339799294637	7,00165799E-007	-0,0035278052518281325	0,00013162715713031485	0,0035278052518281325
1	0	0	0	0	0	1	25353,9700	-0,000500000024	1,38268518	-1,4034339786610667E-006	-0,00050523623843497702	6,98582653E-007	-0,0035586724722479418	0,00013277885462559717	0,0035586724722479418
1	0	0	0	0	0	1	25573,9700	-0,000500000024	1,37940085	-1,4034021350477512E-006	-0,00050522477473404448	6,96907478E-007	-0,0035895396530482726	0,00013393055064262347	0,0035895396530482726
1	0	0	0	0	0	1	25793,9700	-0,000500000024	1,37573469	-1,4028037598634709E-006	-0,00050500935966509549	6,9475891E-007	-0,003620405081628247	0,00013508218128195242	0,003620405081628247
1	0	0	0	0	0	1	26013,9700	-0,000500000024	1,37220216	-1,4029307435202E-006	-0,00050505507378207142	6,93037634E-007	-0,0036512752847664275	0,00013623399006646746	0,0036512752847664275
1	0	0	0	0	0	1	26233,9700	-0,000500000024	1,36882234	-1,4027234630872653E-006	-0,00050498045282531149	6,91228536E-007	-0,0036821320838258573	0,00013738529872678237	0,0036821320838258573
1	0	0	0	0	0	1	26453,9700	-0,000500000024	1,36530888	-1,401917843300099E-006	-0,00050469042969842029	6,89058311E-007	-0,0037129833463219718	0,00013853640081047602	0,0037129833463219718
1	0	0	0	0	0	1	26673,9700	-0,000500000024	1,36152804	-1,4027754513436877E-006	-0,00050499916859785018	6,87570548E-007	-0,0037438406857589434	0,0001396877296330035	0,0037438406857589434
1	0	0	0	0	0	1	26893,9700	-0,000500000024	1,35828197	-1,4023149098470134E-006	-0,00050483337365704006	6,85706084E-007	-0,0037746938053306413	0,00014083890100668402	0,0037746938053306413
1	0	0	0	0	0	1	27113,9700	-0,000500000024	1,354864	-1,4019651655883837E-006	-0,00050470746572240915	6,83809958E-007	-0,0038055353021641798	0,00014198963872037688	0,0038055353021641798
1	0	0	0	0	0	1	27333,9700	-0,000500000024	1,35119772	-1,4022948706503181E-006	-0,00050482615954614246	6,82119946E-007	-0,0038363902546065171	0,00014314087848092523	0,0038363902546065171
1	0	0	0	0	0	1	27553,9700	-0,000500000024	1,34779882	-1,4018469465954696E-006	-0,00050466490688444474	6,80186758E-007	-0,0038672359288944141	0,00014429177206105683	0,0038672359288944141
1	0	0	0	0	0	1	27773,9700	-0,000500000024	1,34436178	-1,4022886152961293E-006	-0,0005048239076186073	6,7866597E-007	-0,0038980788629787846	0,00014544256340051062	0,0038980788629787846
1	0	0	0	0	0	1	27993,9700	-0,000500000024	1,34081006	-1,4016410793248926E-006	-0,00050459079466613971	6,76560433E-007	-0,003928914246109392	0,00014659307300372714	0,003928914246109392
1	0	0	0	0	0	1	28213,9700	-0,000500000024	1,3371439	-1,4018797792442555E-006	-0,00050467672663815085	6,74825401E-007	-0,0039597520182153491	0,00014774367174282595	0,0039597520182153491
1	0	0	0	0	0	1	28433,9700	-0,000500000024	1,33364952	-1,4018346472488098E-006	-0,00050466047911959347	6,73040176E-007	-0,0039905884654912781	0,00014889422105073517	0,0039905884654912781
1	0	0	0	0	0	1	28653,9700	-0,000500000024	1,32998323	-1,401945798279485E-006	-0,00050470049349112109	6,71243185E-007	-0,0040214254987032378	0,0001500447922207055	0,0040214254987032378
1	0	0	0	0	0	1	28873,9700	-0,000500000024	1,32652712	-1,4017774645213245E-006	-0,00050463989333744954	6,69418512E-007	-0,0040522694676711866	0,00015119562217305699	0,0040522694676711866
1	0	0	0	0	0	1	29093,9700	-0,000500000024	1,32310915	-1,4019108810268035E-006	-0,00050468792328000352	6,67757206E-007	-0,0040831122861202669	0,00015234640919800262	0,0040831122861202669
1	0	0	0	0	0	1	29313,9700	-0,000500000024	1,31961477	-1,4010453553572813E-006	-0,00050437633403520307	6,65582434E-007	-0,0041139471222256781	0,0001534968983909736	0,0041139471222256781
1	0	0	0	0	0	1	29533,9700	-0,000500000024	1,31596756	-1,4014983340489885E-006	-0,000504539406366192	6,63957508E-007	-0,0041447771102278605	0,00015464720669469472	0,0041447771102278605
1	0	0	0	0	0	1	29753,9700	-0,000500000024	1,3121295	-1,4014025213837158E-006	-0,00050450491380627635	6,61975776E-007	-0,0041756087837229101	0,00015579757788642096	0,0041756087837229101
1	0	0	0	0	0	1	29973,9700	-0,000500000024	1,30853975	-1,4016939159062328E-006	-0,00050460981583565242	6,60302021E-007	-0,0042064335361283091	0,00015694769084298675	0,0042064335361283091
1	0	0	0	0	0	1	30193,9700	-0,000500000024	1,30489254	-1,4009992697295578E-006	-0,00050435974320902176	6,58135264E-007	-0,004237268217897769	0,00015809817427747587	0,004237268217897769
1	0	0	0	0	0	1	30413,9700	-0,000500000024	1,30134094	-1,4019078056282723E-006	-0,00050468681613651898	6,567696E-007	-0,0042681065200978125	0,00015924879279509779	0,0042681065200978125
1	0	0	0	0	0	1	30633,9700	-0,000500000024	1,29759836	-1,4017120472013226E-006	-0,00050461634310196378	6,54789346E-007	-0,0042989427743042426	0,00016039933489932438	0,0042989427743042426
1	0	0	0	0	0	1	30853,9700	-0,000500000024	1,2937603	-1,4018920431359826E-006	-0,00050468114163922592	6,52936421E-007	-0,0043297865761745171	0,00016155015861703702	0,0043297865761745171
1	0	0	0	0	0	1	31073,9700	-0,000500000024	1,28994131	-1,4019133894471453E-006	-0,00050468882631133747	6,51018979E-007	-0,0043606273242547027	0,00016270086839373555	0,0043606273242547027
1	0	0	0	0	0	1	31293,9700	-0,000500000024	1,28625596	-1,4017774289726126E-006	-0,00050463988053991322	6,4909608E-007	-0,0043914678880568435	0,00016385157129477245	0,0043914678880568435
1	0	0	0	0	0	1	31513,9700	-0,000500000024	1,28224599	-1,4026877322984445E-006	-0,00050496758974118029	6,47492641E-007	-0,0044223132304502272	0,00016500245249147354	0,0044223132304502272
1	0	0	0	0	0	1	31733,9700	-0,000500000024	1,27850342	-1,4019855226765179E-006	-0,00050471479427422611	6,45279613E-007	-0,0044531568612308102	0,00016615326982559974	0,0044531568612308102
1	0	0	0	0	0	1	31953,9700	-0,000500000024	1,27447438	-1,4018931031427605E-006	-0,00050468152324167059	6,43203691E-007	-0,0044839876341794541	0,0001673036074167287	0,0044839876341794541
1	0	0	0	0	0	1	32173,9700	-0,000500000024	1,27042627	-1,4020576554434632E-006	-0,00050474076207064077	6,41235943E-007	-0,0045148269193801011	0,0001684542626114248	0,0045148269193801011
1	0	0	0	0	0	1	32393,9700	-0,000500000024	1,26637816	-1,4021802570172846E-006	-0,00050478489863775091	6,39248583E-007	-0,0045456670409507085	0,00016960494901220861	0,0045456670409507085
1	0	0	0	0	0	1	32613,9700	-0,000500000024	1,26225364	-1,4018221363722762E-006	-0,00050465597520398694	6,37003836E-007	-0,004576504541240624	0,00017075553760948547	0,004576504541240624
1	0	0	0	0	0	1	32833,9699	-0,000500000024	1,25795734	-1,4017789844559347E-006	-0,0005046404334641705	6,34816161E-007	-0,0046073487636118586	0,00017190637701665427	0,0046073487636118586
1	0	0	0	0	0	1	33053,9699	-0,000500000024	1,25381374	-1,4023970441808666E-006	-0,00050486293496473139	6,33004106E-007	-0,0046381946523910272	0,00017305727859974358	0,0046381946523910272
1	0	0	0	0	0	1	33273,9700	-0,000500000024	1,24940276	-1,4023412048667926E-006	-0,00050484283281170234	6,30752027E-007	-0,0046690400137278592	0,00017420816050325021	0,0046690400137278592
1	0	0	0	0	0	1	33493,9700	-0,000500000024	1,24491549	-1,4020191329990566E-006	-0,00050472688693953325	6,2834232E-007	-0,00469989440080432	0,00017535937916923754	0,00469989440080432
1	0	0	0	0	0	1	33713,9700	-0,000500000024	1,24056184	-1,4021014795774442E-006	-0,00050475653170769747	6,26181702E-007	-0,0047307456216277568	0,00017651047969806755	0,0047307456216277568
1	0	0	0	0	0	1	33933,9700	-0,000500000024	1,2360363	-1,4015471759129366E-006	-0,00050455698238884659	6,23650749E-007	-0,0047615852374173094	0,00017766114722748016	0,0047615852374173094
1	0	0	0	0	0	1	34153,9700	-0,000500000024	1,23130083	-1,4021803633400448E-006	-0,00050478492986218093	6,21542085E-007	-0,0047924236031284678	0,00017881176811478717	0,0047924236031284678
1	0	0	0	0	0	1	34373,9700	-0,000500000024	1,2266798	-1,4015947105589376E-006	-0,00050457409486137498	6,18950878E-007	-0,0048232648154555526	0,00017996249521316173	0,0048232648154555526
1	0	0	0	0	0	1	34593,9700	-0,000500000024	1,22198248	-1,4020076820290542E-006	-0,00050472276459034016	6,1676235E-007	-0,004854098037213671	0,00018111292417266464	0,004854098037213671
1	0	0	0	0	0	1	34813,9700	-0,000500000024	1,21718967	-1,4016973795207581E-006	-0,00050461105568756154	6,14207352E-007	-0,0048849361568423136	0,00018226353587830211	0,0048849361568423136
1	0	0	0	0	0	1	35033,9700	-0,000500000024	1,21237779	-1,4021009498036522E-006	-0,00050475634098913274	6,11955386E-007	-0,0049157796896555776	0,00018341434955713594	0,0049157796896555776
1	0	0	0	0	0	1	35253,9700	-0,000500000024	1,20760405	-1,4021668272584469E-006	-0,00050478005687281478	6,09574442E-007	-0,0049466203398009408	0,00018456505567975453	0,0049466203398009408
1	0	0	0	0	0	1	35473,9700	-0,000500000024	1,20281124	-1,4016344356059563E-006	-0,00050458839587827507	6,06924573E-007	-0,0049774551659410669	0,00018571554450090733	0,0049774551659410669
1	0	0	0	0	0	1	35693,9700	-0,000500000024	1,19794202	-1,4011466455607056E-006	-0,00050441279146231187	6,04257252E-007	-0,0050082909946286707	0,00018686607072845443	0,0050082909946286707
1	0	0	0	0	0	1	35913,9700	-0,000500000024	1,19293916	-1,4013199277526128E-006	-0,00050447517305128237	6,0180821E-007	-0,0050391192940639213	0,00018801631602947306	0,0050391192940639213
3	0	0	1	0	0	1	36043,1626	0	1,25705981	0	0	0	-0,0050525698416128416	0,0001885181740429768	0,0050525698416128416
3	0	0	1	0	0	1	36396,7276	0	1,3672756	0	0	0	-0,0050525698416128416	0,0001885181740429768	0,0050525698416128416
1	0	0	1	0	0	1	36956,0566	-0,000500000024	1,35390925	-1,4016606941230648E-006	-0,00050459784894441658	6,83179678E-007	-0,0050590243384293344	0,00018875899999736339	0,0050590243384293344
1	0	0	1	0	0	1	37176,0566	-0,000500000024	1,25761354	-1,4008875887472338E-006	-0,00050431953100963584	6,34239086E-007	-0,0050898455979546643	0,0001899089826298776	0,0050898455979546643
1	0	0	1	0	0	1	37396,0566	-0,000500000024	1,21961474	-1,4009340986441306E-006	-0,00050433627457248742	6,15095985E-007	-0,0051206700686882778	0,00019105908507689043	0,0051206700686882778
1	0	0	1	0	0	1	37616,0566	-0,000500000024	1,19990873	-1,4013418749446928E-006	-0,00050448307404041651	6,05333639E-007	-0,0051514964862669965	0,00019220926016331165	0,0051514964862669965
1	0	0	1	0	0	1	37836,0566	-0,000500000024	1,18749714	-1,4007940031458726E-006	-0,00050428584019320858	5,98837971E-007	-0,0051823149189984352	0,00019335913732434512	0,0051823149189984352
1	0	0	1	0	0	1	38056,0566	-0,000500000024	1,17840791	-1,4010986866455318E-006	-0,0005043955262528816	5,94383664E-007	-0,0052131305247612493	0,00019450890900737834	0,0052131305247612493
1	0	0	1	0	0	1	38276,0566	-0,000500000024	1,17086542	-1,401390328401855E-006	-0,0005045005172849623	5,907022E-007	-0,0052439540626039693	0,0001956589766469776	0,0052439540626039693
1	0	0	1	0	0	1	38496,0566	-0,000500000024	1,16435409	-1,4011523356311957E-006	-0,00050441483988768461	5,87317459E-007	-0,0052747823197340038	0,00019680922036953171	0,0052747823197340038
1	0	0	1	0	0	1	38716,0566	-0,000500000024	1,15833914	-1,4008884020149706E-006	-0,00050431982378602067	5,84173392E-007	-0,0053056016154114822	0,00019795912972824221	0,0053056016154114822
1	0	0	1	0	0	1	38936,0566	-0,000500000024	1,15247703	-1,4008659598475786E-006	-0,00050431174460577453	5,81207701E-007	-0,005336419395661975	0,00019910898254433427	0,005336419395661975
1	0	0	1	0	0	1	39156,0566	-0,000500000024	1,14693952	-1,40112035105186E-006	-0,00050440332543914522	5,78520087E-007	-0,0053672414562860474	0,00020025899506691968	0,0053672414562860474
1	0	0	1	0	0	1	39376,0566	-0,000500000024	1,14145923	-1,4017034227597632E-006	-0,0005046132312535993	5,75995443E-007	-0,0053980694002512422	0,00020140922710487258	0,0053980694002512422
1	0	0	1	0	0	1	39596,0566	-0,000500000024	1,13622725	-1,401784497429617E-006	-0,00050464241813469229	5,7338849E-007	-0,005428901532766329	0,00020255961542325357	0,005428901532766329
1	0	0	1	0	0	1	39816,0566	-0,000500000024	1,13118625	-1,4013433591883062E-006	-0,00050448360836811622	5,70664895E-007	-0,0054597395134258003	0,00020371022194376438	0,0054597395134258003
1	0	0	1	0	0	1	40036,0566	-0,000500000024	1,125916	-1,4009927316866296E-006	-0,0005043573824677479	5,67864049E-007	-0,0054905666041992141	0,0002048604221479848	0,0054905666041992141
1	0	0	1	0	0	1	40256,0566	-0,000500000024	1,12095129	-1,4012559934053568E-006	-0,00050445215668631309	5,6546628E-007	-0,0055213891348322624	0,00020601045220723702	0,0055213891348322624
1	0	0	1	0	0	1	40476,0566	-0,000500000024	1,11570024	-1,4010364137745152E-006	-0,00050437310801935738	5,62729213E-007	-0,0055522183468640154	0,00020716073155845814	0,0055522183468640154
1	0	0	1	0	0	1	40696,0566	-0,000500000024	1,11079288	-1,4011350890618309E-006	-0,00050440863112272486	5,60293529E-007	-0,0055830410574599296	0,00020831076833236685	0,0055830410574599296
1	0	0	1	0	0	1	40916,0566	-0,000500000024	1,10584724	-1,400852459143304E-006	-0,00050430688435224467	5,57686349E-007	-0,0056138576763362496	0,0002094605778160271	0,0056138576763362496
1	0	0	1	0	0	1	41136,0566	-0,000500000024	1,10103536	-1,401114696410433E-006	-0,00050440128976823526	5,5536367E-007	-0,0056446786142478189	0,00021061054844869952	0,0056446786142478189
1	0	0	1	0	0	1	41356,0566	-0,000500000024	1,09620428	-1,4006216764165501E-006	-0,000504223802570768	5,52732274E-007	-0,0056754991925906957	0,00021176050566538054	0,0056754991925906957
1	0	0	1	0	0	1	41576,0566	-0,000500000024	1,09122062	-1,4005732933001126E-006	-0,00050420638464888307	5,50200411E-007	-0,005706316902508537	0,00021291035585726685	0,005706316902508537
1	0	0	1	0	0	1	41796,0566	-0,000500000024	1,08648503	-1,4011166399642307E-006	-0,00050440198944760115	5,48025184E-007	-0,0057371321332914342	0,00021406011354929517	0,0057371321332914342
1	0	0	1	0	0	1	42016,0566	-0,000500000024	1,08167315	-1,4005482003720115E-006	-0,00050419735119478336	5,45376736E-007	-0,0057679441414530931	0,00021520975100099229	0,0057679441414530931
1	0	0	1	0	0	1	42236,0566	-0,000500000024	1,07701397	-1,4006171873220918E-006	-0,00050422218649676595	5,43054341E-007	-0,0057987601268597952	0,00021635953684904934	0,0057987601268597952
1	0	0	1	0	0	1	42456,0566	-0,000500000024	1,07245028	-1,4005418029005845E-006	-0,00050419504810507398	5,40724102E-007	-0,0058295668962822221	0,00021750897883634214	0,0058295668962822221
1	0	0	1	0	0	1	42676,0566	-0,000500000024	1,0676384	-1,4007005590635042E-006	-0,00050425220032361856	5,38359018E-007	-0,0058603796874102413	0,00021865864550156678	0,0058603796874102413
1	0	0	1	0	0	1	42896,0566	-0,000500000024	1,06301737	-1,4001932246998574E-006	-0,00050406955995304595	5,35834715E-007	-0,0058911893528919616	0,00021980819554472557	0,0058911893528919616
1	0	0	1	0	0	1	43116,0566	-0,000500000024	1,05860651	-1,4009626197382912E-006	-0,00050434654216636621	5,3390454E-007	-0,0059220053298859942	0,00022095798107889466	0,0059220053298859942
1	0	0	1	0	0	1	43336,0566	-0,000500000024	1,05415738	-1,4006031916101674E-006	-0,0005042171480404825	5,31524222E-007	-0,0059528105026972646	0,00022210736349447853	0,0059528105026972646
1	0	0	1	0	0	1	43556,0566	-0,000500000024	1,04972732	-1,4009195025201835E-006	-0,00050433101996787629	5,29410045E-007	-0,0059836265909142208	0,00022325715317852438	0,0059836265909142208
1	0	0	1	0	0	1	43776,0566	-0,000500000024	1,04524004	-1,4004356709386531E-006	-0,00050415684059884992	5,26964925E-007	-0,0060144389984745498	0,00022440680553232282	0,0060144389984745498
1	0	0	1	0	0	1	43996,0566	-0,000500000024	1,04115367	-1,4008263407740741E-006	-0,00050429748173933952	5,25051178E-007	-0,0060452596635781363	0,00022555676598616259	0,0060452596635781363
1	0	0	1	0	0	1	44216,0566	-0,000500000024	1,03674281	-1,4002206506039432E-006	-0,0005040794332784983	5,22600715E-007	-0,0060760772480332646	0,0002267066114968664	0,0060760772480332646
1	0	0	1	0	0	1	44436,0566	-0,000500000024	1,0325228	-1,4001709597715592E-006	-0,00050406154457887354	5,20455046E-007	-0,0061068831409025101	0,00022785602077878144	0,0061068831409025101
1	0	0	1	0	0	1	44656,0566	-0,000500000024	1,02839828	-1,399931128977591E-006	-0,0005039752054932057	5,18287209E-007	-0,0061376884363164787	0,00022900540776883683	0,0061376884363164787
1	0	0	1	0	0	1	44876,0566	-0,000500000024	1,02435017	-1,4004108603823829E-006	-0,00050414790879860909	5,16423995E-007	-0,0061684929973592358	0,00023015476735851491	0,0061684929973592358
1	0	0	1	0	0	1	45096,0566	-0,000500000024	1,02026391	-1,4005916699243242E-006	-0,00050421300023358682	5,14430326E-007	-0,0061992950828018304	0,00023130403458022243	0,0061992950828018304
1	0	0	1	0	0	1	45316,0566	-0,000500000024	1,01627302	-1,4003468214941678E-006	-0,00050412485479889466	5,12328484E-007	-0,0062301049323490701	0,00023245359149111322	0,0062301049323490701
1	0	0	1	0	0	1	45536,0566	-0,000500000024	1,01239681	-1,3996976601742467E-006	-0,00050389115672415827	5,10137795E-007	-0,0062609146598565683	0,00023360314384853722	0,0062609146598565683
1	0	0	1	0	0	1	45756,0566	-0,000500000024	1,0085969	-1,400431146958403E-006	-0,00050415521196596288	5,08489393E-007	-0,0062917229993080218	0,00023475264441572384	0,0062917229993080218
1	0	0	1	0	0	1	45976,0566	-0,000500000024	1,00472069	-1,4010715083115627E-006	-0,00050438574205267104	5,0676681E-007	-0,0063225317612403379	0,00023590216074623955	0,0063225317612403379
1	0	0	1	0	0	1	46196,0566	-0,000500000024	1,00116897	-1,4005021138582379E-006	-0,00050418076004985587	5,04770128E-007	-0,0063533412342872986	0,00023705170360939872	0,0063533412342872986
2	1	0	0	0	0	1	48049,0850	0,999955177	0,999889612	-1,3761873911720208E-005	-0,00041285621658260166	4,12810635E-007	-0,0065866290484704653	0,00024575598561537475	0,0065866290484704653
2	1	0	0	0	0	1	50689,0850	0,999955177	0,999927759	-1,1386694476343109E-005	-0,00034160083365401216	3,41576168E-007	-0,0068592139154168243	0,00025592649349539485	0,0068592139154168243
2	1	0	0	0	0	1	53329,0850	0,999955177	0,999813199	-9,9661724047182349E-006	-0,00029898517158464378	2,98929308E-007	-0,0070922014188395418	0,00026461957050312646	0,0070922014188395418
2	1	0	0	0	0	1	55969,0850	0,999955177	0,999946892	-9,0111843240067392E-006	-0,00027033552921666298	2,70321181E-007	-0,0073000242634916454	0,00027237372025788282	0,0073000242634916454
2	1	0	0	0	0	1	58609,0850	0,999955177	0,999832332	-8,2970983081702592E-006	-0,0002489129487814713	2,48871203E-007	-0,0074898008171273203	0,00027945453863131994	0,0074898008171273203
2	1	0	0	0	0	1	61249,0850	0,999955177	0,999965966	-7,771574503890103E-006	-0,00023314723468243251	2,33139303E-007	-0,0076659806496346547	0,0002860280450584727	0,0076659806496346547
2	1	0	0	0	0	1	63889,0850	0,999955177	1,00002325	-7,3039595676762278E-006	-0,00021911878662214627	2,19123876E-007	-0,0078317157524101517	0,00029221184457624205	0,0078317157524101517
2	1	0	0	0	0	1	66529,0866	0,999955177	0,999889612	-6,9263999382520627E-006	-0,00020779170095362752	2,07768764E-007	-0,007988041649826057	0,00029804457399123398	0,007988041649826057
2	1	0	0	0	0	1	69169,0904	0,999955177	0,999965966	-6,5861952943766182E-006	-0,00019758557625072035	1,97578856E-007	-0,0081365584211037632	0,00030358593441052794	0,0081365584211037632
2	1	0	0	0	0	1	71809,0941	0,999955177	0,999870479	-6,2794835574620966E-006	-0,00018838423731501322	1,88359834E-007	-0,0082779163061841536	0,00030886018716057517	0,0082779163061841536
2	1	0	0	0	0	1	74449,0979	0,999955177	0,999794126	-5,9993051870365478E-006	-0,00017997889823477258	1,7994185E-007	-0,0084126740706278272	0,00031388818053570989	0,0084126740706278272
2	1	0	0	0	0	1	77089,1017	0,999955177	0,999908686	-5,8069449852668582E-006	-0,00017420810044412349	1,74192195E-007	-0,0085422262349566093	0,00031872194597155424	0,0085422262349566093
2	1	0	0	0	0	1	79729,1055	0,999955177	0,999927759	-5,5823674068241318E-006	-0,00016747078273722762	1,6745868E-007	-0,0086675530284863642	0,00032339805714181536	0,0086675530284863642
2	1	0	0	0	0	1	82369,1092	0,999955177	0,999851406	-5,4107185880905798E-006	-0,00016232132553800867	1,62297212E-007	-0,0087882296382125248	0,00032790066370212582	0,0087882296382125248
2	1	0	0	0	0	1	85009,1130	0,999955177	0,999889612	-5,2767204372794374E-006	-0,00015830138676287645	1,5828391E-007	-0,0089057065962575693	0,00033228388695623642	0,0089057065962575693
2	1	0	0	0	0	1	87649,1168	0,999955177	0,999851406	-5,1119645529041811E-006	-0,0001533587172993017	1,53335932E-007	-0,0090195072016258509	0,00033652994054906822	0,0090195072016258509
2	1	0	0	0	0	1	90289,1206	0,999955177	0,999927759	-5,0017512312802464E-006	-0,00015005232237854749	1,50041487E-007	-0,0091305810119752384	0,00034067425375353024	0,0091305810119752384
2	1	0	0	0	0	1	92929,1243	0,999955177	0,999794126	-4,9841098464862118E-006	-0,00014952308159134294	1,49492294E-007	-0,009240527202438359	0,00034477649394393453	0,009240527202438359
2	1	0	0	0	0	1	95569,1281	0,999955177	0,999851406	-4,8475406910535334E-006	-0,0001454260127795713	1,454044E-007	-0,0093488965781023078	0,00034881990105413165	0,0093488965781023078
2	1	0	0	0	0	1	98209,1319	0,999955177	0,999851406	-4,6960686369246912E-006	-0,0001408818576444669	1,40860919E-007	-0,0094538214949774093	0,00035273479077579277	0,0094538214949774093
2	1	0	0	0	0	1	100849,1357	0,999955177	0,999851406	-4,5827541335246573E-006	-0,0001374824273937015	1,37461996E-007	-0,0095556757754953638	0,00035653511092645434	0,0095556757754953638
2	1	0	0	0	0	1	103489,1394	0,999955177	0,999908686	-4,4660233256306835E-006	-0,00013398050815674808	1,33968271E-007	-0,0096552620544550566	0,00036025080888961651	0,0096552620544550566
2	1	0	0	0	0	1	106129,1432	0,999955177	0,999832332	-4,385882840803081E-006	-0,00013157629704123875	1,31554231E-007	-0,0097525413374644352	0,00036388042973208346	0,0097525413374644352
2	1	0	0	0	0	1	108769,1470	0,999955177	0,999832332	-4,2991554967342784E-006	-0,00012897448043070654	1,28952863E-007	-0,0098479023007157235	0,00036743847548516781	0,0098479023007157235
2	1	0	0	0	0	1	111409,1508	0,999955177	0,999965966	-4,2442968008868371E-006	-0,00012732872190191256	1,27324384E-007	-0,0099417656470938022	0,00037094064313914534	0,0099417656470938022
2	1	0	0	0	0	1	114049,1545	0,999955177	1,00008059	-4,2076432743096019E-006	-0,00012622911767753734	1,26239286E-007	-0,010034638736656395	0,00037440586297992269	0,010034638736656395
2	1	0	0	0	0	1	116689,1583	0,999955177	0,999946892	-4,1928074290925805E-006	-0,00012578404295739501	1,25777362E-007	-0,010127003034929117	0,00037785209913359776	0,010127003034929117
2	1	0	0	0	0	1	119329,1621	0,999955177	0,999927759	-4,1818262610185126E-006	-0,00012545460838698874	1,25445538E-007	-0,010219191199979224	0,00038129176351992333	0,010219191199979224
2	1	0	0	0	0	1	121969,1659	0,999955177	1,00000417	-4,1385360107778976E-006	-0,00012415590273773077	1,24156415E-007	-0,010310737292955272	0,00038470747133389075	0,010310737292955272
2	1	0	0	0	0	1	124609,1696	0,999955177	0,999832332	-4,0703859869940461E-006	-0,0001221114049486681	1,22090924E-007	-0,010401076756169704	0,00038807815816912134	0,010401076756169704
2	1	0	0	0	0	1	127249,1734	0,999955177	0,999985099	-4,0156862975636614E-006	-0,00012047041661936016	1,20468627E-007	-0,010489862877324566	0,00039139088772361875	0,010489862877324566
2	1	0	0	0	0	1	129889,1772	0,999955177	0,999889612	-3,9581077969956416E-006	-0,00011874306408088195	1,18729957E-007	-0,010577552747325155	0,00039466271467362483	0,010577552747325155
2	1	0	0	0	0	1	132529,1791	0,999955177	0,999965966	-3,9079942706881011E-006	-0,00011723980977704534	1,17235821E-007	-0,010664075056189056	0,0003978909783478185	0,010664075056189056
3	1	0	1	0	0	1	133098,1610	0	1,10021424	0	0	0	-0,010667982787285016	0,00039803678104900909	0,010667982787285016
1	0	0	1	0	0	1	133626,2601	-0,000500000024	1,02074122	-1,3961703545873109E-006	-0,00050262124901020922	5,13046245E-007	-0,010678754605335203	0,00039843869206332499	0,010678754605335203
2	1	0	0	0	0	1	135808,9852	0,999955177	1,00000417	-3,9424803764147021E-006	-0,00011827439278697024	1,18274883E-007	-0,010762283162157325	0,00040155525482369741	0,010762283162157325
2	1	0	0	0	0	1	138448,9857	0,999955177	0,999946892	-3,8356834490097958E-006	-0,00011507048546611342	1,15064374E-007	-0,01084761701418719	0,00040473917557551597	0,01084761701418719
2	1	0	0	0	0	1	141088,9861	0,999955177	0,999946892	-3,800908318462057E-006	-0,00011402723171313226	1,14021177E-007	-0,010931705189172584	0,00040787661844197472	0,010931705189172584
2	1	0	0	0	0	1	143728,9865	0,999955177	0,999889612	-3,7780199920869357E-006	-0,00011334058202909211	1,1332807E-007	-0,011014980269551126	0,00041098372365543456	0,011014980269551126
2	1	0	0	0	0	1	146368,9869	0,999955177	0,999908686	-3,7655557725552672E-006	-0,00011296665550164742	1,12956343E-007	-0,011097883814533699	0,000414076966383736	0,011097883814533699
2	1	0	0	0	0	1	149008,9873	0,999955177	0,999946892	-3,7568147205978067E-006	-0,00011270442398395293	1,12698437E-007	-0,011180463740099386	0,00041715813443648256	0,011180463740099386
2	1	0	0	0	0	1	151648,9877	0,999955177	0,999946892	-3,7614222849515501E-006	-0,00011284265089293794	1,12836659E-007	-0,011263265193592661	0,00042024756799405491	0,011263265193592661
2	1	0	0	0	0	1	154288,9881	0,999955177	0,999908686	-3,7602304488605619E-006	-0,00011280689581602147	1,12796592E-007	-0,011346003781578842	0,00042333465595503398	0,011346003781578842
2	1	0	0	0	0	1	156928,9886	0,999955177	0,999870479	-3,7759684281425306E-006	-0,00011327903512038971	1,13264363E-007	-0,011429100536761547	0,00042643510761567629	0,011429100536761547
2	1	0	0	0	0	1	159568,9890	0,999955177	0,999870479	-3,792056363458768E-006	-0,00011376167310480368	1,13746935E-007	-0,01151255956598468	0,0004295490762078496	0,01151255956598468
2	1	0	0	0	0	1	162208,9894	0,999955177	0,999927759	-3,7886350862762714E-006	-0,00011365903480538741	1,13650827E-007	-0,011595933772031245	0,00043265987993325926	0,011595933772031245
2	1	0	0	0	0	1	164848,9898	0,999955177	0,999946892	-3,7787671563374816E-006	-0,00011336299695310141	1,13356975E-007	-0,011678953848130683	0,00043575747059420864	0,011678953848130683
2	1	0	0	0	0	1	167488,9902	0,999955177	0,999946892	-3,7972622312174483E-006	-0,00011391784911268701	1,13911803E-007	-0,011762147791782269	0,00043886154848729632	0,011762147791782269
2	1	0	0	0	0	1	170128,9906	0,999955177	0,999851406	-3,8599824142810477E-006	-0,00011579945431019491	1,1578225E-007	-0,011846365262977117	0,0004420038155691703	0,011846365262977117
2	1	0	0	0	0	1	172768,9910	0,999955177	0,999927759	-3,8906994774746029E-006	-0,00011672096606181982	1,16712535E-007	-0,011931518184845525	0,00044518098557340173	0,011931518184845525
2	1	0	0	0	0	1	175408,9914	0,999955177	0,999851406	-3,9253169846302221E-006	-0,00011775949111399851	1,1774199E-007	-0,012017513783991219	0,00044838959699984032	0,012017513783991219
2	1	0	0	0	0	1	178048,9919	0,999955177	0,999927759	-3,9754750535818554E-006	-0,00011926423294711229	1,19255617E-007	-0,012104725794952342	0,00045164359438659565	0,012104725794952342
2	1	0	1	0	0	1	178772,1314	0,999955177	0,999965966	-3,3533855995502413E-007	-0,00014986451660236685	1,49859417E-007	-0,012128691583953008	0,00045253779019655654	0,012128691583953008