File: Experimentelles/Rohdaten/Batterietests/AlteZelle/Batterietest Li vs LATP/ZView-Export/LATP vs Li Batterietest Probe1_02_GCPL_C01_loop9.txt
EC-Lab ASCII FILE
Nb header lines : 3
mode	ox/red	error	control changes	Ns changes	counter inc.	Ns	time/s	control/V/mA	Ewe/V	dq/mA.h	<I>/mA	P/W	(Q-Qo)/mA.h	x	Capacity/mA.h
1	1	0	1	1	0	1	30417,24	0,100000001	1,21212149	0	0	0	0	0	0
1	1	0	1	0	0	1	30429,24	0,100000001	1,53171289	5,5563214948193894E-005	0,1000137881176353	0,000153192406	0,00033200710971622259	-1,2387631651818842E-005	0,00033200710971622259
1	1	0	1	0	0	1	30441,24	0,100000001	1,69728482	5,5563187591317626E-005	0,10001373887525741	0,000169751802	0,00066538649087119693	-2,4826464596056077E-005	0,00066538649087119693
1	1	0	1	0	0	1	30453,24	0,100000001	1,85413039	5,55632471938928E-005	0,10001384615989403	0,000185438708	0,00099876561026037005	-3,7265287773459328E-005	0,00099876561026037005
1	1	0	1	0	0	1	30465,24	0,100000001	2,01748729	5,556316307352649E-005	0,10001369474323283	0,000201776362	0,0013321447947742403	-4,9704113380752582E-005	0,0013321447947742403
1	1	0	1	0	0	1	30477,24	0,100000001	2,18540812	5,5563217178401018E-005	0,10001379213200816	0,00021857096	0,0016655240882491267	-6,2142943053527846E-005	0,0016655240882491267
1	1	0	1	0	0	1	30489,24	0,100000001	2,34311295	5,5563220029903782E-005	0,1000137972647132	0,000234343621	0,0019989036325006211	-7,4581782083115546E-005	0,0019989036325006211
1	1	0	1	0	0	1	30501,24	0,100000001	2,44903231	5,5563306971556608E-005	0,10001395375969019	0,000244937401	0,0023322831974990854	-8,7020621886800576E-005	0,0023322831974990854
1	1	0	1	0	0	1	30513,24	0,100000001	2,49203396	5,556327958280841E-005	0,10001390445994283	0,000249238044	0,0026656628219341427	-9,9459463908144806E-005	0,0026656628219341427
1	1	0	1	0	0	1	30525,24	0,100000001	2,51223636	5,5563263403458726E-005	0,10001387533711306	0,000251258491	0,0029990425300077619	-0,00011189830905015624	0,0029990425300077619
1	1	0	1	0	0	1	30537,24	0,100000001	2,52485824	5,5563234943068691E-005	0,10001382410841037	0,000252520724	0,0033324220804689018	-0,00012433714831143414	0,0033324220804689018
1	1	0	1	0	0	1	30549,24	0,100000001	2,53394723	5,5563276364157594E-005	0,1000138986663713	0,000253429927	0,003665801752054544	-0,00013677599209203011	0,003665801752054544
1	1	0	1	0	0	1	30561,24	0,100000001	2,54108882	5,5563158666094144E-005	0,1000136868098545	0,00025414367	0,0039991807024297798	-0,00014921480896329613	0,0039991807024297798
1	1	0	1	0	0	1	30573,24	0,100000001	2,5472374	5,5563154564549523E-005	0,10001367942707411	0,000254758575	0,0043325596123934803	-0,00016165362432675341	0,0043325596123934803
1	1	0	1	0	0	1	30585,24	0,100000001	2,55248857	5,5563218480183021E-005	0,10001379447521579	0,000255284074	0,0046659388672246886	-0,00017409245255768106	0,0046659388672246886
1	1	0	1	0	0	1	30597,24	0,100000001	2,55747223	5,5563204319112832E-005	0,10001376898528914	0,000255782448	0,0049993185728565869	-0,00018653129760858861	0,0049993185728565869
1	1	0	1	0	0	1	30609,24	0,100000001	2,56182599	5,5563253752473331E-005	0,1000138579653391	0,000256218103	0,0053326979112179104	-0,00019897012895613718	0,0053326979112179104
1	1	0	1	0	0	1	30621,24	0,100000001	2,56608415	5,5563250330587232E-005	0,10001385180594408	0,000256643951	0,0056660772067011418	-0,00021140895870384653	0,0056660772067011418
1	1	0	1	0	0	1	30633,24	0,100000001	2,57003665	5,5563267125851578E-005	0,10001388203742026	0,000257039355	0,0059994567195529933	-0,00022384779656187133	0,0059994567195529933
1	1	0	1	0	0	1	30645,24	0,100000001	2,5737412	5,5563250318583514E-005	0,10001385178433738	0,00025740976	0,0063328360426542848	-0,00023628662734004762	0,0063328360426542848
1	1	0	1	0	0	1	30657,24	0,100000001	2,57729268	5,5563125217954317E-005	0,1000136266032021	0,00025776439	0,0066662151785688461	-0,0002487254511340353	0,0066662151785688461
1	1	0	1	0	0	1	30669,24	0,100000001	2,5808444	5,5563194884194266E-005	0,10001375200243554	0,000258119922	0,0069995942031212352	-0,00026116427077295059	0,0069995942031212352
1	1	0	1	0	0	1	30681,24	0,100000001	2,58414793	5,5563202088077862E-005	0,10001376496942614	0,000258450367	0,0073329732196961203	-0,00027360309011421456	0,0073329732196961203
1	1	0	1	0	0	1	30693,24	0,100000001	2,58760405	5,5563240719338259E-005	0,10001383450569571	0,000258796208	0,00766635267041344	-0,00028604192565391642	0,00766635267041344
1	1	0	1	0	0	1	30705,24	0,100000001	2,59088826	5,5563155512842867E-005	0,10001368113400214	0,000259124266	0,0079997316856492915	-0,0002984807449452192	0,0079997316856492915
1	1	0	1	0	0	1	30717,24	0,100000001	2,59413457	5,556304870090551E-005	0,10001348887251258	0,000259448454	0,0083331101778995034	-0,00031091954472322464	0,0083331101778995034
1	1	0	1	0	0	1	30729,24	0,100000001	2,59755254	5,5563103469295635E-005	0,10001358745561598	0,00025979054	0,0086664888535937702	-0,00032335835134577434	0,0086664888535937702
1	1	0	1	0	0	1	30741,24	0,100000001	2,60064578	5,5563164246579014E-005	0,10001369685472741	0,000260100205	0,0089998678077961254	-0,00033579716835983533	0,0089998678077961254
1	1	0	1	0	0	1	30753,24	0,100000001	2,60391116	5,556315586467584E-005	0,10001368176730149	0,00026042675	0,0093332467330906355	-0,00034823598429530573	0,0093332467330906355
1	1	0	1	0	0	1	30765,24	0,100000001	2,60715723	5,5563018040938509E-005	0,10001343368457131	0,000260750734	0,0096666252315852608	-0,00036067478430629862	0,0096666252315852608
1	1	0	1	0	0	1	30777,24	0,100000001	2,61042237	5,5563120380043981E-005	0,10001361789496339	0,000261077774	0,010000004010984989	-0,00037311359479823853	0,010000004010984989
1	1	0	1	0	0	1	30789,24	0,100000001	2,61359215	5,556309874024656E-005	0,10001357894332757	0,000261394714	0,010333382824897045	-0,00038555240657787987	0,010333382824897045
1	1	0	1	0	0	1	30801,24	0,100000001	2,6168766	5,5563249606639149E-005	0,1000138505028375	0,000261723908	0,010666761994250226	-0,00039799123161950739	0,010666761994250226
1	1	0	1	0	0	1	30813,24	0,100000001	2,6201036	5,556310496520665E-005	0,10001359014825584	0,000262045971	0,011000141171307722	-0,00041043005694859328	0,011000141171307722
1	1	0	1	0	0	1	30825,24	0,100000001	2,62342596	5,5562958178006944E-005	0,10001332593129318	0,000262377551	0,011333519862635792	-0,00042286886415446125	0,011333519862635792
1	1	0	1	0	0	1	30837,24	0,100000001	2,62692046	5,5563053947356013E-005	0,1000134983161236	0,000262727495	0,011666898056440166	-0,0004353076527970512	0,011666898056440166
1	1	0	1	0	0	1	30849,24	0,100000001	2,63012838	5,5563173553182022E-005	0,10001371360661302	0,000263048918	0,012000276782564928	-0,00044774646130123046	0,012000276782564928
1	1	0	1	0	0	1	30861,24	0,100000001	2,63350821	5,5563184233175386E-005	0,10001373283060131	0,000263386988	0,012333655750136517	-0,00046018527881411558	0,012333655750136517
1	1	0	1	0	0	1	30873,24	0,100000001	2,63700247	5,5563037489023469E-005	0,10001346869112464	0,000263735768	0,012667034301785238	-0,0004726240808083593	0,012667034301785238
1	1	0	1	0	0	1	30885,24	0,100000001	2,64032507	5,5563007181303366E-005	0,10001341413722782	0,00026406793	0,013000412284420706	-0,00048506286157195334	0,013000412284420706
1	1	0	1	0	0	1	30897,24	0,100000001	2,64391494	5,5562991332262752E-005	0,10001338560895437	0,000264426897	0,013333790080879824	-0,0004975016353890576	0,013333790080879824
1	1	0	1	0	0	1	30909,24	0,100000001	2,64729476	5,5563060149136518E-005	0,10001350947932862	0,000264765229	0,013667168349910229	-0,00050994042683843187	0,013667168349910229
1	1	0	1	0	0	1	30921,24	0,100000001	2,65094185	5,5563108176820813E-005	0,10001359592916141	0,00026513022	0,014000546800784883	-0,00052237922507265952	0,014000546800784883
1	1	0	1	0	0	1	30933,24	0,100000001	2,65456986	5,5563113784624474E-005	0,10001360602320811	0,000265493116	0,014333925280958525	-0,000534818024400072	0,014333925280958525
1	1	0	1	0	0	1	30945,24	0,100000001	2,65829349	5,5563130792644288E-005	0,10001363663764416	0,000265865587	0,014667303936157488	-0,00054725683025791424	0,014667303936157488
1	1	0	1	0	0	1	30957,24	0,100000001	2,66197872	5,5563031564156211E-005	0,10001345802636347	0,000266233692	0,015000682289865808	-0,00055969562486673542	0,015000682289865808
1	1	0	1	0	0	1	30969,24	0,100000001	2,66579771	5,5562973522477683E-005	0,10001335355134085	0,00026661536	0,015334060213725296	-0,00057213440343731878	0,015334060213725296
1	1	0	1	0	0	1	30981,24	0,100000001	2,66952109	5,5563044515748819E-005	0,10001348133923045	0,000266988092	0,015667438602145869	-0,00058457319934130074	0,015667438602145869
1	1	0	1	0	0	1	30993,24	0,100000001	2,67337823	5,556305715110567E-005	0,10001350408287306	0,000267373922	0,016000816962488099	-0,00059701199419764198	0,016000816962488099
1	1	0	1	0	0	1	31005,24	0,100000001	2,67729282	5,5562982245865792E-005	0,10001336925343965	0,000267765077	0,016334195142337539	-0,00060945078231955456	0,016334195142337539
1	1	0	1	0	0	1	31017,24	0,100000001	2,68116903	5,5563070560495059E-005	0,10001352821977424	0,000268153177	0,016667573830281808	-0,00062188958939916826	0,016667573830281808
1	1	0	1	0	0	1	31029,24	0,100000001	2,68523622	5,5563086855742669E-005	0,1000135575512203	0,000268560019	0,017000952324157485	-0,00063432838923782208	0,017000952324157485
1	1	0	1	0	0	1	31041,24	0,100000001	2,68941808	5,5563022463272013E-005	0,10001344164477171	0,00026897795	0,017334331018496419	-0,00064676719655602931	0,017334331018496419
1	1	0	1	0	0	1	31053,24	0,100000001	2,69350433	5,5563015947325357E-005	0,1000134299160676	0,000269386597	0,017667709090693242	-0,00065920598066127808	0,017667709090693242
1	1	0	1	0	0	1	31065,24	0,100000001	2,69766712	5,5563064677019917E-005	0,10001351762951885	0,000269803189	0,018001087510308573	-0,00067164477772917837	0,018001087510308573
1	1	0	1	0	0	1	31077,24	0,100000001	2,70202065	5,5563073815157011E-005	0,10001353407816584	0,000270238641	0,018334466124380326	-0,00068408358205250931	0,018334466124380326
1	1	0	1	0	0	1	31089,24	0,100000001	2,70639348	5,5563014799108109E-005	0,10001342784927651	0,000270675693	0,018667844368110214	-0,00069652237255788736	0,018667844368110214
1	1	0	1	0	0	1	31101,24	0,100000001	2,71072793	5,5562956970185043E-005	0,10001332375721373	0,000271108904	0,019001222307826202	-0,00070896115172009792	0,019001222307826202
1	1	0	1	0	0	1	31113,24	0,100000001	2,71531081	5,5562947949601549E-005	0,10001330752016325	0,000271567202	0,019334599993976986	-0,00072139992142144986	0,019334599993976986
1	1	0	1	0	0	1	31125,24	0,100000001	2,71968341	5,556306499698096E-005	0,10001351820544875	0,000272005098	0,019667977987219178	-0,00073383870258079514	0,019667977987219178
1	1	0	1	0	0	1	31137,24	0,100000001	2,72470546	5,5563031497514912E-005	0,10001345790640912	0,000272507226	0,020001356319644912	-0,00074627749639553446	0,020001356319644912
1	1	0	1	0	0	1	31149,24	0,100000001	2,72921181	5,5563070363468595E-005	0,10001352786512661	0,000272958103	0,020334734351226141	-0,00075871627898536077	0,020334734351226141
1	1	0	1	0	0	1	31161,24	0,100000001	2,73404288	5,5563023488968614E-005	0,10001344349102562	0,000273441052	0,020668112589089523	-0,00077115506927185139	0,020668112589089523
1	1	0	1	0	0	1	31173,24	0,100000001	2,73891211	5,556312574280633E-005	0,10001362754793573	0,000273928541	0,021001491120659344	-0,00078359387051692429	0,021001491120659344
1	1	0	1	0	0	1	31185,24	0,100000001	2,74391484	5,5563045489705274E-005	0,1000134830923521	0,000274428487	0,021334869539013869	-0,00079603266753778227	0,021334869539013869
1	1	0	1	0	0	1	31197,24	0,100000001	2,74905157	5,5563075838403565E-005	0,10001353772000968	0,000274942373	0,021668247981838166	-0,00080847146547164045	0,021668247981838166
1	1	0	1	0	0	1	31209,24	0,100000001	2,75411153	5,5563048757198784E-005	0,10001348897384046	0,000275448314	0,022001626027840403	-0,00082091024859953382	0,022001626027840403
1	1	0	1	0	0	1	31221,24	0,100000001	2,75949645	5,556305067448153E-005	0,10001349242494944	0,00027598688	0,022335004768194947	-0,0008333490576346455	0,022335004768194947
1	1	0	1	0	0	1	31233,24	0,100000001	2,76484299	5,5563015807833933E-005	0,10001342966498301	0,00027652143	0,022668382898838678	-0,00084578784392062694	0,022668382898838678
1	1	0	1	0	0	1	31245,24	0,100000001	2,77039957	5,5563069283134406E-005	0,10001352592052504	0,00027707743	0,023001761196567885	-0,00085822663644079206	0,023001761196567885
1	1	0	1	0	0	1	31257,24	0,100000001	2,77607083	5,5563035322560198E-005	0,10001346479149072	0,00027764446	0,023335139721821683	-0,0008706654374502057	0,023335139721821683
1	1	0	1	0	0	1	31269,24	0,100000001	2,78187561	5,556293520414167E-005	0,1000132845783352	0,000278224528	0,023668517582401738	-0,00088310421365974822	0,023668517582401738
1	1	0	1	0	0	1	31281,24	0,100000001	2,78779507	5,5563083939254285E-005	0,10001355230154114	0,000278817286	0,024001895794986541	-0,00089554300300306112	0,024001895794986541
1	1	0	1	0	0	1	31293,24	0,100000001	2,79407716	5,5563016298744416E-005	0,1000134305486219	0,00027944523	0,024335274285421712	-0,00090798180271334502	0,024335274285421712
1	1	0	1	0	0	1	31305,24	0,100000001	2,80024481	5,5563137919124634E-005	0,10001364946530894	0,000280062697	0,024668652616849485	-0,0009204205964908489	0,024668652616849485
1	1	0	1	0	0	1	31317,24	0,100000001	2,80681348	5,5563034967001939E-005	0,10001346415148586	0,000280719134	0,025002031126295632	-0,00093285939691045786	0,025002031126295632
1	1	0	1	0	0	1	31329,24	0,100000001	2,81366873	5,5563070882111789E-005	0,10001352879868437	0,000281404937	0,025335409543507315	-0,00094529819388867482	0,025335409543507315
1	1	0	1	0	0	1	31341,24	0,100000001	2,82048559	5,5563084197127162E-005	0,10001355276571232	0,000282086781	0,025668787880210928	-0,00095773698786302746	0,025668787880210928
1	1	0	1	0	0	1	31353,24	0,100000001	2,82777977	5,5563055651469363E-005	0,10001350138352766	0,000282816152	0,026002166169034627	-0,00097017578005091622	0,026002166169034627
1	1	0	1	0	0	1	31365,24	0,100000001	2,83509302	5,5563022876365318E-005	0,10001344238833968	0,000283547415	0,026335544542927398	-0,00098261457541284646	0,026335544542927398
1	1	0	1	0	0	1	31377,24	0,100000001	2,84280753	5,5563045961575373E-005	0,10001348394171827	0,000284319074	0,026668922859586883	-0,00099505336863932557	0,026668922859586883
1	1	0	1	0	0	1	31389,24	0,100000001	2,85071278	5,556310681005319E-005	0,10001359346897966	0,000285110029	0,027002301415970864	-0,0010074921708102483	0,027002301415970864
1	1	0	1	0	0	1	31401,24	0,100000001	2,85875177	5,5562988671163718E-005	0,10001338081897603	0,00028591344	0,027335679345135997	-0,0010199309495787925	0,027335679345135997
1	1	0	1	0	0	1	31413,24	0,100000001	2,86728716	5,5563015851295654E-005	0,10001342974321413	0,00028676723	0,027669057443122592	-0,001032369734646292	0,027669057443122592
1	1	0	1	0	0	1	31425,24	0,100000001	2,87616634	5,5562895883702573E-005	0,10001321380154397	0,000287654635	0,028002435400261754	-0,0010448085144585846	0,028002435400261754
1	1	0	1	0	0	1	31437,24	0,100000001	2,88519812	5,5562925063073638E-005	0,10001326632441251	0,000288558076	0,028335812966966486	-0,0010572472797032438	0,028335812966966486
1	1	0	1	0	0	1	31449,24	0,100000001	2,89465022	5,5562877229518362E-005	0,10001318022401198	0,000289503165	0,028669190167653584	-0,001069686031291293	0,028669190167653584
1	1	0	1	0	0	1	31461,24	0,100000001	2,90452218	5,5562835001697139E-005	0,10001310421393286	0,000290490279	0,029002567483377645	-0,0010821247871715258	0,029002567483377645
1	1	0	1	0	0	1	31473,24	0,100000001	2,91469979	5,556290991190407E-005	0,10001323905230696	0,000291508564	0,029335944896744461	-0,0010945635466949413	0,029335944896744461
1	1	0	1	0	0	1	31485,24	0,100000001	2,92524028	5,5563031763252282E-005	0,1000134583847364	0,000292563403	0,02966932293605111	-0,0011070023295730134	0,02966932293605111
1	1	0	1	0	0	1	31497,24	0,100000001	2,93644881	5,5563042159709664E-005	0,10001347709835992	0,000293684454	0,030002700795867072	-0,0011194411057540464	0,030002700795867072
1	1	0	1	0	0	1	31509,24	0,100000001	2,94802046	5,5562938339594342E-005	0,10001329022215006	0,000294841215	0,030336078678500429	-0,0011318798827864274	0,030336078678500429
1	1	0	1	0	0	1	31521,24	0,100000001	2,95995474	5,5563018172151514E-005	0,10001343392075472	0,000296035229	0,030669456426576301	-0,0011443186547982877	0,030669456426576301
1	1	0	1	0	0	1	31533,24	0,100000001	2,97257638	5,5562974458767309E-005	0,10001335523666221	0,000297297345	0,031002834319972845	-0,0011567574322322576	0,031002834319972845
1	1	0	1	0	0	1	31545,24	0,100000001	2,98584747	5,5563021179702547E-005	0,10001343933434666	0,000298624887	0,03133621231467991	-0,0011691962134462592	0,03133621231467991
1	1	0	1	0	0	1	31557,24	0,100000001	2,99972939	5,556298358986775E-005	0,1000133716726432	0,000300013053	0,031669590477444333	-0,0011816350009307067	0,031669590477444333
1	1	0	1	0	0	1	31569,24	0,100000001	3,01420331	5,5562993326948749E-005	0,10001338919938922	0,000301460677	0,032002968299219686	-0,0011940737756923938	0,032002968299219686
1	1	0	1	0	0	1	31581,24	0,100000001	3,02951741	5,5563095804303885E-005	0,10001357365863067	0,000302992848	0,032336346757128518	-0,0012065125741890762	0,032336346757128518
1	1	0	1	0	0	1	31593,24	0,100000001	3,04553819	5,5563062115675872E-005	0,10001351301909952	0,000304594985	0,032669724952171354	-0,0012189513628778747	0,032669724952171354
1	1	0	1	0	0	1	31605,24	0,100000001	3,06243706	5,556293457498153E-005	0,10001328344584694	0,000306284375	0,033003103021500115	-0,0012313901468761122	0,033003103021500115
1	1	0	1	0	0	1	31617,24	0,100000001	3,08046269	5,5562984365969894E-005	0,10001337306962707	0,000308087474	0,033336481218266086	-0,0012438289356292032	0,033336481218266086
1	1	0	1	0	0	1	31629,24	0,100000001	3,09925199	5,55631565021144E-005	0,10001368291469093	0,000309967611	0,033669859593615859	-0,0012562677310454963	0,033669859593615859
1	1	0	1	0	0	1	31641,24	0,100000001	3,11937809	5,5563108070443072E-005	0,10001359573768149	0,000311980228	0,034003238329670176	-0,0012687065399201605	0,034003238329670176
1	1	0	1	0	0	1	31653,24	0,100000001	3,14066887	5,5563101786706182E-005	0,10001358442695493	0,000314109551	0,034336616799524774	-0,0012811453388625554	0,034336616799524774
1	1	0	1	0	0	1	31665,24	0,100000001	3,16327739	5,5563170161926086E-005	0,10001370750235227	0,000316371094	0,034669995773996013	-0,0012935841566328758	0,034669995773996013
1	1	0	1	0	0	1	31677,24	0,100000001	3,18706942	5,5563084599044589E-005	0,1000135534891637	0,000318750128	0,035003374442613882	-0,0013060229629913954	0,035003374442613882
1	1	0	1	0	0	1	31689,24	0,100000001	3,21280956	5,5563117522746323E-005	0,10001361275182755	0,000321324682	0,035336753254806502	-0,0013184617747068822	0,035336753254806502
1	1	0	1	0	0	1	31701,24	0,100000001	3,23996234	5,5563056383281946E-005	0,10001350270079032	0,000324039982	0,03567013190079241	-0,0013309005802209731	0,03567013190079241
1	1	0	1	0	0	1	31713,24	0,100000001	3,26908207	5,5562988045728864E-005	0,1000133796931933	0,000326951937	0,036003509929127251	-0,0013433393626896725	0,036003509929127251
1	1	0	1	0	0	1	31725,24	0,100000001	3,300035	5,5563170917746093E-005	0,10001370886282829	0,00033004873	0,036336888438779117	-0,001355778163116957	0,036336888438779117
1	1	0	1	0	0	1	31737,24	0,100000001	3,33305001	5,5563059084945254E-005	0,10001350756378435	0,000333350035	0,036670267192969805	-0,0013682169726683139	0,036670267192969805
1	1	0	1	0	0	1	31749,24	0,100000001	3,36829925	5,556307295130359E-005	0,10001353252322965	0,000336875499	0,037003645787209363	-0,0013806557762516787	0,037003645787209363
1	1	0	1	0	0	1	31761,24	0,100000001	3,40612626	5,5563096013747981E-005	0,10001357403563005	0,000340658851	0,03733702456985257	-0,0013930945868646371	0,03733702456985257
1	1	0	1	0	0	1	31773,24	0,100000001	3,44607282	5,556295557816823E-005	0,10001332125158346	0,000344653177	0,037670402719668301	-0,001405533373865952	0,037670402719668301
1	1	0	1	0	0	1	31785,24	0,100000001	3,48888373	5,5563028982530035E-005	0,10001345337943629	0,000348935311	0,038003780878057178	-0,0014179721611871416	0,038003780878057178
1	1	0	1	0	0	1	31797,24	0,100000001	3,53438687	5,556309372807543E-005	0,10001356992141941	0,000353486656	0,038337159489608147	-0,0014304109654164189	0,038337159489608147
1	1	0	1	0	0	1	31809,24	0,100000001	3,58281136	5,556307255435321E-005	0,10001353180871894	0,00035832962	0,038670538181740883	-0,0014428497726523101	0,038670538181740883
1	1	0	1	0	0	1	31821,24	0,100000001	3,63459682	5,5563180592324998E-005	0,10001372627707053	0,000363509578	0,039003917330734112	-0,0014552885969342803	0,039003917330734112
1	1	0	1	0	0	1	31833,24	0,100000001	3,68951392	5,5563076125250925E-005	0,10001353823633491	0,000369001355	0,039337295877275462	-0,0014677273987379613	0,039337295877275462
1	1	0	1	0	0	1	31845,24	0,100000001	3,74761963	5,5563104222218195E-005	0,10001358881087662	0,000374812895	0,039670674433948768	-0,001480166200919679	0,039670674433948768
1	1	0	1	0	0	1	31857,24	0,100000001	3,8091433	5,5563048609428941E-005	0,10001348870785475	0,000380965706	0,040004052486852314	-0,0014926049843050694	0,040004052486852314
1	1	0	1	0	0	1	31869,24	0,100000001	3,87366509	5,5563104753692947E-005	0,10001358976753117	0,000387419161	0,040337431070723558	-0,0015050437875015789	0,040337431070723558
1	1	0	1	0	0	1	31881,24	0,100000001	3,94110823	5,5563030489203002E-005	0,10001345609144765	0,000394163857	0,040670809190304422	-0,0015174825733747898	0,040670809190304422
1	1	0	1	0	0	1	31893,24	0,100000001	4,01154947	5,5563001805709466E-005	0,10001340446115869	0,00040120873	0,041004187193427322	-0,0015299213549027974	0,041004187193427322
1	1	0	1	0	0	1	31905,24	0,100000001	4,08414841	5,556304757669568E-005	0,10001348684893485	0,000408469932	0,041337565281220275	-0,001542360139589959	0,041337565281220275
1	1	0	1	0	0	1	31917,24	0,100000001	4,15619326	5,5562971514546208E-005	0,10001334993706416	0,000415674818	0,041670943330107136	-0,0015547989228254816	0,041670943330107136
1	1	0	1	0	0	1	31929,24	0,100000001	4,22462368	5,5563100289553408E-005	0,1000135817320799	0,000422519748	0,042004321679656378	-0,0015672377172791219	0,042004321679656378
1	1	0	1	0	0	1	31941,24	0,100000001	4,28977585	5,5563057251274586E-005	0,10001350426317712	0,000429035514	0,042337699714436378	-0,0015796764999882986	0,042337699714436378
1	1	0	1	0	0	1	31953,24	0,100000001	4,34986734	5,556308539625671E-005	0,10001355492414554	0,000435045687	0,042671078123204896	-0,0015921152966514899	0,042671078123204896
1	1	0	1	0	0	1	31965,24	0,100000001	4,40480328	5,5563227493315936E-005	0,10001381069885525	0,00044054116	0,043004456886261363	-0,001604554106533641	0,043004456886261363
1	1	0	1	0	0	1	31977,24	0,100000001	4,45362902	5,5563013078851834E-005	0,1000134247528152	0,000445422687	0,043337835695798278	-0,0016169929181500397	0,043337835695798278
1	1	0	1	0	0	1	31989,24	0,100000001	4,49538946	5,5563162712587251E-005	0,10001369409354218	0,000449600513	0,043671213941947539	-0,0016294317087456877	0,043671213941947539
1	0	0	0	0	0	2	31998,75	-0,100000001	4,16392136	-5,5544569397552147E-005	-0,099980226126073805	0,000416309806	0,043490975449424742	-0,0016227067682564317	0,00022218306422068013
1	0	0	0	0	0	2	32010,75	-0,100000001	3,77279997	-5,5544688315441216E-005	-0,09998044017827671	0,00037720619	0,043157707903721766	-0,0016102721080432726	0,00055545060992365082
1	0	0	0	0	0	2	32022,75	-0,100000001	3,41320467	-5,5544639040612512E-005	-0,099980351483583987	0,000341253413	0,042824439844390675	-0,0015978374286659584	0,00088871866925474688
1	0	0	0	0	0	2	32034,75	-0,100000001	3,07293344	-5,5544727759642733E-005	-0,099980511177840307	0,000307233451	0,042491171578046854	-0,0015854027415647206	0,0012219869355985686
1	0	0	0	0	0	2	32046,75	-0,100000001	2,77090931	-5,5544623155146835E-005	-0,099980322889745421	0,000277036394	0,042157903876600672	-0,0015729680755405731	0,0015552546370447507
1	0	0	0	0	0	2	32058,75	-0,100000001	2,60010552	-5,5544705453846189E-005	-0,099980471027406042	0,000259959779	0,041824635710476275	-0,0015605333921786573	0,0018885228031691574
1	0	0	0	0	0	2	32070,75	-0,100000001	2,54047203	-5,5544811626275379E-005	-0,099980662137780915	0,000253998063	0,041491367096483802	-0,0015480986921061808	0,0022217914171616234
1	0	0	0	0	0	2	32082,75	-0,100000001	2,5052228	-5,5544680239839686E-005	-0,099980425642193779	0,00025047324	0,041158098683753037	-0,0015356639995430496	0,0025550598298923834
1	0	0	0	0	0	2	32094,75	-0,100000001	2,47950196	-5,5544687501672237E-005	-0,099980438713492544	0,000247901684	0,040824830714776371	-0,0015232293235369802	0,0028883277988690458
1	0	0	0	0	0	2	32106,75	-0,100000001	2,45929956	-5,5544641722821523E-005	-0,099980356311560269	0,000245881645	0,040491563085201805	-0,0015107946601944595	0,0032215954284436166
1	0	0	0	0	0	2	32118,75	-0,100000001	2,44310713	-5,5544703228192198E-005	-0,099980467021228813	0,000244262978	0,040158294864724998	-0,0014983599748045818	0,003554863648920423
1	0	0	0	0	0	2	32130,75	-0,100000001	2,43170738	-5,5544722220136058E-005	-0,099980501206728179	0,00024312333	0,039825026563310886	-0,0014859252863948243	0,0038881319503345421
1	0	0	0	0	0	2	32142,75	-0,100000001	2,42492867	-5,5544681270089414E-005	-0,099980427496643328	0,0002424454	0,039491758519123507	-0,0014734906075825427	0,0042213999945219187
1	0	0	0	0	0	2	32154,75	-0,100000001	2,42046046	-5,5544694030450451E-005	-0,099980450465293466	0,000241998729	0,039158490625787219	-0,0014610559343987174	0,0045546678878582195
1	0	0	0	0	0	2	32166,75	-0,100000001	2,41681337	-5,5544600376652346E-005	-0,099980281888454848	0,000241633679	0,038825222881053978	-0,001448621266759472	0,0048879356325914483
1	0	0	0	0	0	2	32178,75	-0,100000001	2,41358638	-5,55445960238576E-005	-0,099980274053424192	0,000241311034	0,038491955336263296	-0,001436186606580352	0,0052212031773821363
1	0	0	0	0	0	2	32190,75	-0,100000001	2,41043568	-5,5544576624201408E-005	-0,099980239134042637	0,000240995942	0,038158688057251373	-0,0014237519563177949	0,0055544704563940582
1	0	0	0	0	0	2	32202,75	-0,100000001	2,40753341	-5,554460630317529E-005	-0,099980292556196262	0,000240705893	0,037825420602899546	-0,0014113172995130701	0,0058877379107458739
1	0	0	0	0	0	2	32214,75	-0,100000001	2,40470719	-5,5544584811561638E-005	-0,099980253871291226	0,000240423236	0,037492153156364211	-0,0013988826429999894	0,0062210053572812032
1	0	0	0	0	0	2	32226,75	-0,100000001	2,40188122	-5,5544715971582464E-005	-0,099980489959331558	0,000240141264	0,037158884934862957	-0,0013864479575718882	0,006554273578782464
1	0	0	0	0	0	2	32238,75	-0,100000001	2,39909339	-5,5544763473586906E-005	-0,099980575462940608	0,00023986274	0,036825616523805677	-0,001374013265071197	0,0068875419898397402
1	0	0	0	0	0	2	32250,75	-0,100000001	2,39628649	-5,5544833643154963E-005	-0,099980701768164634	0,000239582398	0,036492347637375693	-0,0013615785548337109	0,0072208108762697216
1	0	0	0	0	0	2	32262,75	-0,100000001	2,39349866	-5,5544773020264173E-005	-0,099980592646959898	0,000239303408	0,036159078800240832	-0,0013491438464354918	0,0075540797134045926
1	0	0	0	0	0	2	32274,75	-0,100000001	2,39059615	-5,5544779671563046E-005	-0,099980604619297997	0,000239013243	0,035825810020378579	-0,001336709140174191	0,0078873484932668493
1	0	0	0	0	0	2	32286,75	-0,100000001	2,38756013	-5,5544807511899206E-005	-0,099980654731903706	0,000238709821	0,035492541178554803	-0,0013242744316010227	0,0082206173350906202
1	0	0	0	0	0	2	32298,75	-0,100000001	2,3845048	-5,5544760992957485E-005	-0,09998057099780759	0,000238404158	0,03515927244053872	-0,0013118397269010589	0,0085538860731066906
1	0	0	0	0	0	2	32310,75	-0,100000001	2,38141155	-5,5544934494213926E-005	-0,09998088330007296	0,000238095628	0,034826003046918323	-0,0012994049977396165	0,0088871554667270848
1	0	0	0	0	0	2	32322,75	-0,100000001	2,37820363	-5,5544942772636806E-005	-0,09998089820123433	0,000237774933	0,034492733579898534	-0,001286970265839544	0,0092204249337468698
1	0	0	0	0	0	2	32334,75	-0,100000001	2,37480474	-5,55448152071072E-005	-0,099980668583278259	0,000237434564	0,034159464196407622	-0,0012745355370560464	0,009553694317237783
1	0	0	0	0	0	2	32346,75	-0,100000001	2,37150121	-5,554483195973767E-005	-0,099980698738013466	0,000237104352	0,033826195350470726	-0,0012621008283294118	0,009886963163174688
1	0	0	0	0	0	2	32358,75	-0,100000001	2,36785412	-5,554487878291143E-005	-0,09998078301972727	0,000236739914	0,03349292608242656	-0,0012496661038533875	0,010220232431218853
1	0	0	0	0	0	2	32370,75	-0,100000001	2,36428332	-5,554490476805303E-005	-0,099980829792982694	0,000236383014	0,033159656654287219	-0,001237231373403997	0,0105535018593582
1	0	0	0	0	0	2	32382,75	-0,100000001	2,36046433	-5,5544918901804422E-005	-0,099980855233735514	0,000236001244	0,032826386832545286	-0,0012247966282687645	0,010886771681100131
1	0	0	0	0	0	2	32394,75	-0,100000001	2,35666442	-5,5544912777841094E-005	-0,099980844210601382	0,000235621294	0,0324931169796144	-0,0012123618819698301	0,011220041534031019
1	0	0	0	0	0	2	32406,75	-0,100000001	2,35269284	-5,5544959382878406E-005	-0,099980928099669581	0,000235224419	0,03215984714408352	-0,0011999271363201136	0,011553311369561899
1	0	0	0	0	0	2	32418,75	-0,100000001	2,34866381	-5,554480782482359E-005	-0,099980655295167603	0,000234820953	0,031826577677040973	-0,0011874924044191923	0,011886580836604454
1	0	0	0	0	0	2	32430,75	-0,100000001	2,34455824	-5,5544917702674867E-005	-0,099980853075302285	0,000234410938	0,031493308288942707	-0,001175057675463788	0,012219850224702725
1	0	0	0	0	0	2	32442,75	-0,100000001	2,34016657	-5,5544914089557197E-005	-0,099980846571690406	0,000233971834	0,031160038917183149	-0,0011626229471180029	0,012553119596462285
1	0	0	0	0	0	2	32454,75	-0,100000001	2,33575559	-5,5544761114236384E-005	-0,099980571216109606	0,000233530183	0,030826770026933088	-0,0011501882367379846	0,012886388486712349
1	0	0	0	0	0	2	32466,75	-0,100000001	2,33121109	-5,5544859024799533E-005	-0,099980747455125402	0,000233076222	0,030493501065211258	-0,0011377535236912586	0,013219657448434173
1	0	0	0	0	0	2	32478,75	-0,100000001	2,3267045	-5,5544808069864909E-005	-0,099980655736241984	0,000232625447	0,030160231992421555	-0,0011253188065004408	0,013552926521223872
1	0	0	0	0	0	2	32490,75	-0,100000001	2,32200718	-5,5544830536676774E-005	-0,099980696176503821	0,0002321559	0,029826963121602611	-0,0011128840968454234	0,013886195392042819
1	0	0	0	0	0	2	32502,75	-0,100000001	2,31729078	-5,5544750404440698E-005	-0,099980551938477133	0,000231684011	0,029493694475061037	-0,0011004493955584963	0,014219464038584389
1	0	0	0	0	0	2	32514,75	-0,100000001	2,31244063	-5,554471224463648E-005	-0,09998048325082871	0,000231198937	0,029160425795101965	-0,0010880146930247174	0,014552732718543469
1	0	0	0	0	0	2	32526,75	-0,100000001	2,30738044	-5,5544814564701581E-005	-0,099980667426948122	0,000230693433	0,028827157275165632	-0,0010755799964616024	0,014886001238479805
1	0	0	0	0	0	2	32538,75	-0,100000001	2,3023777	-5,5544814293169312E-005	-0,099980666938190054	0,000230193255	0,028493888561061366	-0,0010631452926538205	0,015219269952584067
1	0	0	0	0	0	2	32550,75	-0,100000001	2,29714561	-5,5544893360386291E-005	-0,099980809259182336	0,000229670477	0,028160619607131606	-0,001050710579897827	0,015552538906513827
1	0	0	0	0	0	2	32562,75	-0,100000001	2,29210472	-5,554474375438359E-005	-0,099980539968374208	0,000229165875	0,027827351179580397	-0,0010382758867817248	0,015885807334065034
1	0	0	0	0	0	2	32574,75	-0,100000001	2,28685355	-5,5544770009815693E-005	-0,09998058722815255	0,000228640958	0,027494082631438234	-0,0010258411891662122	0,016219075882207197
1	0	0	0	0	0	2	32586,75	-0,100000001	2,28137326	-5,5544704667809939E-005	-0,099980469612540787	0,000228092773	0,027160814292536518	-0,0010134064993577419	0,016552344221108912
1	0	0	0	0	0	2	32598,75	-0,100000001	2,27596951	-5,5544693115684723E-005	-0,099980448818715136	0,000227552446	0,026827545954480032	-0,0010009718095808085	0,016885612559165398
1	0	0	0	0	0	2	32610,75	-0,100000001	2,27054644	-5,554470029556089E-005	-0,09998046174249239	0,000227010285	0,026494277801840762	-0,00098853712672204019	0,017218880711804669
1	0	0	0	0	0	2	32622,75	-0,100000001	2,26487517	-5,5544835561265542E-005	-0,099980705220763712	0,000226443823	0,026161009102550733	-0,00097610242346699763	0,017552149411094698
1	0	0	0	0	0	2	32634,75	-0,100000001	2,25912762	-5,5544756613257862E-005	-0,09998056311434816	0,000225868847	0,025827740205529334	-0,00096366771283433152	0,017885418308116096
1	0	0	0	0	0	2	32646,75	-0,100000001	2,2532084	-5,5544740923162963E-005	-0,099980534872177024	0,000225276977	0,025494471919767229	-0,00095123302500857165	0,018218686593878205
1	0	0	0	0	0	2	32658,75	-0,100000001	2,24742246	-5,5544785119179219E-005	-0,099980614425007232	0,000224698684	0,025161203477024291	-0,0009387983313256457	0,018551955036621142
1	0	0	0	0	0	2	32670,75	-0,100000001	2,24148393	-5,5544791691419149E-005	-0,099980626255039258	0,000224104966	0,024827934632358541	-0,0009263636226464393	0,018885223881286893
1	0	0	0	0	0	2	32682,75	-0,100000001	2,23518276	-5,5544764518737798E-005	-0,099980577344212224	0,000223474868	0,024494665896259334	-0,00091392891801799667	0,019218492617386099
1	0	0	0	0	0	2	32694,75	-0,100000001	2,22890043	-5,5544730653779379E-005	-0,099980516387286336	0,000222846618	0,024161397528762291	-0,00090149422714259635	0,019551760984883142
1	0	0	0	0	0	2	32706,75	-0,100000001	2,22261834	-5,5544730406668454E-005	-0,099980515942486669	0,000222218529	0,023828129188700771	-0,0008890595372908521	0,019885029324944662
1	0	0	0	0	0	2	32718,75	-0,100000001	2,21618319	-5,5544786966509286E-005	-0,099980617750201408	0,000221575363	0,023494860550286954	-0,00087662483630718272	0,02021829796335848
1	0	0	0	0	0	2	32730,75	-0,100000001	2,20942378	-5,5544780270920864E-005	-0,09998060569814208	0,000220899528	0,023161591952451072	-0,00086419013683753062	0,020551566561194362
1	0	0	0	0	0	2	32742,75	-0,100000001	2,2027595	-5,5544781273023955E-005	-0,09998060750192768	0,00022023324	0,02282832342321393	-0,00085175543992738957	0,020884835090431504
1	0	0	0	0	0	2	32754,75	-0,100000001	2,19571352	-5,5544697527670195E-005	-0,099980456760289075	0,000219528447	0,022495054738822998	-0,00083932073722825229	0,021218103774822435
1	0	0	0	0	0	2	32766,75	-0,100000001	2,18866754	-5,5544806744903328E-005	-0,099980653351311091	0,000218824411	0,022161786511680822	-0,00082688605158968064	0,021551372001964611
1	0	0	0	0	0	2	32778,75	-0,100000001	2,18146873	-5,5544724642402598E-005	-0,099980504170096474	0,000218104338	0,021828518494185152	-0,00081445137377330214	0,021884640019460282
1	0	0	0	0	0	2	32790,75	-0,100000001	2,17400265	-5,5544743592126502E-005	-0,099980538279599437	0,000217357956	0,021495250024613501	-0,00080201667908936077	0,022217908489031936
1	0	0	0	0	0	2	32802,75	-0,100000001	2,16636467	-5,5544712054232755E-005	-0,099980481511390797	0,000216594184	0,021161981396503011	-0,00078958197849012237	0,022551177117142422
1	0	0	0	0	0	2	32814,75	-0,100000001	2,15866947	-5,5544620619465907E-005	-0,099980316928810778	0,000215824461	0,02082871356363769	-0,0007771473075625504	0,022884444950007744
1	0	0	0	0	0	2	32826,75	-0,100000001	2,15068769	-5,5544632119023136E-005	-0,09998033762801376	0,000215026477	0,02049544571778808	-0,00076471263615051712	0,023217712795857354
1	0	0	0	0	0	2	32838,75	-0,100000001	2,14249611	-5,5544705664532051E-005	-0,099980470009929549	0,000214207772	0,020162177748654954	-0,00075227796013860992	0,02355098076499048
1	0	0	0	0	0	2	32850,75	-0,100000001	2,13392234	-5,5544682949781421E-005	-0,099980429123378496	0,000213350475	0,019828909595971389	-0,00073984327727818931	0,023884248917674045
1	0	0	0	0	0	2	32862,75	-0,100000001	2,12534881	-5,5544684010661312E-005	-0,099980431032962304	0,000212493294	0,019495641686051338	-0,00072740860347560179	0,024217516827594096
1	0	0	0	0	0	2	32874,75	-0,100000001	2,11652684	-5,5544677822540205E-005	-0,09998041989434432	0,000211611245	0,019162373438004899	-0,00071497391705706406	0,024550785075640534
1	0	0	0	0	0	2	32886,75	-0,100000001	2,10741878	-5,5544552945842349E-005	-0,099980195116288602	0,000210700135	0,018829105575449018	-0,00070253924502169728	0,024884052938196416
1	0	0	0	0	0	2	32898,75	-0,100000001	2,09796667	-5,5544644950164685E-005	-0,099980360724068506	0,000209755468	0,018495837758539117	-0,00069010457468944358	0,025217320755106317
1	0	0	0	0	0	2	32910,75	-0,100000001	2,08836198	-5,5544529833727411E-005	-0,099980153514481792	0,000208794751	0,018162570348075776	-0,00067766991952225728	0,025550588165569658
1	0	0	0	0	0	2	32922,75	-0,100000001	2,07833719	-5,5544637169688941E-005	-0,099980346719212186	0,00020779288	0,017829302492309859	-0,00066523524774023322	0,025883856021335574
1	0	0	0	0	0	2	32934,75	-0,100000001	2,06800675	-5,5544541155298554E-005	-0,099980173893309811	0,00020675968	0,017496035079461504	-0,00065280059248405888	0,02621712343418393
1	0	0	0	0	0	2	32946,75	-0,100000001	2,05735183	-5,5544625582380429E-005	-0,099980325862056909	0,000205694712	0,017162767633532154	-0,00064036593599358822	0,02655039088011328
1	0	0	0	0	0	2	32958,75	-0,100000001	2,04656315	-5,5544669163723789E-005	-0,09998040430847479	0,000204616212	0,016829499523369475	-0,00062793125471967898	0,026883658990275958
1	0	0	0	0	0	2	32970,75	-0,100000001	2,03520179	-5,5544664102296032E-005	-0,09998039519790487	0,000203480275	0,016496231428975946	-0,00061549657403413798	0,027216927084669488
1	0	0	0	0	0	2	32982,75	-0,100000001	2,02336287	-5,5544670299937331E-005	-0,099980406353659174	0,000202296636	0,016162963216876899	-0,00060306188895684582	0,027550195296768534
1	0	0	0	0	0	2	32994,75	-0,100000001	2,01123762	-5,5544745250294605E-005	-0,099980541264302016	0,000201084622	0,015829695172752854	-0,00059062721014692685	0,027883463340892579
1	0	0	0	0	0	2	33006,75	-0,100000001	1,99878764	-5,5544611670490771E-005	-0,099980300820655565	0,000199839385	0,01549642729142896	-0,00057819253741130022	0,028216731222216477
1	0	0	0	0	0	2	33018,75	-0,100000001	1,98568857	-5,5544609570668806E-005	-0,099980297040976038	0,000198529728	0,015163159882043882	-0,00056575788228434534	0,028549998631601555
1	0	0	0	0	0	2	33030,75	-0,100000001	1,97232211	-5,5544569777945677E-005	-0,099980225414074534	0,000197193207	0,01482989229590992	-0,0005533232205626521	0,028883266217735514
1	0	0	0	0	0	2	33042,75	-0,100000001	1,95836377	-5,5544632068110842E-005	-0,099980337536371622	0,000195797867	0,014496624989258413	-0,00054088856926882502	0,029216533524387021
1	0	0	0	0	0	2	33054,75	-0,100000001	1,94404256	-5,554463986472951E-005	-0,099980351570285184	0,000194366061	0,014163357028311403	-0,00052845389356235302	0,029549801485334029
1	0	0	0	0	0	2	33066,75	-0,100000001	1,92888129	-5,5544613880415757E-005	-0,099980304798520538	0,000192850144	0,013830088886397654	-0,00051601921110376877	0,02988306962724777
1	0	0	0	0	0	2	33078,75	-0,100000001	1,9132998	-5,554464785133799E-005	-0,099980365946180429	0,00019129242	0,01349682082872597	-0,00050358453178836896	0,030216337684919462
1	0	0	0	0	0	2	33090,75	-0,100000001	1,89718366	-5,5544632131026854E-005	-0,099980337649620442	0,000189681057	0,013163552915630728	-0,00049114985786731078	0,030549605598014701
1	0	0	0	0	0	2	33102,75	-0,100000001	1,88041842	-5,5544663766605984E-005	-0,099980394593662784	0,000188004982	0,012830285222913315	-0,0004787151921688457	0,030882873290732115
1	0	0	0	0	0	2	33114,75	-0,100000001	1,86308014	-5,5544759779340691E-005	-0,099980567416584909	0,000186271805	0,012497016556322646	-0,00046628049013385997	0,031216141957322784
1	0	0	0	0	0	2	33126,75	-0,100000001	1,84513092	-5,5544862577070797E-005	-0,099980752452498765	0,000184477583	0,012163747598054579	-0,0004538457772159984	0,031549410915590854
1	0	0	0	0	0	2	33138,75	-0,100000001	1,82634163	-5,5544734248270592E-005	-0,099980521460658829	0,000182598582	0,011830478838783654	-0,00044141107172298778	0,031882679674861779
1	0	0	0	0	0	2	33150,75	-0,100000001	1,8071512	-5,5544997415608826E-005	-0,099980995161866778	0,00018068077	0,011497209303261162	-0,00042897633726698746	0,032215949210384275
1	0	0	0	0	0	2	33162,75	-0,100000001	1,78756559	-5,5544886928879552E-005	-0,099980796285754445	0,000178722228	0,011163939878289966	-0,00041654160693580467	0,032549218635355475
1	0	0	0	0	0	2	33174,75	-0,100000001	1,76688576	-5,5544801361444922E-005	-0,09998064226437239	0,000176654372	0,01083067092806977	-0,0004041068943182199	0,03288248758557568
1	0	0	0	0	0	2	33186,75	-0,100000001	1,74559498	-5,5544806208461523E-005	-0,099980650989002266	0,000174525718	0,010497401853943518	-0,0003916721770775337	0,033215756659701926
1	0	0	0	0	0	2	33198,75	-0,100000001	1,72348309	-5,5544774347295366E-005	-0,099980593638903296	0,00017231486	0,010164133174519224	-0,00037923747456370822	0,033549025339126208
1	0	0	0	0	0	2	33210,75	-0,100000001	1,70079827	-5,5544751243458854E-005	-0,099980552051997645	0,000170046755	0,0098308647072179264	-0,00036680277996447693	0,033882293806427507
1	0	0	0	0	0	2	33222,75	-0,100000001	1,67757893	-5,554473003786471E-005	-0,099980513881928256	0,0001677252	0,0094975962975762598	-0,00035436808751660397	0,034215562216069184
1	0	0	0	0	0	2	33234,75	-0,100000001	1,65382481	-5,5544687933391994E-005	-0,099980438093877517	0,000165350124	0,0091643282107893606	-0,00034193340711487648	0,034548830302856083
1	0	0	0	0	0	2	33246,75	-0,100000001	1,62959337	-5,5544678436799181E-005	-0,099980421000010483	0,000162927434	0,0088310602622492262	-0,00032949873187132166	0,034882098251396211
1	0	0	0	0	0	2	33258,75	-0,100000001	1,60480821	-5,5544732945660749E-005	-0,099980519115961114	0,000160449563	0,0084977921306259763	-0,00031706404979668966	0,035215366383019462
1	0	0	0	0	0	2	33270,75	-0,100000001	1,57990849	-5,5544751032359066E-005	-0,099980551672018035	0,000157960123	0,0081645238753744141	-0,00030462936310931904	0,035548634638271027
1	0	0	0	0	0	2	33282,75	-0,100000001	1,55456948	-5,5544812962826752E-005	-0,099980663146859661	0,000155426882	0,0078312553839386176	-0,00029219466760959718	0,035881903129706822
1	0	0	0	0	0	2	33294,75	-0,100000001	1,52902055	-5,5544829962982074E-005	-0,099980693747139162	0,000152872541	0,0074979866608216371	-0,00027975996346553878	0,036215171852823802
1	0	0	0	0	0	2	33306,75	-0,100000001	1,50329971	-5,5544632904645472E-005	-0,099980339042133952	0,000150300417	0,0071647183323875738	-0,00026732527404763072	0,036548440181257862
1	0	0	0	0	0	2	33318,75	-0,100000001	1,47725427	-5,5544526488416723E-005	-0,099980147492922573	0,000147696104	0,0068314506532016576	-0,0002548906088540439	0,036881707860443782
1	0	0	0	0	0	2	33330,75	-0,100000001	1,451056	-5,5544735303355584E-005	-0,099980523359811827	0,000145077342	0,0064981825826205978	-0,00024245592905697814	0,037214975931024851
1	0	0	0	0	0	2	33342,75	-0,100000001	1,42481959	-5,5544635913024346E-005	-0,09998034445721591	0,000142453951	0,0061649142328298598	-0,00023002123884222378	0,03754824428081559
1	0	0	0	0	0	2	33354,75	-0,100000001	1,39869773	-5,5544789184298778E-005	-0,099980620345509376	0,000139842668	0,005831645846567287	-0,00021758654726665626	0,037881512667078157
1	0	0	0	0	0	2	33366,75	-0,100000001	1,37307239	-5,5544622340550029E-005	-0,099980320026762202	0,000137280222	0,0054983778850478272	-0,00020515187153882538	0,038214780628597619
1	0	0	0	0	0	2	33378,75	-0,100000001	1,3480581	-5,5544663104332154E-005	-0,099980393401569894	0,000134779373	0,0051651100855412429	-0,00019271720185591267	0,038548048428104205
1	0	0	0	0	0	2	33390,75	-0,100000001	1,32508695	-5,5544676580362848E-005	-0,099980417658425075	0,000132482746	0,0048318420833958368	-0,00018028252461227309	0,038881316430249619
1	0	0	0	0	0	2	33402,75	-0,100000001	1,30421615	-5,5544665911959277E-005	-0,099980398455298701	0,000130396045	0,0044985740746711539	-0,00016784784712315187	0,039214584438974298
1	0	0	0	0	0	2	33414,75	-0,100000001	1,2863816	-5,5544696639395424E-005	-0,099980453764683661	0,000128613014	0,0041653060635896038	-0,00015541316954609274	0,039547852450055846
1	0	0	0	0	0	2	33426,75	-0,100000001	1,27179301	-5,5544593191809126E-005	-0,099980267559028672	0,000127154199	0,00383203787971336	-0,00014297848552183128	0,03988112063393209
1	0	0	0	0	0	2	33438,75	-0,100000001	1,2597059	-5,5544739191730816E-005	-0,099980530358887206	0,00012594607	0,003498769747342567	-0,00013054380341930742	0,040214388766302886
1	0	0	0	0	0	2	33450,75	-0,100000001	1,25010121	-5,5544704395035898E-005	-0,09998046772483648	0,000124985701	0,0031655014433476499	-0,00011810911491325674	0,040547657070297798
1	0	0	0	0	0	2	33462,75	-0,100000001	1,24194765	-5,554474670439959E-005	-0,099980543881690995	0,000124170605	0,0028322329581939347	-0,00010567441964792774	0,040880925555451507
1	0	0	0	0	0	2	33474,75	-0,100000001	1,23509264	-5,5544823833223846E-005	-0,099980682713574387	0,000123485399	0,0024989644233162867	-9,3239722527331942E-005	0,041214194090329158
1	0	0	0	0	0	2	33486,75	-0,100000001	1,22903955	-5,5544763538986445E-005	-0,099980574183947264	0,000122880083	0,0021656959213370912	-8,0805026634221658E-005	0,041547462592308358
1	0	0	0	0	0	2	33498,75	-0,100000001	1,22350204	-5,5544758388151725E-005	-0,0999805649124448	0,000122326426	0,0018324276631582774	-6,8370339837631398E-005	0,041880730850487162
1	0	0	0	0	0	2	33510,75	-0,100000001	1,21859467	-5,5544666070077152E-005	-0,099980398739910861	0,000121835583	0,0014991593138559658	-5,5935649641100902E-005	0,042213999199789485
1	0	0	0	0	0	2	33522,75	-0,100000001	1,21389723	-5,5544722268564832E-005	-0,099980499897188493	0,000121366051	0,0011658916903594134	-4,3500986525359168E-005	0,042547266823286035
1	0	0	0	0	0	2	33534,75	-0,100000001	1,20952451	-5,5544677936782438E-005	-0,099980420099980339	0,000120928766	0,00083262350843439501	-3,1066302573900538E-005	0,042880535005211059
1	0	0	0	0	0	2	33546,75	-0,100000001	1,2054764	-5,5544678415275283E-005	-0,099980420961267456	0,000120524041	0,00049935555088568077	-1,8631626994223488E-005	0,043213802962759776
1	0	0	0	0	0	2	33558,75	-0,100000001	1,20156193	-5,5544741763008966E-005	-0,099980534987187878	0,000120132805	0,00016608744636722752	-6,1969459309078797E-006	0,043547071067278227
1	0	0	0	0	0	2	33563,47	-0,100000001	1,2000916	-1,9951640745417939E-005	-0,09998038217458953	0,00011998562	3,5046483457154829E-005	-1,3076314182846046E-006	0,043678112030188301