File: Experimentelles/Rohdaten/Batteriemessungen/AlteZelle/Studenten_Batterietests/LiCoO2 vs Li 300µm GCPL/ECLab-Export/LiCoO2 vs Li 300µm GCPL_01_OCV_C04.mpt
EC-Lab ASCII FILE
Nb header lines : 48

Open Circuit Voltage

Run on channel : 4 (SN 5435)
Grouped channel(s) : 4
User :
CE vs. WE compliance from -10 V to 10 V
Electrode connection : standard
Ewe ctrl range : min = 0,00 V, max = 5,00 V
Acquisition started on : 01.23.2015 15:04:13
Saved on :
	File : LiCoO2 vs Li 300µm GCPL_01_OCV_C04.mpr
	Directory : C:\Hupfer\Studenten Batterietests\LiCoO2 vs Li 300µm GCPL\
	Host : 192.168.0.2
Device : VMP3 (SN 0324)
Address : 192.168.0.1
EC-Lab for windows v10.33 (software)
Internet server v10.33 (firmware)
Command interpretor v10.32 (firmware)
Electrode material : LiCoO2 vs Li
Initial state : charged
Electrolyte : LP30
Comments : 300µm
Mass of active material : 0,001 mg
 at x = 0,000
Molecular weight of active material (at x = 0) : 0,001 g/mol
Atomic weight of intercalated ion : 0,001 g/mol
Acquisition started at : xo = 0,000
Number of e- transfered per intercalated ion : 1
for DX = 1, DQ = 26,801 mA.h
Battery capacity : 0,000 A.h
Reference electrode : Li+/Li (-3,020 V)
Electrode surface area : 0,001 cm²
Characteristic mass : 0,001 g
Create one data file per loop
tR (h:m:s)          1:00:0,0000
dER/dt (mV/h)       0,0
dER (mV)            0,00
dtR (s)             5,0000
E range min (V)     0,000
E range max (V)     5,000

Number of loops : 1
Loop 0 from point number 0 to 720

mode	error	time/s	Ewe/V
3	1	0,0000	2,82233405
3	0	5,0000	2,82174277
3	0	10,0000	2,82193351
3	0	15,0000	2,82124662
3	0	20,0000	2,82136106
3	0	25,0000	2,82227683
3	0	30,0000	2,82174277
3	0	35,0000	2,82357407
3	0	40,0000	2,82683611
3	0	45,0000	2,82916355
3	0	50,0000	2,82775187
3	0	55,0000	2,82731318
3	0	60,0000	2,82607317
3	0	65,0000	2,82698894
3	0	70,0000	2,82679796
3	0	75,0000	2,82563448
3	0	80,0000	2,82506204
3	0	85,0000	2,82563448
3	0	90,0000	2,82828617
3	0	95,0000	2,83189154
3	0	100,0000	2,83238769
3	0	105,0000	2,83244491
3	0	110,0000	2,83540177
3	0	115,0000	2,83784366
3	0	120,0000	2,8396368
3	0	125,0000	2,84204054
3	0	130,0000	2,84093404
3	0	135,0000	2,84068608
3	0	140,0000	2,84133482
3	0	145,0000	2,84139204
3	0	150,0000	2,84011388
3	0	155,0000	2,8411057
3	0	160,0000	2,84135389
3	0	165,0000	2,84198332
3	0	170,0000	2,84175444
3	0	175,0000	2,84177351
3	0	180,0000	2,84030461
3	0	185,0000	2,8418498
3	0	190,0000	2,84253645
3	0	195,0000	2,84234571
3	0	200,0000	2,8426702
3	0	205,0000	2,84417725
3	0	210,0000	2,84591317
3	0	215,0000	2,84698153
3	0	220,0000	2,84123921
3	0	225,0000	2,84104848
3	0	230,0000	2,84234571
3	0	235,0000	2,84259367
3	0	240,0000	2,84308982
3	0	245,0000	2,84394836
3	0	250,0000	2,84280372
3	0	255,0000	2,84402466
3	0	260,0000	2,84497833
3	0	265,0000	2,84675264
3	0	270,0000	2,84881282
3	0	275,0000	2,84934711
3	0	280,0000	2,85045338
3	0	285,0000	2,85104489
3	0	290,0000	2,8486793
3	0	295,0000	2,8484695
3	0	300,0000	2,84866023
3	0	305,0000	2,84932804
3	0	310,0000	2,8486793
3	0	315,0000	2,84860301
3	0	320,0000	2,84778261
3	0	325,0000	2,84713411
3	0	330,0000	2,84740114
3	0	335,0000	2,84669542
3	0	340,0000	2,84656167
3	0	345,0000	2,84619927
3	0	350,0000	2,84514999
3	0	355,0000	2,84549356
3	0	360,0000	2,84612298
3	0	365,0000	2,8458178
3	0	370,0000	2,8465426
3	0	375,0000	2,84616113
3	0	380,0000	2,84587502
3	0	385,0000	2,84577966
3	0	390,0000	2,8455317
3	0	395,0000	2,84726763
3	0	400,0000	2,84742022
3	0	405,0000	2,84738207
3	0	410,0000	2,84768724
3	0	415,0000	2,84745836
3	0	420,0000	2,8487556
3	0	425,0000	2,84984303
3	0	430,0000	2,84997654
3	0	435,0000	2,84850764
3	0	440,0000	2,8481071
3	0	445,0000	2,84745836
3	0	450,0000	2,84713411
3	0	455,0000	2,84726763
3	0	460,0000	2,84604669
3	0	465,0000	2,84352851
3	0	470,0000	2,84379554
3	0	475,0000	2,8429563
3	0	480,0000	2,84276557
3	0	485,0000	2,84328055
3	0	490,0000	2,84289908
3	0	495,0000	2,84301353
3	0	500,0000	2,83673716
3	0	505,0000	2,83626032
3	0	510,0000	2,83658457
3	0	515,0000	2,83673716
3	0	520,0000	2,83647013
3	0	525,0000	2,83816791
3	0	530,0000	2,8385303
3	0	535,0000	2,83744311
3	0	540,0000	2,8368516
3	0	545,0000	2,83875942
3	0	550,0000	2,84055257
3	0	555,0000	2,83835864
3	0	560,0000	2,83820605
3	0	565,0000	2,83998013
3	0	570,0000	2,84038091
3	0	575,0000	2,84164
3	0	580,0000	2,84101033
3	0	585,0000	2,84167814
3	0	590,0000	2,84114385
3	0	595,0000	2,8390646
3	0	600,0000	2,83635569
3	0	605,0000	2,83702326
3	0	610,0000	2,83431435
3	0	615,0000	2,83616495
3	0	620,0000	2,83730936
3	0	625,0000	2,83563066
3	0	630,0000	2,83507752
3	0	635,0000	2,83437157
3	0	640,0000	2,83486772
3	0	645,0000	2,83431435
3	0	650,0000	2,82857227
3	0	655,0000	2,82786632
3	0	660,0000	2,82620668
3	0	665,0000	2,82448983
3	0	670,0000	2,8240509
3	0	675,0000	2,82550073
3	0	680,0000	2,82511926
3	0	685,0000	2,82717967
3	0	690,0000	2,82876301
3	0	695,0000	2,83004117
3	0	700,0000	2,82843876
3	0	705,0000	2,82574892
3	0	710,0000	2,82910633
3	0	715,0000	2,82725596
3	0	720,0000	2,82761836
3	0	725,0000	2,82740855
3	0	730,0000	2,82641649
3	0	735,0000	2,82717967
3	0	740,0000	2,82630205
3	0	745,0000	2,82574892
3	0	750,0000	2,82582521
3	0	755,0000	2,82450891
3	0	760,0000	2,82210517
3	0	765,0000	2,82193351
3	0	770,0000	2,8206172
3	0	775,0000	2,82164741
3	0	780,0000	2,82168555
3	0	785,0000	2,8209033
3	0	790,0000	2,82012105
3	0	795,0000	2,82124662
3	0	800,0000	2,82067442
3	0	805,0000	2,81960607
3	0	810,0000	2,82014012
3	0	815,0000	2,82067442
3	0	820,0000	2,81964421
3	0	825,0000	2,81949162
3	0	830,0000	2,81996846
3	0	835,0000	2,8205409
3	0	840,0000	2,82042646
3	0	845,0000	2,81931996
3	0	850,0000	2,81924367
3	0	855,0000	2,82197165
3	0	860,0000	2,82021642
3	0	865,0000	2,81903386
3	0	870,0000	2,81783199
3	0	875,0000	2,81575251
3	0	880,0000	2,8155427
3	0	885,0000	2,81523752
3	0	890,0000	2,81493211
3	0	895,0000	2,81441712
3	0	900,0000	2,81479859
3	0	905,0000	2,8126812
3	0	910,0000	2,81416917
3	0	915,0000	2,81516123
3	0	920,0000	2,81621027
3	0	925,0000	2,8209796
3	0	930,0000	2,82372665
3	0	935,0000	2,82620668
3	0	940,0000	2,82889652
3	0	945,0000	2,82933521
3	0	950,0000	2,8289156
3	0	955,0000	2,83061337
3	0	960,0000	2,83227324
3	0	965,0000	2,83336043
3	0	970,0000	2,83561158
3	0	975,0000	2,8360312
3	0	980,0000	2,83673716
3	0	985,0000	2,83658457
3	0	990,0000	2,83622217
3	0	995,0000	2,83688974
3	0	1000,0000	2,83751941
3	0	1005,0000	2,8367753
3	0	1010,0000	2,83534455
3	0	1015,0000	2,83505845
3	0	1020,0000	2,83540177
3	0	1025,0000	2,83547807
3	0	1030,0000	2,8345623
3	0	1035,0000	2,83629847
3	0	1040,0000	2,8362031
3	0	1045,0000	2,83608866
3	0	1050,0000	2,83639383
3	0	1055,0000	2,83606935
3	0	1060,0000	2,83667994
3	0	1065,0000	2,83732843
3	0	1070,0000	2,83751941
3	0	1075,0000	2,83744311
3	0	1080,0000	2,8375957
3	0	1085,0000	2,83856845
3	0	1090,0000	2,8359549
3	0	1095,0000	2,83564973
3	0	1100,0000	2,82918262
3	0	1105,0000	2,8252337
3	0	1110,0000	2,8209796
3	0	1115,0000	2,8197968
3	0	1120,0000	2,81981587
3	0	1125,0000	2,82141829
3	0	1130,0000	2,82080793
3	0	1135,0000	2,82179999
3	0	1140,0000	2,8212657
3	0	1145,0000	2,82206702
3	0	1150,0000	2,82055998
3	0	1155,0000	2,82164741
3	0	1160,0000	2,82050276
3	0	1165,0000	2,81968236
3	0	1170,0000	2,81815624
3	0	1175,0000	2,81792736
3	0	1180,0000	2,81670642
3	0	1185,0000	2,81764102
3	0	1190,0000	2,81727862
3	0	1195,0000	2,81685901
3	0	1200,0000	2,81746936
3	0	1205,0000	2,81777477
3	0	1210,0000	2,8172977
3	0	1215,0000	2,81903386
3	0	1220,0000	2,81888103
3	0	1225,0000	2,82357407
3	0	1230,0000	2,82441354
3	0	1235,0000	2,82620668
3	0	1240,0000	2,8220861
3	0	1245,0000	2,82162809
3	0	1250,0000	2,81890011
3	0	1255,0000	2,82059813
3	0	1260,0000	2,82105589
3	0	1265,0000	2,82233405
3	0	1270,0000	2,81998754
3	0	1275,0000	2,81783199
3	0	1280,0000	2,81588602
3	0	1285,0000	2,81661105
3	0	1290,0000	2,81672549
3	0	1295,0000	2,81483674
3	0	1300,0000	2,81485581
3	0	1305,0000	2,81456971
3	0	1310,0000	2,81580973
3	0	1315,0000	2,81580973
3	0	1320,0000	2,81428361
3	0	1325,0000	2,81224227
3	0	1330,0000	2,81199431
3	0	1335,0000	2,81123137
3	0	1340,0000	2,81130767
3	0	1345,0000	2,812433
3	0	1350,0000	2,81455064
3	0	1355,0000	2,81428361
3	0	1360,0000	2,81399751
3	0	1365,0000	2,81418824
3	0	1370,0000	2,81285286
3	0	1375,0000	2,8132534
3	0	1380,0000	2,81397843
3	0	1385,0000	2,81966329
3	0	1390,0000	2,81846142
3	0	1395,0000	2,8154664
3	0	1400,0000	2,81441712
3	0	1405,0000	2,81455064
3	0	1410,0000	2,81418824
3	0	1415,0000	2,81283379
3	0	1420,0000	2,81168914
3	0	1425,0000	2,81252861
3	0	1430,0000	2,81100225
3	0	1435,0000	2,81228042
3	0	1440,0000	2,81264305
3	0	1445,0000	2,81054449
3	0	1450,0000	2,81298637
3	0	1455,0000	2,8183279
3	0	1460,0000	2,81968236
3	0	1465,0000	2,82059813
3	0	1470,0000	2,82309723
3	0	1475,0000	2,82553887
3	0	1480,0000	2,82563448
3	0	1485,0000	2,8270843
3	0	1490,0000	2,82811427
3	0	1495,0000	2,82555795
3	0	1500,0000	2,82620668
3	0	1505,0000	2,82437539
3	0	1510,0000	2,8245852
3	0	1515,0000	2,82382202
3	0	1520,0000	2,82317352
3	0	1525,0000	2,82351685
3	0	1530,0000	2,82382202
3	0	1535,0000	2,8223722
3	0	1540,0000	2,82094145
3	0	1545,0000	2,81941533
3	0	1550,0000	2,81930089
3	0	1555,0000	2,81874752
3	0	1560,0000	2,81725955
3	0	1565,0000	2,81695437
3	0	1570,0000	2,81661105
3	0	1575,0000	2,81790829
3	0	1580,0000	2,81659198
3	0	1585,0000	2,81598139
3	0	1590,0000	2,81672549
3	0	1595,0000	2,81455064
3	0	1600,0000	2,81559992
3	0	1605,0000	2,81645846
3	0	1610,0000	2,81701159
3	0	1615,0000	2,8154664
3	0	1620,0000	2,81746936
3	0	1625,0000	2,81424546
3	0	1630,0000	2,81451249
3	0	1635,0000	2,81565714
3	0	1640,0000	2,81352043
3	0	1645,0000	2,81437898
3	0	1650,0000	2,81624842
3	0	1655,0000	2,81663013
3	0	1660,0000	2,81674457
3	0	1665,0000	2,81424546
3	0	1670,0000	2,81273842
3	0	1675,0000	2,81285286
3	0	1680,0000	2,81035376
3	0	1685,0000	2,81067801
3	0	1690,0000	2,81073523
3	0	1695,0000	2,81043005
3	0	1700,0000	2,81170821
3	0	1705,0000	2,81105947
3	0	1710,0000	2,81027746
3	0	1715,0000	2,81239486
3	0	1720,0000	2,81233764
3	0	1725,0000	2,8112886
3	0	1730,0000	2,81109762
3	0	1735,0000	2,8126049
3	0	1740,0000	2,812433
3	0	1745,0000	2,81258583
3	0	1750,0000	2,81394029
3	0	1755,0000	2,81327248
3	0	1760,0000	2,81371117
3	0	1765,0000	2,81416917
3	0	1770,0000	2,82162809
3	0	1775,0000	2,81994939
3	0	1780,0000	2,8206172
3	0	1785,0000	2,82313538
3	0	1790,0000	2,82546258
3	0	1795,0000	2,82443261
3	0	1800,0000	2,82792354
3	0	1805,0000	2,82765651
3	0	1810,0000	2,82563448
3	0	1815,0000	2,83128119
3	0	1820,0000	2,83189154
3	0	1825,0000	2,83063245
3	0	1830,0000	2,83097601
3	0	1835,0000	2,83181524
3	0	1840,0000	2,83530641
3	0	1845,0000	2,83475304
3	0	1850,0000	2,83408546
3	0	1855,0000	2,83431435
3	0	1860,0000	2,83461952
3	0	1865,0000	2,83513474
3	0	1870,0000	2,83458138
3	0	1875,0000	2,83450508
3	0	1880,0000	2,83702326
3	0	1885,0000	2,83652735
3	0	1890,0000	2,83708048
3	0	1895,0000	2,83732843
3	0	1900,0000	2,8368516
3	0	1905,0000	2,83847308
3	0	1910,0000	2,8382442
3	0	1915,0000	2,83841586
3	0	1920,0000	2,83843493
3	0	1925,0000	2,83868289
3	0	1930,0000	2,84013295
3	0	1935,0000	2,84057164
3	0	1940,0000	2,84139204
3	0	1945,0000	2,84375739
3	0	1950,0000	2,84371924
3	0	1955,0000	2,84389091
3	0	1960,0000	2,84492111
3	0	1965,0000	2,84333777
3	0	1970,0000	2,84276557
3	0	1975,0000	2,8404572
3	0	1979,9999	2,8396368
3	0	1984,9999	2,83984661
3	0	1989,9999	2,83940792
3	0	1994,9999	2,83940792
3	0	1999,9999	2,84072423
3	0	2004,9999	2,84078145
3	0	2009,9999	2,84099126
3	0	2014,9999	2,84053349
3	0	2019,9999	2,84024739
3	0	2024,9999	2,83919811
3	0	2029,9999	2,83875942
3	0	2034,9999	2,83746219
3	0	2039,9999	2,83736658
3	0	2044,9999	2,83748126
3	0	2049,9999	2,83801532
3	0	2054,9999	2,83818698
3	0	2059,9999	2,83843493
3	0	2064,9999	2,8379581
3	0	2069,9999	2,83780551
3	0	2074,9999	2,83727121
3	0	2079,9999	2,83761477
3	0	2084,9999	2,83593583
3	0	2089,9999	2,83528733
3	0	2094,9999	2,83225417
3	0	2099,9999	2,83231139
3	0	2104,9999	2,83151007
3	0	2109,9999	2,83542085
3	0	2114,9999	2,83605027
3	0	2119,9999	2,83523011
3	0	2124,9999	2,83679438
3	0	2129,9999	2,83473396
3	0	2134,9999	2,83528733
3	0	2139,9999	2,83633661
3	0	2144,9999	2,83673716
3	0	2149,9999	2,83486772
3	0	2154,9999	2,83433342
3	0	2159,9999	2,83448601
3	0	2164,9999	2,83360863
3	0	2169,9999	2,83448601
3	0	2174,9999	2,83336043
3	0	2179,9999	2,83301711
3	0	2184,9999	2,83351326
3	0	2189,9999	2,83366585
3	0	2194,9999	2,83559251
3	0	2199,9999	2,83330321
3	0	2204,9999	2,83652735
3	0	2209,9999	2,8415637
3	0	2214,9999	2,8445015
3	0	2219,9999	2,8386066
3	0	2224,9999	2,83570695
3	0	2229,9999	2,83578324
3	0	2234,9999	2,83736658
3	0	2239,9999	2,83700418
3	0	2244,9999	2,83721399
3	0	2249,9999	2,83889294
3	0	2254,9999	2,8390646
3	0	2259,9999	2,8379581
3	0	2264,9999	2,83957958
3	0	2269,9999	2,83936977
3	0	2274,9999	2,84068608
3	0	2279,9999	2,84225035
3	0	2284,9999	2,84350944
3	0	2289,9999	2,84371924
3	0	2294,9999	2,84482574
3	0	2299,9999	2,84469223
3	0	2304,9999	2,8458178
3	0	2309,9999	2,84349036
3	0	2314,9999	2,8426702
3	0	2319,9999	2,84242201
3	0	2324,9999	2,84276557
3	0	2329,9999	2,84320426
3	0	2334,9999	2,8433187
3	0	2339,9999	2,84276557
3	0	2344,9999	2,84308982
3	0	2349,9999	2,84278464
3	0	2354,9999	2,84234571
3	0	2359,9999	2,84131551
3	0	2364,9999	2,84102941
3	0	2369,9999	2,84038091
3	0	2374,9999	2,84020925
3	0	2379,9999	2,8399229
3	0	2384,9999	2,84011388
3	0	2389,9999	2,84349036
3	0	2394,9999	2,84326148
3	0	2399,9999	2,84350944
3	0	2404,9999	2,84375739
3	0	2409,9999	2,84381461
3	0	2414,9999	2,84518814
3	0	2419,9999	2,84642816
3	0	2424,9999	2,84780169
3	0	2429,9999	2,85106397
3	0	2434,9999	2,85028172
3	0	2439,9999	2,8486793
3	0	2444,9999	2,84793544
3	0	2449,9999	2,84724855
3	0	2454,9999	2,8481071
3	0	2459,9999	2,85001469
3	0	2464,9999	2,84993839
3	0	2469,9999	2,84909892
3	0	2474,9999	2,84835505
3	0	2479,9999	2,84743929
3	0	2484,9999	2,84513092
3	0	2489,9999	2,84383368
3	0	2494,9999	2,84225035
3	0	2499,9999	2,84123921
3	0	2504,9999	2,8399992
3	0	2509,9999	2,83771014
3	0	2514,9999	2,83656549
3	0	2519,9999	2,83469582
3	0	2524,9999	2,83337951
3	0	2529,9999	2,83294082
3	0	2534,9999	2,8311286
3	0	2539,9999	2,83124304
3	0	2544,9999	2,8302319
3	0	2549,9999	2,83057523
3	0	2554,9999	2,83042264
3	0	2559,9999	2,83053708
3	0	2564,9999	2,83229232
3	0	2569,9999	2,83297896
3	0	2574,9999	2,83248305
3	0	2579,9999	2,83631754
3	0	2584,9999	2,83772922
3	0	2589,9999	2,83809161
3	0	2594,9999	2,83568788
3	0	2599,9999	2,83444786
3	0	2604,9999	2,83435249
3	0	2609,9999	2,83368492
3	0	2614,9999	2,83292174
3	0	2619,9999	2,83261657
3	0	2624,9999	2,83523011
3	0	2629,9999	2,83479142
3	0	2634,9999	2,83488679
3	0	2639,9999	2,83572602
3	0	2644,9999	2,83557343
3	0	2649,9999	2,8356688
3	0	2654,9999	2,83658457
3	0	2659,9999	2,83977032
3	0	2664,9999	2,84068608
3	0	2669,9999	2,84095311
3	0	2674,9999	2,84412003
3	0	2679,9999	2,84396744
3	0	2684,9999	2,84377646
3	0	2689,9999	2,84286094
3	0	2694,9999	2,8430326
3	0	2699,9999	2,84358573
3	0	2704,9999	2,84400558
3	0	2709,9999	2,84417725
3	0	2714,9999	2,84431076
3	0	2719,9999	2,84402466
3	0	2724,9999	2,84352851
3	0	2729,9999	2,84366202
3	0	2734,9999	2,84452057
3	0	2739,9999	2,83866382
3	0	2744,9999	2,83799624
3	0	2749,9999	2,83736658
3	0	2754,9999	2,83631754
3	0	2759,9999	2,83683252
3	0	2764,9999	2,83555436
3	0	2769,9999	2,83521104
3	0	2774,9999	2,83460045
3	0	2779,9999	2,83511567
3	0	2784,9999	2,83469582
3	0	2789,9999	2,83406639
3	0	2794,9999	2,83511567
3	0	2799,9999	2,83357048
3	0	2804,9999	2,83425713
3	0	2809,9999	2,83809161
3	0	2814,9999	2,83715677
3	0	2819,9999	2,8379581
3	0	2824,9999	2,83397102
3	0	2829,9999	2,83261657
3	0	2834,9999	2,8317008
3	0	2839,9999	2,83236861
3	0	2844,9999	2,83139563
3	0	2849,9999	2,83120489
3	0	2854,9999	2,83088064
3	0	2859,9999	2,83072782
3	0	2864,9999	2,82922077
3	0	2869,9999	2,83076596
3	0	2874,9999	2,83013654
3	0	2879,9999	2,83189154
3	0	2884,9999	2,83103323
3	0	2889,9999	2,8294878
3	0	2894,9999	2,83086157
3	0	2899,9999	2,83044171
3	0	2904,9999	2,83072782
3	0	2909,9999	2,82870579
3	0	2914,9999	2,82859135
3	0	2919,9999	2,82876301
3	0	2924,9999	2,82939243
3	0	2929,9999	2,82859135
3	0	2934,9999	2,82769465
3	0	2939,9999	2,82746577
3	0	2944,9999	2,82754207
3	0	2949,9999	2,82664537
3	0	2954,9999	2,8271606
3	0	2959,9999	2,82712245
3	0	2964,9999	2,82696986
3	0	2969,9999	2,82834339
3	0	2974,9999	2,83116674
3	0	2979,9999	2,83173895
3	0	2984,9999	2,83351326
3	0	2989,9999	2,83345604
3	0	2994,9999	2,8339901
3	0	2999,9999	2,83419991
3	0	3004,9999	2,83498216
3	0	3009,9999	2,83271194
3	0	3014,9999	2,83175802
3	0	3019,9999	2,8319869
3	0	3024,9999	2,83269286
3	0	3029,9999	2,83357048
3	0	3034,9999	2,83393288
3	0	3039,9999	2,83326507
3	0	3044,9999	2,83255935
3	0	3049,9999	2,83368492
3	0	3054,9999	2,83244491
3	0	3059,9999	2,83139563
3	0	3064,9999	2,8303082
3	0	3069,9999	2,83015561
3	0	3074,9999	2,82931614
3	0	3079,9999	2,82946873
3	0	3084,9999	2,82933521
3	0	3089,9999	2,8292017
3	0	3094,9999	2,83147192
3	0	3099,9999	2,83139563
3	0	3104,9999	2,83049893
3	0	3109,9999	2,83171988
3	0	3114,9999	2,83145285
3	0	3119,9999	2,8310523
3	0	3124,9999	2,83114767
3	0	3129,9999	2,83275008
3	0	3134,9999	2,83204412
3	0	3139,9999	2,83311248
3	0	3144,9999	2,83439064
3	0	3149,9999	2,83366585
3	0	3154,9999	2,83357048
3	0	3159,9999	2,83561158
3	0	3164,9999	2,8346386
3	0	3169,9999	2,83631754
3	0	3174,9999	2,83587861
3	0	3179,9999	2,83618402
3	0	3184,9999	2,83629847
3	0	3189,9999	2,8348105
3	0	3194,9999	2,83475304
3	0	3199,9999	2,83698511
3	0	3204,9999	2,83753848
3	0	3209,9999	2,83751941
3	0	3214,9999	2,83593583
3	0	3219,9999	2,83500123
3	0	3224,9999	2,83452415
3	0	3229,9999	2,83412361
3	0	3234,9999	2,83351326
3	0	3239,9999	2,83330321
3	0	3244,9999	2,8342762
3	0	3249,9999	2,83341765
3	0	3254,9999	2,83246398
3	0	3259,9999	2,8317771
3	0	3264,9999	2,83135748
3	0	3269,9999	2,8311286
3	0	3274,9999	2,83128119
3	0	3279,9999	2,83107138
3	0	3284,9999	2,8310523
3	0	3289,9999	2,83149099
3	0	3294,9999	2,83122396
3	0	3299,9999	2,83160543
3	0	3304,9999	2,83049893
3	0	3309,9999	2,8303082
3	0	3314,9999	2,82979321
3	0	3319,9999	2,82880116
3	0	3324,9999	2,82861042
3	0	3329,9999	2,82803798
3	0	3334,9999	2,82679796
3	0	3339,9999	2,82601595
3	0	3344,9999	2,82532907
3	0	3349,9999	2,82508111
3	0	3354,9999	2,82655001
3	0	3359,9999	2,82706523
3	0	3364,9999	2,82698894
3	0	3369,9999	2,82639742
3	0	3374,9999	2,82792354
3	0	3379,9999	2,82719874
3	0	3384,9999	2,82763743
3	0	3389,9999	2,82723689
3	0	3394,9999	2,82695079
3	0	3399,9999	2,82696986
3	0	3404,9999	2,82641649
3	0	3409,9999	2,82664537
3	0	3414,9999	2,82763743
3	0	3419,9999	2,82567263
3	0	3424,9999	2,82613039
3	0	3429,9999	2,82601595
3	0	3434,9999	2,82656908
3	0	3439,9999	2,82740855
3	0	3444,9999	2,82742763
3	0	3449,9999	2,82693172
3	0	3454,9999	2,8263402
3	0	3459,9999	2,82614946
3	0	3464,9999	2,82557702
3	0	3469,9999	2,82496667
3	0	3474,9999	2,82393646
3	0	3479,9999	2,82351685
3	0	3484,9999	2,82332611
3	0	3489,9999	2,82214332
3	0	3494,9999	2,82176185
3	0	3499,9999	2,82094145
3	0	3504,9999	2,82120848
3	0	3509,9999	2,81880474
3	0	3514,9999	2,81882381
3	0	3519,9999	2,81867123
3	0	3524,9999	2,81903386
3	0	3529,9999	2,81672549
3	0	3534,9999	2,81735492
3	0	3539,9999	2,81630564
3	0	3544,9999	2,81720233
3	0	3549,9999	2,81613398
3	0	3554,9999	2,81605768
3	0	3559,9999	2,81670642
3	0	3564,9999	2,81672549
3	0	3569,9999	2,81647754
3	0	3574,9999	2,81531382
3	0	3579,9999	2,81626749
3	0	3584,9999	2,8155427
3	0	3589,9999	2,81451249
3	0	3594,9999	2,81434083
3	0	3599,9999	2,81485581