File: Experimentelles/Rohdaten/Batteriemessungen/AlteZelle/Studenten_Batterietests/LiCoO2 vs Li 300µm GCPL/ECLab-Export/LiCoO2 vs Li 300µm GCPL_02_GCPL_C04_loop9.mpt
EC-Lab ASCII FILE
Nb header lines : 3
mode	ox/red	error	control changes	Ns changes	counter inc.	Ns	time/s	control/V/mA	Ewe/V	dq/mA.h	<I>/mA	P/W	(Q-Qo)/mA.h	x	Capacity/mA.h
1	0	0	1	1	0	1	99065,01	-0,300000012	4,18198204	0	0	0	0	0	0
1	0	0	1	0	0	1	99085,01	-0,300000012	4,04411268	-0,00083293755950695936	-0,29985159476435488	0,00121263368	-0,0016617542845247632	6,2002286608016845E-005	0,0016617542845247632
1	0	0	1	0	0	1	99105,01	-0,300000012	4,02446365	-0,00083292236502137446	-0,2998461257521248	0,00120671978	-0,0033276143576805901	0,00012415776571015019	0,0033276143576805901
1	0	0	1	0	0	1	99125,01	-0,300000012	4,00929737	-0,0008329135679056247	-0,29984295886525709	0,00120215956	-0,0049934482467941229	0,00018631226785046074	0,0049934482467941229
1	0	0	1	0	0	1	99145,01	-0,300000012	3,99748874	-0,00083292608316904973	-0,29984746336349312	0,00119863683	-0,0066592983817877158	0,00024846737614639914	0,0066592983817877158
1	0	0	1	0	0	1	99165,01	-0,300000012	3,98598528	-0,00083292337078021632	-0,29984648804329645	0,00119518372	-0,0083251436710842893	0,00031062230364286662	0,0083251436710842893
1	0	0	1	0	0	1	99185,01	-0,300000012	3,97509241	-0,00083292904373175565	-0,29984852926019245	0,00119192561	-0,0099909965974610829	0,00037277751608906534	0,0099909965974610829
1	0	0	1	0	0	1	99205,01	-0,300000012	3,96521044	-0,00083292680551111693	-0,2998477236702752	0,00118895934	-0,011656854291141539	0,00043493290640977344	0,011656854291141539
1	0	0	1	0	0	1	99225,01	-0,300000012	3,95662594	-0,0008329215080423488	-0,29984581747091571	0,00118637772	-0,013322702458777869	0,0004970879413009671	0,013322702458777869
1	0	0	1	0	0	1	99245,01	-0,300000012	3,94796491	-0,00083292304637200294	-0,29984637014165485	0,00118378294	-0,014988544051500336	0,00055924273087328467	0,014988544051500336
1	0	0	1	0	0	1	99265,01	-0,300000012	3,93991446	-0,00083292171709736192	-0,29984589267338368	0,0011813672	-0,016654388157931142	0,00062139761423544	0,016654388157931142
1	0	0	1	0	0	1	99285,01	-0,300000012	3,9324553	-0,00083292205571300454	-0,29984601426543347	0,0011791311	-0,018320233914587738	0,00068355255916973824	0,018320233914587738
1	0	0	1	0	0	1	99305,01	-0,300000012	3,92574024	-0,00083291962735520474	-0,29984513931993498	0,00117711409	-0,019986074793893933	0,00074570732212353549	0,019986074793893933
1	0	0	1	0	0	1	99325,01	-0,300000012	3,9190824	-0,00083292338816490432	-0,29984649430166048	0,00117512315	-0,021651921229030198	0,00080786229237282253	0,021651921229030198
1	0	0	1	0	0	1	99345,01	-0,300000012	3,91282511	-0,00083292979623874022	-0,29984880004565248	0,00117325597	-0,023317778515645706	0,00087001766750538982	0,023317778515645706
1	0	0	1	0	0	1	99365,01	-0,300000012	3,90641522	-0,00083293157360951104	-0,29984944031583174	0,00117133639	-0,024983639696911485	0,00093217318795259558	0,024983639696911485
1	0	0	1	0	0	1	99385,01	-0,300000012	3,89998627	-0,0008329248368193705	-0,29984701580347194	0,00116939924	-0,026649495293674048	0,0009943285000344777	0,026649495293674048
1	0	0	1	0	0	1	99405,01	-0,300000012	3,89395809	-0,00083291972853905626	-0,29984517574191098	0,00116758456	-0,028315337021003674	0,0010564832946291691	0,028315337021003674
1	0	0	1	0	0	1	99425,02	-0,300000012	3,88794875	-0,00083291517292956518	-0,2998435368718912	0,00116577628	-0,029981164303930778	0,0011186375502837819	0,029981164303930778
1	0	0	1	0	0	1	99445,02	-0,300000012	3,88239741	-0,00083291699694593754	-0,29984419297467782	0,00116411434	-0,031647002910998637	0,0011807922284573117	0,031647002910998637
1	0	0	1	0	0	1	99465,02	-0,300000012	3,87779999	-0,00083292043987413248	-0,29984543181791334	0,00116274063	-0,033312841778061958	0,0012429469163316219	0,033312841778061958
1	0	0	1	0	0	1	99485,02	-0,300000012	3,87255383	-0,00083291734924084608	-0,29984432032846995	0,00116116332	-0,034978676312041453	0,0013051014425327485	0,034978676312041453
1	0	0	1	0	0	1	99505,02	-0,300000012	3,86799431	-0,00083291155539949747	-0,29984223347157005	0,00115978811	-0,036644503121903046	0,0013672556805366507	0,036644503121903046
1	0	0	1	0	0	1	99525,02	-0,300000012	3,86519003	-0,00083291527101728653	-0,29984357165220646	0,00115895236	-0,03831033400347879	0,0014294100704616827	0,03831033400347879
1	0	0	1	0	0	1	99545,02	-0,300000012	3,8612411	-0,00083291645072400576	-0,29984399686879955	0,00115776993	-0,039976170498762362	0,0014915646698417018	0,039976170498762362
1	0	0	1	0	0	1	99565,02	-0,300000012	3,85683441	-0,00083291782309942771	-0,29984448980069325	0,0011564506	-0,041642007136607008	0,0015537192745408656	0,041642007136607008
1	0	0	1	0	0	1	99585,02	-0,300000012	3,85238934	-0,00083290737538701965	-0,29984072981553728	0,00115510321	-0,043307824944670502	0,0016158731766755782	0,043307824944670502
1	0	0	1	0	0	1	99605,02	-0,300000012	3,84578872	-0,00083291627458400192	-0,29984393276502701	0,00115313637	-0,044973646161897818	0,0016780272060107766	0,044973646161897818
1	0	0	1	0	0	1	99625,02	-0,300000012	3,83951235	-0,00083291897840632333	-0,2998449057029552	0,00115125824	-0,046639481967062266	0,0017401817796415229	0,046639481967062266
1	0	0	1	0	0	1	99645,02	-0,300000012	3,8337512	-0,00083292128754489958	-0,29984573808642144	0,00114953401	-0,04830532655387671	0,0018023366809274374	0,04830532655387671
1	0	0	1	0	0	1	99665,02	-0,300000012	3,82886744	-0,00083292105557024474	-0,29984565346718714	0,00114806928	-0,04997116860314096	0,0018644914875339427	0,04997116860314096
1	0	0	1	0	0	1	99685,02	-0,300000012	3,82365942	-0,00083291899276276429	-0,29984491162513824	0,00114650477	-0,05163700668902912	0,0019266461462615571	0,05163700668902912
1	0	0	1	0	0	1	99705,02	-0,300000012	3,81986308	-0,00083291954359412198	-0,29984511021371744	0,00114536728	-0,053302849863420442	0,0019888009948480662	0,053302849863420442
1	0	0	1	0	0	1	99725,02	-0,300000012	3,81543732	-0,00083291676578919091	-0,29984410917653107	0,00114403642	-0,0549686800261592	0,0020509553579523238	0,0549686800261592
1	0	0	1	0	0	1	99745,02	-0,300000012	3,81173635	-0,00083290931961933773	-0,29984142972184998	0,0011429165	-0,056634500940750554	0,0021131093759957674	0,056634500940750554
1	0	0	1	0	0	1	99765,02	-0,300000012	3,80807352	-0,0008329146521538496	-0,29984334853067776	0,00114182546	-0,058300325852439309	0,0021752635431762893	0,058300325852439309
1	0	0	1	0	0	1	99785,02	-0,300000012	3,80498314	-0,00083292044454813005	-0,29984543361178176	0,00114090682	-0,059966166739634842	0,0022374183064244483	0,059966166739634842
1	0	0	1	0	0	1	99805,02	-0,300000012	3,8022933	-0,00083291503572298419	-0,29984348747849818	0,00114009285	-0,061632000125397082	0,0022995727897840458	0,061632000125397082
1	0	0	1	0	0	1	99825,02	-0,300000012	3,80070996	-0,00083291405809753472	-0,29984313442331059	0,00113961683	-0,063297832448526067	0,0023617272334953667	0,063297832448526067
1	0	0	1	0	0	1	99845,02	-0,300000012	3,7969327	-0,00083292021264798118	-0,29984535092566918	0,0011384926	-0,064963670803623578	0,0024238819022675443	0,064963670803623578
1	0	0	1	0	0	1	99865,02	-0,300000012	3,7943573	-0,00083291470666229722	-0,29984336879559546	0,00113771285	-0,066629503272984269	0,002486036351434967	0,066629503272984269
1	0	0	1	0	0	1	99885,02	-0,300000012	3,79210615	-0,00083292457345128051	-0,29984691987583846	0,00113705138	-0,06829534811402743	0,0025481912622064973	0,06829534811402743
1	0	0	1	0	0	1	99905,02	-0,300000012	3,78888226	-0,00083293263657556634	-0,29984982366021472	0,00113609573	-0,069961213318605082	0,0026103469327688781	0,069961213318605082
1	0	0	1	0	0	1	99925,03	-0,300000012	3,78382683	-0,00083292948470016333	-0,29984868798822842	0,00113457546	-0,071627071023227968	0,0026725023234978627	0,071627071023227968
1	0	0	1	0	0	1	99945,03	-0,300000012	3,78022122	-0,00083291839708884557	-0,29984469672600845	0,00113347929	-0,073292912182781952	0,0027346570969080822	0,073292912182781952
1	0	0	1	0	0	1	99965,03	-0,300000012	3,77713084	-0,00083292668259806106	-0,29984768027416019	0,00113256392	-0,07495875932906455	0,0027968120936911952	0,07495875932906455
1	0	0	1	0	0	1	99985,03	-0,300000012	3,76959538	-0,00083291799030701325	-0,29984454999423424	0,00113029266	-0,076624600561624307	0,0028589668698253571	0,076624600561624307
1	0	0	1	0	0	1	100005,03	-0,300000012	3,76574183	-0,00083292668883999194	-0,29984768249328595	0,00112914899	-0,078290465438609856	0,0029211225281648371	0,078290465438609856
1	0	0	1	0	0	1	100025,03	-0,300000012	3,76204085	-0,00083292109565933542	-0,29984566862501811	0,00112803164	-0,079956312674834214	0,0029832775283037978	0,079956312674834214
1	0	0	1	0	0	1	100045,03	-0,300000012	3,7567184	-0,00083292527220480973	-0,29984717142562758	0,00112644141	-0,081622163250996557	0,0030454326530603347	0,081622163250996557
1	0	0	1	0	0	1	100065,03	-0,300000012	3,75366616	-0,00083291436537437965	-0,29984324616125997	0,00112551148	-0,083287987858155251	0,0031075868088784307	0,083287987858155251
1	0	0	1	0	0	1	100085,03	-0,300000012	3,7507093	-0,00083291954926980864	-0,29984511120974797	0,00112463185	-0,084953821583485146	0,0031697413049077536	0,084953821583485146
1	0	0	1	0	0	1	100105,03	-0,300000012	3,74582553	-0,00083291889614860211	-0,29984487653755571	0,00112316664	-0,086619661811021184	0,0032318960435431296	0,086619661811021184
1	0	0	1	0	0	1	100125,03	-0,300000012	3,74183846	-0,00083291479675306227	-0,2998434014545168	0,00112196559	-0,088285500384167373	0,0032940507204509965	0,088285500384167373
1	0	0	1	0	0	1	100145,03	-0,300000012	3,73895788	-0,00083291631550424627	-0,29984394707366438	0,00112110388	-0,089951331691010662	0,0033562051262433325	0,089951331691010662
1	0	0	1	0	0	1	100165,03	-0,300000012	3,73582911	-0,00083290969389180339	-0,29984156445727501	0,00112015684	-0,09161715973288535	0,0034183594102153005	0,09161715973288535
1	0	0	1	0	0	1	100185,03	-0,300000012	3,73165131	-0,00083290878018074573	-0,29984123498326976	0,00111890293	-0,093282983095848422	0,003480513519610784	0,093282983095848422
1	0	0	1	0	0	1	100205,03	-0,300000012	3,72684383	-0,00083293403289384307	-0,2998503252078535	0,00111749535	-0,094948841801875699	0,0035426689477035136	0,094948841801875699
1	0	0	1	0	0	1	100225,03	-0,300000012	3,72089195	-0,00083292477219137882	-0,29984699253785466	0,00111569825	-0,096614695477173261	0,0036048241880929523	0,096614695477173261
1	0	0	1	0	0	1	100245,03	-0,300000012	3,7157793	-0,00083292137239211149	-0,29984576751775053	0,00111416075	-0,09828053646408407	0,0036669789550616224	0,09828053646408407
1	0	0	1	0	0	1	100265,03	-0,300000012	3,71043777	-0,00083291661643319654	-0,29984405602115917	0,00111255271	-0,0999463761948336	0,0037291336751612262	0,0999463761948336
1	0	0	1	0	0	1	100285,03	-0,300000012	3,70532513	-0,00083291738727357645	-0,29984433401998234	0,0011110208	-0,10161221099752242	0,0037912882113882598	0,10161221099752242
1	0	0	1	0	0	1	100305,03	-0,300000012	3,70025063	-0,00083291954371333133	-0,29984510920596512	0,00110950205	-0,10327804689258226	0,0038534427883731238	0,10327804689258226
1	0	0	1	0	0	1	100325,03	-0,300000012	3,69553876	-0,0008329131274637248	-0,29984280051874016	0,00110808073	-0,10494387952647163	0,0039155972436793338	0,10494387952647163
1	0	0	1	0	0	1	100345,03	-0,300000012	3,69061685	-0,00083291274855699802	-0,29984266338897779	0,00110660435	-0,10660970630115821	0,0039777514803708083	0,10660970630115821
1	0	0	1	0	0	1	100365,03	-0,300000012	3,68485546	-0,0008329211768491401	-0,29984569712672646	0,00110488804	-0,10827555234479296	0,004039906436012647	0,10827555234479296
1	0	0	1	0	0	1	100385,03	-0,300000012	3,67945671	-0,0008329208303325705	-0,29984557350021677	0,00110326882	-0,10994139469792499	0,0041020612539568685	0,10994139469792499
1	0	0	1	0	0	1	100405,03	-0,300000012	3,67182612	-0,00083292185199426278	-0,29984594017416685	0,00110098219	-0,11160723596087485	0,0041642160312249261	0,11160723596087485
1	0	0	1	0	0	1	100425,03	-0,300000012	3,6662364	-0,00083292947931918835	-0,29984868672480717	0,00109931617	-0,11327309369557488	0,0042263714230761299	0,11327309369557488
1	0	0	1	0	0	1	100445,04	-0,300000012	3,66099024	-0,00083293431629902784	-0,29985042826842637	0,00109774945	-0,11493895810211421	0,0042885270638626285	0,11493895810211421
1	0	0	1	0	0	1	100465,04	-0,300000012	3,65791893	-0,00083293541027108826	-0,29985082105735181	0,00109683	-0,11660483253047586	0,0043506830785767917	0,11660483253047586
1	0	0	1	0	0	1	100485,04	-0,300000012	3,65255833	-0,00083292535383668211	-0,29984720192951661	0,00109520939	-0,11827068745814482	0,0044128383656938925	0,11827068745814482
1	0	0	1	0	0	1	100505,04	-0,300000012	3,64683509	-0,00083292139330671898	-0,29984577528727526	0,00109348807	-0,11993653446932854	0,0044749933574362835	0,11993653446932854
1	0	0	1	0	0	1	100525,04	-0,300000012	3,642066	-0,00083291720399260518	-0,29984426706626541	0,00109205255	-0,12160236986428058	0,0045371479157614528	0,12160236986428058
1	0	0	1	0	0	1	100545,04	-0,300000012	3,63599944	-0,00083291172784401318	-0,2998422966656009	0,00109022646	-0,12326819603255941	0,0045993021298270413	0,12326819603255941
1	0	0	1	0	0	1	100565,04	-0,300000012	3,63039088	-0,00083291609330640896	-0,299843867084024	0,00108855043	-0,12493402659103496	0,0046614565076967699	0,12493402659103496
1	0	0	1	0	0	1	100585,04	-0,300000012	3,62384748	-0,0008329153918143776	-0,29984361548735686	0,00108658755	-0,12659985446234598	0,0047236107853047776	0,12659985446234598
1	0	0	1	0	0	1	100605,04	-0,300000012	3,61718965	-0,00083291309261984307	-0,29984278772387027	0,00108458824	-0,12826568007668907	0,0047857649787022771	0,12826568007668907
1	0	0	1	0	0	1	100625,04	-0,300000012	3,60904384	-0,00083291920875012877	-0,29984498862203194	0,00108215376	-0,12993150602521219	0,0048479191845684838	0,12993150602521219
1	0	0	1	0	0	1	100645,04	-0,300000012	3,60183263	-0,00083292180827425587	-0,29984592554921216	0,00107999484	-0,13159734219791214	0,004910073771912473	0,13159734219791214
1	0	0	1	0	0	1	100665,04	-0,300000012	3,59361053	-0,00083291863490309965	-0,29984478211056	0,00107752532	-0,13326317984376568	0,0049722284142218048	0,13326317984376568
1	0	0	1	0	0	1	100685,04	-0,300000012	3,58657122	-0,00083291676037675802	-0,29984410753351917	0,00107541226	-0,134929011985574	0,0050343828511678086	0,134929011985574
1	0	0	1	0	0	1	100705,04	-0,300000012	3,57916927	-0,00083291512355208397	-0,29984351909634925	0,00107319071	-0,13659484821075582	0,005096537440469968	0,13659484821075582
1	0	0	1	0	0	1	100725,04	-0,300000012	3,57209182	-0,00083290656210316557	-0,29984043591867443	0,00107105752	-0,1382606614076285	0,005158691170554951	0,1382606614076285
1	0	0	1	0	0	1	100745,04	-0,300000012	3,56306839	-0,00083291335378918387	-0,29984288198382362	0,00106836064	-0,13992647965659749	0,005220845089140441	0,13992647965659749
1	0	0	1	0	0	1	100765,04	-0,300000012	3,55461717	-0,00083293340484797952	-0,29985009983139379	0,00106585235	-0,14159233226185258	0,0052830002896051565	0,14159233226185258
1	0	0	1	0	0	1	100785,04	-0,300000012	3,54607081	-0,00083291831833289741	-0,2998446680812185	0,00106327038	-0,1432581793333148	0,0053451552835966208	0,1432581793333148
1	0	0	1	0	0	1	100805,04	-0,300000012	3,53735256	-0,00083290247141652634	-0,29983896442104666	0,00106063613	-0,1449239950958959	0,0054073091094116339	0,1449239950958959
1	0	0	1	0	0	1	100825,04	-0,300000012	3,52821469	-0,00083290944420297933	-0,29984147345759078	0,00105790514	-0,14658981091293744	0,0054694629372586406	0,14658981091293744
1	0	0	1	0	0	1	100845,04	-0,300000012	3,51932478	-0,00083290811242659891	-0,2998409945022832	0,00105523784	-0,14825563323441859	0,0055316170077950342	0,14825563323441859
1	0	0	1	0	0	1	100865,04	-0,300000012	3,51009154	-0,00083290819897088742	-0,29984102629987072	0,00105246948	-0,14992145204971283	0,00559377094751088	0,14992145204971283
1	0	0	1	0	0	1	100885,04	-0,300000012	3,50053406	-0,000832895761511392	-0,29983654778597664	0,00104958809	-0,15158724940348051	0,0056559240864683149	0,15158724940348051
1	0	0	1	0	0	1	100905,04	-0,300000012	3,49030876	-0,0008329030232181152	-0,29983916306569312	0,00104653125	-0,15325304976835066	0,0057180773377740314	0,15325304976835066
1	0	0	1	0	0	1	100925,04	-0,300000012	3,4799118	-0,00083290138436522752	-0,29983857251786854	0,00104341179	-0,15491885107382186	0,0057802306241748365	0,15491885107382186
1	0	0	1	0	0	1	100945,05	-0,300000012	3,46964836	-0,00083290433152019981	-0,29983963292467821	0,00104033807	-0,15658466149649734	0,005842384250750793	0,15658466149649734
1	0	0	1	0	0	1	100965,05	-0,300000012	3,45866013	-0,00083290877441730765	-0,2998412334529977	0,00103704887	-0,15825048401308934	0,0059045383285670336	0,15825048401308934
1	0	0	1	0	0	1	100985,05	-0,300000012	3,44795799	-0,00083291486549211878	-0,29984342507961587	0,00103384757	-0,15991632091745446	0,0059666929432104358	0,15991632091745446
1	0	0	1	0	0	1	101005,05	-0,300000012	3,43609214	-0,00083291635832190502	-0,29984396311602029	0,00103029143	-0,16158215181987197	0,0060288473339131021	0,16158215181987197
1	0	0	1	0	0	1	101025,05	-0,300000012	3,42418814	-0,00083290224231945139	-0,29983888194467533	0,00102670479	-0,16324797005517658	0,0060910012519887539	0,16324797005517658
1	0	0	1	0	0	1	101045,05	-0,300000012	3,41211247	-0,00083290683984094195	-0,29984053590229773	0,00102308963	-0,16491378029479626	0,0061531548717346522	0,16491378029479626
1	0	0	1	0	0	1	101065,05	-0,300000012	3,39933085	-0,00083290410719977485	-0,29983955328788858	0,00101925386	-0,16657958607316886	0,0062153083250254234	0,16657958607316886
1	0	0	1	0	0	1	101085,05	-0,300000012	3,38653016	-0,00083291417696409754	-0,29984317759315373	0,00101542799	-0,16824540184679834	0,0062774621512526682	0,16824540184679834
1	0	0	1	0	0	1	101105,05	-0,300000012	3,37386298	-0,00083291651856899264	-0,29984402017552826	0,00101163262	-0,16991122214212723	0,0063396161461905958	0,16991122214212723
1	0	0	1	0	0	1	101125,05	-0,300000012	3,36104345	-0,00083290624006589248	-0,2998403211045177	0,00100777636	-0,17157704804255773	0,0064017703502624013	0,17157704804255773
1	0	0	1	0	0	1	101145,05	-0,300000012	3,347785	-0,00083291799082524262	-0,29984455018079309	0,00100381509	-0,17324288367804262	0,006463924917562176	0,17324288367804262
1	0	0	1	0	0	1	101165,05	-0,300000012	3,33445001	-0,00083292262508637376	-0,29984621927768282	0,000999822281	-0,17490872963405526	0,0065260798699347162	0,17490872963405526
1	0	0	1	0	0	1	101185,05	-0,300000012	3,32174492	-0,00083291338329679437	-0,29984289250861779	0,000996001647	-0,17657456008712992	0,0065882342438717965	0,17657456008712992
1	0	0	1	0	0	1	101205,05	-0,300000012	3,30789495	-0,00083291962757872205	-0,29984513940039962	0,000991856214	-0,17824039672375597	0,0066503888485254925	0,17824039672375597
1	0	0	1	0	0	1	101225,05	-0,300000012	3,29429317	-0,00083293018290069363	-0,29984894036518797	0,000987790292	-0,1799062462270761	0,0067125439332528448	0,1799062462270761
1	0	0	1	0	0	1	101245,05	-0,300000012	3,28130174	-0,00083291976939804019	-0,29984519066378042	0,000983882579	-0,18157208599317117	0,0067746986546712397	0,18157208599317117
1	0	0	1	0	0	1	101265,05	-0,300000012	3,2676425	-0,00083291743844085274	-0,29984435147992864	0,000979784178	-0,1832379227332825	0,0068368532631861094	0,1832379227332825
1	0	0	1	0	0	1	101285,05	-0,300000012	3,25268626	-0,00083291743639277082	-0,29984435170603347	0,000975299627	-0,1849037582774001	0,0068990078270768474	0,1849037582774001
1	0	0	1	0	0	1	101305,05	-0,300000012	3,2398665	-0,00083291948080228442	-0,29984508656192646	0,000971458037	-0,18656959845228368	0,0069611625637476902	0,18656959845228368
1	0	0	1	0	0	1	101325,05	-0,300000012	3,22616935	-0,00083291345812380314	-0,29984291938646906	0,000967344036	-0,18823542610154589	0,0070233168330707584	0,18823542610154589
1	0	0	1	0	0	1	101345,05	-0,300000012	3,21151829	-0,00083293167705999488	-0,2998494779761465	0,000962972059	-0,189901275409232	0,0070854719104987418	0,189901275409232
1	0	0	1	0	0	1	101365,05	-0,300000012	3,19732499	-0,00083292210494147405	-0,29984603122987238	0,000958705205	-0,19156712251752326	0,0071476269058643469	0,19156712251752326
1	0	0	1	0	0	1	101385,05	-0,300000012	3,18236852	-0,00083291822078327334	-0,29984463407754362	0,000954216113	-0,19323296007022304	0,0072097815446979853	0,19323296007022304
1	0	0	1	0	0	1	101405,05	-0,300000012	3,16758394	-0,0008329100202653143	-0,29984168088829062	0,000949773705	-0,19489878935308301	0,0072719358749727821	0,19489878935308301
1	0	0	1	0	0	1	101425,05	-0,300000012	3,15184546	-0,00083290698190530138	-0,29984058737998394	0,000945051201	-0,19656460820917827	0,0073340898162109683	0,19656460820917827
1	0	0	1	0	0	1	101445,06	-0,300000012	3,13687015	-0,00083291160405675571	-0,29984225210350515	0,000940566184	-0,19823042477442365	0,0073962436719744666	0,19823042477442365
1	0	0	1	0	0	1	101465,06	-0,300000012	3,12052107	-0,00083291231076419341	-0,29984250539574067	0,000935664866	-0,19989624066794458	0,0074583975026750221	0,19989624066794458
1	0	0	1	0	0	1	101485,06	-0,300000012	3,10348535	-0,00083292182134257434	-0,2998459302532775	0,000930567447	-0,2015620736209456	0,0075205519698877158	0,2015620736209456
1	0	0	1	0	0	1	101505,06	-0,300000012	3,08753705	-0,00083291947654386355	-0,29984508570958976	0,000925782835	-0,2032279147038447	0,0075827067404378394	0,2032279147038447
1	0	0	1	0	0	1	101525,06	-0,300000012	3,07008171	-0,00083291285636193216	-0,29984270181053498	0,000920541584	-0,20489374594276688	0,0076448611436959462	0,20489374594276688
1	0	0	1	0	0	1	101545,06	-0,300000012	3,05197763	-0,00083292009859449331	-0,29984531007971462	0,000915121171	-0,20655958003080592	0,0077070156532584358	0,20655958003080592
1	0	0	1	0	0	1	101565,06	-0,300000012	3,03255725	-0,00083292408065497869	-0,29984674247616678	0,000909302384	-0,20822543172193277	0,0077691708196157965	0,20822543172193277
1	0	0	1	0	0	1	101585,06	-0,300000012	3,01315594	-0,00083291779064138739	-0,29984447860471085	0,000903478183	-0,20989127194744387	0,0078313255581756198	0,20989127194744387
1	0	0	1	0	0	1	101605,06	-0,300000012	2,99117947	-0,00083291518850458995	-0,29984354248227987	0,000896885875	-0,21155710567714643	0,0078934800543680934	0,21155710567714643
1	0	0	1	0	0	1	101625,06	-0,300000012	2,97009945	-0,00083291904495490918	-0,29984492965997261	0,000890569238	-0,21322294013083347	0,0079556345775734016	0,21322294013083347
1	0	0	1	0	0	1	101645,06	-0,300000012	2,94699717	-0,00083290860467983616	-0,29984117235220602	0,000883631059	-0,21488875701686941	0,0080177884453060262	0,21488875701686941
1	0	0	1	0	0	1	101665,06	-0,300000012	2,92202544	-0,00083290942196713562	-0,299841465983408	0,00087614439	-0,21655457514046998	0,0080799423592138496	0,21655457514046998
1	0	0	1	0	0	1	101685,06	-0,300000012	2,89592814	-0,00083291856597695078	-0,29984475723131571	0,000868328847	-0,21822040251209539	0,0081420966181779162	0,21822040251209539
1	0	0	1	0	0	1	101705,06	-0,300000012	2,86880064	-0,00083291925667391872	-0,29984500699429722	0,000860195549	-0,21988623880991376	0,0082042512101902426	0,21988623880991376
1	0	0	1	0	0	1	101725,06	-0,300000012	2,83982277	-0,00083291109433604608	-0,29984206749026291	0,000851498335	-0,22155206272647651	0,0082664053402412749	0,22155206272647651
1	0	0	1	0	0	1	101745,06	-0,300000012	2,80964303	-0,00083291085330148544	-0,29984198137575974	0,000842448906	-0,22321788442109894	0,0083285593873887283	0,22321788442109894
1	0	0	1	0	0	1	101765,06	-0,300000012	2,77801347	-0,00083290600400997542	-0,29984023612606682	0,000832960242	-0,22488369574251146	0,0083907130474977702	0,22488369574251146
1	0	0	1	0	0	1	101785,06	-0,300000012	2,7439611	-0,00083290806341502387	-0,29984097638026106	0,000822751957	-0,22654950196867722	0,0084528665174963059	0,22654950196867722
1	0	0	1	0	0	1	101805,06	-0,300000012	2,70859241	-0,00083291344696614477	-0,29984291553733843	0,000812152226	-0,22821533485367933	0,0085150209821718694	0,22821533485367933
1	0	0	1	0	0	1	101825,06	-0,300000012	2,67150688	-0,00083291636166142093	-0,29984396403941261	0,000801035203	-0,2298811666332735	0,008577175405603177	0,2298811666332735
1	0	0	1	0	0	1	101845,06	-0,300000012	2,63352466	-0,00083291438162989082	-0,29984325090749158	0,000789644604	-0,23154699847303363	0,0086393298312793574	0,23154699847303363
1	0	0	1	0	0	1	101865,06	-0,300000012	2,59371114	-0,00083291495466894579	-0,29984345829962093	0,000777707319	-0,23321283117494352	0,0087014842891235021	0,23321283117494352
1	0	0	1	0	0	1	101885,06	-0,300000012	2,55242848	-0,00083292219251228698	-0,29984606275474195	0,00076533563	-0,23487868179192512	0,0087636394154030605	0,23487868179192512
1	0	0	1	0	0	1	101905,06	-0,300000012	2,50984883	-0,00083292474947869786	-0,2998469840542775	0,000752570631	-0,23654453472585514	0,008825794628131081	0,23654453472585514
1	0	0	1	0	0	1	101925,06	-0,300000012	2,46669674	-0,00083292464061578112	-0,29984694504591366	0,000739631476	-0,23821038292793632	0,0088879496643074586	0,23821038292793632
1	0	0	1	0	0	1	101945,06	-0,300000012	2,42131257	-0,00083292534425854682	-0,29984719736446022	0,000726023805	-0,23987622810447581	0,008950104587596809	0,23987622810447581
1	0	0	1	0	0	1	101965,07	-0,300000012	2,37604308	-0,00083293650049467878	-0,29985121465407917	0,000712459383	-0,24154208790197341	0,0090122600564137613	0,24154208790197341
1	0	0	1	0	0	1	101985,07	-0,300000012	2,33069706	-0,00083292948695686131	-0,2998486889018519	0,000698856486	-0,24320795253895091	0,0090744157057982195	0,24320795253895091
1	0	0	1	0	0	1	102005,07	-0,300000012	2,28546572	-0,00083291829111013146	-0,29984465846272678	0,000685284671	-0,24487379200179078	0,0091365704159017523	0,24487379200179078
1	0	0	1	0	0	1	102025,07	-0,300000012	2,2403295	-0,0008329230093210935	-0,2998463579136025	0,000671754649	-0,2465396409101655	0,0091987254784308915	0,2465396409101655
1	0	0	1	0	0	1	102045,07	-0,300000012	2,19431591	-0,0008329156379799049	-0,29984370317321293	0,000657951809	-0,24820547631628349	0,0092608800371726771	0,24820547631628349
1	0	0	1	0	0	1	102065,07	-0,300000012	2,1471386	-0,00083290777942207117	-0,29984087512565997	0,000643799896	-0,24987129698148403	0,0093230340459110157	0,24987129698148403
1	0	0	1	0	0	1	102085,07	-0,300000012	2,10038114	-0,00083293073204656448	-0,29984913775360026	0,000629797461	-0,25153714367526963	0,009385189025810857	0,25153714367526963
1	0	0	1	0	0	1	102105,07	-0,300000012	2,05423403	-0,00083291608517203059	-0,29984386415919622	0,000615949451	-0,25320298110399507	0,0094473436600188467	0,25320298110399507
1	0	0	1	0	0	1	102125,07	-0,300000012	2,00904059	-0,0008329112954801984	-0,29984214101770349	0,000602395041	-0,25486881253951155	0,009509498070612151	0,25486881253951155
1	1	0	0	1	0	2	102128,79	0,300000012	2,03299546	1,613198717435201E-008	0,096791927838795034	0,000196777546	-0,25517871514431827	0,0095210609534659738	1,613198717435201E-008
1	1	0	0	0	0	2	102148,79	0,300000012	2,98311472	0,00083386032450364698	0,30018378359647526	0,000895482663	-0,25351099990253174	0,0094588362555279283	0,001667731373773681
1	1	0	0	0	0	2	102168,79	0,300000012	3,53894067	0,00083386048630045517	0,3001838425969936	0,00106233277	-0,25184328134608618	0,0093966114339154982	0,0033354499302191866
1	1	0	0	0	0	2	102188,79	0,300000012	3,88637018	0,00083385925574766272	0,30018339990377766	0,00116662378	-0,25017556046860106	0,009334386525701961	0,0050031708077043302
1	1	0	0	0	0	2	102208,79	0,300000012	3,93299437	0,00083387489923503667	0,3001890303995655	0,00118064182	-0,24850781283624326	0,009272160619228151	0,0066709184400621389
1	1	0	0	0	0	2	102228,79	0,300000012	3,94438314	0,00083386636587646272	0,30018595956945459	0,00118404848	-0,24684007750199261	0,0092099351716132544	0,0083386537743128013
1	1	0	0	0	0	2	102248,79	0,300000012	3,95138454	0,00083387184595399437	0,30018793149172512	0,00118615793	-0,24517233890098355	0,0091477096021112102	0,010006392375321853
1	1	0	0	0	0	2	102268,79	0,300000012	3,95752716	0,00083387810105747648	0,30019018315866746	0,00118801079	-0,24350458858760717	0,009085483595604992	0,01167414268869824
1	1	0	0	0	0	2	102288,79	0,300000012	3,96321225	0,00083387069325314637	0,30018751739427565	0,00118970685	-0,2418368393788721	0,0090232576303144269	0,013341891897433334
1	1	0	0	0	0	2	102308,79	0,300000012	3,96981287	0,00083386906460920986	0,30018692997578336	0,00119168591	-0,24016910577729037	0,0089610322473477389	0,015009625499015053
1	1	0	0	0	0	2	102328,79	0,300000012	3,97214007	0,00083387010802328589	0,30018730653397152	0,00119238603	-0,23850136578361878	0,0088988066258835814	0,01667736549268663
1	1	0	0	0	0	2	102348,79	0,300000012	3,97450566	0,00083386943186653978	0,30018706306644019	0,00119309523	-0,2368336303543335	0,008836581174722816	0,018345100921971933
1	1	0	0	0	0	2	102368,79	0,300000012	3,97792053	0,00083387068521976474	0,30018751338405184	0,00119412213	-0,23516589087655008	0,0087743555725071398	0,020012840399755373
1	1	0	0	0	0	2	102388,80	0,300000012	3,98076296	0,00083386889247430694	0,30018686912320966	0,00119497278	-0,23349815399538835	0,008712130067174912	0,021680577280917101
1	1	0	0	0	0	2	102408,80	0,300000012	3,98421597	0,00083386596030824717	0,30018581252989978	0,00119600515	-0,23183041648633971	0,0086499045384153779	0,023348314789965747
1	1	0	0	0	0	2	102428,80	0,300000012	3,98732543	0,00083387242973678643	0,30018814168781702	0,00119694776	-0,2301626780782096	0,0085876789761099059	0,025016053198095824
1	1	0	0	0	0	2	102448,80	0,300000012	3,9895575	0,0008338628518068128	0,30018469452588525	0,00119760411	-0,22849494591848579	0,008525453646940873	0,026683785357819664
1	1	0	0	0	0	2	102468,80	0,300000012	3,99289584	0,00083386477781501082	0,30018538675731603	0,00119860901	-0,22682721661587747	0,0084632284243746624	0,028351514660427968
1	1	0	0	0	0	2	102488,80	0,300000012	3,99533772	0,0008338581777479913	0,30018301187044154	0,00119933253	-0,22515949615454368	0,0084010035316882893	0,030019235121761754
1	1	0	0	0	0	2	102508,80	0,300000012	3,99749351	0,00083385148452553485	0,30018060199410918	0,00119997002	-0,2234917841925193	0,0083387789561225805	0,031686947083786125
1	1	0	0	0	0	2	102528,80	0,300000012	3,99936295	0,0008338554526120425	0,30018202975016288	0,00120053685	-0,2218240726687	0,0082765543969068915	0,033354658607605421
1	1	0	0	0	0	2	102548,80	0,300000012	4,00134706	0,00083385745797554662	0,30018275278500128	0,00120113534	-0,22015636115747382	0,0082143298381610675	0,035022370118831578
1	1	0	0	0	0	2	102568,80	0,300000012	4,00321674	0,00083386135889589786	0,30018415597382003	0,00120170228	-0,21848864171775536	0,0081521049835925376	0,036690089558550042
1	1	0	0	0	0	2	102588,80	0,300000012	4,00541067	0,00083386196918951142	0,30018437613645734	0,00120236166	-0,21682092097900998	0,0080898800805555661	0,038357810297295437
1	1	0	0	0	0	2	102608,80	0,300000012	4,00735617	0,00083386285680035738	0,30018469632702035	0,00120294699	-0,215153199829428	0,008027655162189728	0,04002553144687744
1	1	0	0	0	0	2	102628,80	0,300000012	4,00943565	0,00083386397608452365	0,30018509814310304	0,00120357284	-0,21348546876465968	0,0079654298738749594	0,041693262511645741
1	1	0	0	0	0	2	102648,80	0,300000012	4,01178217	0,00083386007341576947	0,30018369432836979	0,00120427157	-0,21181774296762736	0,0079032047821065011	0,043360988308678061
1	1	0	0	0	0	2	102668,80	0,300000012	4,01414776	0,00083385987725853914	0,30018362314005971	0,00120498147	-0,21015003222859923	0,0078409802521724262	0,045028699047706176
1	1	0	0	0	0	2	102688,80	0,300000012	4,01637983	0,00083386515565382118	0,30018552277965702	0,00120565912	-0,20848230567461443	0,0077787551321610534	0,046696425601690989
1	1	0	0	0	0	2	102708,80	0,300000012	4,01861191	0,00083386494218806426	0,3001854470517593	0,00120632886	-0,20681457446732646	0,0077165298385286822	0,048364156808978963
1	1	0	0	0	0	2	102728,80	0,300000012	4,02139711	0,00083386491823361984	0,30018543731007392	0,00120716484	-0,20514684772137494	0,0076543047113547738	0,05003188355493047
1	1	0	0	0	0	2	102748,80	0,300000012	4,02395344	0,00083386606949898931	0,30018585237245683	0,00120793388	-0,20347912012286842	0,0075920795523708915	0,051699611153437011
1	1	0	0	0	0	2	102768,80	0,300000012	4,02567005	0,00083386390310360333	0,30018507298525088	0,00120844611	-0,20181138861573101	0,0075298542475507354	0,053367342660574432
1	1	0	0	0	0	2	102788,80	0,300000012	4,0286274	0,0008338681450982889	0,3001865989548999	0,00120933994	-0,20014365865267344	0,0074676290003422746	0,055035072623632006
1	1	0	0	0	0	2	102808,80	0,300000012	4,03089714	0,00083386644141707162	0,30018598676004179	0,00121001888	-0,19847593126205469	0,0074054038491149632	0,05670280001425079
1	1	0	0	0	0	2	102828,80	0,300000012	4,03297663	0,00083384702557987635	0,30017899646992576	0,00121061492	-0,1968082274655289	0,007343179578214985	0,058370503810776589
1	1	0	0	0	0	2	102848,80	0,300000012	4,03545666	0,00083386875771151642	0,30018681949130291	0,00121139095	-0,19514050648374061	0,0072809546661097562	0,06003822479256489
1	1	0	0	0	0	2	102868,80	0,300000012	4,03786039	0,00083386523701581696	0,30018555319158426	0,00121210737	-0,19347277918354867	0,007218729518256393	0,061705952092756813
1	1	0	0	0	0	2	102888,81	0,300000012	4,04014969	0,0008338700002382199	0,30018726679207507	0,00121280144	-0,19180504330938262	0,0071565040504965261	0,063373687966922918
1	1	0	0	0	0	2	102908,81	0,300000012	4,04217196	0,00083387406558791795	0,30018873107182752	0,00121341448	-0,19013729769085878	0,0070942782191615706	0,065041433585446746
1	1	0	0	0	0	2	102928,81	0,300000012	4,04365969	0,00083386563872463168	0,30018569769862643	0,00121384882	-0,1884695590344671	0,0070320526475931251	0,066709172241838451
1	1	0	0	0	0	2	102948,81	0,300000012	4,04564381	0,00083387632795174925	0,30018954472392154	0,00121446	-0,18680181293908461	0,0069698267984659302	0,068376918337220954
1	1	0	0	0	0	2	102968,81	0,300000012	4,04760885	0,00083388311516079642	0,30019198918916531	0,00121505978	-0,18513404920870595	0,0069076002913533197	0,070044682067599565
1	1	0	0	0	0	2	102988,81	0,300000012	4,04930639	0,00083387151890827546	0,30018781372963667	0,00121555245	-0,18346630456829104	0,0068453744965129229	0,071712426708014477
1	1	0	0	0	0	2	103008,81	0,300000012	4,05102348	0,00083386354933347968	0,30018494465554547	0,00121605629	-0,18179856820142138	0,0067831490103696218	0,073380163074884147
1	1	0	0	0	0	2	103028,81	0,300000012	4,05312204	0,00083385681506825818	0,30018252134644563	0,00121667644	-0,1801308522251616	0,0067209242850273907	0,075047879051143923
1	1	0	0	0	0	2	103048,81	0,300000012	4,05453348	0,0008338621734728416	0,30018444921572371	0,00121710787	-0,17846313585095472	0,0066586995448372198	0,076715595425350797
1	1	0	0	0	0	2	103068,81	0,300000012	4,0565176	0,00083386810863514739	0,30018658677545491	0,00121771218	-0,1767953981113735	0,0065964740074762061	0,078383333164931981
1	1	0	0	0	0	2	103088,81	0,300000012	4,05855894	0,0008338688373068969	0,30018684901522035	0,00121832604	-0,17512765935015875	0,006534248431996672	0,080051071926146726
1	1	0	0	0	0	2	103108,81	0,300000012	4,06019974	0,00083386836268338893	0,3001866772874823	0,0012188179	-0,17345991797403856	0,0064720227589514995	0,081718813302266906
1	1	0	0	0	0	2	103128,81	0,300000012	4,06233597	0,00083386693771680205	0,30018616542790867	0,00121945702	-0,17179218407613235	0,006409797364928544	0,083386547200173107
1	1	0	0	0	0	2	103148,81	0,300000012	4,063519	0,00083387596949603827	0,30018941575580269	0,00121982535	-0,17012444448662163	0,0063475717585441728	0,085054286789683802
1	1	0	0	0	0	2	103168,81	0,300000012	4,06552219	0,00083387782207959232	0,30019008292081734	0,00122042943	-0,16845668187002534	0,0062853452929882803	0,08672204940628009
1	1	0	0	0	0	2	103188,81	0,300000012	4,06788731	0,00083386737717025805	0,30018632362453203	0,00122112408	-0,16678894228817219	0,006223119686889623	0,088389788988133235
1	1	0	0	0	0	2	103208,81	0,300000012	4,07013845	0,00083386566128498982	0,30018570479978547	0,00122179743	-0,16512121169148579	0,0061608944160396186	0,090057519584819635
1	1	0	0	0	0	2	103228,81	0,300000012	4,07195091	0,00083386216183172339	0,3001844461397616	0,00122233632	-0,16345348623482246	0,0060986693369707853	0,091725245041482944
1	1	0	0	0	0	2	103248,81	0,300000012	4,07427835	0,00083387852495908736	0,3001903363302889	0,00122305902	-0,16178574349401258	0,0060364436130072051	0,093392987782292851
1	1	0	0	0	0	2	103268,81	0,300000012	4,07580423	0,00083387893570793997	0,30019048349803194	0,0012235177	-0,16011799094135424	0,0059742175229503667	0,095060740334951168
1	1	0	0	0	0	2	103288,81	0,300000012	4,07799816	0,00083389095657401613	0,30019481204214035	0,00122419384	-0,15845020297208291	0,0059119901114520794	0,096728528304222515
1	1	0	0	0	0	2	103308,81	0,300000012	4,07988691	0,0008338828633228937	0,300191897411032	0,00122474902	-0,15678243235261437	0,0058497633472982618	0,098396298923691072
1	1	0	0	0	0	2	103328,81	0,300000012	4,08181381	0,00083388448557257651	0,3001924818846448	0,00122532982	-0,15511466730185542	0,0057875367909204877	0,10006406397444998
1	1	0	0	0	0	2	103348,81	0,300000012	4,08383608	0,00083389117649197581	0,30019489121104134	0,0012259467	-0,1534468915539784	0,0057253098354188544	0,10173183972232702
1	1	0	0	0	0	2	103368,81	0,300000012	4,08568621	0,00083388003733588595	0,30019088007931174	0,00122648571	-0,15177912140946448	0,0056630830889862317	0,10339960986684093
1	1	0	0	0	0	2	103388,82	0,300000012	4,08767033	0,00083387041749225728	0,30018741812231731	0,0012270672	-0,1501113813105129	0,0056008574635939386	0,10506734996579253
1	1	0	0	0	0	2	103408,82	0,300000012	4,08936834	0,00083388244907889101	0,30019174882780506	0,00122759468	-0,14844362913744845	0,0055386313877002579	0,10673510213885701
1	1	0	0	0	0	2	103428,82	0,300000012	4,09085608	0,00083387531998587981	0,3001891818668752	0,00122803077	-0,14677587115276717	0,0054764050949673408	0,10840286012353827
1	1	0	0	0	0	2	103448,82	0,300000012	4,09253502	0,00083386863886978893	0,30018677783088186	0,00122852495	-0,14510812767596406	0,0054141793435428653	0,11007060360034138
1	1	0	0	0	0	2	103468,82	0,300000012	4,09415627	0,00083387686912549862	0,30018973954611533	0,00122902368	-0,14344037449308597	0,00535195322997168	0,11173835678321949
1	1	0	0	0	0	2	103488,82	0,300000012	4,09615946	0,00083386940078768474	0,30018705164064282	0,00122961402	-0,14177263037977811	0,0052897274547983552	0,11340610089652734
1	1	0	0	0	0	2	103508,82	0,300000012	4,09785748	0,00083386008645759693	0,30018369902333478	0,00123011007	-0,14010490832889109	0,005227502502803616	0,11507382294741437
1	1	0	0	0	0	2	103528,82	0,300000012	4,09951735	0,00083386460677617126	0,30018532518760858	0,00123061496	-0,13843717622137427	0,0051652771755824966	0,11674155505493115
1	1	0	0	0	0	2	103548,82	0,300000012	4,10140562	0,00083386405480570266	0,30018512760042202	0,00123118097	-0,13676944810632726	0,0051030519973257946	0,11840928316997816
1	1	0	0	0	0	2	103568,82	0,300000012	4,10297012	0,0008338621372299063	0,30018443652846227	0,0012316478	-0,13510172818031605	0,0050408271246130278	0,12007700309598941
1	1	0	0	0	0	2	103588,82	0,300000012	4,10468721	0,00083386165226499238	0,30018426158111213	0,00123216247	-0,13343399854151435	0,0049786018895029894	0,12174473273479109
1	1	0	0	0	0	2	103608,82	0,300000012	4,10659456	0,00083385040822790733	0,30018021493299226	0,00123271847	-0,13176629881921603	0,0049163777706179155	0,12341243245708941
1	1	0	0	0	0	2	103628,82	0,300000012	4,10833073	0,00083386346932583386	0,30018491571008595	0,00123325887	-0,13009857602170136	0,0048541527907654938	0,12508015525460408
1	1	0	0	0	0	2	103648,82	0,300000012	4,10976124	0,00083385220925675494	0,30018086296251904	0,00123367168	-0,12843087056624419	0,0047919284579685542	0,12674786071006125
1	1	0	0	0	0	2	103668,82	0,300000012	4,11115408	0,00083385093630684736	0,30018040491884122	0,00123408786	-0,12676317218603386	0,0047297043891585875	0,12841555909027158
1	1	0	0	0	0	2	103688,82	0,300000012	4,11292839	0,00083385632942285798	0,30018234539669133	0,00123462849	-0,1250954624979515	0,0046674798984367117	0,13008326877835394
1	1	0	0	0	0	2	103708,82	0,300000012	4,1153512	0,00083386943174070784	0,30018706325702496	0,00123537518	-0,12342772902998354	0,0046052545204553312	0,13175100224632192
1	1	0	0	0	0	2	103728,82	0,300000012	4,11701059	0,00083387478703260429	0,30018899021366906	0,00123588124	-0,12175998032330995	0,0045430285738973549	0,13341875095299552
1	1	0	0	0	0	2	103748,82	0,300000012	4,11939526	0,00083387258378002381	0,30018819701648154	0,00123659382	-0,12009222483534474	0,004480802374320272	0,13508650644096074
1	1	0	0	0	0	2	103768,82	0,300000012	4,12160826	0,00083386849040124147	0,30018672438326106	0,00123725203	-0,11842448851641872	0,0044185768899658131	0,13675424275988674
1	1	0	0	0	0	2	103788,82	0,300000012	4,12355423	0,00083386953239970726	0,30018709837703392	0,00123783783	-0,11675674605403533	0,0043563511763907002	0,1384219852222701
1	1	0	0	0	0	2	103808,82	0,300000012	4,12534714	0,00083386249761283392	0,30018456687529651	0,00123836554	-0,11508901245799355	0,0042941257936307136	0,14008971881831189
1	1	0	0	0	0	2	103828,82	0,300000012	4,1267972	0,00083386018533507981	0,30018373433896294	0,00123879744	-0,11342129264298603	0,0042319009250596435	0,14175743863331941
1	1	0	0	0	0	2	103848,82	0,300000012	4,12862873	0,00083386627076069517	0,30018592421019731	0,00123935624	-0,11175355599397942	0,0041696754283894355	0,14342517528232603
1	1	0	0	0	0	2	103868,82	0,300000012	4,13028812	0,00083385521039201152	0,30018194367441254	0,00123983796	-0,11008584135344981	0,0041074507528850931	0,14509288992285565
1	1	0	0	0	0	2	103888,82	0,300000012	4,13210058	0,00083385815150042368	0,30018300137620538	0,00124038639	-0,10841812694211493	0,0040452260859323149	0,1467606043341905
1	1	0	0	0	0	2	103908,83	0,300000012	4,13351202	0,00083386565345691302	0,30018570232070515	0,00124082121	-0,10675039249117365	0,0039830006712748787	0,14842833878513178
1	1	0	0	0	0	2	103928,83	0,300000012	4,13511467	0,0008338648300353024	0,30018540667756288	0,00124130107	-0,10508266977332224	0,0039207756943948006	0,1500960615029832
1	1	0	0	0	0	2	103948,83	0,300000012	4,13461876	0,00083386190107299226	0,30018435115371616	0,00124114787	-0,10341494364731038	0,0038585505903516742	0,15176378762899507
1	1	0	0	0	0	2	103968,83	0,300000012	4,13604927	0,00083387164415750246	0,30018785970958451	0,00124159176	-0,10174720340626462	0,003796324959657655	0,1534315278700408
1	1	0	0	0	0	2	103988,83	0,300000012	4,1378808	0,00083386864010492966	0,3001867778387031	0,00124213705	-0,10007945958692522	0,0037340991954526893	0,15509927168938019
1	1	0	0	0	0	2	104008,83	0,300000012	4,13967419	0,00083386130602326643	0,30018413693655443	0,00124266453	-0,098411736833205069	0,0036718742172343002	0,15676699444310032
1	1	0	0	0	0	2	104028,83	0,300000012	4,1413908	0,0008338553715828393	0,30018200169846931	0,00124317093	-0,096744018466039078	0,0036096494026841446	0,15843471281026634
1	1	0	0	0	0	2	104048,83	0,300000012	4,1436801	0,00083385507449673293	0,30018189363177869	0,00124385778	-0,095076299471906739	0,003547424564741031	0,16010243180439869
1	1	0	0	0	0	2	104068,83	0,300000012	4,14543533	0,00083386249920725837	0,30018456697795194	0,00124439574	-0,093408580865656576	0,0034851997412703245	0,16177015041064883
1	1	0	0	0	0	2	104088,83	0,300000012	4,1474576	0,00083386624385250944	0,30018591563820493	0,00124500832	-0,091740850907110746	0,0034229744942302022	0,16343788036919466
1	1	0	0	0	0	2	104108,83	0,300000012	4,14909792	0,00083385549139645363	0,30018204371402221	0,00124548469	-0,090073130967854029	0,0033607496210232282	0,16510560030845136
1	1	0	0	0	0	2	104128,83	0,300000012	4,15075779	0,00083385421790679296	0,3001815863832999	0,00124598108	-0,088405422789971264	0,0032985251866489293	0,16677330848633414
1	1	0	0	0	0	2	104148,83	0,300000012	4,15251303	0,0008338732915884919	0,30018845217195226	0,0012465365	-0,086737686580962842	0,0032362997063956442	0,16844104469534256
1	1	0	0	0	0	2	104168,83	0,300000012	4,1541152	0,00083386393243074419	0,30018508242805306	0,00124700344	-0,085069952402537306	0,0031740743019061363	0,1701087788737681
1	1	0	0	0	0	2	104188,83	0,300000012	4,155756	0,00083385892850491725	0,30018328216860787	0,00124748843	-0,083402235196742976	0,0031118495306883194	0,1717764960795624
1	1	0	0	0	0	2	104208,83	0,300000012	4,15743494	0,00083386239313582579	0,30018452829283507	0,00124799763	-0,081734511958490048	0,0030496245343913606	0,17344421931781533
1	1	0	0	0	0	2	104228,83	0,300000012	4,15897989	0,00083385521908601114	0,30018194634291546	0,00124845072	-0,080066798097360691	0,0029873998879674912	0,1751119331789447
1	1	0	0	0	0	2	104248,83	0,300000012	4,16067791	0,00083387400234573427	0,30018870863707712	0,00124898856	-0,078399057002198592	0,0029251742254052429	0,17677967427410678
1	1	0	0	0	0	2	104268,83	0,300000012	4,16250944	0,00083386881891720819	0,30018684152841094	0,00124953059	-0,076731322940247142	0,0028629488252615398	0,17844740833605821
1	1	0	0	0	0	2	104288,83	0,300000012	4,16346312	0,0008338533008578752	0,3001812562557079	0,00124979357	-0,075063609068670438	0,0028007241784478646	0,18011512220763491
1	1	0	0	0	0	2	104308,83	0,300000012	4,1649127	0,00083386197164985869	0,30018437691033958	0,00125024177	-0,073395889036172186	0,0027384993017619232	0,18178284224013315
1	1	0	0	0	0	2	104328,83	0,300000012	4,16640091	0,00083386006944212646	0,30018369180759347	0,00125068566	-0,071728164471032115	0,0026762742559570218	0,18345056680527325
1	1	0	0	0	0	2	104348,83	0,300000012	4,16754532	0,00083386534329255411	0,30018559145001677	0,001251037	-0,070060430057876864	0,0026140488427094333	0,18511830121842848
1	1	0	0	0	0	2	104368,83	0,300000012	4,16880465	0,00083386456905636518	0,30018531160525222	0,00125141395	-0,068392698101235994	0,0025518235211176989	0,18678603317506938
1	1	0	0	0	0	2	104388,83	0,300000012	4,17036915	0,0008338693046321472	0,30018701720355642	0,00125189067	-0,06672495634455671	0,0024895978338733546	0,18845377493174864
1	1	0	0	0	0	2	104408,84	0,300000012	4,17113209	0,00083387247691717414	0,30018815935735878	0,00125212444	-0,065057209551614426	0,0024273719587192669	0,19012152172469094
1	1	0	0	0	0	2	104428,84	0,300000012	4,1722002	0,00083387138620018957	0,3001877657285225	0,00125244341	-0,063389460825042829	0,0023651460114188701	0,19178927045126253
1	1	0	0	0	0	2	104448,84	0,300000012	4,17370749	0,00083387121410999027	0,30018770489597632	0,00125289569	-0,061721716429558298	0,0023029202257171542	0,19345701484674707
1	1	0	0	0	0	2	104468,84	0,300000012	4,17679787	0,00083386948054201075	0,3001870798868551	0,00125382072	-0,060053970996625126	0,0022406944013068352	0,19512476027968022
1	1	0	0	0	0	2	104488,84	0,300000012	4,17700768	0,00083385585904783667	0,30018217624587149	0,00125386321	-0,058386250614337037	0,0021784695115697645	0,19679248066196832
1	1	0	0	0	0	2	104508,84	0,300000012	4,17868662	0,00083385220383935501	0,3001808613333504	0,0012543617	-0,056718540461911334	0,0021162450035226141	0,19846019081439405
1	1	0	0	0	0	2	104528,84	0,300000012	4,18000269	0,00083384806492096845	0,3001793702339424	0,00125475053	-0,055050835109788749	0,0020540206745812269	0,20012789616651661
1	1	0	0	0	0	2	104548,84	0,300000012	4,18154812	0,00083385408538579942	0,30018153854389389	0,00125522353	-0,05338313291274201	0,0019917964633599616	0,20179559836356336
1	1	0	0	0	0	2	104568,84	0,300000012	4,1840663	0,00083386507915291533	0,30018549606458912	0,00125599606	-0,051715405434206362	0,0019295713088523542	0,20346332584209901
1	1	0	0	0	0	2	104588,84	0,300000012	4,1865654	0,00083386745418773747	0,30018635023551206	0,00125674973	-0,050047674229885376	0,0018673460153306861	0,20513105704642
1	1	0	0	0	0	2	104608,84	0,300000012	4,18782425	0,00083386544982095565	0,30018562979598886	0,00125712471	-0,048379945531911558	0,0018051208153242006	0,20679878574439382
1	1	0	0	0	0	2	104628,84	0,300000012	4,18881655	0,0008338608320189847	0,30018396632983648	0,00125741551	-0,046712224318799283	0,0017428958945879629	0,20846650695750608
1	1	0	0	0	0	2	104648,84	0,300000012	4,18988466	0,00083384812229871744	0,3001793912564441	0,00125771703	-0,045044522739147386	0,0016806717064025296	0,21013420853715798
1	1	0	0	0	0	2	104668,84	0,300000012	4,19095278	0,00083386119923326707	0,30018409961465978	0,00125805743	-0,043376809453764134	0,0016184470814605203	0,21180192182254122
1	1	0	0	0	0	2	104688,84	0,300000012	4,19234562	0,00083387671512530906	0,30018968410714285	0,00125849887	-0,041709053181997837	0,0015562208526387642	0,21346967809430749
1	1	0	0	0	0	2	104708,84	0,300000012	4,19366169	0,00083386850538187558	0,30018672977618272	0,00125888165	-0,040041306656210189	0,0014939949874525754	0,21513742462009514
1	1	0	0	0	0	2	104728,84	0,300000012	4,19619894	0,0008338627493828535	0,30018465719620378	0,0012596345	-0,038373586235099603	0,0014317700962669853	0,21680514504120573
1	1	0	0	0	0	2	104748,84	0,300000012	4,19808292	0,00083385546932783386	0,3001820357677289	0,00126018911	-0,036705865527438022	0,0013695451943897928	0,2184728657488673
1	1	0	0	0	0	2	104768,84	0,300000012	4,19976187	0,00083386293640567194	0,3001847249808727	0,00126070436	-0,03503815504506087	0,0013073206740317099	0,22014057623124442
1	1	0	0	0	0	2	104770,68	0,300000012	4,19989538	0,00015364449714124202	0,30018469625699373	0,00126074429	-0,034884510547919635	0,001301587991266147	0,22029422072838566