File: Experimentelles/Rohdaten/Batteriemessungen/AlteZelle/Studenten_Batterietests/LiCoO2 vs Li 200µm IS + GCPL/ZView_Export/LiCoO2 vs Li 200µm IS + GCPL_03_OCV_C03.txt
EC-Lab ASCII FILE
Nb header lines : 46

Open Circuit Voltage

Run on channel : 3 (SN 6987)
Grouped channel(s) : 3
User :
CE vs. WE compliance from -10 V to 10 V
Electrode connection : standard
Ewe ctrl range : min = 0,00 V, max = 5,00 V
Acquisition started on : 01.23.2015 14:58:37
Saved on :
	File : LiCoO2 vs Li 200µm IS + GCPL_03_OCV_C03.mpr
	Directory : C:\Hupfer\Studenten Batterietests\LiCoO2 vs Li 200µm IS + GCPL\
	Host : 192.168.0.2
Device : VMP3 (SN 0324)
Address : 192.168.0.1
EC-Lab for windows v10.33 (software)
Internet server v10.33 (firmware)
Command interpretor v10.32 (firmware)
Electrode material : LiCoO2 vs Li
Initial state :
Electrolyte : LP30
Comments : 200µm
Mass of active material : 0,001 mg
 at x = 0,000
Molecular weight of active material (at x = 0) : 0,001 g/mol
Atomic weight of intercalated ion : 0,001 g/mol
Acquisition started at : xo = 0,000
Number of e- transfered per intercalated ion : 1
for DX = 1, DQ = 26,801 mA.h
Battery capacity : 0,000 A.h
Electrode surface area : 0,001 cm²
Characteristic mass : 0,001 g
tR (h:m:s)          1:00:0,0000
dER/dt (mV/h)       0,0
dER (mV)            0,00
dtR (s)             5,0000
E range min (V)     0,000
E range max (V)     5,000

Number of loops : 1
Loop 0 from point number 0 to 720

mode	error	time/s	Ewe/V
3	0	3616,8129	2,87990427
3	0	3621,8129	2,87733197
3	0	3626,8129	2,8759973
3	0	3631,8129	2,87670279
3	0	3636,8129	2,87670279
3	0	3641,8129	2,87529206
3	0	3646,8129	2,87717938
3	0	3651,8129	2,87748432
3	0	3656,8129	2,87725568
3	0	3661,8129	2,87706494
3	0	3666,8129	2,87679815
3	0	3671,8129	2,87851381
3	0	3676,8129	2,87969565
3	0	3681,8129	2,87994361
3	0	3686,8129	2,87963867
3	0	3691,8129	2,87988639
3	0	3696,8129	2,88013411
3	0	3701,8129	2,88005805
3	0	3706,8129	2,87986732
3	0	3711,8129	2,87998176
3	0	3716,8129	2,87979102
3	0	3721,8129	2,88141155
3	0	3726,8129	2,88120174
3	0	3731,8129	2,88152575
3	0	3736,8129	2,88129711
3	0	3741,8129	2,88078237
3	0	3746,8129	2,88165927
3	0	3751,8129	2,88230753
3	0	3756,8129	2,88326073
3	0	3761,8129	2,88318443
3	0	3766,8129	2,8834703
3	0	3771,8129	2,88360381
3	0	3776,8129	2,88314629
3	0	3781,8129	2,88282228
3	0	3786,8129	2,8829937
3	0	3791,8129	2,8828795
3	0	3796,8129	2,88377547
3	0	3801,8129	2,88549113
3	0	3806,8129	2,88524318
3	0	3811,8129	2,8853004
3	0	3816,8129	2,88547206
3	0	3821,8129	2,88650155
3	0	3826,8129	2,88644433
3	0	3831,8129	2,88678741
3	0	3836,8129	2,88684464
3	0	3841,8129	2,88690186
3	0	3846,8129	2,88644433
3	0	3851,8129	2,88621545
3	0	3856,8129	2,88642526
3	0	3861,8129	2,88636804
3	0	3866,8129	2,88575792
3	0	3871,8129	2,88514805
3	0	3876,8129	2,88520503
3	0	3881,8129	2,88556743
3	0	3886,8129	2,88486195
3	0	3891,8129	2,88465238
3	0	3896,8129	2,88402319
3	0	3901,8129	2,88337493
3	0	3906,8129	2,8834703
3	0	3911,8129	2,88316536
3	0	3916,8129	2,88234568
3	0	3921,8129	2,88242173
3	0	3926,8129	2,88244081
3	0	3931,8129	2,88230753
3	0	3936,8129	2,88211679
3	0	3941,8129	2,88185
3	0	3946,8129	2,88373733
3	0	3951,8129	2,8825171
3	0	3956,8129	2,88219309
3	0	3961,8129	2,88179278
3	0	3966,8129	2,88228846
3	0	3971,8129	2,88234568
3	0	3976,8129	2,8820405
3	0	3981,8129	2,8819263
3	0	3986,8129	2,88141155
3	0	3991,8129	2,88118267
3	0	3996,8129	2,88143063
3	0	4001,8129	2,8811636
3	0	4006,8129	2,88062978
3	0	4011,8129	2,880687
3	0	4016,8129	2,88062978
3	0	4021,8129	2,88112545
3	0	4026,8129	2,88194537
3	0	4031,8129	2,88175464
3	0	4036,8129	2,88167834
3	0	4041,8129	2,88137341
3	0	4046,8129	2,88085866
3	0	4051,8129	2,8820405
3	0	4056,8129	2,88217402
3	0	4061,8129	2,88158298
3	0	4066,8129	2,88173556
3	0	4071,8129	2,88318443
3	0	4076,8129	2,88358474
3	0	4081,8129	2,88343215
3	0	4086,8129	2,8860631
3	0	4091,8129	2,88810277
3	0	4096,8129	2,89018083
3	0	4101,8129	2,89193463
3	0	4106,8129	2,8916297
3	0	4111,8129	2,89153433
3	0	4116,8129	2,89206815
3	0	4121,8129	2,8943367
3	0	4126,8129	2,89391732
3	0	4131,8129	2,89395523
3	0	4136,8129	2,89189649
3	0	4141,8129	2,89193463
3	0	4146,8129	2,88863659
3	0	4151,8129	2,88756895
3	0	4156,8129	2,8876071
3	0	4161,8129	2,88667297
3	0	4166,8129	2,88602495
3	0	4171,8129	2,88533854
3	0	4176,8129	2,88587236
3	0	4181,8129	2,88575792
3	0	4186,8129	2,88562465
3	0	4191,8129	2,88638711
3	0	4196,8129	2,8862536
3	0	4201,8129	2,88638711
3	0	4206,8129	2,8875308
3	0	4211,8129	2,88751173
3	0	4216,8129	2,88934183
3	0	4221,8129	2,88875103
3	0	4226,8129	2,88779783
3	0	4231,8129	2,88979936
3	0	4236,8129	2,89033318
3	0	4241,8129	2,88987565
3	0	4246,8129	2,8903904
3	0	4251,8129	2,8903141
3	0	4256,8129	2,89037132
3	0	4261,8129	2,89050484
3	0	4266,8129	2,89033318
3	0	4271,8129	2,89101958
3	0	4276,8129	2,89141989
3	0	4281,8129	2,89149618
3	0	4286,8129	2,89178205
3	0	4291,8129	2,89193463
3	0	4296,8129	2,89178205
3	0	4301,8129	2,89136267
3	0	4306,8129	2,89134359
3	0	4311,8129	2,89208722
3	0	4316,8129	2,89258265
3	0	4321,8129	2,89391732
3	0	4326,8129	2,89403152
3	0	4331,8129	2,89395523
3	0	4336,8129	2,89418411
3	0	4341,8129	2,89454627
3	0	4346,8129	2,89475608
3	0	4351,8129	2,89490843
3	0	4356,8129	2,89469886
3	0	4361,8129	2,89462256
3	0	4366,8129	2,89210606
3	0	4371,8129	2,89239216
3	0	4376,8129	2,89225864
3	0	4381,8129	2,89210606
3	0	4386,8129	2,89218235
3	0	4391,8129	2,89227772
3	0	4396,8129	2,89260173
3	0	4401,8129	2,89256358
3	0	4406,8129	2,89218235
3	0	4411,8129	2,89233494
3	0	4416,8129	2,8926208
3	0	4421,8129	2,8939743
3	0	4426,8129	2,89475608
3	0	4431,8129	2,89546132
3	0	4436,8129	2,90392566
3	0	4441,8129	2,90457368
3	0	4446,8129	2,9045167
3	0	4451,8129	2,90518379
3	0	4456,8129	2,90567946
3	0	4461,8129	2,90567946
3	0	4466,8129	2,90585113
3	0	4471,8129	2,90564132
3	0	4476,8129	2,90573668
3	0	4481,8129	2,90571761
3	0	4486,8129	2,90579391
3	0	4491,8129	2,90604162
3	0	4496,8129	2,90613699
3	0	4501,8129	2,90632772
3	0	4506,8129	2,90623236
3	0	4511,8129	2,90638494
3	0	4516,8129	2,90630865
3	0	4521,8129	2,90667081
3	0	4526,8129	2,90670896
3	0	4531,8129	2,90657544
3	0	4536,8129	2,90653729
3	0	4541,8129	2,90640378
3	0	4546,8129	2,90632772
3	0	4551,8129	2,90596533
3	0	4556,8129	2,90594625
3	0	4561,8129	2,90611792
3	0	4566,8129	2,90594625
3	0	4571,8129	2,90569854
3	0	4576,8129	2,9055841
3	0	4581,8129	2,90573668
3	0	4586,8129	2,90642285
3	0	4591,8129	2,9067471
3	0	4596,8129	2,90655637
3	0	4601,8129	2,90600348
3	0	4606,8129	2,90615606
3	0	4611,8129	2,90566039
3	0	4616,8129	2,90548873
3	0	4621,8129	2,90533638
3	0	4626,8129	2,90526009
3	0	4631,8129	2,90583205
3	0	4636,8129	2,90564132
3	0	4641,8129	2,90625143
3	0	4646,8129	2,90552688
3	0	4651,8129	2,90505028
3	0	4656,8129	2,90482163
3	0	4661,8129	2,90522194
3	0	4666,8129	2,90472627
3	0	4671,8129	2,90476441
3	0	4676,8129	2,90487885
3	0	4681,8129	2,90487885
3	0	4686,8129	2,90449762
3	0	4691,8129	2,90455461
3	0	4696,8129	2,90487885
3	0	4701,8129	2,90497422
3	0	4706,8129	2,90545082
3	0	4711,8129	2,90562224
3	0	4716,8129	2,90537453
3	0	4721,8129	2,90533638
3	0	4726,8129	2,90543175
3	0	4731,8129	2,90478349
3	0	4736,8129	2,904917
3	0	4741,8129	2,90474534
3	0	4746,8129	2,90434504
3	0	4751,8129	2,90464997
3	0	4756,8129	2,90428782
3	0	4761,8129	2,90453577
3	0	4766,8129	2,90480256
3	0	4771,8129	2,90516472
3	0	4776,8129	2,90533638
3	0	4781,8129	2,90560317
3	0	4786,8129	2,9058702
3	0	4791,8129	2,90600348
3	0	4796,8129	2,90611792
3	0	4801,8129	2,90552688
3	0	4806,8129	2,90562224
3	0	4811,8129	2,90531731
3	0	4816,8129	2,9053936
3	0	4821,8129	2,90546966
3	0	4826,8129	2,9055078
3	0	4831,8129	2,9055841
3	0	4836,8129	2,90600348
3	0	4841,8129	2,90659451
3	0	4846,8129	2,90667081
3	0	4851,8129	2,90529823
3	0	4856,8129	2,90489793
3	0	4861,8129	2,9049933
3	0	4866,8129	2,90529823
3	0	4871,8129	2,90560317
3	0	4876,8129	2,90571761
3	0	4881,8129	2,90621328
3	0	4886,8129	2,9062705
3	0	4891,8129	2,90642285
3	0	4896,8129	2,90667081
3	0	4901,8129	2,90707111
3	0	4906,8129	2,90688038
3	0	4911,8129	2,90712833
3	0	4916,8129	2,90724277
3	0	4921,8129	2,90750957
3	0	4926,8129	2,90710926
3	0	4931,8129	2,90709019
3	0	4936,8129	2,90667081
3	0	4941,8129	2,90648007
3	0	4946,8129	2,90590835
3	0	4951,8129	2,90573668
3	0	4956,8129	2,90533638
3	0	4961,8129	2,9051075
3	0	4966,8129	2,90501213
3	0	4971,8129	2,90493608
3	0	4976,8129	2,90476441
3	0	4981,8129	2,90482163
3	0	4986,8129	2,90489793
3	0	4991,8129	2,90461183
3	0	4996,8129	2,90455461
3	0	5001,8129	2,90442133
3	0	5006,8129	2,90440226
3	0	5011,8129	2,90405917
3	0	5016,8129	2,90402102
3	0	5021,8129	2,90381122
3	0	5026,8129	2,90407825
3	0	5031,8129	2,90419245
3	0	5036,8129	2,90417337
3	0	5041,8129	2,90472627
3	0	5046,8129	2,9049933
3	0	5051,8129	2,90489793
3	0	5056,8129	2,90516472
3	0	5061,8129	2,90562224
3	0	5066,8129	2,90535545
3	0	5071,8129	2,90516472
3	0	5076,8129	2,90505028
3	0	5081,8129	2,90535545
3	0	5086,8129	2,90518379
3	0	5091,8129	2,90487885
3	0	5096,8129	2,9046309
3	0	5101,8129	2,90447855
3	0	5106,8129	2,90424967
3	0	5111,8129	2,90445948
3	0	5116,8129	2,90445948
3	0	5121,8129	2,90453577
3	0	5126,8129	2,90474534
3	0	5131,8129	2,9055841
3	0	5136,8129	2,90615606
3	0	5141,8129	2,90623236
3	0	5146,8129	2,90640378
3	0	5151,8129	2,90644193
3	0	5156,8129	2,90676618
3	0	5161,8129	2,90703297
3	0	5166,8129	2,90726185
3	0	5171,8129	2,9072237
3	0	5176,8129	2,9074142
3	0	5181,8129	2,9073
3	0	5186,8129	2,90777636
3	0	5191,8129	2,90787172
3	0	5196,8129	2,90811968
3	0	5201,8129	2,90790987
3	0	5206,8129	2,90787172
3	0	5211,8129	2,90806246
3	0	5216,8129	2,90808153
3	0	5221,8129	2,90796709
3	0	5226,8129	2,90779543
3	0	5231,8129	2,90766215
3	0	5236,8129	2,90756679
3	0	5241,8129	2,90764308
3	0	5246,8129	2,90771937
3	0	5251,8129	2,90813875
3	0	5256,8129	2,9082911
3	0	5261,8129	2,9082911
3	0	5266,8129	2,9081769
3	0	5271,8129	2,90813875
3	0	5276,8129	2,90785265
3	0	5281,8129	2,90804338
3	0	5286,8129	2,90794802
3	0	5291,8129	2,90794802
3	0	5296,8129	2,90798616
3	0	5301,8129	2,90790987
3	0	5306,8129	2,90790987
3	0	5311,8129	2,90827203
3	0	5316,8129	2,9083674
3	0	5321,8129	2,90853906
3	0	5326,8129	2,90867257
3	0	5331,8129	2,90853906
3	0	5336,8129	2,90834832
3	0	5341,8129	2,90861535
3	0	5346,8129	2,90851998
3	0	5351,8129	2,90874863
3	0	5356,8129	2,90872955
3	0	5361,8129	2,90859628
3	0	5366,8129	2,90884399
3	0	5371,8129	2,9087677
3	0	5376,8129	2,90878677
3	0	5381,8129	2,9085772
3	0	5386,8129	2,90844369
3	0	5391,8129	2,9078145
3	0	5396,8129	2,90758586
3	0	5401,8129	2,90709019
3	0	5406,8129	2,90663266
3	0	5411,8129	2,90659451
3	0	5416,8129	2,90638494
3	0	5421,8129	2,9063468
3	0	5426,8129	2,90619421
3	0	5431,8129	2,90632772
3	0	5436,8129	2,90617514
3	0	5441,8129	2,90651822
3	0	5446,8129	2,90651822
3	0	5451,8129	2,90684247
3	0	5456,8129	2,90703297
3	0	5461,8129	2,90625143
3	0	5466,8129	2,90628958
3	0	5471,8129	2,9062705
3	0	5476,8129	2,90638494
3	0	5481,8129	2,90657544
3	0	5486,8129	2,90642285
3	0	5491,8129	2,90621328
3	0	5496,8129	2,90604162
3	0	5501,8129	2,90611792
3	0	5506,8129	2,90577483
3	0	5511,8129	2,90577483
3	0	5516,8129	2,90560317
3	0	5521,8129	2,90548873
3	0	5526,8129	2,9053936
3	0	5531,8129	2,9055078
3	0	5536,8129	2,90577483
3	0	5541,8129	2,90573668
3	0	5546,8129	2,90583205
3	0	5551,8129	2,90571761
3	0	5556,8129	2,90548873
3	0	5561,8129	2,90579391
3	0	5566,8129	2,90497422
3	0	5571,8129	2,90474534
3	0	5576,8129	2,90426874
3	0	5581,8129	2,90409708
3	0	5586,8129	2,90409708
3	0	5591,8129	2,90409708
3	0	5596,8129	2,9041543
3	0	5601,8129	2,90386844
3	0	5606,8129	2,89555669
3	0	5611,8129	2,89729142
3	0	5616,8129	2,89614773
3	0	5621,8129	2,89603329
3	0	5626,8129	2,89542317
3	0	5631,8129	2,89448905
3	0	5636,8129	2,89401245
3	0	5641,8129	2,89256358
3	0	5646,8129	2,89201093
3	0	5651,8129	2,89147711
3	0	5656,8129	2,8912673
3	0	5661,8129	2,89145803
3	0	5666,8129	2,89096236
3	0	5671,8129	2,89000916
3	0	5676,8129	2,88995194
3	0	5681,8129	2,88947535
3	0	5686,8129	2,88960886
3	0	5691,8129	2,889323
3	0	5696,8129	2,88957071
3	0	5701,8129	2,88970423
3	0	5706,8129	2,88997102
3	0	5711,8129	2,88979936
3	0	5716,8129	2,8917439
3	0	5721,8129	2,89161062
3	0	5726,8129	2,89136267
3	0	5731,8129	2,89109588
3	0	5736,8129	2,89119101
3	0	5741,8129	2,89143896
3	0	5746,8129	2,88842678
3	0	5751,8129	2,88825536
3	0	5756,8129	2,88802648
3	0	5761,8129	2,88785505
3	0	5766,8129	2,88768339
3	0	5771,8129	2,88774061
3	0	5776,8129	2,88814092
3	0	5781,8129	2,8874166
3	0	5786,8129	2,88711143
3	0	5791,8129	2,88722587
3	0	5796,8129	2,88770247
3	0	5801,8129	2,88815999
3	0	5806,8129	2,88861752
3	0	5811,8129	2,8874166
3	0	5816,8129	2,88774061
3	0	5821,8129	2,88793135
3	0	5826,8129	2,88707328
3	0	5831,8129	2,88730216
3	0	5836,8129	2,88714957
3	0	5841,8129	2,88709235
3	0	5846,8129	2,88690186
3	0	5851,8129	2,88682556
3	0	5856,8129	2,88657761
3	0	5861,8129	2,88674927
3	0	5866,8129	2,88703513
3	0	5871,8129	2,8870542
3	0	5876,8129	2,88730216
3	0	5881,8129	2,88720679
3	0	5886,8129	2,88783598
3	0	5891,8129	2,88817906
3	0	5896,8129	2,88970423
3	0	5901,8129	2,88945627
3	0	5906,8129	2,88926578
3	0	5911,8129	2,8892467
3	0	5916,8129	2,88894153
3	0	5921,8129	2,88911319
3	0	5926,8129	2,88777876
3	0	5931,8129	2,88768339
3	0	5936,8129	2,88703513
3	0	5941,8129	2,88631082
3	0	5946,8129	2,88612008
3	0	5951,8129	2,88684464
3	0	5956,8129	2,8870542
3	0	5961,8129	2,88711143
3	0	5966,8129	2,88707328
3	0	5971,8129	2,88764524
3	0	5976,8129	2,88831258
3	0	5981,8129	2,88774061
3	0	5986,8129	2,88581514
3	0	5991,8129	2,88568163
3	0	5996,8129	2,88724494
3	0	6001,8129	2,88686371
3	0	6006,8129	2,88648248
3	0	6011,8129	2,88661575
3	0	6016,8129	2,88667297
3	0	6021,8129	2,88674927
3	0	6026,8129	2,88695908
3	0	6031,8129	2,88730216
3	0	6036,8129	2,88709235
3	0	6041,8129	2,88703513
3	0	6046,8129	2,88714957
3	0	6051,8129	2,8870542
3	0	6056,8129	2,88735938
3	0	6061,8129	2,88739753
3	0	6066,8129	2,88735938
3	0	6071,8129	2,88743567
3	0	6076,8129	2,88718772
3	0	6081,8129	2,88716865
3	0	6086,8129	2,88747382
3	0	6091,8129	2,88766432
3	0	6096,8129	2,88783598
3	0	6101,8129	2,88802648
3	0	6106,8129	2,88840795
3	0	6111,8129	2,88917041
3	0	6116,8129	2,88968515
3	0	6121,8129	2,88939905
3	0	6126,8129	2,88913226
3	0	6131,8129	2,88859844
3	0	6136,8129	2,88842678
3	0	6141,8129	2,88810277
3	0	6146,8129	2,88823628
3	0	6151,8129	2,88787413
3	0	6156,8129	2,88770247
3	0	6161,8129	2,88777876
3	0	6166,8129	2,88821721
3	0	6171,8129	2,88863659
3	0	6176,8129	2,88901782
3	0	6181,8129	2,88901782
3	0	6186,8129	2,88838887
3	0	6191,8129	2,88823628
3	0	6196,8129	2,88846493
3	0	6201,8129	2,88854122
3	0	6206,8129	2,88793135
3	0	6211,8129	2,88821721
3	0	6216,8129	2,88945627
3	0	6221,8129	2,88937998
3	0	6226,8129	2,88951349
3	0	6231,8129	2,88999009
3	0	6236,8129	2,89012361
3	0	6241,8129	2,89121008
3	0	6246,8129	2,8912673
3	0	6251,8129	2,89128637
3	0	6256,8129	2,88981843
3	0	6261,8129	2,88880825
3	0	6266,8129	2,88850307
3	0	6271,8129	2,8880837
3	0	6276,8129	2,88787413
3	0	6281,8129	2,88793135
3	0	6286,8129	2,88795042
3	0	6291,8129	2,88802648
3	0	6296,8129	2,88787413
3	0	6301,8129	2,88758802
3	0	6306,8129	2,88739753
3	0	6311,8129	2,88747382
3	0	6316,8129	2,88768339
3	0	6321,8129	2,88835073
3	0	6326,8129	2,88850307
3	0	6331,8129	2,88844585
3	0	6336,8129	2,88861752
3	0	6341,8129	2,88852215
3	0	6346,8129	2,88846493
3	0	6351,8129	2,888484
3	0	6356,8129	2,88840795
3	0	6361,8129	2,88846493
3	0	6366,8129	2,88783598
3	0	6371,8129	2,8880074
3	0	6376,8129	2,88732123
3	0	6381,8129	2,88720679
3	0	6386,8129	2,88722587
3	0	6391,8129	2,88716865
3	0	6396,8129	2,8871305
3	0	6401,8129	2,88694
3	0	6406,8129	2,88680649
3	0	6411,8129	2,88724494
3	0	6416,8129	2,88728309
3	0	6421,8129	2,88720679
3	0	6426,8129	2,88720679
3	0	6431,8129	2,88779783
3	0	6436,8129	2,88857937
3	0	6441,8129	2,88827443
3	0	6446,8129	2,889323
3	0	6451,8129	2,88903689
3	0	6456,8129	2,88974237
3	0	6461,8129	2,88995194
3	0	6466,8129	2,89033318
3	0	6471,8129	2,89042854
3	0	6476,8129	2,89054298
3	0	6481,8129	2,89065742
3	0	6486,8129	2,88999009
3	0	6491,8129	2,89010453
3	0	6496,8129	2,88907504
3	0	6501,8129	2,88869381
3	0	6506,8129	2,88825536
3	0	6511,8129	2,8880837
3	0	6516,8129	2,88819814
3	0	6521,8129	2,88762617
3	0	6526,8129	2,88785505
3	0	6531,8129	2,88810277
3	0	6536,8129	2,88844585
3	0	6541,8129	2,88814092
3	0	6546,8129	2,8883698
3	0	6551,8129	2,88777876
3	0	6556,8129	2,88779783
3	0	6561,8129	2,88754988
3	0	6566,8129	2,88732123
3	0	6571,8129	2,88766432
3	0	6576,8129	2,88793135
3	0	6581,8129	2,88756895
3	0	6586,8129	2,88806462
3	0	6591,8129	2,88781691
3	0	6596,8129	2,88745475
3	0	6601,8129	2,88726401
3	0	6606,8129	2,8882935
3	0	6611,8129	2,88854122
3	0	6616,8129	2,88957071
3	0	6621,8129	2,88974237
3	0	6626,8129	2,88695908
3	0	6631,8129	2,88695908
3	0	6636,8129	2,88676834
3	0	6641,8129	2,88688278
3	0	6646,8129	2,88745475
3	0	6651,8129	2,88716865
3	0	6656,8129	2,8870542
3	0	6661,8129	2,88703513
3	0	6666,8129	2,88720679
3	0	6671,8129	2,88726401
3	0	6676,8129	2,88743567
3	0	6681,8129	2,88735938
3	0	6686,8129	2,88682556
3	0	6691,8129	2,88680649
3	0	6696,8129	2,88674927
3	0	6701,8129	2,88694
3	0	6706,8129	2,88703513
3	0	6711,8129	2,88709235
3	0	6716,8129	2,88728309
3	0	6721,8129	2,8876071
3	0	6726,8129	2,88751173
3	0	6731,8129	2,88764524
3	0	6736,8129	2,88766432
3	0	6741,8129	2,88774061
3	0	6746,8129	2,8882935
3	0	6751,8129	2,88869381
3	0	6756,8129	2,88899875
3	0	6761,8129	2,88890338
3	0	6766,8129	2,88922763
3	0	6771,8129	2,88930392
3	0	6776,8129	2,88978052
3	0	6781,8129	2,89004731
3	0	6786,8129	2,89012361
3	0	6791,8129	2,8901999
3	0	6796,8129	2,88999009
3	0	6801,8129	2,89035225
3	0	6806,8129	2,89040947
3	0	6811,8129	2,89042854
3	0	6816,8129	2,8901999
3	0	6821,8129	2,89010453
3	0	6826,8129	2,89010453
3	0	6831,8129	2,89153433
3	0	6836,8129	2,89193463
3	0	6841,8129	2,8916676
3	0	6846,8129	2,89199185
3	0	6851,8129	2,88945627
3	0	6856,8129	2,88937998
3	0	6861,8129	2,88918948
3	0	6866,8129	2,89130545
3	0	6871,8129	2,8917439
3	0	6876,8129	2,89134359
3	0	6881,8129	2,8915534
3	0	6886,8129	2,8916297
3	0	6891,8129	2,89119101
3	0	6896,8129	2,89136267
3	0	6901,8129	2,89128637
3	0	6906,8129	2,89134359
3	0	6911,8129	2,89176297
3	0	6916,8129	2,89164853
3	0	6921,8129	2,89141989
3	0	6926,8129	2,89111495
3	0	6931,8129	2,89130545
3	0	6936,8129	2,89143896
3	0	6941,8129	2,89147711
3	0	6946,8129	2,8917439
3	0	6951,8129	2,89324999
3	0	6956,8129	2,89260173
3	0	6961,8129	2,89094329
3	0	6966,8129	2,8911531
3	0	6971,8129	2,89159155
3	0	6976,8129	2,89182019
3	0	6981,8129	2,89212513
3	0	6986,8129	2,89201093
3	0	6991,8129	2,8916676
3	0	6996,8129	2,89164853
3	0	7001,8129	2,89210606
3	0	7006,8129	2,89161062
3	0	7011,8129	2,8916676
3	0	7016,8129	2,89151525
3	0	7021,8129	2,89134359
3	0	7026,8129	2,89143896
3	0	7031,8129	2,89103866
3	0	7036,8129	2,89134359
3	0	7041,8129	2,89092422
3	0	7046,8129	2,89113402
3	0	7051,8129	2,8912673
3	0	7056,8129	2,89180112
3	0	7061,8129	2,89237309
3	0	7066,8129	2,89271617
3	0	7071,8129	2,89263988
3	0	7076,8129	2,89302111
3	0	7081,8129	2,89288783
3	0	7086,8129	2,89254475
3	0	7091,8129	2,89284968
3	0	7096,8129	2,89300227
3	0	7101,8129	2,8925066
3	0	7106,8129	2,89237309
3	0	7111,8129	2,8921442
3	0	7116,8129	2,89197278
3	0	7121,8129	2,89191556
3	0	7126,8129	2,89157248
3	0	7131,8129	2,89145803
3	0	7136,8129	2,89206815
3	0	7141,8129	2,89336443
3	0	7146,8129	2,89382195
3	0	7151,8129	2,89349771
3	0	7156,8129	2,89344072
3	0	7161,8129	2,89408875
3	0	7166,8129	2,8944509
3	0	7171,8129	2,8945272
3	0	7176,8129	2,89319277
3	0	7181,8129	2,8929069
3	0	7186,8129	2,89273524
3	0	7191,8129	2,89248753
3	0	7196,8129	2,89246845
3	0	7201,8129	2,89075255
3	0	7206,8129	2,89105773
3	0	7211,8129	2,89073348
3	0	7216,8129	2,89018083