File: Experimentelles/Rohdaten/Batteriemessungen/AlteZelle/Studenten_Batterietests/LLTO_LP30_Li/ECLab-Export/LLTO_LP30_Li_02_OCV_C01.mpt
EC-Lab ASCII FILE
Nb header lines : 46

Open Circuit Voltage

Run on channel : 1 (SN 6985)
Grouped channel(s) : 1
User :
CE vs. WE compliance from -10 V to 10 V
Electrode connection : standard
Ewe ctrl range : min = 0,00 V, max = 5,00 V
Acquisition started on : 04.22.2015 16:16:38
Saved on :
	File : LLTO_LP30_Li_02_OCV_C01.mpr
	Directory : C:\Hupfer\Studenten Batterietests\LLTO_LP30_Li\
	Host : 192.168.0.2
Device : VMP3 (SN 0324)
Address : 192.168.0.1
EC-Lab for windows v10.33 (software)
Internet server v10.33 (firmware)
Command interpretor v10.32 (firmware)
Electrode material :
Initial state :
Electrolyte :
Comments :
Mass of active material : 0,001 mg
 at x = 0,000
Molecular weight of active material (at x = 0) : 0,001 g/mol
Atomic weight of intercalated ion : 0,001 g/mol
Acquisition started at : xo = 0,000
Number of e- transfered per intercalated ion : 1
for DX = 1, DQ = 26,801 mA.h
Battery capacity : 0,000 A.h
Electrode surface area : 0,001 cm²
Characteristic mass : 0,001 g
tR (h:m:s)          0:15:0,0000
dER/dt (mV/h)       1,0
dER (mV)            1,00
dtR (s)             0,5000
E range min (V)     0,000
E range max (V)     5,000

Number of loops : 1
Loop 0 from point number 0 to 1808

mode	error	time/s	Ewe/V
3	0	679,6796	3,79904604
3	0	680,6796	3,79776669
3	0	681,6796	3,79646802
3	0	682,6796	3,79545617
3	0	683,6796	3,79415774
3	0	684,6796	3,7932601
3	0	685,6796	3,79236269
3	0	686,6796	3,79136968
3	0	687,6796	3,79026222
3	0	688,6796	3,78944111
3	0	689,6796	3,78846741
3	0	690,6796	3,7873981
3	0	691,6796	3,78663421
3	0	692,6796	3,78560305
3	0	693,6796	3,78482032
3	0	694,6796	3,7840755
3	0	695,6796	3,78300619
3	0	696,6796	3,78218508
3	0	697,6796	3,78128767
3	0	698,6796	3,78042841
3	0	699,6796	3,77966452
3	0	700,6796	3,77872896
3	0	701,6796	3,77800345
3	0	702,6796	3,77716327
3	0	703,6796	3,77651405
3	0	704,6796	3,77575016
3	0	705,6796	3,77492905
3	0	706,6796	3,77422261
3	0	707,6796	3,77349687
3	0	708,6796	3,77265668
3	0	709,6796	3,77198839
3	0	710,6796	3,77122474
3	0	711,6796	3,77044177
3	0	712,6796	3,76984978
3	0	713,6796	3,76906681
3	0	714,6796	3,7684176
3	0	715,6796	3,7676158
3	0	716,6796	3,7670238
3	0	717,6796	3,76627898
3	0	718,6796	3,76545811
3	0	719,6796	3,76480865
3	0	720,6796	3,76408315
3	0	721,6796	3,76333857
3	0	722,6796	3,76267004
3	0	723,6796	3,76211643
3	0	724,6796	3,76137161
3	0	725,6796	3,76068425
3	0	726,6796	3,75993967
3	0	727,6796	3,7594049
3	0	728,6796	3,75873661
3	0	729,6796	3,7580874
3	0	730,6796	3,75738096
3	0	731,6796	3,75688434
3	0	732,6796	3,75615883
3	0	733,6796	3,75560498
3	0	734,6796	3,75505137
3	0	735,6796	3,75442123
3	0	736,6796	3,75384831
3	0	737,6796	3,7531991
3	0	738,6796	3,75260711
3	0	739,6796	3,75203419
3	0	740,6796	3,7513659
3	0	741,6796	3,75077391
3	0	742,6796	3,7500484
3	0	743,6796	3,74959016
3	0	744,6796	3,74899817
3	0	745,6796	3,74850178
3	0	746,6796	3,74781418
3	0	747,6796	3,74710774
3	0	748,6796	3,74666858
3	0	749,6796	3,74603844
3	0	750,6796	3,745332
3	0	751,6796	3,74485469
3	0	752,6796	3,74439621
3	0	753,6796	3,74380445
3	0	754,6796	3,74325061
3	0	755,6796	3,74265862
3	0	756,6796	3,74214315
3	0	757,6796	3,74153209
3	0	758,6796	3,74092102
3	0	759,6796	3,74032903
3	0	760,6796	3,73975635
3	0	761,6796	3,73922157
3	0	762,6796	3,73866773
3	0	763,6796	3,73811412
3	0	764,6796	3,73757935
3	0	765,6796	3,73704481
3	0	766,6796	3,73654819
3	0	767,6796	3,73589897
3	0	768,6796	3,73547888
3	0	769,6796	3,73494434
3	0	770,6796	3,73435235
3	0	771,6796	3,73372221
3	0	772,6796	3,73322582
3	0	773,6796	3,7326529
3	0	774,6796	3,73206091
3	0	775,6796	3,73154545
3	0	776,6796	3,73106813
3	0	777,6796	3,73066711
3	0	778,6796	3,73007512
3	0	779,6796	3,72955966
3	0	780,6796	3,72904396
3	0	781,6796	3,72843289
3	0	782,6796	3,72787929
3	0	783,6796	3,72751641
3	0	784,6796	3,7268672
3	0	785,6796	3,72633243
3	0	786,6796	3,72577882
3	0	787,6796	3,7253015
3	0	788,6796	3,72476673
3	0	789,6796	3,72407937
3	0	790,6796	3,72369742
3	0	791,6796	3,72310543
3	0	792,6796	3,72251344
3	0	793,6796	3,72209334
3	0	794,6796	3,72155881
3	0	795,6796	3,72102404
3	0	796,6796	3,72062325
3	0	797,6796	3,71991658
3	0	798,6796	3,71930552
3	0	799,6796	3,7188282
3	0	800,6796	3,71842718
3	0	801,6796	3,71783519
3	0	802,6796	3,71737695
3	0	803,6796	3,71686149
3	0	804,6796	3,7163651
3	0	805,6796	3,71571565
3	0	806,6796	3,71525741
3	0	807,6796	3,71489477
3	0	808,6796	3,7141881
3	0	809,6796	3,71378708
3	0	810,6796	3,71330976
3	0	811,6796	3,71275616
3	0	812,6796	3,71214509
3	0	813,6796	3,711725
3	0	814,6796	3,711133
3	0	815,6796	3,71071291
3	0	816,6796	3,71012092
3	0	817,6796	3,70973897
3	0	818,6796	3,70922351
3	0	819,6796	3,70859337
3	0	820,6796	3,70828795
3	0	821,6796	3,70771503
3	0	822,6796	3,70725679
3	0	823,6796	3,70676017
3	0	824,6796	3,70620656
3	0	825,6796	3,70582461
3	0	826,6796	3,70530891
3	0	827,6796	3,70464063
3	0	828,6796	3,70399141
3	0	829,6796	3,70330405
3	0	830,6796	3,70269299
3	0	831,6796	3,7021966
3	0	832,6796	3,7016809
3	0	833,6796	3,70131826
3	0	834,6796	3,70068812
3	0	835,6796	3,70024896
3	0	836,6796	3,69979072
3	0	837,6796	3,69925594
3	0	838,6796	3,69885492
3	0	839,6796	3,69835854
3	0	840,6796	3,69788122
3	0	841,6796	3,69744182
3	0	842,6796	3,69711733
3	0	843,6796	3,69656348
3	0	844,6796	3,69608617
3	0	845,6796	3,69555163
3	0	846,6796	3,69516969
3	0	847,6796	3,69476867
3	0	848,6796	3,6941576
3	0	849,6796	3,69387126
3	0	850,6796	3,69335556
3	0	851,6796	3,69297361
3	0	852,6796	3,69243908
3	0	853,6796	3,69190431
3	0	854,6796	3,69154167
3	0	855,6796	3,6911025
3	0	856,6796	3,69058681
3	0	857,6796	3,69012856
3	0	858,6796	3,68988037
3	0	859,6796	3,68928838
3	0	860,6796	3,68894482
3	0	861,6796	3,68841004
3	0	862,6796	3,68793273
3	0	863,6796	3,68753171
3	0	864,6796	3,68707347
3	0	865,6796	3,68659592
3	0	866,6796	3,68621421
3	0	867,6796	3,68585134
3	0	868,6796	3,68533587
3	0	869,6796	3,68483925
3	0	870,6796	3,68451476
3	0	871,6796	3,68397999
3	0	872,6796	3,68338799
3	0	873,6796	3,68291068
3	0	874,6796	3,68247151
3	0	875,6796	3,68218517
3	0	876,6796	3,68149757
3	0	877,6796	3,68119216
3	0	878,6796	3,68075299
3	0	879,6796	3,68029475
3	0	880,6796	3,67991281
3	0	881,6796	3,67958808
3	0	882,6796	3,67893887
3	0	883,6796	3,67870975
3	0	884,6796	3,67819428
3	0	885,6796	3,67786956
3	0	886,6796	3,6773541
3	0	887,6796	3,67687678
3	0	888,6796	3,67649484
3	0	889,6796	3,67605567
3	0	890,6796	3,6756165
3	0	891,6796	3,67517734
3	0	892,6796	3,67485261
3	0	893,6796	3,67447066
3	0	894,6796	3,67391706
3	0	895,6796	3,67351604
3	0	896,6796	3,67317224
3	0	897,6796	3,6728096
3	0	898,6796	3,67238951
3	0	899,6796	3,67177844
3	0	900,6796	3,67137742
3	0	901,6796	3,67093825
3	0	902,6796	3,67044163
3	0	903,6796	3,67015529
3	0	904,6796	3,66979241
3	0	905,6796	3,66929603
3	0	906,6796	3,66889501
3	0	907,6796	3,66853213
3	0	908,6796	3,66805482
3	0	909,6796	3,66769218
3	0	910,6796	3,66725278
3	0	911,6796	3,66681361
3	0	912,6796	3,66629815
3	0	913,6796	3,66601181
3	0	914,6796	3,66545796
3	0	915,6796	3,66499972
3	0	916,6796	3,66461778
3	0	917,6796	3,66415954
3	0	918,6796	3,66385388
3	0	919,6796	3,66358662
3	0	920,6796	3,6631856
3	0	921,6796	3,66261292
3	0	922,6796	3,66221189
3	0	923,6796	3,66165805
3	0	924,6796	3,66112351
3	0	925,6796	3,66068435
3	0	926,6796	3,6604743
3	0	927,6796	3,65982485
3	0	928,6796	3,65953851
3	0	929,6796	3,65917563
3	0	930,6796	3,65877485
3	0	931,6796	3,6582973
3	0	932,6796	3,65787721
3	0	933,6796	3,65743804
3	0	934,6796	3,65703702
3	0	935,6796	3,65671253
3	0	936,6796	3,65625429
3	0	937,6796	3,65573859
3	0	938,6796	3,65528035
3	0	939,6796	3,65489841
3	0	940,6796	3,65445924
3	0	941,6796	3,65405822
3	0	942,6796	3,6536572
3	0	943,6796	3,65317988
3	0	944,6796	3,6528554
3	0	945,6796	3,65245438
3	0	946,6796	3,65195775
3	0	947,6796	3,65155697
3	0	948,6796	3,6510222
3	0	949,6796	3,65058303
3	0	950,6796	3,65039206
3	0	951,6796	3,64991474
3	0	952,6796	3,64966655
3	0	953,6796	3,64920831
3	0	954,6796	3,64880729
3	0	955,6796	3,64829159
3	0	956,6796	3,64792895
3	0	957,6796	3,64741325
3	0	958,6796	3,64703131
3	0	959,6796	3,64668775
3	0	960,6796	3,64634395
3	0	961,6796	3,64584756
3	0	962,6796	3,64548469
3	0	963,6796	3,64521742
3	0	964,6796	3,64470172
3	0	965,6796	3,64424348
3	0	966,6796	3,64391899
3	0	967,6796	3,64351797
3	0	968,6796	3,6431551
3	0	969,6796	3,64271593
3	0	970,6796	3,64242959
3	0	971,6796	3,6420095
3	0	972,6796	3,6415894
3	0	973,6796	3,64118838
3	0	974,6796	3,64082551
3	0	975,6796	3,64025259
3	0	976,6796	3,63985181
3	0	977,6796	3,63964176
3	0	978,6796	3,63910699
3	0	979,6796	3,63857222
3	0	980,6796	3,63813305
3	0	981,6796	3,63765574
3	0	982,6796	3,63708282
3	0	983,6796	3,63683462
3	0	984,6796	3,63641453
3	0	985,6796	3,63603282
3	0	986,6796	3,63559341
3	0	987,6796	3,6351161
3	0	988,6796	3,63500166
3	0	989,6796	3,63437152
3	0	990,6796	3,63402772
3	0	991,6796	3,63356948
3	0	992,6796	3,63322568
3	0	993,6796	3,63269114
3	0	994,6796	3,63229012
3	0	995,6796	3,6318891
3	0	996,6796	3,63146901
3	0	997,6796	3,63104892
3	0	998,6796	3,63053346
3	0	999,6796	3,63009429
3	0	1000,6796	3,62980771
3	0	1001,6796	3,62927318
3	0	1002,6796	3,62896752
3	0	1003,6796	3,62852836
3	0	1004,6796	3,62786007
3	0	1005,6796	3,62770724
3	0	1006,6796	3,62730622
3	0	1007,6796	3,62675261
3	0	1008,6796	3,62633252
3	0	1009,6796	3,62608433
3	0	1010,6796	3,62568331
3	0	1011,6796	3,62528229
3	0	1012,6796	3,62501502
3	0	1013,6796	3,62465215
3	0	1014,6796	3,62423205
3	0	1015,6796	3,62398386
3	0	1016,6796	3,62356377
3	0	1017,6796	3,62306738
3	0	1018,6796	3,62247539
3	0	1019,6796	3,62209344
3	0	1020,6796	3,62173057
3	0	1021,6796	3,62152052
3	0	1022,6796	3,62110043
3	0	1023,6796	3,62066126
3	0	1024,6796	3,6201458
3	0	1025,6796	3,61984015
3	0	1026,6796	3,6195538
3	0	1027,6796	3,61905742
3	0	1028,6796	3,6186564
3	0	1029,6796	3,61825538
3	0	1030,6796	3,61791158
3	0	1031,6796	3,61752963
3	0	1032,6796	3,61709046
3	0	1033,6796	3,61667037
3	0	1034,6796	3,61634588
3	0	1035,6796	3,61605954
3	0	1036,6796	3,61563945
3	0	1037,6796	3,61510468
3	0	1038,6796	3,61493278
3	0	1039,6796	3,61466551
3	0	1040,6796	3,61422634
3	0	1041,6796	3,61382532
3	0	1042,6796	3,61351991
3	0	1043,6796	3,61321425
3	0	1044,6796	3,61287069
3	0	1045,6796	3,61250782
3	0	1046,6796	3,61197305
3	0	1047,6796	3,61164856
3	0	1048,6796	3,61117125
3	0	1049,6796	3,61099935
3	0	1050,6796	3,61054111
3	0	1051,6796	3,61025453
3	0	1052,6796	3,60975814
3	0	1053,6796	3,6094718
3	0	1054,6796	3,6089561
3	0	1055,6796	3,60855508
3	0	1056,6796	3,60830688
3	0	1057,6796	3,60773396
3	0	1058,6796	3,60750484
3	0	1059,6796	3,60708475
3	0	1060,6796	3,60676026
3	0	1061,6796	3,60635924
3	0	1062,6796	3,60605359
3	0	1063,6796	3,60584378
3	0	1064,6796	3,60592008
3	0	1065,6796	3,60561442
3	0	1066,6796	3,60515618
3	0	1067,6796	3,60469794
3	0	1068,6796	3,60391498
3	0	1069,6796	3,60360956
3	0	1070,6796	3,60324669
3	0	1071,6796	3,6028266
3	0	1072,6796	3,60261655
3	0	1073,6796	3,60229206
3	0	1074,6796	3,60191011
3	0	1075,6796	3,60166192
3	0	1076,6796	3,60139465
3	0	1077,6796	3,60087895
3	0	1078,6796	3,60049701
3	0	1079,6796	3,60024881
3	0	1080,6796	3,59992433
3	0	1081,6796	3,59952331
3	0	1082,6796	3,59906507
3	0	1083,6796	3,59872127
3	0	1084,6796	3,59833932
3	0	1085,6796	3,59799576
3	0	1086,6796	3,59763288
3	0	1087,6796	3,59715557
3	0	1088,6796	3,5967927
3	0	1089,6796	3,59642982
3	0	1090,6796	3,59612441
3	0	1091,6796	3,59574246
3	0	1092,6796	3,5953033
3	0	1093,6796	3,59499764
3	0	1094,6796	3,59455848
3	0	1095,6796	3,59425306
3	0	1096,6796	3,59392834
3	0	1097,6796	3,59345102
3	0	1098,6796	3,59310746
3	0	1099,6796	3,59270644
3	0	1100,6796	3,5923245
3	0	1101,6796	3,59194255
3	0	1102,6796	3,59163713
3	0	1103,6796	3,59110236
3	0	1104,6796	3,59068227
3	0	1105,6796	3,59035778
3	0	1106,6796	3,59026217
3	0	1107,6796	3,5898993
3	0	1108,6796	3,58957481
3	0	1109,6796	3,5892694
3	0	1110,6796	3,58882999
3	0	1111,6796	3,58842921
3	0	1112,6796	3,58821917
3	0	1113,6796	3,58783722
3	0	1114,6796	3,5874362
3	0	1115,6796	3,58705425
3	0	1116,6796	3,58646226
3	0	1117,6796	3,58619499
3	0	1118,6796	3,58585119
3	0	1119,6796	3,585603
3	0	1120,6796	3,58520198
3	0	1121,6796	3,58493471
3	0	1122,6796	3,58476281
3	0	1123,6796	3,58449554
3	0	1124,6796	3,58415174
3	0	1125,6796	3,58384633
3	0	1126,6796	3,58331156
3	0	1127,6796	3,5825479
3	0	1128,6796	3,58172679
3	0	1129,6796	3,58132577
3	0	1130,6796	3,58107758
3	0	1131,6796	3,58052373
3	0	1132,6796	3,58008456
3	0	1133,6796	3,57960725
3	0	1134,6796	3,5792253
3	0	1135,6796	3,57884336
3	0	1136,6796	3,57863331
3	0	1137,6796	3,57815599
3	0	1138,6796	3,57802248
3	0	1139,6796	3,57764053
3	0	1140,6796	3,57744956
3	0	1141,6796	3,57718229
3	0	1142,6796	3,57699132
3	0	1143,6796	3,57662845
3	0	1144,6796	3,57626557
3	0	1145,6796	3,5760746
3	0	1146,6796	3,57561636
3	0	1147,6796	3,57554007
3	0	1148,6796	3,57513905
3	0	1149,6796	3,5745852
3	0	1150,6796	3,57426071
3	0	1151,6796	3,57389784
3	0	1152,6796	3,57355428
3	0	1153,6796	3,5733633
3	0	1154,6796	3,57263756
3	0	1155,6796	3,57200742
3	0	1156,6796	3,57183552
3	0	1157,6796	3,57133913
3	0	1158,6796	3,57111001
3	0	1159,6796	3,57084274
3	0	1160,6796	3,57065177
3	0	1161,6796	3,57032704
3	0	1162,6796	3,56992626
3	0	1163,6796	3,56963968
3	0	1164,6796	3,56944871
3	0	1165,6796	3,56906676
3	0	1166,6796	3,56881857
3	0	1167,6796	3,56853223
3	0	1168,6796	3,56834126
3	0	1169,6796	3,56803584
3	0	1170,6796	3,56746292
3	0	1171,6796	3,56721473
3	0	1172,6796	3,56683278
3	0	1173,6796	3,56643176
3	0	1174,6796	3,56614542
3	0	1175,6796	3,56595445
3	0	1176,6796	3,56561065
3	0	1177,6796	3,56515241
3	0	1178,6796	3,56486607
3	0	1179,6796	3,56469417
3	0	1180,6796	3,5644269
3	0	1181,6796	3,56389213
3	0	1182,6796	3,56341481
3	0	1183,6796	3,56310916
3	0	1184,6796	3,56278467
3	0	1185,6796	3,56247902
3	0	1186,6796	3,56221175
3	0	1187,6796	3,56182981
3	0	1188,6796	3,56158161
3	0	1189,6796	3,56125712
3	0	1190,6796	3,5608561
3	0	1191,6796	3,56072235
3	0	1192,6796	3,5605123
3	0	1193,6796	3,56007314
3	0	1194,6796	3,55971026
3	0	1195,6796	3,5591948
3	0	1196,6796	3,55892754
3	0	1197,6796	3,55867934
3	0	1198,6796	3,55856466
3	0	1199,6796	3,55824018
3	0	1200,6796	3,55797267
3	0	1201,6796	3,55782008
3	0	1202,6796	3,55741906
3	0	1203,6796	3,55699897
3	0	1204,6796	3,55669332
3	0	1205,6796	3,55623507
3	0	1206,6796	3,55600595
3	0	1207,6796	3,55550957
3	0	1208,6796	3,55541396
3	0	1209,6796	3,55491757
3	0	1210,6796	3,55451655
3	0	1211,6796	3,55432558
3	0	1212,6796	3,55402017
3	0	1213,6796	3,55377173
3	0	1214,6796	3,55348539
3	0	1215,6796	3,5532372
3	0	1216,6796	3,55285525
3	0	1217,6796	3,55268335
3	0	1218,6796	3,55237794
3	0	1219,6796	3,55211067
3	0	1220,6796	3,55165243
3	0	1221,6796	3,55136585
3	0	1222,6796	3,55111766
3	0	1223,6796	3,55077386
3	0	1224,6796	3,55041122
3	0	1225,6796	3,5500865
3	0	1226,6796	3,54968548
3	0	1227,6796	3,54960918
3	0	1228,6796	3,54953289
3	0	1229,6796	3,54915094
3	0	1230,6796	3,54907441
3	0	1231,6796	3,54867363
3	0	1232,6796	3,54836798
3	0	1233,6796	3,54789066
3	0	1234,6796	3,54756594
3	0	1235,6796	3,5472033
3	0	1236,6796	3,54689765
3	0	1237,6796	3,54670668
3	0	1238,6796	3,54640126
3	0	1239,6796	3,546134
3	0	1240,6796	3,54567552
3	0	1241,6796	3,54540825
3	0	1242,6796	3,54493093
3	0	1243,6796	3,54483533
3	0	1244,6796	3,54418612
3	0	1245,6796	3,54391885
3	0	1246,6796	3,54359436
3	0	1247,6796	3,54323149
3	0	1248,6796	3,54292583
3	0	1249,6796	3,54265857
3	0	1250,6796	3,54225755
3	0	1251,6796	3,54208589
3	0	1252,6796	3,54172301
3	0	1253,6796	3,54143643
3	0	1254,6796	3,54113102
3	0	1255,6796	3,54044366
3	0	1256,6796	3,54000449
3	0	1257,6796	3,53977537
3	0	1258,6796	3,5393362
3	0	1259,6796	3,5390687
3	0	1260,6796	3,53872514
3	0	1261,6796	3,53840041
3	0	1262,6274	3,53719759
3	0	1263,6274	3,5367775
3	0	1264,6274	3,5363574
3	0	1265,6168	3,53530717
3	0	1266,6168	3,534868
3	0	1267,6168	3,53465796
3	0	1268,6168	3,53427601
3	0	1269,6168	3,53374124
3	0	1270,6168	3,53318763
3	0	1271,6168	3,53305387
3	0	1272,6168	3,53265285
3	0	1273,6168	3,53255749
3	0	1274,6168	3,53206086
3	0	1275,6168	3,53123975
3	0	1276,6168	3,53104901
3	0	1277,6168	3,53053331
3	0	1278,6168	3,53015137
3	0	1279,6168	3,53009415
3	0	1280,6168	3,5297122
3	0	1281,6168	3,52917767
3	0	1282,6168	3,52889109
3	0	1283,6168	3,52835655
3	0	1284,6168	3,52797461
3	0	1285,6168	3,52765012
3	0	1286,6168	3,52715349
3	0	1287,6168	3,52694345
3	0	1288,6168	3,52719164
3	0	1289,6168	3,52721095
3	0	1290,6168	3,52709627
3	0	1291,6168	3,52679086
3	0	1292,6168	3,5265615
3	0	1293,6168	3,52600789
3	0	1294,6168	3,52581692
3	0	1295,6168	3,52512956
3	0	1296,6168	3,52474761
3	0	1297,6168	3,52472854
3	0	1298,6168	3,52442288
3	0	1299,6168	3,52419376
3	0	1300,6168	3,52381206
3	0	1301,6168	3,52343011
3	0	1302,6168	3,52306724
3	0	1303,6168	3,52297187
3	0	1304,6168	3,52268529
3	0	1305,6168	3,52245617
3	0	1306,6168	3,522017
3	0	1307,6168	3,52153969
3	0	1308,6168	3,52134871
3	0	1309,6168	3,52098584
3	0	1310,6168	3,52064228
3	0	1311,6168	3,52039385
3	0	1312,6168	3,52008843
3	0	1313,6168	3,51972556
3	0	1314,6168	3,519382
3	0	1315,6168	3,51892376
3	0	1316,6168	3,51840806
3	0	1317,6168	3,51836991
3	0	1318,6168	3,51787353
3	0	1319,6168	3,51768255
3	0	1320,6168	3,51749158
3	0	1321,6168	3,517205
3	0	1322,6168	3,51682329
3	0	1323,6168	3,51670861
3	0	1324,6168	3,51657486
3	0	1325,6168	3,51642227
3	0	1326,6168	3,51609755
3	0	1327,6168	3,5158112
3	0	1328,6168	3,51546741
3	0	1329,6168	3,51499009
3	0	1330,6168	3,51460814
3	0	1331,6168	3,51411176
3	0	1332,6168	3,51378703
3	0	1333,6168	3,51351976
3	0	1334,6168	3,51319528
3	0	1335,6168	3,5126605
3	0	1336,6168	3,51185846
3	0	1337,6168	3,51153398
3	0	1338,6168	3,51128578
3	0	1339,6168	3,51094198
3	0	1340,6168	3,51056004
3	0	1341,6168	3,51004457
3	0	1342,6168	3,5096817
3	0	1343,6168	3,50916624
3	0	1344,6168	3,50901341
3	0	1345,6168	3,50849771
3	0	1346,6168	3,50828767
3	0	1347,6168	3,50777221
3	0	1348,6168	3,50733304
3	0	1349,6168	3,50716114
3	0	1350,6168	3,50677919
3	0	1351,6168	3,50666475
3	0	1352,6168	3,50622559
3	0	1353,6168	3,50591993
3	0	1354,6168	3,50559545
3	0	1355,4846	3,50414419
3	0	1356,4846	3,50404882
3	0	1357,4846	3,50378132
3	0	1358,4846	3,50357127
3	0	1359,4846	3,50317025
3	0	1360,4846	3,50297952
3	0	1361,4846	3,50292206
3	0	1362,4846	3,50263572
3	0	1363,4846	3,50238752
3	0	1364,4846	3,50202465
3	0	1365,4846	3,50168085
3	0	1366,4846	3,50116539
3	0	1367,2184	3,49971414
3	0	1368,2184	3,49877858
3	0	1369,2184	3,49853039
3	0	1370,2184	3,49830127
3	0	1371,2184	3,49803376
3	0	1372,2184	3,49803376
3	0	1373,2184	3,49782372
3	0	1374,2184	3,49765182
3	0	1375,2184	3,49753737
3	0	1376,2184	3,49740362
3	0	1377,2184	3,49709821
3	0	1378,2184	3,49677348
3	0	1379,2184	3,49644899
3	0	1380,2184	3,49595237
3	0	1381,2184	3,49579978
3	0	1382,2184	3,49579978
3	0	1383,2184	3,49553227
3	0	1384,2184	3,49530315
3	0	1385,2184	3,49509311
3	0	1386,2184	3,49467301
3	0	1387,2184	3,49429131
3	0	1388,2184	3,49410033
3	0	1389,2184	3,49381375
3	0	1390,2184	3,49324107
3	0	1391,2184	3,49291635
3	0	1392,2184	3,49249625
3	0	1393,2184	3,49205709
3	0	1394,2184	3,49194264
3	0	1395,2184	3,49182796
3	0	1396,2184	3,49135065
3	0	1397,2184	3,49100685
3	0	1398,2184	3,49073958
3	0	1399,2184	3,49031949
3	0	1400,2184	3,49014759
3	0	1401,2184	3,48995662
3	0	1402,2184	3,48959398
3	0	1403,2184	3,48900199
3	0	1404,2184	3,48894453
3	0	1405,2184	3,48854375
3	0	1406,2184	3,48819995
3	0	1407,2184	3,48737884
3	0	1408,2184	3,48669147
3	0	1409,2184	3,48678684
3	0	1410,2184	3,4865005
3	0	1411,2184	3,48655772
3	0	1412,2184	3,48636675
3	0	1413,2184	3,48625231
3	0	1414,2184	3,48579407
3	0	1415,2184	3,48545027
3	0	1416,2184	3,48503017
3	0	1417,2184	3,48546934
3	0	1418,2184	3,48489642
3	0	1419,2184	3,4846673
3	0	1420,2184	3,48432374
3	0	1421,2184	3,48403716
3	0	1422,2184	3,48375082
3	0	1423,2184	3,4835217
3	0	1424,2184	3,48329258
3	0	1425,2184	3,48313975
3	0	1426,2184	3,48260522
3	0	1427,2184	3,48252869
3	0	1428,2184	3,48218513
3	0	1429,2184	3,48216605
3	0	1430,2184	3,48159313
3	0	1431,2184	3,48140216
3	0	1432,2184	3,48096299
3	0	1433,2184	3,4805429
3	0	1434,2184	3,47916794
3	0	1435,1160	3,4775641
3	0	1436,1160	3,47710586
3	0	1437,1160	3,47712493
3	0	1438,1160	3,47668576
3	0	1439,1160	3,47653294
3	0	1440,1160	3,4758265
3	0	1440,9506	3,47393608
3	0	1441,3198	3,47181654
3	0	1442,0410	3,47011709
3	0	1442,8630	3,46858954
3	0	1442,9948	3,46858954
3	0	1443,7174	3,46652722
3	0	1444,7174	3,46643186
3	0	1445,7174	3,46631718
3	0	1446,4670	3,46547699
3	0	1447,4670	3,46513319
3	0	1448,4670	3,46538162
3	0	1449,4670	3,46509504
3	0	1450,4670	3,46467495
3	0	1451,4670	3,46448398
3	0	1452,4670	3,46381569
3	0	1453,4670	3,46312833
3	0	1454,4670	3,46289921
3	0	1455,4670	3,46265101
3	0	1456,4670	3,46263194
3	0	1457,1464	3,4605124
3	0	1458,1464	3,46158171
3	0	1459,0832	3,46291828
3	0	1460,0832	3,46415949
3	0	1460,9702	3,46582079
3	0	1461,9702	3,46666098
3	0	1462,9264	3,46805477
3	0	1463,9264	3,46883774
3	0	1464,9264	3,46906686
3	0	1465,9264	3,46923876
3	0	1466,9264	3,46883774
3	0	1467,9264	3,46874213
3	0	1468,9264	3,4679594
3	0	1469,9264	3,46782565
3	0	1470,9264	3,46753931
3	0	1471,9264	3,46759653
3	0	1472,9264	3,46736741
3	0	1473,9264	3,46708107
3	0	1474,9264	3,46685195
3	0	1475,9264	3,46650815
3	0	1476,9264	3,4661262
3	0	1477,9264	3,46599245
3	0	1478,9264	3,46568704
3	0	1479,9264	3,46530509
3	0	1480,9264	3,46528602
3	0	1481,9264	3,4651525
3	0	1482,9264	3,4651525
3	0	1483,9264	3,4648087
3	0	1484,9264	3,46484685
3	0	1485,9264	3,46423578
3	0	1486,9264	3,46394944
3	0	1487,9264	3,4635675
3	0	1488,9264	3,46351027
3	0	1489,9264	3,46310925
3	0	1490,9264	3,46291828
3	0	1491,9264	3,46267009
3	0	1492,9264	3,46270823
3	0	1493,9264	3,46263194
3	0	1494,9264	3,46255541
3	0	1495,9264	3,46253633
3	0	1496,9264	3,46307111
3	0	1497,9264	3,46309018
3	0	1498,9264	3,46303296
3	0	1499,9264	3,46276546
3	0	1500,9264	3,46209717
3	0	1501,9264	3,46196365
3	0	1502,9264	3,46177268
3	0	1503,9264	3,4613142
3	0	1504,9264	3,46104693
3	0	1505,9264	3,46066499
3	0	1506,9264	3,46035957
3	0	1507,9264	3,45976758
3	0	1508,9264	3,46014953
3	0	1509,9264	3,45990133
3	0	1510,9264	3,45950031
3	0	1511,9264	3,45942402
3	0	1512,9264	3,45909929
3	0	1513,9264	3,45883203
3	0	1514,9264	3,45848823
3	0	1515,9264	3,45783901
3	0	1516,9264	3,45717072
3	0	1517,9264	3,45671248
3	0	1518,9264	3,45682693
3	0	1519,9264	3,4570179
3	0	1520,9264	3,45665526
3	0	1521,9264	3,45631146
3	0	1522,9264	3,45600581
3	0	1523,9264	3,4557004
3	0	1524,9264	3,45573854
3	0	1525,9264	3,45564318
3	0	1526,9264	3,45589137
3	0	1527,9264	3,4552803
3	0	1528,9264	3,4551084
3	0	1529,9264	3,4541347
3	0	1530,9264	3,45388651
3	0	1531,9264	3,45371461
3	0	1532,9264	3,45375276
3	0	1533,9264	3,45338988
3	0	1534,9264	3,45258784
3	0	1535,9264	3,4521296
3	0	1536,9264	3,45214868
3	0	1537,9264	3,45169044
3	0	1538,9264	3,45119405
3	0	1539,9264	3,45067835
3	0	1540,9264	3,4504683
3	0	1541,9264	3,45041108
3	0	1542,9264	3,45006752
3	0	1543,9264	3,44974279
3	0	1544,9264	3,4493227
3	0	1545,9264	3,44918895
3	0	1546,8640	3,44815803
3	0	1547,8640	3,44781423
3	0	1548,8640	3,44764233
3	0	1549,8640	3,44752789
3	0	1550,8640	3,44724131
3	0	1551,8640	3,44685936
3	0	1552,8640	3,44680214
3	0	1553,8640	3,44653487
3	0	1554,8640	3,44632483
3	0	1555,8640	3,44638205
3	0	1556,8640	3,44663024
3	0	1557,8640	3,44613385
3	0	1558,8640	3,44561839
3	0	1559,8640	3,44550371
3	0	1560,8640	3,44577098
3	0	1561,8640	3,44582844
3	0	1562,8640	3,4462676
3	0	1563,8640	3,44584751
3	0	1564,8640	3,44569468
3	0	1565,8640	3,44548464
3	0	1566,8640	3,44512177
3	0	1567,8640	3,44527459
3	0	1568,8640	3,44546556
3	0	1569,8640	3,44510269
3	0	1570,8640	3,4451983
3	0	1571,8640	3,4450264
3	0	1572,8640	3,44472075
3	0	1573,8640	3,44470167
3	0	1574,8640	3,44428158
3	0	1575,8640	3,44399524
3	0	1576,8640	3,44346046
3	0	1577,8640	3,44344139
3	0	1578,8640	3,44346046
3	0	1579,6796	3,44321227