File: Experimentelles/Rohdaten/Batteriemessungen/AlteZelle/Studenten_Batterietests/LLTO_LP30_Li/ECLab-Export/LLTO_LP30_Li_01_GCPL_C01.mpt
EC-Lab ASCII FILE
Nb header lines : 71

Galvanostatic Cycling with Potential Limitation

Run on channel : 1 (SN 6985)
Grouped channel(s) : 1
User :
CE vs. WE compliance from -10 V to 10 V
Electrode connection : standard
Ewe ctrl range : min = 0,00 V, max = 5,00 V
Acquisition started on : 04.22.2015 16:16:38
Saved on :
	File : LLTO_LP30_Li_01_GCPL_C01.mpr
	Directory : C:\Hupfer\Studenten Batterietests\LLTO_LP30_Li\
	Host : 192.168.0.2
Device : VMP3 (SN 0324)
Address : 192.168.0.1
EC-Lab for windows v10.33 (software)
Internet server v10.33 (firmware)
Command interpretor v10.32 (firmware)
Electrode material :
Initial state :
Electrolyte :
Comments :
Mass of active material : 0,001 mg
 at x = 0,000
Molecular weight of active material (at x = 0) : 0,001 g/mol
Atomic weight of intercalated ion : 0,001 g/mol
Acquisition started at : xo = 0,000
Number of e- transfered per intercalated ion : 1
for DX = 1, DQ = 26,801 mA.h
Battery capacity : 0,000 A.h
Electrode surface area : 0,001 cm²
Characteristic mass : 0,001 g
Ns                  0                   1
Set I/C             I                   I
Is                  0,000               5,000
unit Is             mA                  µA
vs.                 <None>              <None>
N                   1                   1
I sign              > 0                 > 0
t1 (h:m:s)          0:00:0,0000         5:00:0,0000
I Range             100 µA              100 µA
Bandwidth           5                   5
dE1 (mV)            0,00                10,00
dt1 (s)             0,0000              10,0000
EM (V)              0,000               3,800
tM (h:m:s)          0:00:0,0000         0:00:0,0000
Im                  0,000               0,000
unit Im             mA                  mA
E range min (V)     0,000               0,000
E range max (V)     5,000               5,000
dq                  0,000               1,000
unit dq             mA.h                mA.h
dtq (s)             0,0000              120,0000
dQM                 0,000               0,000
unit dQM            mA.h                mA.h
dxM                 0,000               0,000
tR (h:m:s)          0:00:0,0000         0:00:0,0000
dER/dt (mV/h)       0,0                 0,1
dER (mV)            0,00                5,00
dtR (s)             1,0000              1,0000
EL (V)              pass                3,500
goto Ns'            0                   0
nc cycles           0                   0

Number of loops : 1
Loop 0 from point number 0 to 86

mode	ox/red	error	control changes	Ns changes	counter inc.	Ns	time/s	control/V/mA	Ewe/V	dq/mA.h	<I>/mA	P/W	(Q-Qo)/mA.h	x	Capacity/mA.h
1	1	0	1	1	0	1	0,0004	0,00500000035	2,9948566	0	0	0	0	0	0
1	1	0	1	0	0	1	4,6340	0,00500000035	3,00486231	6,385072120729143E-006	0,0049607778434277216	1,49064545E-005	6,385072120729143E-006	-2,3823562564517446E-007	6,385072120729143E-006
1	1	0	1	0	0	1	9,8350	0,00500000035	3,01486802	7,244137130005079E-006	0,005014207715213721	1,51171744E-005	1,3629209250734221E-005	-5,085241218116233E-007	1,3629209250734221E-005
1	1	0	1	0	0	1	15,0156	0,00500000035	3,02487373	7,2152998944899686E-006	0,0050139134996621261	1,51664553E-005	2,0844509145224189E-005	-7,7773666194892787E-007	2,0844509145224189E-005
1	1	0	1	0	0	1	20,2208	0,00500000035	3,03487945	7,2494836400987379E-006	0,0050138595565300032	1,52164594E-005	2,8093992785322928E-005	-1,0482246435954307E-006	2,8093992785322928E-005
1	1	0	1	0	0	1	25,5428	0,00500000035	3,04488516	7,412201088490999E-006	0,0050138903781774208	1,52667199E-005	3,5506193873813933E-005	-1,3247838320173846E-006	3,5506193873813933E-005
1	1	0	1	0	0	1	30,8466	0,00500000035	3,05489087	7,3869807314282906E-006	0,0050139770174103187	1,53171532E-005	4,2893174605242221E-005	-1,6004020150081984E-006	4,2893174605242221E-005
1	1	0	1	0	0	1	36,1634	0,00500000035	3,06489658	7,4048728582759693E-006	0,0050138321853783603	1,53668771E-005	5,0298047463518195E-005	-1,8766877773079194E-006	5,0298047463518195E-005
1	1	0	1	0	0	1	41,4988	0,00500000035	3,07490253	7,430695250475159E-006	0,0050137765823528	1,54168738E-005	5,7728742713993357E-005	-2,1539370077791677E-006	5,7728742713993357E-005
1	1	0	1	0	0	1	47,0956	0,00500000035	3,08492732	7,7946101590577088E-006	0,005013685906496224	1,5466856E-005	6,5523352873051072E-005	-2,4447643927784294E-006	6,5523352873051072E-005
1	1	0	1	0	0	1	52,5472	0,00500000035	3,09499025	7,5926424920196749E-006	0,005013851651216793	1,55178222E-005	7,3115995365070746E-005	-2,7280560925720858E-006	7,3115995365070746E-005
1	1	0	1	0	0	1	58,0902	0,00500000035	3,10499597	7,7203209399142208E-006	0,0050140999613576352	1,55687594E-005	8,0836316304984973E-005	-3,0161116469221862E-006	8,0836316304984973E-005
1	1	0	1	0	0	1	63,6548	0,00500000035	3,11500168	7,7503128952036301E-006	0,0050140400258014643	1,56187434E-005	8,8586629200188595E-005	-3,3052862414487475E-006	8,8586629200188595E-005
1	1	0	1	0	0	1	69,2938	0,00500000035	3,12500739	7,8539146839692774E-006	0,0050140261706957043	1,56688693E-005	9,6440543884157875E-005	-3,5983263580082419E-006	9,6440543884157875E-005
1	1	0	1	0	0	1	75,0284	0,00500000035	3,1350131	7,9869624066373542E-006	0,0050139618090639283	1,57188351E-005	0,00010442750629079523	-3,896330663985047E-006	0,00010442750629079523
1	1	0	1	0	0	1	80,9454	0,00500000035	3,14503813	8,2411200901131238E-006	0,0050140329683766784	1,57693248E-005	0,00011266862638090835	-4,2038179348509734E-006	0,00011266862638090835
1	1	0	1	0	0	1	86,7752	0,00500000035	3,15510106	8,1196298615800013E-006	0,0050140087550373594	1,58197035E-005	0,00012078825624248835	-4,5067722419449798E-006	0,00012078825624248835
1	1	0	1	0	0	1	92,8504	0,00500000035	3,16510677	8,4614438590748851E-006	0,0050140240094456461	1,58699222E-005	0,00012924970010156323	-4,8224800888593274E-006	0,00012924970010156323
1	1	0	1	0	0	1	98,6156	0,00500000035	3,17513156	8,0299155400652019E-006	0,0050141706574801523	1,5920652E-005	0,00013727961564162845	-5,1220870339954278E-006	0,00013727961564162845
1	1	0	1	0	0	1	104,3738	0,00500000035	3,18513727	8,020232368234752E-006	0,0050142122981199552	1,59709543E-005	0,0001452998480098632	-5,4213326869713715E-006	0,0001452998480098632
1	1	0	1	0	0	1	110,2262	0,00500000035	3,19520044	8,1514257258580378E-006	0,0050142050021203878	1,60213895E-005	0,00015345127373572125	-5,7254733405115859E-006	0,00015345127373572125
1	1	0	1	0	0	1	116,2216	0,00500000035	3,20522523	8,3504402815209088E-006	0,0050141084452905229	1,60713462E-005	0,00016180171401724214	-6,0370394947014976E-006	0,00016180171401724214
1	1	0	1	0	0	1	122,4914	0,00500000035	3,21523094	8,7325265610124915E-006	0,005014050912917929	1,6121332E-005	0,00017053424057825466	-6,3628618016997069E-006	0,00017053424057825466
1	1	0	1	0	0	1	128,5088	0,00500000035	3,22523665	8,3808854148567974E-006	0,0050139908026178746	1,61713069E-005	0,00017891512599311146	-6,675563904748297E-006	0,00017891512599311146
1	1	0	1	0	0	1	134,8082	0,00500000035	3,23531866	8,774025737825367E-006	0,0050142066631922502	1,6222557E-005	0,0001876891517309368	-7,0029346018296307E-006	0,0001876891517309368
1	1	0	1	0	0	1	141,0334	0,00500000035	3,24538183	8,6705951567273587E-006	0,0050141591198281306	1,62728611E-005	0,00019635974688766416	-7,3264461648663027E-006	0,00019635974688766416
1	1	0	1	0	0	1	147,4452	0,00500000035	3,25540662	8,9307004230407386E-006	0,0050142740470908589	1,63235018E-005	0,0002052904473107049	-7,6596626051043763E-006	0,0002052904473107049
1	1	0	1	0	0	1	153,7656	0,00500000035	3,26541233	8,8036164592485875E-006	0,0050144009958116486	1,6374086E-005	0,00021409406376995347	-7,9881373717871565E-006	0,00021409406376995347
1	1	0	1	0	0	1	160,1010	0,00500000035	3,27541804	8,8244610575234726E-006	0,0050143733007565766	1,64241683E-005	0,00022291852482747696	-8,3173898784574374E-006	0,00022291852482747696
1	1	0	1	0	0	1	166,5132	0,00500000035	3,28544283	8,9314912198525338E-006	0,0050144052281169562	1,64745416E-005	0,00023185001604732947	-8,6506358243877965E-006	0,00023185001604732947
1	1	0	1	0	0	1	172,9748	0,00500000035	3,29548669	9,0001922556095654E-006	0,0050143451991309869	1,65247075E-005	0,00024085020830293904	-8,986445098331776E-006	0,00024085020830293904
1	1	0	1	0	0	1	179,7164	0,00500000035	3,30554986	9,3902192209692058E-006	0,0050143571332428454	1,65752081E-005	0,00025024042752390826	-9,3368068027501542E-006	0,00025024042752390826
1	1	0	1	0	0	1	186,6342	0,00500000035	3,31555557	9,6358857980877581E-006	0,0050144828918787149	1,6625796E-005	0,00025987631332199597	-9,6963346574630541E-006	0,00025987631332199597
1	1	0	1	0	0	1	193,3386	0,00500000035	3,32558036	9,3385332619719616E-006	0,0050144264352334854	1,66758782E-005	0,00026921484658396797	-1,0044767889258734E-005	0,00026921484658396797
1	1	0	1	0	0	1	200,0158	0,00500000035	3,33562422	9,3005984191420595E-006	0,0050144005203890554	1,67261551E-005	0,00027851544500311002	-1,0391785721064494E-005	0,00027851544500311002
1	1	0	1	0	0	1	206,7904	0,00500000035	3,34562993	9,4360399185421158E-006	0,0050142804837037683	1,67759263E-005	0,00028795148492165216	-1,0743857057315904E-005	0,00028795148492165216
1	1	0	1	0	0	1	213,8626	0,00500000035	3,35565495	9,8506205583301683E-006	0,005014314485710247	1,68263086E-005	0,00029780210547998227	-1,1111396954647402E-005	0,00029780210547998227
1	1	0	1	0	0	1	220,9446	0,00500000035	3,36566067	9,8642519592669683E-006	0,0050143049915916659	1,68764491E-005	0,00030766635743924928	-1,1479445457875466E-005	0,00030766635743924928
1	1	0	1	0	0	1	228,1660	0,00500000035	3,37570453	1,005852409860947E-005	0,0050143583889208467	1,69269915E-005	0,00031772488153785875	-1,1854742515824069E-005	0,00031772488153785875
1	1	0	1	0	0	1	235,4346	0,00500000035	3,38576746	1,0124338245226277E-005	0,0050143932261451846	1,69775685E-005	0,00032784921978308506	-1,2232495188071006E-005	0,00032784921978308506
1	1	0	1	0	0	1	242,8264	0,00500000035	3,39577317	1,0295939916330907E-005	0,0050143922502153254	1,70277381E-005	0,00033814515969941594	-1,2616650549387758E-005	0,00033814515969941594
1	1	0	1	0	0	1	250,4196	0,00500000035	3,40577888	1,0576568223510146E-005	0,0050144400998930957	1,7078075E-005	0,00034872172792292614	-1,3011276530154141E-005	0,00034872172792292614
1	1	0	1	0	0	1	258,4892	0,00500000035	3,4157846	1,1240035796046464E-005	0,005014391034001335	1,7128079E-005	0,00035996176371897254	-1,3430657378093486E-005	0,00035996176371897254
1	1	0	1	0	0	1	266,4184	0,00500000035	3,42579055	1,1044305503213157E-005	0,005014314283405241	1,71779902E-005	0,00037100606922218573	-1,3842735265645048E-005	0,00037100606922218573
1	1	0	1	0	0	1	274,4930	0,00500000035	3,43581533	1,1246629006617392E-005	0,0050142255277824435	1,72279524E-005	0,00038225269822880307	-1,4262362115135466E-005	0,00038225269822880307
1	1	0	1	0	0	1	282,6920	0,00500000035	3,44582105	1,1419819864780746E-005	0,0050141910661996346	1,72780055E-005	0,00039367251809358387	-1,4688450948401542E-005	0,00039367251809358387
1	1	0	1	0	0	1	291,5334	0,00500000035	3,45582676	1,2314081765659566E-005	0,0050139904852469069	1,73274821E-005	0,00040598659985924339	-1,5147905895537318E-005	0,00040598659985924339
1	1	0	1	0	0	1	300,1530	0,00500000035	3,46587062	1,2005322712344221E-005	0,0050140566680875085	1,73780718E-005	0,00041799192257158758	-1,5595840627262938E-005	0,00041799192257158758
1	1	0	1	0	0	1	309,1486	0,00500000035	3,47587633	1,2528846095523072E-005	0,0050139898487373914	1,74280085E-005	0,00043052076866711066	-1,6063308720299635E-005	0,00043052076866711066
1	1	0	1	0	0	1	317,9556	0,00500000035	3,48588204	1,2266017415534912E-005	0,005013927990398784	1,74779616E-005	0,00044278678608264557	-1,6520970321909059E-005	0,00044278678608264557
1	1	0	1	0	0	1	326,8686	0,00500000035	3,49588776	1,2413705513191718E-005	0,0050139505190662963	1,75282075E-005	0,00045520049159583731	-1,6984142365010813E-005	0,00045520049159583731
1	1	0	1	0	0	1	335,7048	0,00500000035	3,50591278	1,2306920486528221E-005	0,0050140235475360314	1,757873E-005	0,0004675074120823655	-1,7443330115193763E-005	0,0004675074120823655
1	1	0	1	0	0	1	344,5814	0,00500000035	3,51593757	1,2362859604931952E-005	0,0050138899693664954	1,76285248E-005	0,00047987027168729747	-1,7904605029095296E-005	0,00047987027168729747
1	1	0	1	0	0	1	353,5958	0,00500000035	3,52594328	1,2554941050113283E-005	0,0050139542201588576	1,76789181E-005	0,00049242521273741069	-1,837304675997279E-005	0,00049242521273741069
1	1	0	1	0	0	1	362,7350	0,00500000035	3,53596807	1,2728886305639107E-005	0,0050140047113436826	1,77293605E-005	0,00050515409904304973	-1,8847978622205843E-005	0,00050515409904304973
1	1	0	1	0	0	1	371,8190	0,00500000035	3,54597378	1,2651963316938944E-005	0,0050139882311312128	1,777947E-005	0,00051780606235998867	-1,9320040384306429E-005	0,00051780606235998867
1	1	0	1	0	0	1	381,1084	0,00500000035	3,55597949	1,2937828035559506E-005	0,0050139063991891341	1,78293485E-005	0,00053074389039554816	-1,9802768143407952E-005	0,00053074389039554816
1	1	0	1	0	0	1	390,7650	0,00500000035	3,56600428	1,3449356330015386E-005	0,0050139473532287731	1,78797582E-005	0,00054419324672556358	-2,0304581710932733E-005	0,00054419324672556358
1	1	0	1	0	0	1	400,6442	0,00500000035	3,57602906	1,3760073835780429E-005	0,0050141982205240211	1,79309191E-005	0,000557953320561344	-2,0817988566361738E-005	0,000557953320561344
1	1	0	1	0	0	1	410,6442	0,00500000035	3,58515644	1,392772519738517E-005	0,00501398119772248	1,79759063E-005	0,00057188104575872915	-2,1337650719501866E-005	0,00057188104575872915
1	1	0	1	0	0	1	420,6442	0,00500000035	3,5938828	1,3927791852374666E-005	0,0050140051935193043	1,80197476E-005	0,00058580883761110374	-2,185731535962927E-005	0,00058580883761110374
1	1	0	1	0	0	1	430,6442	0,00500000035	3,60327768	1,3928204970149738E-005	0,0050141539159220877	1,80673887E-005	0,0005997370425812535	-2,2376995413736307E-005	0,0005997370425812535
1	1	0	1	0	0	1	440,6442	0,00500000035	3,61257672	1,3928311348271867E-005	0,0050141922120470221	1,8114155E-005	0,0006136653539295255	-2,2896679436954109E-005	0,0006136653539295255
1	1	0	1	0	0	1	450,6442	0,00500000035	3,62223887	1,3928283179954936E-005	0,0050141820714526707	1,81625655E-005	0,00062759363710948032	-2,3416362409174131E-005	0,00062759363710948032
1	1	0	1	0	0	1	459,9562	0,00500000035	3,63224459	1,2969882537403869E-005	0,0050141299736020627	1,82125459E-005	0,00064056351964688422	-2,3900286164837206E-005	0,00064056351964688422
1	1	0	1	0	0	1	469,6686	0,00500000035	3,6422503	1,3527384427686533E-005	0,0050140629679483194	1,82624717E-005	0,00065409090407457075	-2,440501106559599E-005	0,00065409090407457075
1	1	0	1	0	0	1	479,6686	0,00500000035	3,65187407	1,3928205432370304E-005	0,0050141540823214957	1,83110587E-005	0,00066801910950694106	-2,4924691136949098E-005	0,00066801910950694106
1	1	0	1	0	0	1	489,6686	0,00500000035	3,66126871	1,392798532351541E-005	0,0050140748431317325	1,83578759E-005	0,00068194709483045658	-2,5444362995744886E-005	0,00068194709483045658
1	1	0	1	0	0	1	499,6686	0,00500000035	3,67079711	1,3927979488313818E-005	0,0050140727424591066	1,84056444E-005	0,00069587507431877043	-2,5964034636821469E-005	0,00069587507431877043
1	1	0	1	0	0	1	509,6686	0,00500000035	3,67990541	1,3928091558394954E-005	0,0050141130876893344	1,84514611E-005	0,00070980316587716531	-2,6483710459383446E-005	0,00070980316587716531
1	1	0	1	0	0	1	519,6686	0,00500000035	3,68886089	1,3928056532310115E-005	0,0050141004782984742	1,84963192E-005	0,00072373122240947558	-2,7003384975075114E-005	0,00072373122240947558
1	1	0	1	0	0	1	529,6686	0,00500000035	3,69741559	1,3928116651536483E-005	0,005014122121220512	1,85392928E-005	0,00073765933906101197	-2,7523061733895942E-005	0,00073765933906101197
1	1	0	1	0	0	1	539,6686	0,00500000035	3,70591283	1,3927810656579418E-005	0,0050140119630331866	1,85814915E-005	0,00075158714971759142	-2,8042727075633514E-005	0,00075158714971759142
1	1	0	1	0	0	1	549,6686	0,00500000035	3,71404719	1,3927887632873736E-005	0,0050140396744998413	1,86223806E-005	0,00076551503735046515	-2,8562395289460115E-005	0,00076551503735046515
1	1	0	1	0	0	1	559,6686	0,00500000035	3,72210526	1,3928021581921106E-005	0,0050140878961581126	1,86629622E-005	0,0007794430589323863	-2,9082068501105773E-005	0,0007794430589323863
1	1	0	1	0	0	1	569,6686	0,00500000035	3,72989583	1,3927912797494275E-005	0,0050140487337634643	1,87018795E-005	0,00079337097172988058	-2,9601737653858202E-005	0,00079337097172988058
1	1	0	1	0	0	1	579,6686	0,00500000035	3,73747659	1,3928156905393634E-005	0,0050141366126094534	1,87402184E-005	0,00080729912863527411	-3,0121415914604563E-005	0,00080729912863527411
1	1	0	1	0	0	1	589,6686	0,00500000035	3,74457979	1,3928286502862144E-005	0,0050141832676992954	1,87760088E-005	0,00082122741513813619	-3,064109901080672E-005	0,00082122741513813619
1	1	0	1	0	0	1	599,6686	0,00500000035	3,75151134	1,3928000872463197E-005	0,0050140804407530758	1,88103804E-005	0,00083515541601059942	-3,1160771449754662E-005	0,00083515541601059942
1	1	0	1	0	0	1	609,6686	0,00500000035	3,75813723	1,392812937919775E-005	0,0050141267031786842	1,88437771E-005	0,00084908354538979712	-3,1680448683461645E-005	0,00084908354538979712
1	1	0	1	0	0	1	619,6686	0,00500000035	3,76440048	1,3928073571477499E-005	0,005014106612398887	1,88751055E-005	0,00086301161896127475	-3,2200123834907558E-005	0,00086301161896127475
1	1	0	1	0	0	1	629,6686	0,00500000035	3,77060628	1,3927789950769187E-005	0,0050140045089413152	1,89058374E-005	0,0008769394089120439	-3,2719788404083501E-005	0,0008769394089120439
1	1	0	1	0	0	1	639,6686	0,00500000035	3,77688861	1,392768155100445E-005	0,0050139654850250234	1,89371895E-005	0,00089086709046304832	-3,3239448928718483E-005	0,00089086709046304832
1	1	0	1	0	0	1	649,6686	0,00500000035	3,78257871	1,3927901453183344E-005	0,0050140446498114259	1,89660186E-005	0,00090479499191623168	-3,3759117658199418E-005	0,00090479499191623168
1	1	0	1	0	0	1	659,6686	0,00500000035	3,7884028	1,3927535199974147E-005	0,0050139127986527834	1,89947204E-005	0,00091872252711620582	-3,4278772722280691E-005	0,00091872252711620582
1	1	0	1	0	0	1	669,6686	0,00500000035	3,79413128	1,3927655997453256E-005	0,0050139562857463622	1,90236078E-005	0,00093265018311365901	-3,4798432293478317E-005	0,00093265018311365901
1	1	0	1	0	0	1	679,6294	0,00500000035	3,7999742	1,3873194807622997E-005	0,0050140051571281203	1,905309E-005	0,00094652337792128205	-3,5316059844459533E-005	0,00094652337792128205