File: Experimentelles/Ausgewaehlte_Daten/LATP/CV/LATP_Korrosion_08_CV_C02.txt
EC-Lab ASCII FILE
Nb header lines : 68

Cyclic Voltammetry

Run on channel : 2 (SN 6986)
Grouped channel(s) : 2
User :
CE vs. WE compliance from -10 V to 10 V
Electrode connection : standard
Ewe ctrl range : min = 0,00 V, max = 5,00 V
Acquisition started on : 09/02/2015 11:42:26
Saved on :
	File : LATP_Korrosion_08_CV_C02.mpr
	Directory : C:\Hupfer\Stabilitätstest Folie gegen Li\
	Host : 192.168.0.2
Device : VMP3 (SN 0324)
Address : 192.168.0.1
EC-Lab for windows v10.33 (software)
Internet server v10.33 (firmware)
Command interpretor v10.32 (firmware)
Electrode material : LATP
Initial state :
Electrolyte : LP-30
Comments :
Mass of active material : 0,001 mg
 at x = 0,000
Molecular weight of active material (at x = 0) : 0,001 g/mol
Atomic weight of intercalated ion : 0,001 g/mol
Acquisition started at : xo = 0,000
Number of e- transfered per intercalated ion : 1
for DX = 1, DQ = 26,801 mA.h
Battery capacity : 0,000 A.h
Reference electrode : Li+/Li (-3,020 V)
Electrode surface area : 0,001 cm²
Characteristic mass : 0,001 g
Ei (V)              0,000
vs.                 Eoc
dE/dt               10,000
dE/dt unit          mV/s
E1 (V)              4,000
vs.                 Ref
Step percent        50
N                   10
E range min (V)     0,000
E range max (V)     5,000
I Range             Auto
Bandwidth           5
E2 (V)              0,500
vs.                 Ref
nc cycles           0
Reverse Scan        1
Ef (V)              0,000
vs.                 Eoc

Modify on : 09/02/2015 11:45
Electrode material :
Electrolyte :

Modify on : 09/02/2015 17:09
dE/dt               1,000

Number of loops : 3
Loop 0 from point number 0 to 6916
Loop 1 from point number 6917 to 13817
Loop 2 from point number 13818 to 20712

mode	ox/red	error	control changes	counter inc.	time/s	control/V	Ewe/V	<I>/mA	cycle number	(Q-Qo)/C	P/W
2	1	0	0	0	75661,8434	1,51770663	1,51827168	-0,018127616494894029	1	0	2,75226466E-005
2	1	0	1	0	75706,4025	1,56226516	1,56283021	-0,026311592591549027	1	-0,00134194409	4,1120551E-005
2	1	0	0	0	75751,4118	1,60727465	1,60777235	-0,021767182000616365	1	-0,0024132703	3,49966722E-005
2	1	0	0	0	75796,4211	1,65228391	1,65283	-0,017778289297732675	1	-0,0032965811	2,93844896E-005
2	1	0	0	0	75841,4303	1,69729316	1,69790971	-0,014941855242491283	1	-0,00404802756	2,53699218E-005
2	1	0	1	0	75886,4396	1,74230218	1,74291837	-0,013609725547832213	1	-0,00469025876	2,37206405E-005
2	1	0	1	0	75931,7489	1,78761148	1,78819418	-0,010969053765810448	1	-0,00525512174	1,96147976E-005
2	1	0	1	0	75976,7581	1,83262074	1,83313167	-0,009650616909257705	1	-0,00573902857	1,76908507E-005
2	1	0	0	0	76021,7673	1,87763011	1,87829173	-0,0094000257517176115	1	-0,0061490871	1,76559897E-005
2	1	0	0	0	76066,7766	1,92263937	1,92323363	-0,0074944643877217088	1	-0,0065007857	1,44136056E-005
2	1	0	1	0	76112,2860	1,96814883	1,96877182	-0,0072734484079311347	1	-0,00686101662	1,43197603E-005
2	1	0	0	0	76158,0955	2,01395822	2,01472378	-0,0056522778771886803	1	-0,00714492518	1,13877786E-005
2	1	0	0	0	76203,1046	2,05896735	2,05972362	-0,0050163889961001158	1	-0,00733139459	1,03323746E-005
2	1	0	1	0	76250,2143	2,10607696	2,106704	-0,0030698491365458022	1	-0,0074884179	6,46726357E-006
2	1	0	0	0	76296,6240	2,15248656	2,15308356	-0,0021001031047671386	1	-0,00755640958	4,52169752E-006
2	1	0	1	0	76343,7337	2,19959641	2,20021963	0,0026877474635801786	1	-0,00755070988	5,9136346E-006
2	1	0	0	0	76391,1435	2,24700594	2,24746251	0,0050490980480833171	1	-0,00738990167	1,1347659E-005
2	1	0	0	0	76436,9528	2,29281497	2,29348111	0,011708670007727434	1	-0,00702693034	2,68536132E-005
2	1	0	1	0	76481,9622	2,33782482	2,33844543	0,019857963144763763	1	-0,00630541984	4,64367622E-005
2	1	0	1	0	76526,9715	2,38283396	2,38345385	0,040319466161945261	1	-0,0049114828	9,60995894E-005
2	1	0	0	0	76571,9807	2,42784309	2,42842722	0,07235657757980873	1	-0,00241389032	0,000175712688
2	1	0	0	0	76617,0900	2,47295237	2,47363138	0,11634325582609904	1	0,00185827934	0,000287790317
2	1	0	0	0	76662,0994	2,5179615	2,51866245	0,15382330809463162	1	0,00800101273	0,000387428998
2	1	0	1	0	76707,1086	2,56297064	2,56368899	0,17978761276673795	1	0,0155421225	0,000460919517
2	1	0	1	0	76752,1179	2,60797977	2,60875559	0,20020205453657168	1	0,0241150297	0,000522278249
2	1	0	0	0	76797,1272	2,65298939	2,65358615	0,21516790950381552	1	0,0334513634	0,000570966571
2	1	0	0	0	76842,1363	2,69799829	2,69867516	0,22186714547923869	1	0,0433280654	0,000598747341
2	1	0	1	0	76887,1457	2,74300766	2,74363017	0,22835142088055437	1	0,0535694696	0,000626511872
2	1	0	1	0	76932,1550	2,78801703	2,78889275	0,22358011408841526	1	0,0638128668	0,000623540953
2	1	0	0	0	76977,1643	2,83302641	2,83367467	0,20849692765612317	1	0,0735572726	0,000590812473
2	1	0	0	0	77022,1735	2,87803555	2,87870097	0,1952155153085311	1	0,082641609	0,000561967085
2	1	0	1	0	77067,1830	2,92304492	2,92357588	0,18105264147931398	1	0,0911564305	0,000529321143
2	1	0	1	0	77112,1922	2,96805406	2,96872687	0,16834996065733555	1	0,099031195	0,000499785063
2	1	0	0	0	77157,2014	3,01306295	3,01373982	0,15362707196180557	1	0,106298044	0,000462992029
2	1	0	0	0	77202,2106	3,05807209	3,05863738	0,13540103839069006	1	0,112815984	0,000414142676
2	1	0	1	0	77247,2198	3,1030817	3,10386443	0,12265413506737621	1	0,118618876	0,000380701793
2	1	0	1	0	77292,2292	3,14809084	3,14868999	0,11131399865289706	1	0,123906299	0,000350493268
2	1	0	0	0	77337,2384	3,19309998	3,19359207	0,09923202404668951	1	0,128666461	0,000316906604
2	1	0	0	0	77382,2477	3,23810959	3,23876095	0,086655166721370419	1	0,132904083	0,000280655368
2	1	0	1	0	77427,2570	3,28311872	3,28379679	0,075942445368466061	1	0,136627361	0,000249379547
2	1	0	1	0	77472,2664	3,32812762	3,32879639	0,067588909262358387	1	0,139908656	0,000224989722
2	1	0	0	0	77517,2757	3,373137	3,37384462	0,05968736991511447	1	0,142794132	0,000201375908
2	1	0	0	0	77562,3850	3,41824627	3,41898751	0,051255108668710746	1	0,145322889	0,000175240581
2	1	0	0	0	77607,3941	3,46325541	3,46385765	0,045908282704818061	1	0,147531018	0,00015901975
2	1	0	1	0	77652,4035	3,50826454	3,50896382	0,039775626818500998	1	0,149465263	0,000139571232
2	1	0	1	0	77697,4127	3,55327368	3,55403066	0,035665444141140147	1	0,151171967	0,000126756087
2	1	0	1	0	77742,6222	3,5984838	3,59921789	0,031291167255185773	1	0,152886346	0,000112623726
2	1	0	1	0	77787,6313	3,64349246	3,64413714	0,02875377162852455	1	0,154224649	0,000104782688
2	1	0	1	0	77832,8407	3,68870211	3,68954206	0,025922924877951171	1	0,155385315	9,56437216E-005
2	1	0	1	0	77877,8500	3,73371124	3,73424816	0,022316086350953725	1	0,156456694	8,33338054E-005
2	1	0	0	0	77922,8594	3,77872086	3,77936387	0,016397783239636589	1	0,157393157	6,19731873E-005
2	1	0	0	0	77967,8685	3,82372975	3,82442999	0,018525543916315613	1	0,158283278	7,08496445E-005
2	1	0	1	0	78012,8778	3,86873889	3,86937618	0,020418556057232861	1	0,159151196	7,90070771E-005
2	1	0	1	0	78057,8870	3,9137485	3,91451478	0,018224235262555427	1	0,160027385	7,133904E-005
2	1	0	0	0	78102,8964	3,95875788	3,95935869	0,017480230225794784	1	0,160899445	6,92105023E-005
2	0	0	1	0	78146,7053	3,99746537	3,99716401	0,01153769130811727	1	0,161740586	4,61180462E-005
2	0	0	0	0	78191,7146	3,95245647	3,95215535	0,0060284050109022451	1	0,162131846	2,38251923E-005
2	0	0	0	0	78236,7239	3,90744662	3,90715504	0,0029093823961697069	1	0,162335515	1,13674078E-005
2	0	0	0	0	78282,2332	3,86193776	3,86165881	0,0012112399144259997	1	0,162439615	4,67739528E-006
2	0	0	1	0	78331,0432	3,81312752	3,81283021	0,002341382019937832	1	0,162508711	8,92729167E-006
2	0	0	0	0	78380,6533	3,76351762	3,76319361	0,00040785046542693958	1	0,16255109	1,53482029E-006
2	0	0	0	0	78429,8634	3,71430731	3,71403337	0,00086926792161811341	1	0,162580922	3,22848996E-006
2	0	0	0	0	78483,0243	3,66114664	3,66087866	0,0011709063559324408	1	0,162625313	4,2865463E-006
2	0	0	0	0	78531,7843	3,61238623	3,61213231	0,00036047916992324691	1	0,162612393	1,30209844E-006
2	0	0	1	0	78580,0942	3,5640769	3,5638051	-0,001241104663662851	1	0,162570179	4,42305509E-006
2	0	0	1	0	78627,3039	3,51686621	3,51663041	-0,00017513470922446557	1	0,162531167	6,15884062E-007
2	0	0	0	0	78676,4139	3,46775675	3,46757078	-0,00095345785967594291	1	0,162478149	3,30618263E-006
2	0	0	1	0	78724,4238	3,41974664	3,41951346	-0,0011038151367194563	1	0,162417963	3,77451079E-006
2	0	0	1	0	78775,4343	3,36873651	3,36843157	-0,00062312283793805248	1	0,162338555	2,09894665E-006
2	0	0	1	0	78825,9447	3,31822586	3,31794357	-0,0016923357752081542	1	0,162259355	5,61507477E-006
2	0	0	1	0	78871,7540	3,27241659	3,27215052	-0,0026474166381742266	1	0,162171096	8,66274604E-006
2	0	0	0	0	78919,6640	3,22450662	3,22423911	-0,0018833197797186173	1	0,162058368	6,07227321E-006
2	0	0	0	0	78969,6741	3,17449641	3,17425776	-0,00037210401914713773	1	0,161970556	1,18115406E-006
2	0	0	1	0	79017,1838	3,12698674	3,12669158	-0,0027852292129551814	1	0,161873966	8,70855274E-006
2	0	0	1	0	79065,5938	3,07857656	3,07829738	-0,002439097360375689	1	0,161759868	7,50826712E-006
2	0	0	1	0	79114,0036	3,03016639	3,02991033	-0,0017292824967716365	1	0,161642671	5,23957078E-006
2	0	0	0	0	79160,9133	2,98325682	2,98300338	-0,0034685917002595117	1	0,161520049	1,0346821E-005
2	0	0	1	0	79208,3231	2,93584728	2,93562293	-0,0027846981367048579	1	0,161392614	8,17482396E-006
2	0	0	0	0	79254,4325	2,88973761	2,88956642	-0,0022440842485803024	1	0,161266074	6,48443029E-006
2	0	0	0	0	79300,1418	2,84402823	2,84383202	-0,0032205521906404077	1	0,161136985	9,15870987E-006
2	0	0	1	0	79345,3512	2,7988193	2,7986455	-0,0032222955381765702	1	0,160994679	9,01806288E-006
2	0	0	1	0	79390,3603	2,75380969	2,7535553	-0,005535314867702576	1	0,160826862	1,52417952E-005
2	0	0	0	0	79435,7695	2,70840073	2,70819044	-0,0054681950778148883	1	0,160652325	1,48089139E-005
2	0	0	0	0	79481,5789	2,66259098	2,66239524	-0,0067792592710426982	1	0,160382822	1,80490679E-005
2	0	0	1	0	79526,5883	2,61758208	2,61741233	-0,015156095197203872	1	0,159881026	3,96697505E-005
2	0	0	1	0	79571,5974	2,57257271	2,57245231	-0,020947141077828134	1	0,159068152	5,38855202E-005
2	0	0	0	0	79616,6068	2,52756357	2,52734923	-0,026528547824345994	1	0,15799588	6,70469017E-005
2	0	0	0	0	79661,6158	2,48255444	2,48239875	-0,033495310406929824	1	0,156645462	8,31487196E-005
2	0	0	1	0	79706,6252	2,4375453	2,43742537	-0,03945071326260752	1	0,155004889	9,61581682E-005
2	0	0	1	0	79751,6344	2,39253569	2,39240432	-0,052907023472145632	1	0,152932018	0,000126574989
2	0	0	0	0	79796,6437	2,34752655	2,34735489	-0,073836606552248435	1	0,150151074	0,000173320717
2	0	0	1	0	79841,8527	2,30231738	2,30213833	-0,13366578664873496	1	0,14550893	0,000307717128
2	0	0	0	0	79886,8621	2,25730801	2,25715494	-0,1787053617323897	1	0,138363689	0,000403365702
2	0	0	0	0	79931,8713	2,21229887	2,21213627	-0,20289572602703299	1	0,129477456	0,000448832987
2	0	0	1	0	79976,8806	2,1672895	2,16710949	-0,2067683751829552	1	0,120181985	0,000448089704
2	0	0	1	0	80021,8897	2,1222806	2,122123	-0,2050444210821616	1	0,110845193	0,000435129477
2	0	0	0	0	80066,8991	2,07727098	2,07717299	-0,1991186212370857	1	0,101665549	0,000413603819
2	0	0	0	0	80111,9082	2,03226185	2,03215766	-0,19371310769680371	1	0,0928201377	0,000393655588
2	0	0	1	0	80156,9175	1,98725247	1,98716831	-0,18339125796338211	1	0,0843097791	0,000364429288
2	0	0	1	0	80201,9268	1,94224334	1,94216132	-0,17826587518937798	1	0,0760998651	0,000346221088
2	0	0	1	0	80246,9359	1,89723396	1,89716172	-0,16445181827803923	1	0,0683767572	0,000311991695
2	0	0	1	0	80291,9450	1,85222483	1,85217309	-0,14201735785697166	1	0,0615452826	0,00026304074
2	0	0	0	0	80336,9543	1,80721545	1,80717337	-0,13262742678919493	1	0,0553138554	0,000239680754
2	0	0	0	0	80381,9636	1,76220632	1,76289678	-0,12074809228327688	1	0,0496458039	0,00021286642
2	0	0	0	0	80426,9728	1,71719694	1,71775925	-0,11049624252611202	1	0,0444712862	0,000189805942
2	0	0	0	0	80471,9820	1,67218792	1,6727283	-0,10151795127263597	1	0,0397596024	0,000169811945
2	0	0	0	0	80516,9912	1,62717867	1,62780893	-0,090925232647563136	1	0,0354086421	0,000148008912
2	0	0	1	0	80562,0005	1,58216953	1,58263981	-0,086949261219567258	1	0,031375438	0,000137609357
2	0	0	1	0	80607,0098	1,53716004	1,53764009	-0,08143260698395593	1	0,0275442861	0,000125214036
2	0	0	1	0	80652,0189	1,4921509	1,4927516	-0,076779498391388762	1	0,0239702892	0,000114612718
2	0	0	1	0	80697,0281	1,44714165	1,4477607	-0,074506240936688781	1	0,0206035189	0,000107867207
2	0	0	1	0	80742,0373	1,40213263	1,40272105	-0,069164260456815846	1	0,0173607338	9,70181645E-005
2	0	0	0	0	80787,0466	1,35712326	1,35765445	-0,067061513305767347	1	0,0142525462	9,10463641E-005
2	0	0	1	0	80832,0557	1,31211412	1,31261027	-0,068768767858117146	1	0,0111937318	9,02665925E-005
2	0	0	0	0	80877,0651	1,26710463	1,26780617	-0,067967919477205594	1	0,00813190546	8,61701483E-005
2	0	0	0	0	80922,0743	1,22209537	1,22285557	-0,076266431484752205	1	0,00490647368	9,32628318E-005
2	0	0	0	0	80967,0835	1,17708623	1,17763317	-0,094230933697622362	1	0,00116255588	0,000110969471
2	0	0	1	0	81012,0928	1,13207698	1,13266015	-0,12198683363001029	1	-0,00360510312	0,00013816962
2	0	0	0	0	81057,1018	1,08706784	1,08774936	-0,15739316554104966	1	-0,00992033724	0,000171204316
2	0	0	1	0	81102,1111	1,04205847	1,04272282	-0,20381688580601763	1	-0,0181370713	0,000212524523
2	0	0	1	0	81147,1204	0,997049332	0,99770087	-0,22780250893888486	1	-0,028132081	0,000227278768
2	0	0	0	0	81192,1297	0,952039957	0,952692211	-0,26709920519570483	1	-0,0394676216	0,000254463346
2	0	0	0	0	81237,1389	0,907030761	0,907736957	-0,29422444743650854	1	-0,0522132851	0,000267078402
2	0	0	0	0	81282,1482	0,862021446	0,862576902	-0,32132636317505626	1	-0,0661497489	0,0002771687
2	0	0	0	0	81327,1574	0,81701237	0,817399144	-0,35086183686311226	1	-0,0812695473	0,000286794151
2	0	0	1	0	81372,1667	0,772003114	0,77271986	-0,36797009520861402	1	-0,0974708423	0,000284337788
2	0	0	1	0	81417,1760	0,72699374	0,727519751	-0,39320785239273626	1	-0,114496142	0,000286066468
2	0	0	1	0	81462,1852	0,681984603	0,682448804	-0,41328767626988448	1	-0,13252528	0,000282047695
2	0	0	1	0	81507,1943	0,636975408	0,637627006	-0,45036669395910426	1	-0,151629284	0,000287165953
2	0	0	1	0	81552,2035	0,591966271	0,592551827	-0,47348749610382989	1	-0,172131658	0,000280565873
2	0	0	1	0	81597,2128	0,546956897	0,547462821	-0,52196384591445709	1	-0,194518268	0,000285755814
2	0	0	0	0	81642,2221	0,501947641	0,502520978	-0,5956887026761399	1	-0,219685435	0,00029934608
2	1	0	1	1	81685,7315	0,541555703	0,542139947	-0,31928498327085197	1	-0,239013553	0,000173097142
2	1	0	1	1	81730,7408	0,586565018	0,587162077	-0,19131936944041338	1	-0,250131279	0,000112335481
2	1	0	0	1	81775,7501	0,631574214	0,632192791	-0,090143907529245171	1	-0,256365776	5,69883268E-005
2	1	0	0	1	81820,9593	0,676783383	0,677254975	-0,01419511334313641	1	-0,258759022	9,61371097E-006
2	1	0	1	1	81866,4687	0,722292781	0,72277087	0,055408663309682362	1	-0,257818192	4,00477693E-005
2	1	0	0	1	81911,6780	0,767502189	0,768086851	0,10454806390710947	1	-0,254219323	8,03019939E-005
2	1	0	0	1	81956,6872	0,812511444	0,813139975	0,18728216034716282	1	-0,246869057	0,000152286608
2	1	0	0	1	82001,6964	0,85752058	0,858246386	0,24131817297010906	1	-0,237530038	0,000207110454
2	1	0	1	1	82046,7057	0,902529955	0,903237343	0,2576340516112401	1	-0,226266459	0,000232704697
2	1	0	1	1	82091,7150	0,94753921	0,948179305	0,23565206290803875	1	-0,214819878	0,000223440409
2	1	0	1	1	82136,7242	0,992548406	0,993192434	0,23684429431459274	1	-0,20405224	0,000235231957
2	1	0	0	1	82181,7336	1,0375576	1,03819668	0,22071776915872166	1	-0,193821818	0,000229148456
2	1	0	0	1	82226,7428	1,08256674	1,08322299	0,19811449063514797	1	-0,184329107	0,000214602172
2	1	0	0	1	82271,7521	1,12757587	1,12823153	0,15945966938132595	1	-0,17627421	0,000179907423
2	1	0	1	1	82316,7614	1,17258525	1,17314708	0,13084334276819776	1	-0,169555292	0,000153498491
2	1	0	1	1	82361,7705	1,2175945	1,2181958	0,1021947989178984	1	-0,164290845	0,000124493279
2	1	0	1	1	82406,7798	1,26260376	1,26320422	0,077678510174231104	1	-0,160242781	9,8123819E-005
2	1	0	0	1	82451,7891	1,3076129	1,30822635	0,057229010465232986	1	-0,157209888	7,48684979E-005
2	1	0	0	1	82496,8983	1,35272217	1,35322165	0,043365810738928979	1	-0,154918537	5,86835558E-005
2	1	0	0	1	82541,9076	1,39773142	1,39846611	0,033036507026089958	1	-0,153190702	4,62004355E-005
2	1	0	1	1	82586,9169	1,44274068	1,44342136	0,025614868143247872	1	-0,15187791	3,69730478E-005
2	1	0	1	1	82631,9261	1,48774993	1,48828781	0,019627225879852883	1	-0,150863037	2,92109617E-005
2	1	0	1	0	82674,5288	1,53065884	1,53124022	0,01667567011071175	2	0,000214278785	2,55344567E-005
2	1	0	1	0	82719,5381	1,57566798	1,57620883	0,013941880188213589	2	0,000894785509	2,19753147E-005
2	1	0	1	0	82764,5472	1,62067735	1,6212709	0,012169421168004374	2	0,00147608831	1,97299287E-005
2	1	0	1	0	82809,5564	1,66568637	1,66641283	0,011217822605196214	2	0,00199072855	1,86935231E-005
2	1	0	1	0	82854,5657	1,71069574	1,7113148	0,0097855591003087194	2	0,00244479789	1,67461712E-005
2	1	0	0	0	82899,5750	1,75570488	1,75632358	0,010490311325237629	2	0,00288085034	1,84243818E-005
2	1	0	0	0	82944,5842	1,80071425	1,80143011	0,0088188272941958362	2	0,0033127428	1,58865005E-005
2	1	0	0	0	82989,5935	1,84572327	1,84627855	0,0097270734908701811	2	0,00375754526	1,79588878E-005
2	1	0	0	0	83034,6027	1,89073277	1,89122927	0,010569655921837478	2	0,00421383791	1,99896422E-005
2	1	0	1	0	83079,6120	1,93574178	1,9364872	0,011108785588808541	2	0,00470263604	2,15120217E-005
2	1	0	1	0	83124,6213	1,9807514	1,98158073	0,011003029062199104	2	0,00524135772	2,18033911E-005
2	1	0	1	0	83169,6305	2,02576041	2,02640676	0,011339078911701744	2	0,00577562721	2,29775869E-005
2	1	0	1	0	83214,6397	2,07076979	2,07148671	0,01325180799118275	2	0,00636065844	2,74509439E-005
2	1	0	0	0	83259,6491	2,11577916	2,11643314	0,014218224706029846	2	0,00697236555	3,00919219E-005
2	1	0	0	0	83304,6582	2,16078806	2,16133022	0,013467277297222835	2	0,00761888037	2,91072338E-005
2	1	0	1	0	83349,6674	2,20579743	2,20646358	0,013446581560669624	2	0,00830661599	2,96693925E-005
2	1	0	1	0	83394,6767	2,25080681	2,25147223	0,01771637887112809	2	0,00905519444	3,98879347E-005
2	1	0	0	0	83439,6860	2,29581594	2,29651213	0,022278768743999562	2	0,00998124108	5,11634644E-005
2	1	0	0	0	83484,6954	2,34082532	2,34154725	0,0313267041132648	2	0,0111820707	7,33529596E-005
2	1	0	1	0	83529,7046	2,38583422	2,38642716	0,041558076597036422	2	0,0128147611	9,91753259E-005
2	1	0	1	0	83574,7139	2,43084359	2,43167162	0,063519923358068659	2	0,0151704829	0,000154459602
2	1	0	0	0	83619,7231	2,47585297	2,47656488	0,086477104408814848	2	0,0185571443	0,000214166153
2	1	0	0	0	83664,8325	2,520962	2,52164435	0,11259015337755795	2	0,0229509361	0,000283912319
2	1	0	0	0	83709,8418	2,56597137	2,56658173	0,13423177639500389	2	0,0285911001	0,000344516826
2	1	0	1	0	83754,8510	2,61098051	2,61156416	0,14727180020118992	2	0,0349987783	0,000384609768
2	1	0	1	0	83799,8602	2,65598965	2,6566081	0,15984044796901043	2	0,0418583378	0,000424633443
2	1	0	0	0	83844,8695	2,70099902	2,70171928	0,17837662260946541	2	0,0495879836	0,000481923547
2	1	0	0	0	83889,8789	2,7460084	2,74667454	0,18818523352703174	2	0,0577882864	0,000516883563
2	1	0	1	0	83934,8881	2,79101753	2,79157162	0,18306035236260909	2	0,0661344752	0,000511026068
2	1	0	1	0	83979,8974	2,83602667	2,83677173	0,17944219417445485	2	0,0742922127	0,00050903653
2	1	0	0	0	84024,9066	2,88103628	2,88185596	0,18360576060592394	2	0,0825355724	0,000529125333
2	1	0	0	0	84069,9160	2,92604518	2,92655754	0,18220588222319488	2	0,0907785073	0,000533236016
2	1	0	1	0	84114,9252	2,97105455	2,97175312	0,17768700192883702	2	0,0988903418	0,000528041914
2	1	0	1	0	84159,9345	3,01606369	3,0167532	0,17030492292306064	2	0,10671439	0,00051376794
2	1	0	0	0	84204,9438	3,06107306	3,06171751	0,16208149542423776	2	0,114189439	0,000496247725
2	1	0	0	0	84249,9530	3,1060822	3,1066947	0,14957730864903818	2	0,121150367	0,000464691024
2	1	0	1	0	84294,9624	3,15109134	3,15169454	0,14801078205045037	2	0,127751634	0,00046648478
2	1	0	1	0	84339,9717	3,19610095	3,19689441	0,13600769401143053	2	0,134147778	0,000434802234
2	1	0	0	0	84384,9810	3,24110985	3,24175215	0,13105519356963291	2	0,140160978	0,000424848462
2	1	0	0	0	84429,9902	3,28611946	3,28672504	0,12149774998816418	2	0,145806029	0,0003993297
2	1	0	1	0	84474,9996	3,3311286	3,33176923	0,11351327892685381	2	0,15107967	0,000378200057
2	1	0	1	0	84520,0088	3,3761375	3,37679148	0,10627567593420894	2	0,156031325	0,000358870806
2	1	0	0	0	84565,0181	3,42114663	3,42187548	0,10034448788884931	2	0,16066955	0,000343366351
2	1	0	0	0	84610,0272	3,46615624	3,46675944	0,095138853941600371	2	0,165050551	0,000329823524
2	1	0	1	0	84655,0366	3,51116538	3,51192856	0,089609394753416448	2	0,169218197	0,000314701785
2	1	0	1	0	84700,0459	3,55617452	3,5568347	0,084496649914731264	2	0,173134133	0,000300540618
2	1	0	0	0	84745,0553	3,60118413	3,60178542	0,07948500281450377	2	0,176850989	0,000286287919
2	1	0	0	0	84790,0644	3,6461935	3,6467855	0,07727098620049833	2	0,180389881	0,000281790708
2	1	0	1	0	84835,0738	3,69120264	3,69176316	0,072615313847666176	2	0,183773831	0,000268078555
2	1	0	1	0	84880,0830	3,73621178	3,73679352	0,070051629903850061	2	0,187009677	0,000261768466
2	1	0	0	0	84925,0922	3,78122091	3,78191876	0,067293704038896115	2	0,190090582	0,000254499319
2	1	0	0	0	84970,1015	3,82623053	3,82686901	0,064195930507815936	2	0,193042755	0,00024566942
2	1	0	1	0	85015,1108	3,87123942	3,87201142	0,062207115277905562	2	0,195876524	0,000240866662
2	1	0	1	0	85060,1200	3,9162488	3,91693115	0,058818255567010586	2	0,198605075	0,000230387057
2	1	0	1	0	85105,3294	3,96145797	3,96219325	0,05665525185016096	2	0,20123893	0,000224479052
2	0	0	1	0	85149,4386	3,99446511	3,99421954	0,045208062141524454	2	0,203665748	0,000180570918
2	0	0	1	0	85194,4478	3,9494555	3,9491601	0,030618695324010182	2	0,205313414	0,000120918128
2	0	0	0	0	85239,4570	3,90444636	3,90410995	0,025024992605189699	2	0,206525117	9,77003219E-005
2	0	0	0	0	85284,9663	3,85893679	3,85865569	0,020052964881960512	2	0,207528099	7,73774882E-005
2	0	0	0	0	85329,9756	3,81392765	3,81368184	0,014886051001696045	2	0,208315313	5,67706629E-005
2	0	0	1	0	85374,9849	3,76891875	3,76857734	0,015208595061802998	2	0,208959281	5,73147663E-005
2	0	0	1	0	85419,9941	3,72390914	3,72367215	0,01170509077340648	2	0,209505826	4,3585922E-005
2	0	0	0	0	85465,0033	3,6789	3,67866659	0,0088254767353744269	2	0,209969535	3,2465985E-005
2	0	0	0	0	85510,0125	3,63389063	3,63367009	0,0072918981517608934	2	0,210357636	2,64963528E-005
2	0	0	0	0	85556,0720	3,58783126	3,5875771	0,0081251371110540314	2	0,210699216	2,91495562E-005
2	0	0	0	0	85605,5320	3,53837132	3,53813863	0,004783582895821049	2	0,210990816	1,69249797E-005
2	0	0	0	0	85657,8428	3,4860599	3,48574567	0,0043184686531481178	2	0,211236238	1,50530832E-005
2	0	0	1	0	85709,1033	3,43479967	3,43458033	0,0026597077655122966	2	0,211416066	9,13498025E-006
2	0	0	0	0	85760,0637	3,38383937	3,38357186	0,0031735522900957421	2	0,21154739	1,07379419E-005
2	0	0	0	0	85810,1239	3,3337791	3,33347464	-0,00030920401936980307	2	0,211631596	1,03072375E-006
2	0	0	1	0	85865,3853	3,27851796	3,27828074	0,00027374455757480602	2	0,211672038	8,97411496E-007
2	0	0	1	0	85916,9959	3,22690725	3,22664762	-8,5700052493366605E-005	2	0,211685538	2,76523878E-007
2	0	0	0	0	85969,0066	3,17489672	3,17460942	0,00042036793743993088	2	0,211660042	1,33450396E-006
2	0	0	0	0	86016,6164	3,12728691	3,12694812	-0,00079105854362547174	2	0,211620152	2,47359912E-006
2	0	0	0	0	86063,8261	3,08007669	3,07986975	-0,0012172183926632136	2	0,211552188	3,74887418E-006
2	0	0	0	0	86113,5362	3,03036642	3,03009582	-0,0015015430516740896	2	0,211469889	4,5498191E-006
2	0	0	1	0	86162,4462	2,98145652	2,98114562	-0,0014424080920370266	2	0,211360216	4,30002865E-006
2	0	0	1	0	86209,3559	2,93454695	2,93421888	-0,002348463594333952	2	0,211252555	6,89090621E-006
2	0	0	0	0	86260,3662	2,88353658	2,88333678	-0,0037184056585017331	2	0,211106256	1,07214155E-005
2	0	0	1	0	86311,2767	2,8326261	2,83241558	-0,0037031596371718266	2	0,210952505	1,04888868E-005
2	0	0	0	0	86362,2872	2,78161573	2,78144431	-0,0028430270223259411	2	0,210777894	7,90772174E-006
2	0	0	1	0	86414,9981	2,72890472	2,7286799	-0,0043252637494225683	2	0,210574359	1,18022599E-005
2	0	0	1	0	86463,4080	2,68049479	2,68036962	-0,0053007354213435027	2	0,21035023	1,42079298E-005
2	0	0	1	0	86510,2175	2,63368511	2,63348508	-0,0080545656929748467	2	0,210049018	2,12115792E-005
2	0	0	1	0	86555,2267	2,58867574	2,58850765	-0,01137938249561416	2	0,209609464	2,94556194E-005
2	0	0	0	0	86600,2360	2,5436666	2,54350019	-0,01511146962870351	2	0,208995074	3,84360246E-005
2	0	0	0	0	86645,2451	2,49865746	2,49851227	-0,021207750792670566	2	0,208165795	5,29878271E-005
2	0	0	1	0	86690,2544	2,45364833	2,45344305	-0,026604921108628886	2	0,207094163	6,52736562E-005
2	0	0	1	0	86735,2636	2,40863895	2,40847325	-0,034423853909237997	2	0,205733016	8,29089331E-005
2	0	0	0	0	86780,2728	2,36362982	2,3634212	-0,046988154152950656	2	0,203933582	0,000111052803
2	0	0	0	0	86825,2821	2,31862068	2,31843758	-0,077417302897029299	2	0,201244622	0,000179487179
2	0	0	0	0	86870,3913	2,27351117	2,27335453	-0,10687332682383533	2	0,197000116	0,000242960959
2	0	0	1	0	86915,4006	2,22850204	2,22830606	-0,12385744496510154	2	0,19175528	0,000275992294
2	0	0	1	0	86960,4098	2,18349266	2,18335462	-0,13570000595320075	2	0,185872793	0,000296281243
2	0	0	0	0	87005,4189	2,13848376	2,1383121	-0,14253826238637512	2	0,179542869	0,000304791291
2	0	0	0	0	87050,4281	2,09347439	2,09329677	-0,14834519365017939	2	0,172931165	0,000310530508
2	0	0	1	0	87095,4374	2,04846501	2,04836607	-0,15109694064706314	2	0,16618441	0,000309501833
2	0	0	1	0	87140,4466	2,00345588	2,00336647	-0,15358743716222899	2	0,159324527	0,000307691924
2	0	0	1	0	87185,4560	1,95844674	1,95834827	-0,15118216577641786	2	0,152443156	0,00029606733
2	0	0	1	0	87230,4652	1,91343725	1,91333902	-0,14756198913483853	2	0,145660281	0,000282336114
2	0	0	1	0	87275,4744	1,86842811	1,86833775	-0,1437585967765056	2	0,139087826	0,000268589618
2	0	0	1	0	87320,4836	1,82341897	1,82330334	-0,13697211514532581	2	0,132768542	0,000249741715
2	0	0	0	0	87365,4929	1,77840972	1,77895486	-0,13144102755855858	2	0,126718119	0,000233827654
2	0	0	0	0	87410,5021	1,73340034	1,73409736	-0,12438215808295074	2	0,120987594	0,000215690772
2	0	0	0	0	87455,5112	1,68839121	1,68900406	-0,11881424194481814	2	0,115580261	0,000200677736
2	0	0	0	0	87500,5205	1,64338207	1,64397335	-0,11057874795638067	2	0,110449672	0,00018178852
2	0	0	0	0	87545,5297	1,5983727	1,59898686	-0,10327383930015582	2	0,105608635	0,000165133519
2	0	0	1	0	87590,5390	1,55336356	1,55397379	-0,097874525333663923	2	0,100995205	0,00015209445
2	0	0	0	0	87635,5481	1,50835419	1,50888038	-0,093364447188895744	2	0,0966695771	0,000140875782
2	0	0	1	0	87680,5574	1,46334505	1,46390307	-0,087021600837383859	2	0,0926051438	0,000127391191
2	0	0	1	0	87725,5667	1,41833568	1,41885436	-0,083180657551820467	2	0,0887527615	0,000118021235
2	0	0	1	0	87770,5759	1,37332654	1,37381434	-0,079286184897825907	2	0,0850741342	0,000108924498
2	0	0	1	0	87815,5851	1,32831728	1,3287791	-0,078744737127465664	2	0,0815180689	0,00010463436
2	0	0	1	0	87860,5942	1,28330803	1,28380156	-0,076905167231157261	2	0,0780335814	9,87309759E-005
2	0	0	1	0	87905,6034	1,23829889	1,23890877	-0,077878794040982861	2	0,0745468736	9,64847204E-005
2	0	0	1	0	87950,6127	1,19328952	1,19389987	-0,085382796700978726	2	0,0708828345	0,000101938509
2	0	0	0	0	87995,6220	1,14828026	1,1490159	-0,10796109594948995	2	0,0666249171	0,000124049009
2	0	0	1	0	88040,6311	1,10327113	1,10381603	-0,13202318676603354	2	0,0611581355	0,000145729311
2	0	0	0	0	88085,6404	1,05826175	1,05879843	-0,17174353571157885	2	0,0543567054	0,00018184178
2	0	0	0	0	88130,6496	1,01325262	1,01382077	-0,21151562846621629	2	0,0457623973	0,000214438944
2	0	0	1	0	88175,6590	0,968243361	0,968852162	-0,2903622386249337	2	0,0345192067	0,000281318091
2	0	0	1	0	88220,6682	0,923234105	0,923745632	-0,34549266550399296	2	0,0199129619	0,000319147337
2	0	0	1	0	88265,6773	0,87822485	0,878768086	-0,31979367463530714	2	0,00493105408	0,000281024462
2	0	0	1	0	88310,6866	0,833215654	0,833608031	-0,3209621093441575	2	-0,0090911407	0,000267556607
2	0	0	0	0	88355,6958	0,788206398	0,788701892	-0,33633257696520416	2	-0,0237908978	0,000265266135
2	0	0	0	0	88400,7051	0,743197083	0,743804336	-0,34197810429454835	2	-0,039154198	0,000254364801
2	0	0	0	0	88445,7143	0,698187828	0,698768973	-0,36277557294305306	2	-0,0550315492	0,000253496313
2	0	0	0	0	88490,7235	0,653178632	0,653693616	-0,38518984896688301	2	-0,071850948	0,000251796155
2	0	0	1	0	88535,7328	0,608169496	0,608658314	-0,4088028011201783	2	-0,0896371901	0,000248821219
2	0	0	1	0	88580,7421	0,563160121	0,563649535	-0,45588130143160653	2	-0,109109022	0,000256957283
2	0	0	1	0	88625,7513	0,518150926	0,518569648	-0,49918586673032992	2	-0,13052769	0,000258862652
2	1	0	1	1	88669,4607	0,525552511	0,525953293	-0,36950951344210867	2	-0,15114525	0,000194344742
2	1	0	1	1	88714,4700	0,570561826	0,571140051	-0,19565427096368349	2	-0,163631946	0,000111745991
2	1	0	1	1	88759,4792	0,615570962	0,616059542	-0,075468136060174989	2	-0,169594884	4,64928671E-005
2	1	0	0	1	88805,2887	0,66138041	0,661873817	0,0046320117783527347	2	-0,17120868	3,06580728E-006
2	1	0	1	1	88850,6980	0,706789613	0,707309723	0,084678363366338163	2	-0,169060171	5,98938313E-005
2	1	0	0	1	88895,9074	0,751999021	0,752491951	0,13824741565891979	2	-0,163917929	0,00010403007
2	1	0	0	1	88940,9166	0,797008216	0,797545075	0,18161770265320022	2	-0,156609684	0,000144848309
2	1	0	0	1	88985,9258	0,842017412	0,84251368	0,20209131403623459	2	-0,148084015	0,000170264699
2	1	0	0	1	89030,9351	0,887026787	0,887504578	0,20676569587131686	2	-0,138594046	0,000183505501
2	1	0	1	1	89075,9444	0,932035983	0,932424188	0,21484027663688554	2	-0,129014134	0,000200322276
2	1	0	1	1	89120,9535	0,977045298	0,977695465	0,21682080059766794	2	-0,11951261	0,000211984719
2	1	0	0	1	89165,9629	1,02205443	1,02257514	0,21284990174519037	2	-0,109722503	0,000217655019
2	1	0	0	1	89210,9721	1,06706369	1,0675571	0,19867610170016902	2	-0,100481197	0,000212098079
2	1	0	0	1	89255,9813	1,11207283	1,11251688	0,17491080660606429	2	-0,0920611843	0,000194591223
2	1	0	1	1	89300,9907	1,15708208	1,15766346	0,141585457475766	2	-0,0849298686	0,000163908306
2	1	0	1	1	89345,9999	1,20209134	1,20266771	0,10730320946768834	2	-0,0793465972	0,00012905011
2	1	0	1	1	89391,0092	1,24710071	1,24777424	0,082116948388502694	2	-0,0750627965	0,000102463411
2	1	0	0	1	89436,0184	1,29210973	1,29262698	0,058931981906169216	2	-0,0718839839	7,61770716E-005
2	1	0	0	1	89481,2278	1,33731902	1,33786261	0,042653077655354976	2	-0,0695941746	5,70639568E-005
2	1	0	1	1	89526,2370	1,38232839	1,38294709	0,031467949029466426	2	-0,0679271296	4,35185102E-005
2	1	0	1	1	89571,2462	1,42733765	1,42778659	0,023412692414036874	2	-0,0666802004	3,34283286E-005
2	1	0	1	1	89616,2554	1,47234666	1,47280419	0,018648224760887178	2	-0,0657400042	2,74651829E-005
2	1	0	1	1	89661,2646	1,51735604	1,51801753	0,015679271888679158	2	-0,0649897456	2,3801409E-005
2	1	0	0	0	89703,6478	1,5599649	1,56047165	0,012392298629277821	3	0,000576447463	1,9337831E-005
2	1	0	0	0	89748,6571	1,60497403	1,60556042	0,011439466617541707	3	0,0011041261	1,83667544E-005
2	1	0	1	0	89793,8664	1,65018332	1,65068483	0,0093850721639961446	3	0,00156198407	1,54917961E-005
2	1	0	1	0	89838,8756	1,69519269	1,69571555	0,0070248520489926758	3	0,00197188603	1,19121505E-005
2	1	0	0	0	89884,2850	1,7406019	1,74120033	0,008704633931207017	3	0,00237419643	1,51565118E-005
2	1	0	0	0	89929,2942	1,78561091	1,78610671	0,0085975935317969126	3	0,00276959664	1,53562196E-005
2	1	0	0	0	89974,3034	1,83062053	1,83129799	0,0084562311390763174	3	0,00316308951	1,5485879E-005
2	1	0	1	0	90019,3127	1,87562943	1,87619996	0,009205404622673719	3	0,00358129386	1,72711807E-005
2	1	0	1	0	90064,3219	1,92063892	1,92123961	0,0099691159173693197	3	0,00401908392	1,91530598E-005
2	1	0	1	0	90109,3312	1,96564806	1,96648872	0,01001901234742772	3	0,00446774671	1,97022746E-005
2	1	0	1	0	90154,3406	2,01065755	2,01124382	0,010077132329263106	3	0,00495048705	2,0267571E-005
2	1	0	1	0	90199,3497	2,05566692	2,05636811	0,011566053802859661	3	0,00546278618	2,3784065E-005
2	1	0	0	0	90244,3591	2,10067606	2,10136366	0,011201671781670114	3	0,00599727221	2,35387852E-005
2	1	0	0	0	90289,3683	2,14568543	2,14635873	0,01287505182379345	3	0,00655870372	2,76344799E-005
2	1	0	1	0	90334,3775	2,19069457	2,19141626	0,014500747098474989	3	0,00717893289	3,17771737E-005
2	1	0	1	0	90379,3867	2,23570371	2,23633599	0,017165137095529443	3	0,00787609257	3,83870138E-005
2	1	0	0	0	90424,3959	2,28071284	2,28143334	0,020774640534325373	3	0,0087083187	4,7395959E-005
2	1	0	0	0	90469,4053	2,32572222	2,32633114	0,026602262554731395	3	0,00975297764	6,1885672E-005
2	1	0	1	0	90514,4146	2,37073135	2,37141967	0,036905231219491296	3	0,0111737605	8,75177939E-005
2	1	0	1	0	90559,4238	2,41574049	2,41631269	0,052138986906470118	3	0,0131744361	0,000125984094
2	1	0	0	0	90604,4331	2,46074986	2,46119666	0,070861993990674611	3	0,0159749128	0,000174405301
2	1	0	0	0	90649,4424	2,50575876	2,50635695	0,090950786269758221	3	0,0196253788	0,000227955141
2	1	0	0	0	90694,5518	2,55086851	2,55146313	0,10673597998886675	3	0,0240602661	0,000272332923
2	1	0	1	0	90739,5611	2,59587741	2,59649444	0,12071194149404096	3	0,0291721188	0,000313427881
2	1	0	1	0	90784,5702	2,64088678	2,64150286	0,13344619057634954	3	0,0349134654	0,000352498493
2	1	0	0	0	90829,5794	2,68589592	2,68648052	0,14328787349549942	3	0,0411458947	0,000384940067
2	1	0	0	0	90874,5889	2,73090529	2,73160028	0,15095564066066381	3	0,0477945991	0,000412350462
2	1	0	1	0	90919,5981	2,77591443	2,77652025	0,15624797365084797	3	0,0547106378	0,000433825655
2	1	0	1	0	90964,6073	2,82092381	2,82151961	0,15981073122709555	3	0,0618314222	0,000450909109
2	1	0	0	0	91009,6166	2,86593294	2,86666608	0,16225165936930842	3	0,0690924823	0,000465121324
2	1	0	0	0	91054,6259	2,91094232	2,91160393	0,16380709625381162	3	0,0764259249	0,000476941379
2	1	0	1	0	91099,6352	2,95595121	2,95653224	0,15958953384486163	3	0,0837152824	0,00047183159
2	1	0	1	0	91144,6445	3,00096059	3,00157642	0,15752614777476669	3	0,0908770561	0,000472826767
2	1	0	0	0	91189,6538	3,04596972	3,04652715	0,15284196054638643	3	0,0978569388	0,000465637189
2	1	0	0	0	91234,6630	3,0909791	3,09170508	0,1464636301985689	3	0,104603685	0,000452822336
2	1	0	1	0	91279,6723	3,13598847	3,13666916	0,14058209898360851	3	0,111072369	0,000440959528
2	1	0	1	0	91324,6816	3,18099737	3,18154001	0,13502349079248733	3	0,11729791	0,000429582637
2	1	0	0	0	91369,6909	3,22600698	3,22656226	0,12736657394848861	3	0,12325608	0,000410956185
2	1	0	0	0	91414,7001	3,27101612	3,27153993	0,12210623508040896	3	0,128877372	0,000399475422
2	1	0	1	0	91459,7093	3,3160255	3,31677532	0,11523104836719566	3	0,134176537	0,000382195489
2	1	0	1	0	91504,7188	3,36103463	3,361655	0,11015466271705509	3	0,139203653	0,000370301976
2	1	0	0	0	91549,7282	3,40604401	3,40675282	0,10732698786868466	3	0,144122183	0,000365636515
2	1	0	0	0	91594,7373	3,45105314	3,45169425	0,10368232653191402	3	0,14884682	0,000357879704
2	1	0	1	0	91639,7466	3,49606228	3,49689865	0,099632052410435494	3	0,153406546	0,000348403177
2	1	0	1	0	91684,7559	3,54107118	3,54152465	0,09624216873438007	3	0,157812491	0,00034084401
2	1	0	0	0	91729,7652	3,58608103	3,58671165	0,092222444365429363	3	0,162100449	0,000330775307
2	1	0	0	0	91774,7744	3,63108993	3,63168859	0,092962689692647322	3	0,166285589	0,000337611535
2	1	0	1	0	91819,7836	3,6760993	3,67689347	0,090241449246252659	3	0,170394823	0,000331808202
2	1	0	1	0	91864,7930	3,72110868	3,7216928	0,089888675585315763	3	0,174445957	0,000334538025
2	1	0	0	0	91909,8023	3,76611805	3,76680851	0,087853416438913946	3	0,178436235	0,000330926996
2	1	0	0	0	91954,8115	3,81112719	3,81174135	0,087157098806321613	3	0,182316333	0,000332220312
2	1	0	1	0	91999,8208	3,85613632	3,85675955	0,084223580034366029	3	0,186145142	0,000324830093
2	1	0	1	0	92044,8300	3,9011457	3,90181231	0,084561535626469734	3	0,189996421	0,000329943228
2	1	0	0	0	92089,8393	3,94615483	3,94684339	0,084085248503779174	3	0,193826824	0,000331871299
2	1	0	0	0	92134,8486	3,99116421	3,99194932	0,081056367863592717	3	0,197554827	0,000323572924
2	0	0	0	0	92178,3578	3,96535897	3,96504021	0,050460586106278125	3	0,200406298	0,000200078255
2	0	0	0	0	92223,3669	3,92034912	3,92004585	0,039078150440606976	3	0,202317894	0,000153188143
2	0	0	1	0	92268,3762	3,87533998	3,8750186	0,028978994820303642	3	0,203783482	0,000112294147
2	0	0	1	0	92313,3854	3,83033085	3,83007455	0,023572676348767059	3	0,204963222	9,02851098E-005
2	0	0	0	0	92358,3948	3,78532195	3,78503871	0,020720455195490982	3	0,205950752	7,84277217E-005
2	0	0	0	0	92403,4039	3,74031258	3,73998213	0,016893228369985552	3	0,206777185	6,31803705E-005
2	0	0	1	0	92448,4131	3,6953032	3,69510579	0,01428893304898527	3	0,207452282	5,27991178E-005
2	0	0	1	0	92493,4222	3,65029407	3,65003657	0,01105130280014143	3	0,208013028	4,0337658E-005
2	0	0	0	0	92538,4315	3,60528493	3,60502958	0,0099952399946202509	3	0,208493546	3,6033136E-005
2	0	0	0	0	92583,4407	3,56027532	3,56005621	0,0080753842159317491	3	0,208936065	2,87488219E-005
2	0	0	1	0	92628,4499	3,51526594	3,51502657	0,0068372280086040077	3	0,20928812	2,40330373E-005
2	0	0	0	0	92677,9602	3,4657557	3,4654932	0,0053383934933280698	3	0,209582955	1,85001663E-005
2	0	0	1	0	92727,7704	3,41594553	3,41572547	0,004124599911949689	3	0,209829837	1,40885013E-005
2	0	0	1	0	92776,2804	3,36743593	3,36721563	0,00294943221028408	3	0,210014716	9,93137382E-006
2	0	0	0	0	92828,8911	3,31482506	3,31455994	0,0019461395466965347	3	0,210148871	6,45059617E-006
2	0	0	1	0	92879,2015	3,26451492	3,26424336	0,0018207796186457939	3	0,21021907	5,94346784E-006
2	0	0	0	0	92930,5119	3,21320438	3,2129674	0,00173565455171664	3	0,210263312	5,57660132E-006
2	0	0	0	0	92983,4728	3,16024327	3,15993285	-0,00038122399420513312	3	0,210269853	1,20464222E-006
2	0	0	0	0	93034,7333	3,10898304	3,10873771	-0,0010483196470110131	3	0,210241973	3,25895076E-006
2	0	0	1	0	93086,2439	3,05747223	3,05718088	-0,0015553786120942394	3	0,21017544	4,75507386E-006
2	0	0	1	0	93141,2551	3,00246072	3,00217462	-0,0030815862167033965	3	0,210064024	9,25146014E-006
2	0	0	0	0	93193,6158	2,95010042	2,94982648	-0,0019411565870797264	3	0,209953547	5,72607496E-006
2	0	0	0	0	93248,8772	2,89483881	2,89463735	0,00041288966802442413	3	0,209796354	1,19516585E-006
2	0	0	0	0	93299,9877	2,84372854	2,84351158	-0,0034604526632383034	3	0,209633037	9,83983682E-006
2	0	0	1	0	93348,8976	2,7948184	2,79462314	-0,0034882687663624346	3	0,209485501	9,74839622E-006
2	0	0	1	0	93397,9078	2,74580836	2,74558997	-0,0029142151006660429	3	0,209313065	8,00123962E-006
2	0	0	1	0	93446,6177	2,69709802	2,69694281	-0,0048064090802672282	3	0,209115595	1,29626105E-005
2	0	0	0	0	93498,3282	2,64538789	2,64520621	-0,0051576952280299942	3	0,208851442	1,36431672E-005
2	0	0	0	0	93545,7380	2,59797788	2,59777737	-0,0082262995729196275	3	0,208510086	2,13700951E-005
2	0	0	1	0	93590,7473	2,5529685	2,55279493	-0,010388145060953869	3	0,20807223	2,65188046E-005
2	0	0	1	0	93635,7565	2,50795937	2,50773621	-0,014378392612684117	3	0,207468972	3,60572158E-005
2	0	0	0	0	93680,7657	2,46295023	2,46280789	-0,018438802415732202	3	0,206685349	4,54112269E-005
2	0	0	0	0	93725,7750	2,41794109	2,41777658	-0,026774619621043715	3	0,20568791	6,47350462E-005
2	0	0	1	0	93770,7841	2,37293196	2,37274384	-0,034397759190583968	3	0,204346433	8,16170723E-005
2	0	0	1	0	93815,7934	2,32792258	2,32774734	-0,048034183878816442	3	0,202482015	0,000111811445
2	0	0	0	0	93860,8025	2,28291321	2,28281045	-0,074652160715156902	3	0,19969134	0,000170416737
2	0	0	0	0	93905,9119	2,23780417	2,23765516	-0,098099447908565709	3	0,195678383	0,000219512731
2	0	0	0	0	93950,9211	2,1927948	2,19261718	-0,11583888694749312	3	0,190859064	0,000253990322
2	0	0	1	0	93995,9303	2,14778566	2,14762926	-0,12297942779808957	3	0,185455114	0,000264114205
2	0	0	1	0	94040,9395	2,10277629	2,10258436	-0,12891224037377725	3	0,179787695	0,000271048862
2	0	0	0	0	94085,9487	2,05776715	2,05764627	-0,1356935661748041	3	0,173819289	0,000279209373
2	0	0	0	0	94130,9580	2,01275778	2,01264381	-0,13674455595603008	3	0,167696923	0,000275218074
2	0	0	1	0	94175,9672	1,96774876	1,96766162	-0,14091332744522856	3	0,161453575	0,000277269748
2	0	0	1	0	94220,9765	1,92273927	1,92264712	-0,14002563011541435	3	0,155087546	0,000269219861
2	0	0	1	0	94265,9857	1,87773013	1,87764144	-0,13581429541448653	3	0,14885968	0,000255010556
2	0	0	1	0	94310,9949	1,83272088	1,8326503	-0,13173149604619422	3	0,142866477	0,000241417772
2	0	0	1	0	94356,0041	1,78771174	1,78820777	-0,1284252662697476	3	0,136998355	0,000229651065
2	0	0	0	0	94401,0134	1,74270236	1,7432344	-0,12306957867533453	3	0,131262749	0,000214539119
2	0	0	0	0	94446,0226	1,69769311	1,69806993	-0,11713766385503877	3	0,125815153	0,000198907946
2	0	0	0	0	94491,0319	1,65268397	1,6532526	-0,11152680366696787	3	0,12067052	0,000184381977
2	0	0	0	0	94536,0411	1,60767448	1,60829747	-0,10446492239898552	3	0,115781225	0,000168010665
2	0	0	0	0	94581,0502	1,56266558	1,56321311	-0,10172594351634922	3	0,111049891	0,000159019328
2	0	0	0	0	94626,0594	1,51765609	1,5181154	-0,096853028980796954	3	0,106559828	0,000147034079
2	0	0	0	0	94671,0686	1,47264695	1,47321379	-0,093410383702596352	3	0,102270991	0,000137613461
2	0	0	0	0	94716,0779	1,42763758	1,42808461	-0,087895292429295949	3	0,0982019156	0,00012552191
2	0	0	0	0	94761,0871	1,38262844	1,38300502	-0,085574824898634778	3	0,0942924023	0,000118350414
2	0	0	1	0	94806,0964	1,33761907	1,33796513	-0,083783637936750925	3	0,0904545337	0,000112099588
2	0	0	1	0	94851,1056	1,29260993	1,29308546	-0,082786442396754701	3	0,0867130086	0,000107049942
2	0	0	1	0	94896,1148	1,24760067	1,24812138	-0,082727611150233382	3	0,0829751492	0,000103254097
2	0	0	1	0	94941,1240	1,20259142	1,20322406	-0,084445759058680179	3	0,0792037994	0,000101607169
2	0	0	1	0	94986,1333	1,15758216	1,15820205	-0,095760229489294963	3	0,0751512647	0,000110909692
2	0	0	1	0	95031,1424	1,11257291	1,11325574	-0,11722585057138325	3	0,0704095736	0,000130502347
2	0	0	0	0	95076,1517	1,06756365	1,06820238	-0,16046198262294941	3	0,0643281341	0,000171405874
2	0	0	0	0	95121,1609	1,0225544	1,02296233	-0,20191755938227184	3	0,0561337098	0,000206554061
2	0	0	0	0	95166,1701	0,977545381	0,978060603	-0,25801750347538509	3	0,0458760932	0,000252356753
2	0	0	1	0	95211,1794	0,932536066	0,933020651	-0,28692160474800944	3	0,0335604027	0,000267703785
2	0	0	1	0	95256,1887	0,887526691	0,888189912	-0,30054241913897786	3	0,0201478433	0,000266938732
2	0	0	1	0	95301,1979	0,842517614	0,842945397	-0,34775137741412397	3	0,00569671346	0,00029313541
2	0	0	1	0	95346,2071	0,797508419	0,797994733	-0,35889440442053491	3	-0,0101590184	0,000286395836
2	0	0	0	0	95391,2164	0,752499044	0,752977014	-0,3803795071544016	3	-0,0267504882	0,000286417024
2	0	0	0	0	95436,2256	0,707489789	0,707994998	-0,39834746444973869	3	-0,0443628095	0,000282028021
2	0	0	0	0	95481,2348	0,662480533	0,663124442	-0,41578865690977421	3	-0,0626384318	0,00027571962
2	0	0	0	0	95526,2440	0,617471457	0,618009031	-0,42486451620042944	3	-0,0816056058	0,000262570102
2	0	0	1	0	95571,2533	0,572462142	0,573009253	-0,4464618300637577	3	-0,101188749	0,000255826773
2	0	0	1	0	95616,2626	0,527452826	0,527791321	-0,49985363163132493	3	-0,122377262	0,000263818394
2	1	0	1	1	95660,2722	0,51655066	0,516967535	-0,44254792319537683	3	-0,144869089	0,000228782912
2	1	0	1	1	95705,2814	0,561559796	0,562127471	-0,28007091064544819	3	-0,160784259	0,000157435556
2	1	0	0	1	95750,2907	0,606569171	0,606989324	-0,1555507247216119	3	-0,170318469	9,44176281E-005
2	1	0	0	1	95795,4000	0,651678383	0,652202725	-0,047367193245016314	3	-0,174710304	3,08930139E-005
2	1	0	1	1	95840,7093	0,696987689	0,697371602	0,02565615335158239	3	-0,175166801	1,78918726E-005
2	1	0	1	1	95885,7185	0,741996944	0,742411494	0,096845824508164032	3	-0,172360882	7,18994561E-005
2	1	0	1	1	95930,9278	0,787206173	0,787727237	0,13913655731681462	3	-0,167050645	0,000109601657
2	1	0	0	1	95975,9370	0,832215548	0,832789302	0,17346216594099616	3	-0,15979147	0,00014445743
2	1	0	0	1	96020,9463	0,877224743	0,877722204	0,21153505724301437	3	-0,151189268	0,000185669021
2	1	0	0	1	96065,9555	0,92223388	0,922828734	0,22744980917684688	3	-0,141333699	0,000209897218
2	1	0	1	1	96110,9648	0,967243254	0,96781075	0,23418848905238931	3	-0,130894616	0,00022665014
2	1	0	1	1	96155,9741	1,01225233	1,012815	0,22321044107867594	3	-0,120587103	0,000226070886
2	1	0	0	1	96200,9834	1,05726159	1,05793059	0,21293995603629146	3	-0,110700771	0,000225275697
2	1	0	0	1	96245,9927	1,10227096	1,10277903	0,19429188065425283	3	-0,101572424	0,000214261017
2	1	0	1	1	96291,0019	1,1472801	1,14794779	0,16861505028141101	3	-0,0933760107	0,000193561267
2	1	0	1	1	96336,0112	1,19228935	1,19290769	0,13351191586456301	3	-0,0865684897	0,000159267394
2	1	0	1	1	96381,0204	1,23729861	1,23789835	0,10382872305928936	3	-0,0811696649	0,000128529398
2	1	0	1	1	96426,0296	1,28230762	1,28292477	0,077062688283277389	3	-0,0770955533	9,8865632E-005
2	1	0	0	1	96471,0390	1,327317	1,32786238	0,056684320493837536	3	-0,0741254315	7,52689739E-005
2	1	0	0	1	96516,2482	1,37252629	1,3733027	0,042896511215754221	3	-0,0718850568	5,89098963E-005
2	1	0	1	1	96561,2575	1,41753554	1,41803551	0,03091927086194729	3	-0,0702025071	4,38446223E-005
2	1	0	1	1	96606,2668	1,46254492	1,46314204	0,023903216191890563	3	-0,0689797178	3,49738002E-005
2	1	0	1	1	96651,2760	1,50755394	1,50815511	0,020288976879602848	3	-0,0680303425	3,05989233E-005
2	1	0	0	0	96693,9597	1,55066299	1,55132115	0,015791859309117197	4	0,000524539442	2,44982457E-005
2	1	0	0	0	96738,9689	1,59567213	1,59617841	0,012180799370346358	4	0,00114523445	1,94427284E-005
2	1	0	1	0	96783,9782	1,64068139	1,64119172	0,010591698633541744	4	0,00166251103	1,73830085E-005
2	1	0	1	0	96828,9875	1,68569064	1,6861558	0,0094443592442948749	4	0,00210525072	1,59246611E-005
2	1	0	1	0	96873,9967	1,73069966	1,73137343	0,0088035177528793395	4	0,00250152964	1,52421771E-005
2	1	0	0	0	96919,0060	1,77570915	1,77630675	0,0076319269473685414	4	0,00288561475	1,35566434E-005
2	1	0	0	0	96964,3153	1,82101846	1,82140875	0,0088753386248510707	4	0,00325965532	1,61656189E-005
2	1	0	0	0	97009,3245	1,86602771	1,8665731	0,0080783720392462042	4	0,00363586261	1,50788719E-005
2	1	0	1	0	97054,3338	1,91103685	1,91158211	0,010570169901824245	4	0,00402886048	2,02057472E-005
2	1	0	1	0	97099,3431	1,95604634	1,95659959	0,0091946323887360243	4	0,00443590106	1,79902145E-005
2	1	0	0	0	97144,5524	2,00125551	2,00199986	0,0095130378010806758	4	0,00485192658	1,9045101E-005
2	1	0	1	0	97189,5616	2,04626465	2,04698181	0,008863276611387264	4	0,00527168997	1,81429659E-005
2	1	0	1	0	97234,5708	2,09127402	2,09198165	0,0097817609925656896	4	0,00568876462	2,04632652E-005
2	1	0	0	0	97279,5801	2,13628316	2,13671875	0,011220545904640667	4	0,00614566216	2,39751516E-005
2	1	0	0	0	97324,5894	2,18129253	2,18176317	0,013543492026422674	4	0,00664553745	2,95486916E-005
2	1	0	1	0	97369,5987	2,22630167	2,2270298	0,011704784105887155	4	0,00719108991	2,60669021E-005
2	1	0	1	0	97414,6079	2,27131081	2,27206063	0,015150378239780397	4	0,00782567821	3,44225773E-005
2	1	0	0	0	97459,6171	2,31632018	2,31675744	0,018409205137904451	4	0,00859041791	4,26496626E-005
2	1	0	0	0	97504,6266	2,36132932	2,36187315	0,026525151986159955	4	0,00960028544	6,26490437E-005
2	1	0	1	0	97549,6358	2,40633845	2,40684628	0,03593571322189648	4	0,0109849945	8,64917383E-005
2	1	0	1	0	97594,6450	2,45134783	2,4520421	0,049374849876005158	4	0,0128941201	0,000121069213
2	1	0	0	0	97639,6542	2,4963572	2,49700594	0,06222853299722697	4	0,0154006239	0,000155385016
2	1	0	0	0	97684,6637	2,54136634	2,54200578	0,077425293942645299	4	0,0185406525	0,000196815541
2	1	0	1	0	97729,6729	2,58637547	2,5869298	0,089980703050978944	4	0,022305537	0,00023277376
2	1	0	0	0	97774,8822	2,63158512	2,63225889	0,10659519505086813	4	0,0266175307	0,000280586159
2	1	0	1	0	97819,8914	2,67659402	2,67712975	0,11819503157670973	4	0,0316928886	0,000316423422
2	1	0	1	0	97864,9009	2,72160316	2,72216511	0,12602676365691928	4	0,0371657535	0,000343065651
2	1	0	0	0	97909,9101	2,76661253	2,76717806	0,13380904231989632	4	0,0430375151	0,000370273454
2	1	0	0	0	97954,9193	2,81162167	2,81207132	0,1398326598342497	4	0,0492467247	0,000393219409
2	1	0	1	0	97999,9285	2,85663104	2,85728455	0,14283709749119477	4	0,0556778498	0,000408126245
2	1	0	1	0	98044,9378	2,90164018	2,9022665	0,14469586229534186	4	0,0621800274	0,000419945951
2	1	0	0	0	98089,9471	2,94664931	2,9472084	0,14589060687720022	4	0,0686701164	0,000429970009
2	1	0	0	0	98134,9564	2,99165869	2,99222159	0,14364049460311622	4	0,0752031952	0,000429804204
2	1	0	1	0	98179,9657	3,0366683	3,03729296	0,13686619613721723	4	0,0816176906	0,000415702729
2	1	0	1	0	98224,9750	3,08167696	3,08221197	0,13861745309911933	4	0,0878403261	0,000427248364
2	1	0	0	0	98269,9843	3,12668633	3,12730074	0,13544515025187077	4	0,0940333456	0,000423577731
2	1	0	0	0	98314,9936	3,17169571	3,17228746	0,13226674873263234	4	0,100082047	0,000419588148
2	1	0	1	0	98360,0029	3,21670508	3,21728253	0,12742643411995491	4	0,105947219	0,000409966829
2	1	0	1	0	98405,0120	3,26171422	3,2622602	0,12326524641300885	4	0,111607574	0,000402123318
2	1	0	0	0	98450,0212	3,30672336	3,30742931	0,11977099644497272	4	0,11706195	0,000396134099
2	1	0	0	0	98495,0307	3,35173273	3,35231733	0,11476139938995166	4	0,122336932	0,000384716637
2	1	0	1	0	98540,0401	3,39674187	3,39718843	0,11250343313236322	4	0,127446637	0,000382195372
2	1	0	1	0	98585,0492	3,44175076	3,44241905	0,11028253564707179	4	0,132431641	0,000379638688
2	1	0	0	0	98630,0584	3,48676038	3,48742342	0,10727353554030506	4	0,137305021	0,000374108233
2	1	0	0	0	98675,0679	3,53176975	3,53240132	0,10667509645902294	4	0,142095014	0,000376819255
2	1	0	1	0	98720,0771	3,57677889	3,57747626	0,10460245884565933	4	0,14684397	0,000374212803
2	1	0	1	0	98765,0864	3,62178779	3,62238264	0,10567700901036573	4	0,151584804	0,000382802566
2	1	0	0	0	98810,0955	3,66679764	3,66756916	0,10521279826080331	4	0,156328559	0,000385875202
2	1	0	0	0	98855,1048	3,71180677	3,71247578	0,10630037636207776	4	0,161079213	0,00039463758
2	1	0	1	0	98900,1142	3,75681591	3,75745773	0,10627268780256906	4	0,165766284	0,000399315119
2	1	0	1	0	98945,1234	3,80182481	3,80259991	0,10655324245856469	4	0,170569763	0,000405179337
2	1	0	0	0	98990,1327	3,84683466	3,8475554	0,10941214986522608	4	0,175429344	0,0004209693
2	1	0	0	0	99035,1420	3,8918438	3,89251971	0,10859609558363026	4	0,180346608	0,000422712445
2	1	0	1	0	99080,1513	3,93685293	3,93750596	0,11100056381648082	4	0,185299709	0,000437065377
2	1	0	1	0	99125,1606	3,98186207	3,98262167	0,10450960431365664	4	0,19020474	0,000416222203
2	0	0	1	0	99168,8696	3,97446084	3,97418404	0,0759284981572832	4	0,19434379	0,000301753811
2	0	0	1	0	99213,8787	3,92945123	3,9291904	0,052875855507130253	4	0,197180048	0,000207759309
2	0	0	1	0	99258,9879	3,88434219	3,88401937	0,040097941216571674	4	0,199272022	0,000155741174
2	0	0	0	0	99303,9973	3,83933282	3,83903646	0,032826871612590458	4	0,200934559	0,000126023559
2	0	0	0	0	99349,0064	3,79432392	3,79408216	0,027188112363962346	4	0,202300251	0,000103153929
2	0	0	1	0	99394,0156	3,74931455	3,74900651	0,024018840567479798	4	0,203428358	9,0046793E-005
2	0	0	1	0	99439,0248	3,70430517	3,70404243	0,019688206772620509	4	0,20439291	7,29259555E-005
2	0	0	0	0	99484,0340	3,65929604	3,6590426	0,016240276351124221	4	0,205201015	5,94238627E-005
2	0	0	0	0	99529,0433	3,61428666	3,61406708	0,013477155850744285	4	0,205907568	4,87073448E-005
2	0	0	1	0	99574,0526	3,56927705	3,56901884	0,013251256739123389	4	0,206518099	4,72939864E-005
2	0	0	1	0	99619,0619	3,52426815	3,52403784	0,010676141135313648	4	0,207046703	3,76231255E-005
2	0	0	1	0	99626,0631	3,51726675	3,51701069	0,010396376856810718	4	0,207122624	3,65641681E-005