File: Experimentelles/Ausgewaehlte_Daten/LATP/CV/LATP_Korrosion_02_CV_C02.txt
EC-Lab ASCII FILE
Nb header lines : 69

Cyclic Voltammetry

Run on channel : 2 (SN 6986)
Grouped channel(s) : 2
User :
CE vs. WE compliance from -10 V to 10 V
Electrode connection : standard
Ewe ctrl range : min = 0,00 V, max = 5,00 V
Acquisition started on : 09/02/2015 11:42:26
Saved on :
	File : LATP_Korrosion_02_CV_C02.mpr
	Directory : C:\Hupfer\Stabilitätstest Folie gegen Li\
	Host : 192.168.0.2
Device : VMP3 (SN 0324)
Address : 192.168.0.1
EC-Lab for windows v10.33 (software)
Internet server v10.33 (firmware)
Command interpretor v10.32 (firmware)
Electrode material : LATP
Initial state :
Electrolyte : LP-30
Comments :
Mass of active material : 0,001 mg
 at x = 0,000
Molecular weight of active material (at x = 0) : 0,001 g/mol
Atomic weight of intercalated ion : 0,001 g/mol
Acquisition started at : xo = 0,000
Number of e- transfered per intercalated ion : 1
for DX = 1, DQ = 26,801 mA.h
Battery capacity : 0,000 A.h
Reference electrode : Li+/Li (-3,020 V)
Electrode surface area : 0,001 cm²
Characteristic mass : 0,001 g
Ei (V)              0,000
vs.                 Eoc
dE/dt               10,000
dE/dt unit          mV/s
E1 (V)              4,000
vs.                 Ref
Step percent        50
N                   10
E range min (V)     0,000
E range max (V)     5,000
I Range             Auto
Bandwidth           5
E2 (V)              1,200
vs.                 Ref
nc cycles           0
Reverse Scan        1
Ef (V)              0,000
vs.                 Eoc

Modify on : 09/02/2015 11:45
Electrode material :
Electrolyte :

Number of loops : 7
Loop 0 from point number 0 to 5598
Loop 1 from point number 5599 to 11198
Loop 2 from point number 11199 to 16798
Loop 3 from point number 16799 to 22397
Loop 4 from point number 22398 to 27997
Loop 5 from point number 27998 to 33597
Loop 6 from point number 33598 to 39197

mode	ox/red	error	control changes	counter inc.	time/s	control/V	Ewe/V	<I>/mA	cycle number	(Q-Qo)/C	P/W
2	1	0	0	0	163,3116	2,46410131	2,46385574	-0,0014299086760729552	1	0	3,52308871E-006
2	1	0	1	0	170,6480	2,53746533	2,53762317	0,14421410796542954	1	0,0006013292	0,000365961052
2	1	0	1	0	177,9496	2,61048055	2,61069703	0,23677413327688458	1	0,00201674434	0,00061814551
2	1	0	0	0	185,2510	2,68349552	2,6838603	0,29306981440081702	1	0,00397392316	0,000786558434
2	1	0	0	0	192,5526	2,7565105	2,75664926	0,31719279965316851	1	0,00622021127	0,000874389312
2	1	0	1	0	199,8540	2,82952523	2,82974553	0,31636303959897363	1	0,00854993425	0,000895226898
2	1	0	1	0	207,1556	2,90254021	2,90277958	0,29532755390499507	1	0,0107940482	0,000857270788
2	1	0	0	0	214,4570	2,97555566	2,97580457	0,26476095006283894	1	0,0128428899	0,000787876837
2	1	0	0	0	221,7586	3,04857039	3,04889178	0,23324822748287043	1	0,0146613996	0,000711148605
2	1	0	1	0	229,0600	3,12158537	3,12179685	0,20432917625401869	1	0,0162582546	0,000637874182
2	1	0	1	0	236,3616	3,19460011	3,19488406	0,18043510646869757	1	0,0176610984	0,000576469232
2	1	0	0	0	243,6630	3,26761532	3,26776218	0,16332645885025475	1	0,0189117864	0,000533712038
2	1	0	0	0	250,9646	3,34062982	3,34080887	0,159244866334592	1	0,0200848896	0,00053200667
2	1	0	1	0	258,2660	3,41364503	3,41382527	0,1499226640875415	1	0,0212244764	0,000511809776
2	1	0	1	0	265,5676	3,48666024	3,48676157	0,1350296325981617	1	0,0222645961	0,000470816129
2	1	0	0	0	272,8690	3,55967546	3,55991602	0,12525751038144083	1	0,0232135914	0,000445906218
2	1	0	0	0	280,1706	3,63269019	3,63283372	0,11722448878680149	1	0,0241013076	0,000425857084
2	1	0	1	0	287,4720	3,70570517	3,70595694	0,1103167444191595	1	0,0249318797	0,000408829103
2	1	0	1	0	294,7736	3,7787199	3,77883554	0,10589716204062594	1	0,0257211085	0,000400167948
2	1	0	0	0	302,0750	3,85173488	3,8520112	0,1042356113040887	1	0,0264883563	0,000401516736
2	1	0	0	0	309,3766	3,92475009	3,92512083	0,10367109279872632	1	0,0272488277	0,000406921579
2	1	0	1	0	316,6780	3,99776506	3,99791002	0,10464174122791048	1	0,0280100629	0,000418348267
2	0	0	0	0	323,9402	3,92965126	3,92987895	0,0002069720448061056	1	0,0281660259	8,13375095E-007
2	0	0	1	0	331,2416	3,85663605	3,85684443	-0,0092727311539757274	1	0,0281268638	3,57634817E-005
2	0	0	1	0	338,5832	3,78322101	3,78323197	-0,013184158778231979	1	0,0280418471	4,98787304E-005
2	0	0	0	0	345,8846	3,71020603	3,71044326	-0,015492712550675747	1	0,027935002	5,74848309E-005
2	0	0	0	0	353,1862	3,63719106	3,63750243	-0,017060115873054678	1	0,0278140288	6,20562132E-005
2	0	0	1	0	360,4876	3,56417632	3,56444192	-0,01835084315044455	1	0,0276829768	6,5410517E-005
2	0	0	1	0	367,7892	3,49116087	3,49139023	-0,019977082864864272	1	0,0275411941	6,97477954E-005
2	0	0	0	0	375,0906	3,41814637	3,41824055	-0,021145976499947482	1	0,0273891427	7,22820332E-005
2	0	0	0	0	382,3922	3,34513092	3,34527326	-0,022884207238719117	1	0,0272279941	7,65539298E-005
2	0	0	1	0	389,6936	3,27211618	3,27237773	-0,025785394383732422	1	0,0270492788	8,43795497E-005
2	0	0	1	0	396,9952	3,19910121	3,19928074	-0,027982086365766573	1	0,0268502273	8,9522553E-005
2	0	0	0	0	404,2966	3,12608647	3,12620735	-0,029351495253784512	1	0,0266385954	9,17588623E-005
2	0	0	0	0	411,5982	3,0530715	3,05335593	-0,030168758062818214	1	0,0264194794	9,2115959E-005
2	0	0	1	0	418,8996	2,98005605	2,98024178	-0,031017027204614746	1	0,0261947531	9,24382402E-005
2	0	0	1	0	426,2012	2,90704131	2,90726566	-0,032348920116891002	1	0,0259621125	9,40469035E-005
2	0	0	0	0	433,5026	2,83402634	2,83420491	-0,035158604004040973	1	0,0257141721	9,96466915E-005
2	0	0	0	0	440,8042	2,7610116	2,76133609	-0,040303643913594438	1	0,0254415926	0,000111291905
2	0	0	1	0	448,1056	2,68799639	2,68810606	-0,064687915474038374	1	0,0250742678	0,00017388798
2	0	0	1	0	455,4472	2,61458135	2,61497426	-0,11247324232977821	1	0,0244313851	0,000294114638
2	0	0	0	0	462,7486	2,54156637	2,54180241	-0,17261196707409843	1	0,0233960878	0,000438745512
2	0	0	0	0	470,0502	2,46855116	2,46871948	-0,24737679461638118	1	0,0218722709	0,000610703893
2	0	0	1	0	477,3516	2,39553642	2,3957746	-0,34711217211076397	1	0,0197192803	0,000831602549
2	0	0	1	0	484,6532	2,32252121	2,32275367	-0,49798198561701581	1	0,0166824795	0,00115668948
2	0	0	0	0	491,9546	2,24950624	2,24976897	-0,694592378343696	1	0,0123138707	0,00156267243
2	0	0	0	0	499,2562	2,17649126	2,17678404	-0,83935727910311181	1	0,00667067803	0,00182709948
2	0	0	1	0	506,5576	2,10347629	2,10369635	-0,92848263211824461	1	0,00018866139	0,00195324561
2	0	0	1	0	513,8592	2,03046155	2,03074288	-0,98210006607351309	1	-0,00680575194	0,00199439283
2	0	0	0	0	521,2007	1,95704603	1,95723701	-1,0063641298319438	1	-0,0141259171	0,00196969323
2	0	0	0	0	528,5022	1,88403118	1,88412309	-1,0012667118399242	1	-0,0214761104	0,00188650971
2	0	0	1	0	535,8037	1,8110162	1,81131589	-0,97071731603660979	1	-0,028690258	0,00175827567
2	0	0	1	0	543,1052	1,73800123	1,73814857	-0,92210588342062042	1	-0,0356104039	0,00160275702
2	0	0	0	0	550,4067	1,66498709	1,66533804	-0,8648723643998313	1	-0,0421394072	0,0014403048
2	0	0	0	0	557,7082	1,59197116	1,59225416	-0,80687984686207066	1	-0,0482428037	0,00128475775
2	0	0	1	0	565,0097	1,51895654	1,5192647	-0,75167396467358221	1	-0,0539324656	0,0011419917
2	0	0	1	0	572,3112	1,44594133	1,4461863	-0,70018458387090086	1	-0,0592326969	0,00101259735
2	0	0	1	0	579,6128	1,37292647	1,37308574	-0,6584577449659497	1	-0,0641884282	0,000904118933
2	0	0	0	0	586,9142	1,29991138	1,30022538	-0,63311046679262861	1	-0,068891339	0,000823186303
2	0	0	1	0	594,2157	1,22689676	1,22735667	-0,63341875263665152	1	-0,0734957978	0,000777430716
2	1	0	1	1	601,3976	1,245	1,24535871	-0,46309656932673882	1	-0,0776045248	0,00057672133
2	1	0	1	1	608,6992	1,31801522	1,31823695	-0,34951814129534675	1	-0,0805152729	0,000460747717
2	1	0	0	1	616,0006	1,39103007	1,39137328	-0,28842597782473958	1	-0,0828247815	0,000401308207
2	1	0	0	1	623,3022	1,46404505	1,4643805	-0,24622744414955357	1	-0,0847675204	0,000360570673
2	1	0	1	1	630,6036	1,53706014	1,53726327	-0,21317352792593082	1	-0,086438641	0,000327703834
2	1	0	1	1	637,9052	1,610075	1,61037707	-0,18500329124637814	1	-0,0878880024	0,000297925057
2	1	0	0	1	645,2066	1,68308997	1,68321073	-0,16029783081332339	1	-0,089144364	0,000269815035
2	1	0	0	1	652,5082	1,75610483	1,75651634	-0,1371980299483292	1	-0,0902267992	0,000240990586
2	1	0	1	1	659,8096	1,82912004	1,82939887	-0,11546595837851914	1	-0,0911465436	0,000211233288
2	1	0	1	1	667,1112	1,9021349	1,90243256	-0,094917555796672384	1	-0,0919123515	0,00018057425
2	1	0	0	1	674,4126	1,97514999	1,97550225	-0,075052427343541338	1	-0,0925301537	0,000148266234
2	1	0	0	1	681,7142	2,04816484	2,04847383	-0,055749101771248813	1	-0,0930049345	0,000114200579
2	1	0	1	1	689,0556	2,12157989	2,1218996	-0,036862760243281888	1	-0,0933429822	7,82190764E-005
2	1	0	1	1	696,3572	2,1945951	2,19482207	-0,018188166964574954	1	-0,0935425386	3,99197888E-005
2	1	0	0	1	703,6987	2,2680099	2,26832771	0,0027323399215445424	1	-0,0936002955	6,19784214E-006
2	1	0	0	1	711,0402	2,34142518	2,3417623	0,02977045068379367	1	-0,0934859961	6,97153228E-005
2	1	0	0	1	718,3418	2,41444039	2,41476488	0,07457381317874889	1	-0,0931201875	0,000180078219
2	1	0	0	0	725,6404	2,486655	2,48730779	0,15769540984183504	2	0,000312610355	0,000392237009
2	1	0	1	0	732,9418	2,55966997	2,56019473	0,28865399694553107	2	0,00192123745	0,000739010458
2	1	0	1	0	740,2434	2,63268495	2,63327765	0,43791760931964243	2	0,00457588397	0,00115315861
2	1	0	0	0	747,5449	2,70570087	2,70637822	0,57626019106648128	2	0,00829162821	0,001559578
2	1	0	0	0	754,8464	2,77871466	2,77915406	0,69569438771793178	2	0,0129489498	0,00193344185
2	1	0	1	0	762,1478	2,85172963	2,85224152	0,79786822093653773	2	0,0184151698	0,00227571279
2	1	0	1	0	769,4494	2,92474461	2,92512417	0,88101179056145677	2	0,0245596655	0,00257706898
2	1	0	0	0	776,7508	2,99775958	2,99821091	0,94335815799829171	2	0,0312357042	0,00282838661
2	1	0	0	0	784,0524	3,07077479	3,07123661	0,98213470782394995	2	0,0382821038	0,00301636802
2	1	0	1	0	791,3539	3,14379001	3,14419866	0,99613985923615898	2	0,0455213487	0,00313206157
2	1	0	1	0	798,6554	3,21680474	3,21735787	0,98476138573002278	2	0,0527697839	0,00316832983
2	1	0	0	0	805,9569	3,28981996	3,29020429	0,95146563667195494	2	0,0598528124	0,00313051627
2	1	0	0	0	813,2584	3,36283445	3,36329222	0,90824874324930957	2	0,0666445792	0,00305470591
2	1	0	1	0	820,5599	3,43585014	3,4364512	0,86131200352328819	2	0,0731205493	0,00295985676
2	1	0	1	0	827,8614	3,50886464	3,50949383	0,78860797153578944	2	0,0791546553	0,00276761479
2	1	0	0	0	835,1629	3,5818789	3,58223295	0,71307096308481024	2	0,0846365169	0,00255438639
2	1	0	0	0	842,4644	3,65489459	3,65560579	0,63904706968201626	2	0,0895773098	0,00233610417
2	1	0	1	0	849,7659	3,72790885	3,72842526	0,56533854466936973	2	0,0939742476	0,00210782257
2	1	0	1	0	857,0674	3,80092478	3,80138421	0,49638372770062342	2	0,0978496596	0,00188694522
2	1	0	1	0	864,3690	3,87393999	3,87448931	0,43444366316949792	2	0,101245232	0,00168324728
2	1	0	0	0	871,6704	3,94695473	3,94749689	0,38159106282034381	2	0,104222097	0,00150632951
2	0	0	0	0	878,8324	3,98146176	3,98202419	0,2463393295183769	2	0,106665455	0,000980929122
2	0	0	0	0	886,1340	3,90844679	3,90867925	0,17584918951615603	2	0,108171396	0,000687338063
2	0	0	1	0	893,4355	3,83543062	3,83580399	0,1335755288379827	2	0,109289631	0,000512369559
2	0	0	1	0	900,7370	3,76241684	3,76286006	0,10253863583353384	2	0,110142782	0,000385838532
2	0	0	0	0	908,0384	3,68940139	3,68986654	0,078533306407432026	2	0,110796772	0,00028977741
2	0	0	0	0	915,3400	3,61638665	3,61691213	0,05956076770262025	2	0,111295074	0,000215426058
2	0	0	1	0	922,6814	3,54297256	3,54346514	0,043762793165688538	2	0,111670241	0,000155071932
2	0	0	1	0	929,9830	3,46995664	3,47038174	0,030686118303694611	2	0,111937463	0,000106492545
2	0	0	0	0	937,2845	3,3969419	3,39737463	0,020186448957939974	2	0,112120301	6,85809282E-005
2	0	0	0	0	944,5860	3,32392645	3,32444739	0,0100600773089186	2	0,112228855	3,34441975E-005
2	0	0	0	0	951,9276	3,25051141	3,25089264	0,00084495385844665651	2	0,112265006	2,74685431E-006
2	0	0	1	0	959,2290	3,17749691	3,17790771	-0,0056075504086307987	2	0,11224594	1,78202772E-005
2	0	0	1	0	966,5706	3,10408187	3,10454035	-0,010246761864335805	2	0,112185612	3,18114871E-005
2	0	0	0	0	973,8720	3,03106666	3,0317018	-0,01453850515988759	2	0,112092383	4,40764125E-005
2	0	0	0	0	981,1736	2,95805168	2,95847678	-0,018876338259023754	2	0,111968227	5,58452084E-005
2	0	0	1	0	988,4750	2,88503671	2,88551807	-0,023581869072384464	2	0,111811966	6,80459125E-005
2	0	0	1	0	995,7766	2,81202173	2,81259584	-0,028463520415782595	2	0,111619584	8,00563794E-005
2	0	0	0	0	1003,0780	2,73900676	2,7395041	-0,03896070327351081	2	0,111378655	0,000106733009
2	0	0	0	0	1010,3796	2,66599178	2,66658568	-0,069745369634970573	2	0,110992029	0,000185982004
2	0	0	1	0	1017,7210	2,59257674	2,59299111	-0,11759500676352074	2	0,110310271	0,000304922811
2	0	0	1	0	1025,0226	2,51956177	2,52006841	-0,18150749319681392	2	0,109226704	0,000457411312
2	0	0	0	0	1032,3240	2,44654679	2,44703484	-0,27077401315586426	2	0,107593708	0,000662593462
2	0	0	0	0	1039,6256	2,37353206	2,37390733	-0,41186226607748819	2	0,105149776	0,000977722812
2	0	0	1	0	1046,9270	2,30051684	2,30093527	-0,62141769931272294	2	0,101366393	0,00142984185
2	0	0	1	0	1054,2286	2,22750211	2,22807503	-0,76171634773965197	2	0,0962601379	0,00169716112
2	0	0	0	0	1061,5300	2,15448666	2,15501881	-0,83862904735185318	2	0,0903894529	0,00180726137
2	0	0	0	0	1068,8316	2,08147192	2,08202505	-0,88199184710780723	2	0,084088549	0,00183632912
2	0	0	1	0	1076,1330	2,00845671	2,00902224	-0,90164490320064589	2	0,0775605291	0,00181142462
2	0	0	1	0	1083,4346	1,93544185	1,9360106	-0,90056298190245338	2	0,0709662735	0,00174349942
2	0	0	0	0	1090,7360	1,862427	1,86301208	-0,88172420707565632	2	0,0644471422	0,0016426628
2	0	0	0	0	1098,0376	1,78941178	1,78992927	-0,84962262903098202	2	0,0581163578	0,00152076443
2	0	0	1	0	1105,3390	1,71639693	1,71689975	-0,80867863432676582	2	0,0520558022	0,00138842012
2	0	0	1	0	1112,6406	1,64338183	1,64389706	-0,7632258167421408	2	0,0463139117	0,00125466462
2	0	0	0	0	1119,9420	1,57036698	1,57082725	-0,71707303021792781	2	0,0409076028	0,00112639787
2	0	0	0	0	1127,2436	1,497352	1,49766004	-0,6725578179789897	2	0,0358338505	0,00100726297
2	0	0	1	0	1134,5450	1,42433691	1,42472422	-0,63271266560035546	2	0,031071227	0,000901441032
2	0	0	1	0	1141,8466	1,35132205	1,35175705	-0,60193525820418253	2	0,026568722	0,000813670224
2	0	0	0	0	1149,1480	1,27830696	1,27873194	-0,58909017640959411	2	0,0222314	0,000753288448
2	0	0	0	0	1156,4496	1,20529199	1,20582259	-0,61594440622462259	2	0,0178732462	0,000742719683
2	1	0	1	1	1163,6315	1,26660514	1,26723218	-0,39830963885715853	2	0,014372292	0,000504750817
2	1	0	1	1	1170,9330	1,33961964	1,34012318	-0,31133183278143315	2	0,0118197454	0,000417222996
2	1	0	0	1	1178,2345	1,41263497	1,41300631	-0,26068526797211411	2	0,00974595826	0,000368349924
2	1	0	0	1	1185,5360	1,48564947	1,48608863	-0,22410538951279869	2	0,00798429549	0,000333040458
2	1	0	1	1	1192,8375	1,55866492	1,55922937	-0,19430360830973382	2	0,00646240963	0,00030296389
2	1	0	1	1	1200,1390	1,63167953	1,63227654	-0,16884180415352691	2	0,00514015928	0,000275596511
2	1	0	0	1	1207,4405	1,70469379	1,70519018	-0,14592443242614074	2	0,00399436569	0,000248828903
2	1	0	0	1	1214,7420	1,7777096	1,77822888	-0,1244177206902315	2	0,00301039428	0,000221243186
2	1	0	1	1	1222,0435	1,85072446	1,8514185	-0,10416350999849834	2	0,0021785209	0,000192850246
2	1	0	1	1	1229,3450	1,92373943	1,9242698	-0,084677075579141504	2	0,00149169727	0,000162941535
2	1	0	0	1	1236,6465	1,99675357	1,99734318	-0,065857151750480461	2	0,000944968371	0,000131539331
2	1	0	0	1	1243,9880	2,07016945	2,0707562	-0,047268546656360461	2	0,000532262551	9,78816388E-005
2	1	0	1	1	1251,2895	2,14318347	2,14376259	-0,029497678252146886	2	0,000253573031	6,3236017E-005
2	1	0	1	1	1258,5910	2,21619964	2,21678424	-0,011215518073489237	2	0,000106235762	2,48623837E-005
2	1	0	1	1	1265,9626	2,28991461	2,29038739	0,0099150200807748275	2	0,000100630488	2,27092369E-005
2	1	0	0	1	1273,2640	2,36292934	2,36349726	0,039090902725648525	2	0,000273562851	9,23912448E-005
2	1	0	0	1	1280,5656	2,43594456	2,43652225	0,090555827538655104	2	0,000728417421	0,00022064129
2	1	0	0	0	1287,8422	2,5085597	2,50905776	0,18481812917592899	3	0,000657736382	0,000463719363
2	1	0	0	0	1295,1438	2,58157444	2,58223414	0,32224722934403795	3	0,00249460945	0,000832117803
2	1	0	1	0	1302,4452	2,65458965	2,65512991	0,46823104319197203	3	0,00538656395	0,00124321424
2	1	0	1	0	1309,7468	2,72760463	2,72804809	0,59984481789999846	3	0,00929968245	0,00163640548
2	1	0	0	0	1317,0482	2,80061936	2,80108643	0,71402529571895104	3	0,0141090639	0,00200004666
2	1	0	0	0	1324,3498	2,87363458	2,87422276	0,81033708141357952	3	0,0196882971	0,00232908921
2	1	0	1	0	1331,6512	2,94664931	2,94704771	0,88640700101300493	3	0,0258985255	0,00261228369
2	1	0	1	0	1338,9528	3,01966476	3,02016163	0,93940145480963814	3	0,0325812846	0,0028371443
2	1	0	0	0	1346,2542	3,0926795	3,09314203	0,9673489610906039	3	0,0395596288	0,00299214781
2	1	0	0	0	1353,5558	3,16569448	3,16615844	0,9694509725603808	3	0,0466484055	0,00306943548
2	1	0	1	0	1360,8572	3,23870921	3,23930311	0,94903320074081421	3	0,0536688976	0,00307420618
2	1	0	1	0	1368,1588	3,31172442	3,31217289	0,90967398578370394	3	0,0604659468	0,00301299756
2	1	0	0	0	1375,4602	3,38473916	3,3853178	0,86300751249547853	3	0,066940546	0,00292155473
2	1	0	0	0	1382,7618	3,45775461	3,45835233	0,80236390605569242	3	0,073037982	0,00277485698
2	1	0	1	0	1390,0632	3,53076935	3,53132319	0,72871674949096038	3	0,0786319524	0,00257333438
2	1	0	1	0	1397,3648	3,60378432	3,60440183	0,65726490836176768	3	0,0836926922	0,00236904691
2	1	0	0	0	1404,6662	3,6767993	3,67745805	0,58643315504822451	3	0,0882344916	0,00215658336
2	1	0	0	0	1411,9678	3,74981427	3,75035834	0,51903818223487264	3	0,092269741	0,0019465792
2	1	0	1	0	1419,2692	3,82282948	3,82322812	0,45685151709174618	3	0,0958314165	0,00174664753
2	1	0	1	0	1426,5708	3,89584398	3,89631486	0,40211428667384294	3	0,0989650562	0,00156676385
2	1	0	0	0	1433,8722	3,96885943	3,96924233	0,35640991006598477	3	0,101732567	0,00141467736
2	0	0	0	0	1441,0442	3,95945716	3,95999861	0,21110982385774512	3	0,103798486	0,000835994608
2	0	0	1	0	1448,3456	3,88644218	3,88695598	0,15564403043094112	3	0,105117127	0,000604981498
2	0	0	1	0	1455,6472	3,81342697	3,81374836	0,11846882332530307	3	0,10610687	0,00045181028
2	0	0	0	0	1462,9486	3,74041247	3,74078083	0,090359326184692442	3	0,106860913	0,000338014448
2	0	0	0	0	1470,2502	3,66739726	3,66783142	0,068641996787240141	3	0,107435524	0,000251767284
2	0	0	1	0	1477,5516	3,59438229	3,59498429	0,051386148470488499	3	0,107868165	0,000184732402
2	0	0	1	0	1484,8932	3,52096725	3,52148771	0,03690984083287831	3	0,108187959	0,000129977547
2	0	0	0	0	1492,1946	3,44795203	3,44848943	0,025270200015425126	3	0,108411223	8,71440207E-005
2	0	0	0	0	1499,4962	3,37493753	3,37542009	0,015914712014987488	3	0,108558968	5,37188389E-005
2	0	0	1	0	1506,7976	3,30192208	3,30228376	0,0066919213762351859	3	0,108638078	2,2098624E-005
2	0	0	1	0	1514,1292	3,2286067	3,22901845	-0,0011666238009369195	3	0,108655035	3,76704975E-006
2	0	0	0	0	1521,4306	3,15559244	3,15597534	-0,0069773772405891533	3	0,108624108	2,20204311E-005
2	0	0	0	0	1528,7722	3,0821774	3,08259892	-0,011289488818470582	3	0,108555004	3,48009671E-005
2	0	0	1	0	1536,0736	3,00916195	3,00961375	-0,015584498542550653	3	0,108454555	4,69033221E-005
2	0	0	1	0	1543,3752	2,93614745	2,93654871	-0,019795789920155766	3	0,108323731	5,81312997E-005
2	0	0	0	0	1550,6766	2,86313224	2,86363506	-0,024218910367279802	3	0,108161405	6,93541224E-005
2	0	0	0	0	1557,9782	2,79011726	2,7908504	-0,029524914333941779	3	0,10796354	8,23996161E-005
2	0	0	1	0	1565,2797	2,71710134	2,71750379	-0,044535119006099059	3	0,107701749	0,000121024357
2	0	0	1	0	1572,5812	2,64408731	2,64448404	-0,079452485949904845	3	0,107257351	0,000210110826
2	0	0	0	0	1579,9227	2,5706718	2,57120538	-0,1293193401342968	3	0,106497191	0,000332506577
2	0	0	0	0	1587,2242	2,4976573	2,49809122	-0,19604930219550864	3	0,105319023	0,000489749014
2	0	0	1	0	1594,5257	2,42464232	2,42515564	-0,29311144202413056	3	0,103554405	0,000710840861
2	0	0	1	0	1601,8272	2,35162735	2,35213065	-0,45947625032729619	3	0,100869179	0,00108074816
2	0	0	0	0	1609,1287	2,27861214	2,27906513	-0,65020869476563098	3	0,0967752784	0,00148186798
2	0	0	0	0	1616,4302	2,2055974	2,20605373	-0,76431587559205389	3	0,0915673003	0,00168612192
2	0	0	1	0	1623,7317	2,13258243	2,13312244	-0,83083531142225203	3	0,0857213214	0,00177227345
2	0	0	1	0	1631,0332	2,05956721	2,06013298	-0,86837345761833395	3	0,0794990957	0,00178896484
2	0	0	0	0	1638,3347	1,98655307	1,9871043	-0,88266588891270464	3	0,0730890408	0,00175394921
2	0	0	0	0	1645,6362	1,91353726	1,91399789	-0,87679479022820672	3	0,0666515678	0,00167818333
2	0	0	0	0	1652,9378	1,84052229	1,8410219	-0,85316396118314163	3	0,0603245832	0,00157069357
2	0	0	1	0	1660,2392	1,7675072	1,76811695	-0,81811996770126426	3	0,0542142056	0,00144653174
2	0	0	1	0	1667,5408	1,69449234	1,69489169	-0,77602575105373722	3	0,048389256	0,00131527963
2	0	0	0	0	1674,8422	1,62147737	1,62203598	-0,7314284180325536	3	0,0428833552	0,00118640321
2	0	0	0	0	1682,1438	1,54846227	1,54885948	-0,68705503815026163	3	0,03770338	0,00106415176
2	0	0	1	0	1689,4452	1,47544742	1,47603929	-0,6457586465058505	3	0,0328376144	0,000953165116
2	0	0	1	0	1696,7468	1,40243244	1,40296519	-0,61007560520536154	3	0,0282550696	0,000855914841
2	0	0	0	0	1704,0482	1,32941735	1,32994914	-0,58428455992705434	3	0,0239019431	0,000777068723
2	0	0	0	0	1711,3498	1,25640237	1,25697744	-0,5792635704770135	3	0,0196669307	0,00072812126
2	1	0	1	1	1718,5416	1,21559405	1,21618795	-0,51394617219489946	3	0,015478041	0,000625055167
2	1	0	1	1	1725,8432	1,28860903	1,28910172	-0,35944466203175194	3	0,0123834386	0,000463360746
2	1	0	0	1	1733,1446	1,361624	1,36202455	-0,28886050820626694	3	0,0100439722	0,000393435097
2	1	0	0	1	1740,4462	1,4346391	1,43531656	-0,24441154932396269	3	0,008108804	0,000350807939
2	1	0	1	1	1747,7476	1,50765395	1,50822139	-0,21052056861420442	3	0,00645499909	0,000317511614
2	1	0	1	1	1755,0492	1,58066881	1,58135319	-0,18287281005608723	3	0,00502348086	0,000289186515
2	1	0	0	1	1762,3506	1,65368402	1,65429795	-0,15864782121584374	3	0,00378067303	0,000262450776
2	1	0	0	1	1769,6522	1,72669888	1,72737205	-0,13650343870675118	3	0,00270618638	0,00023579222
2	1	0	1	1	1776,9536	1,79971397	1,800228	-0,1159437232202401	3	0,00178744236	0,000208725134
2	1	0	1	1	1784,2552	1,87272882	1,87318647	-0,096256683597824026	3	0,0010158231	0,000180306713
2	1	0	0	1	1791,5566	1,94574404	1,94620681	-0,077327548991888589	3	0,000385080668	0,000150495398
2	1	0	0	1	1798,8582	2,01875901	2,01945925	-0,058770017112018675	3	-0,000109258646	0,000118683653
2	1	0	1	1	1806,1996	2,09217405	2,09268427	-0,040844564226938886	3	-0,000472761254	8,54747777E-005
2	1	0	1	1	1813,5012	2,16518903	2,16566467	-0,023344268220373331	3	-0,000705590355	5,05558564E-005
2	1	0	0	1	1820,8426	2,23860431	2,23925495	-0,0046466132976261222	3	-0,000808039389	1,04049523E-005
2	1	0	0	1	1828,1842	2,31201935	2,31244898	0,017353433738376362	3	-0,000764086319	4,0128929E-005
2	1	0	1	1	1835,4856	2,38503432	2,38546968	0,050149761907825274	3	-0,000525885727	0,000119630735
2	1	0	1	1	1842,8272	2,45844936	2,45906448	0,1114959556747368	3	4,52223539E-005	0,000274175749
2	1	0	0	0	1850,0480	2,530164	2,53060746	0,21657368837407408	4	0,00106042402	0,000548063021
2	1	0	0	0	1857,3496	2,60317898	2,60360122	0,35763605701288717	4	0,00314947148	0,000931141665
2	1	0	1	0	1864,6510	2,67619395	2,67663527	0,49916557746904819	4	0,00628772471	0,00133608421
2	1	0	1	0	1871,9526	2,74920893	2,74964237	0,62449441650123379	4	0,010403228	0,00171713636
2	1	0	0	0	1879,2540	2,8222239	2,82273865	0,73286425149827123	4	0,0153709855	0,0020686842
2	1	0	0	0	1886,5556	2,89523864	2,89595485	0,82290144126724314	4	0,0210651159	0,00238308543
2	1	0	1	0	1893,8570	2,96825409	2,96879315	0,89144593104720243	4	0,027338881	0,00264651864
2	1	0	1	0	1901,1586	3,04126883	3,04169369	0,93624564067080845	4	0,0340281017	0,00284777256
2	1	0	0	0	1908,4600	3,11428404	3,1148119	0,95584473386407258	4	0,0409526899	0,00297727645
2	1	0	0	0	1915,7616	3,18729854	3,18783259	0,9508464134953609	4	0,0479300097	0,00303113926
2	1	0	1	0	1923,0630	3,26031375	3,260782	0,92430344334355213	4	0,0547903441	0,00301395194
2	1	0	1	0	1930,3646	3,33332896	3,33378053	0,88059208266161088	4	0,0613895729	0,00293570082
2	1	0	0	0	1937,6660	3,40634394	3,40677404	0,82777506223431488	4	0,0676353499	0,00282004266
2	1	0	0	0	1944,9676	3,47935867	3,47997713	0,75991269132053325	4	0,0734421909	0,00264447881
2	1	0	1	0	1952,2690	3,55237389	3,55295753	0,68866951191039142	4	0,0787317678	0,00244681351
2	1	0	1	0	1959,5706	3,62538862	3,62596941	0,61944375601079744	4	0,0835095719	0,00224608416
2	1	0	0	0	1966,8721	3,69840455	3,69879484	0,55235628379796608	4	0,0877880156	0,00204305258
2	1	0	0	0	1974,1736	3,77141881	3,77184558	0,48931484331411744	4	0,0915902853	0,00184561999
2	1	0	1	0	1981,4749	3,84443378	3,84492016	0,43163468599043584	4	0,09495157	0,00165960088
2	1	0	1	0	1988,7765	3,91744876	3,91806507	0,3821322154253721	4	0,097920835	0,00149721885
2	1	0	0	0	1996,0779	3,9904635	3,99095225	0,34133490085517869	4	0,100559525	0,00136225123
2	0	0	0	0	2003,2899	3,93745279	3,93793678	0,18943818534414003	4	0,10229224	0,00074599561
2	0	0	1	0	2010,5914	3,86443782	3,86487675	0,14197074220219008	4	0,103486992	0,000548699405
2	0	0	1	0	2017,8929	3,79142261	3,79188657	0,10807718279668043	4	0,104390338	0,000409816421
2	0	0	0	0	2025,1944	3,71840811	3,71899557	0,082368932290901786	4	0,105078578	0,00030632969
2	0	0	0	0	2032,4959	3,64539289	3,64579225	0,062099228354377754	4	0,105600059	0,00022640088
2	0	0	0	0	2039,8375	3,57197762	3,57238865	0,045740226140331686	4	0,105990931	0,00016340187
2	0	0	1	0	2047,1389	3,49896288	3,49956894	0,032286182865155501	4	0,106272146	0,00011298772
2	0	0	1	0	2054,4405	3,4259479	3,42639661	0,021904061322048586	4	0,106466681	7,50520048E-005
2	0	0	0	0	2061,7419	3,35293293	3,35339808	0,012904641901884534	4	0,10659039	4,32744018E-005
2	0	0	0	0	2069,0835	3,27951789	3,28015995	0,0040698545705742592	4	0,106649883	1,33497742E-005
2	0	0	1	0	2076,3849	3,20650244	3,2068634	-0,002602649151985703	4	0,106654167	8,34634011E-006
2	0	0	1	0	2083,6865	3,1334877	3,13380289	-0,0080889874694144576	4	0,106613897	2,53492926E-005
2	0	0	0	0	2091,0279	3,06007266	3,06058192	-0,01229145242272084	4	0,10653758	3,76189964E-005
2	0	0	0	0	2098,3295	2,98705769	2,98742795	-0,016516446608066864	4	0,10643059	4,93416956E-005
2	0	0	1	0	2105,6309	2,91404271	2,91458535	-0,020452803481560032	4	0,106293462	5,96114405E-005
2	0	0	1	0	2112,9325	2,8410275	2,84142208	-0,024877949635049856	4	0,106125504	7,06887586E-005
2	0	0	0	0	2120,2339	2,76801276	2,76845074	-0,031610950788793542	4	0,105919592	8,75133628E-005
2	0	0	0	0	2127,5355	2,69499779	2,69551468	-0,05210239541096007	4	0,105624467	0,000140442775
2	0	0	1	0	2134,8369	2,62198257	2,62232494	-0,09083961992938505	4	0,10510914	0,000238210996
2	0	0	1	0	2142,1785	2,54856753	2,54913092	-0,14353806977332773	4	0,104255617	0,000365897344
2	0	0	0	0	2149,4799	2,47555304	2,4761014	-0,21547968206168288	4	0,102958351	0,000533549523
2	0	0	0	0	2156,7815	2,40253758	2,40310717	-0,32338636503037363	4	0,101017654	0,000777132111
2	0	0	1	0	2164,0829	2,32952285	2,33001995	-0,51031673189114566	4	0,0980124921	0,00118904817
2	0	0	1	0	2171,3845	2,25650764	2,25698161	-0,67531256908895808	4	0,0936309919	0,00152416807
2	0	0	0	0	2178,6859	2,1834929	2,18381882	-0,77074010815057472	4	0,0883181766	0,0016831567
2	0	0	0	0	2185,9875	2,11047769	2,11078882	-0,82830909073904384	4	0,0824601576	0,00174838561
2	0	0	1	0	2193,2889	2,03746271	2,03789759	-0,85997220404722086	4	0,0762793273	0,00175253523
2	0	0	1	0	2200,5905	1,96444774	1,96483684	-0,86856933489993971	4	0,0699533746	0,00170659705
2	0	0	0	0	2207,8919	1,89143276	1,89206553	-0,85756697602294093	4	0,0636388958	0,00162257289
2	0	0	0	0	2215,1935	1,81841791	1,81891131	-0,83123921037272192	4	0,0574631244	0,0015119504
2	0	0	1	0	2222,4949	1,74540281	1,74586427	-0,79435389130203763	4	0,0515217111	0,00138683408
2	0	0	1	0	2229,7965	1,67238784	1,67294168	-0,75200197176524595	4	0,0458720401	0,00125805545
2	0	0	0	0	2237,0979	1,59937274	1,59990323	-0,70806517031181747	4	0,0405390263	0,00113283575
2	0	0	0	0	2244,3995	1,52635789	1,52670455	-0,66569409740191616	4	0,0355230048	0,00101631822
2	0	0	1	0	2251,7009	1,45334291	1,4539243	-0,62693721628575181	4	0,0308047254	0,000911519281
2	0	0	1	0	2259,0025	1,38032794	1,38084149	-0,59428618924209434	4	0,0263489503	0,000820615038
2	0	0	0	0	2266,3039	1,30731297	1,30777192	-0,57422970711357114	4	0,0220919866	0,000750961481
2	0	0	0	0	2273,6055	1,23429799	1,23484039	-0,58033264559452211	4	0,0179010443	0,000716618204
2	1	0	1	1	2280,7873	1,23759866	1,23812926	-0,44560690465624742	4	0,0139816906	0,000551718927
2	1	0	1	1	2288,0889	1,31061363	1,31118989	-0,32985973837612902	4	0,0112107527	0,000432508765
2	1	0	0	1	2295,3903	1,38362861	1,38406372	-0,27076869961564042	4	0,00903786998	0,000374761148
2	1	0	0	1	2302,6919	1,4566437	1,45722675	-0,23052544101934826	4	0,00721735414	0,000335927849
2	1	0	1	1	2309,9934	1,52965927	1,53019488	-0,19914341484080157	4	0,00565464469	0,000304728223
2	1	0	1	1	2317,2949	1,60267341	1,60312986	-0,17297892232804851	4	0,00430035405	0,00027730767
2	1	0	0	1	2324,5963	1,67568862	1,67613244	-0,1496775563875279	4	0,00312601542	0,000250879413
2	1	0	0	1	2331,8979	1,74870348	1,74917567	-0,12836642306367008	4	0,00211362354	0,000224535426
2	1	0	1	1	2339,1994	1,82171893	1,82227647	-0,10831082611015061	4	0,00125245994	0,000197372268
2	1	0	1	1	2346,5009	1,89473331	1,89533687	-0,089188356297435597	4	0,000534668972	0,000169041974
2	1	0	0	1	2353,8023	1,96774852	1,96840191	-0,070458413006875661	4	-4,53946159E-005	0,000138690477
2	1	0	0	1	2361,1039	2,04076338	2,04118657	-0,052530323681249216	4	-0,000492147868	0,000107224194
2	1	0	0	1	2368,4455	2,11417866	2,11465716	-0,034897648801708422	4	-0,000810913276	7,37965602E-005
2	1	0	1	1	2375,7469	2,18719363	2,18776608	-0,017450436352562381	4	-0,00100031309	3,81774735E-005
2	1	0	1	1	2383,0885	2,26060867	2,26118755	0,0016244610818480221	4	-0,00105884415	3,67321127E-006
2	1	0	0	1	2390,4299	2,33402371	2,33448386	0,025378289503148854	4	-0,000963386381	5,92452088E-005
2	1	0	0	1	2397,7315	2,40703893	2,40744662	0,063411927609531955	4	-0,00065007573	0,000152660825
2	1	0	1	0	2405,0483	2,47925353	2,47981739	0,13470943196228291	5	0,000163780365	0,000334054785
2	1	0	0	0	2412,3498	2,55226803	2,55263281	0,25295531298069786	5	0,00155430159	0,000645702006
2	1	0	0	0	2419,6513	2,62528348	2,62586308	0,39585208603077459	5	0,00392239029	0,00103945343
2	1	0	0	0	2426,9529	2,69829941	2,69870687	0,53218118437231078	5	0,00732306344	0,00143620104
2	1	0	1	0	2434,2543	2,77131343	2,77199769	0,65143197567926502	5	0,0116568357	0,00180576788
2	1	0	0	0	2441,5558	2,84432745	2,84479904	0,75446191073700314	5	0,0168015771	0,00214629248
2	1	0	0	0	2448,8573	2,91734314	2,91781187	0,83718298927501248	5	0,0226277914	0,00244274247
2	1	0	0	0	2456,1589	2,99035835	2,99090815	0,89828842878341914	5	0,0289802123	0,00268669822
2	1	0	1	0	2463,4603	3,06337309	3,0637908	0,93451348609394278	5	0,0356890187	0,00286315382
2	1	0	1	0	2470,7619	3,13638854	3,13698483	0,94608613086258227	5	0,0425731577	0,00296785776
2	1	0	0	0	2478,0633	3,20940328	3,21000099	0,93457576604905229	5	0,0494556203	0,00299998908
2	1	0	0	0	2485,3649	3,28241849	3,28290176	0,90227866738482957	5	0,0561758503	0,00296209217
2	1	0	1	0	2492,6663	3,35543323	3,35591745	0,85433902660453504	5	0,0625986829	0,00286709121
2	1	0	1	0	2499,9679	3,4284482	3,42898703	0,79499520278639309	5	0,068632111	0,00272602821
2	1	0	0	0	2507,2693	3,50146294	3,50189638	0,72556645188618778	5	0,0741870031	0,00254085846
2	1	0	0	0	2514,5709	3,57447791	3,57482338	0,6560663711279657	5	0,0792319477	0,00234532147
2	1	0	1	0	2521,8723	3,64749312	3,64800858	0,58882166003739123	5	0,0837786049	0,00214802637
2	1	0	1	0	2529,1739	3,7205081	3,72109151	0,52452545868302016	5	0,0878432691	0,00195180718
2	1	0	0	0	2536,4753	3,79352307	3,79388928	0,46460716543650093	5	0,0914535373	0,00176266814
2	1	0	0	0	2543,7769	3,86653805	3,86702585	0,41088668532945152	5	0,0946487933	0,00158890942
2	1	0	1	0	2551,0783	3,93955326	3,94004202	0,36533899877772134	5	0,09748099	0,00143945101
2	0	0	1	0	2558,2803	3,98846316	3,98908758	0,24693165774698621	5	0,0999101475	0,000985032064
2	0	0	0	0	2565,5817	3,91544843	3,91588855	0,17210708201552438	5	0,101391926	0,000673952163
2	0	0	0	0	2572,8833	3,84243298	3,84293509	0,13007254746777075	5	0,102482662	0,000499860384
2	0	0	1	0	2580,1847	3,76941824	3,76993203	0,099093642551451699	5	0,103311054	0,000373576302
2	0	0	1	0	2587,4863	3,69640326	3,69693851	0,075351825630706086	5	0,103941739	0,000278571068
2	0	0	0	0	2594,7877	3,62338829	3,62394857	0,056355978957273926	5	0,104417063	0,000204231168
2	0	0	0	0	2602,1293	3,54997349	3,55046988	0,040935169870930643	5	0,104770139	0,000145339087
2	0	0	1	0	2609,4307	3,47695827	3,47756052	0,028707538162254742	5	0,105020672	9,98321993E-005
2	0	0	1	0	2616,7323	3,40394306	3,4044466	0,019072361342195037	5	0,105191067	6,49308349E-005
2	0	0	0	0	2624,0338	3,33092713	3,33129168	0,010295322066343683	5	0,105294853	3,42967214E-005
2	0	0	0	0	2631,3753	3,25751352	3,25798273	0,0024722397836201178	5	0,105339482	8,05451418E-006
2	0	0	0	0	2638,6769	3,18449783	3,1848321	-0,0037694002515624333	5	0,105333723	1,20049071E-005
2	0	0	1	0	2645,9783	3,11148357	3,11184835	-0,0090925602643336384	5	0,105285689	2,82946694E-005
2	0	0	1	0	2653,3199	3,03806806	3,03847551	-0,013189847202786875	5	0,105203032	4,00770296E-005
2	0	0	0	0	2660,6213	2,96505332	2,96543741	-0,017159533292417318	5	0,105090059	5,08855228E-005
2	0	0	1	0	2667,9228	2,89203906	2,89251113	-0,021197273036390352	5	0,104947358	6,13133452E-005
2	0	0	1	0	2675,2243	2,81902313	2,81944084	-0,025973830216874592	5	0,104773045	7,32316767E-005
2	0	0	1	0	2682,5259	2,7460084	2,74648285	-0,03504131302340985	5	0,104553893	9,62403647E-005
2	0	0	0	0	2689,8273	2,67299342	2,67338181	-0,061269317408678797	5	0,104211919	0,000163796285
2	0	0	0	0	2697,1689	2,59957838	2,60006285	-0,10359528350333446	5	0,103612326	0,000269354234
2	0	0	1	0	2704,4703	2,52656317	2,52700686	-0,15988836020093267	5	0,10265778	0,00040403899
2	0	0	1	0	2711,7719	2,45354843	2,45405293	-0,2384543032557871	5	0,10121911	0,000585179485
2	0	0	0	0	2719,0733	2,38053322	2,38105917	-0,36469672099445741	5	0,0990610197	0,00086836447
2	0	0	0	0	2726,3749	2,30751848	2,30795383	-0,5594070508248272	5	0,0956827477	0,00129108562
2	0	0	1	0	2733,6763	2,23450303	2,23495102	-0,69828804941089293	5	0,0910421908	0,00156063959
2	0	0	1	0	2740,9779	2,16148853	2,16185951	-0,77912078038962035	5	0,0856215954	0,00168434961
2	0	0	0	0	2748,2793	2,08847332	2,08890557	-0,82845269171175501	5	0,0797323883	0,00173055939
2	0	0	0	0	2755,5809	2,01545835	2,01594734	-0,85392151883354739	5	0,073573187	0,00172146084
2	0	0	1	0	2762,8823	1,94244325	1,94311357	-0,85672011543755034	5	0,0673135519	0,00166470453
2	0	0	1	0	2770,1839	1,86942816	1,86996865	-0,84134962658087181	5	0,0611013174	0,00157329743
2	0	0	0	0	2777,4853	1,7964133	1,79700577	-0,81220706055562176	5	0,0550553091	0,0014595408
2	0	0	0	0	2784,7869	1,72339833	1,72398508	-0,77399951240254938	5	0,04925799	0,00133436359
2	0	0	1	0	2792,0883	1,65038323	1,6507777	-0,73160345472947341	5	0,0437576026	0,00120771467
2	0	0	1	0	2799,3899	1,57736826	1,57773483	-0,68840773665794688	5	0,0385708138	0,00108612492
2	0	0	0	0	2806,6913	1,5043534	1,50485682	-0,6481241523805577	5	0,0336906388	0,000975334027
2	0	0	0	0	2813,9929	1,43133831	1,43178272	-0,61160308308899354	5	0,0290926825	0,000875682745
2	0	0	1	0	2821,2943	1,35832334	1,35874438	-0,58235811145492992	5	0,0247376766	0,000791275816
2	0	0	1	0	2828,5959	1,28530848	1,28575051	-0,56806652144425306	5	0,0205471553	0,000730391825
2	0	0	0	0	2835,8973	1,21229339	1,2128011	-0,59100551682489754	5	0,0163539778	0,000716772163
2	1	0	0	1	2843,0793	1,25960314	1,26003063	-0,39688963829367194	5	0,0128231822	0,000500093098
2	1	0	1	1	2850,3807	1,33261812	1,33306897	-0,30645696073770477	5	0,0102972286	0,000408528256
2	1	0	1	1	2857,6823	1,40563297	1,40610301	-0,25519540512727357	5	0,0082622543	0,000358831021
2	1	0	0	1	2864,9837	1,47864807	1,47927487	-0,2185726738017464	5	0,00654144911	0,000323329063
2	1	0	0	1	2872,2853	1,55166304	1,55209053	-0,18910164558501206	5	0,00505964644	0,000293502875
2	1	0	1	1	2879,5867	1,6246779	1,62523592	-0,16395435013152947	5	0,00377503526	0,000266464485
2	1	0	1	1	2886,8883	1,69769311	1,69819415	-0,14158131213237754	5	0,00266272598	0,00024043255
2	1	0	0	1	2894,1897	1,77070796	1,77129042	-0,1209142467489952	5	0,00170753896	0,000214174244
2	1	0	0	1	2901,4913	1,84372306	1,84427094	-0,10132693692489902	5	0,000899476523	0,000186874327
2	1	0	1	1	2908,7927	1,91673791	1,91720688	-0,08236342896189952	5	0,00023162429	0,000157907736
2	1	0	1	1	2916,0943	1,98975313	1,99040091	-0,064201856618402163	5	-0,000301041349	0,00012778744
2	1	0	0	1	2923,4357	2,06316805	2,06367111	-0,046400769786150317	5	-0,000704438193	9,57559314E-005
2	1	0	0	1	2930,7373	2,13618279	2,13675356	-0,029131765037568038	5	-0,00097825483	6,22474035E-005
2	1	0	1	1	2938,0387	2,209198	2,20956969	-0,011706127958691318	5	-0,00112601335	2,58655054E-005
2	1	0	1	1	2945,3803	2,28261304	2,28327107	0,0081132016569392922	5	-0,00113997282	1,8524639E-005
2	1	0	0	1	2952,7217	2,35602832	2,35648751	0,034439128090593043	5	-0,000988669228	8,11553764E-005
2	1	0	0	1	2960,0233	2,42904305	2,42967725	0,080025003170939584	5	-0,000586432056	0,000194434935
2	1	0	1	0	2967,2481	2,500458	2,50097537	0,1624336837687425	6	0,000473309163	0,000406242645
2	1	0	1	0	2974,5497	2,57347298	2,57388043	0,29063698739089331	6	0,00210990431	0,000748064835
2	1	0	0	0	2981,8511	2,64648771	2,64691877	0,4332906098829383	6	0,00475751003	0,0011468851
2	1	0	0	0	2989,1527	2,71950293	2,71996164	0,56400589803578605	6	0,00841184612	0,00153407443
2	1	0	1	0	2996,4541	2,79251766	2,7929554	0,67817224638053914	6	0,0129592838	0,00189410488
2	1	0	1	0	3003,7557	2,86553311	2,8660605	0,77500890285052915	6	0,0182778407	0,0022212225
2	1	0	0	0	3011,0571	2,93854737	2,93895197	0,8511132606201719	6	0,024229439	0,0025013811
2	1	0	0	0	3018,3587	3,01156306	3,01192379	0,9044209680071616	6	0,0306556113	0,00272404705
2	1	0	1	0	3025,6601	3,0845778	3,08502913	0,93313105556148019	6	0,0373821631	0,00287873647
2	1	0	1	0	3032,9617	3,15759277	3,15809393	0,93754307415198387	6	0,0442286134	0,00296084909
2	1	0	0	0	3040,2631	3,23060751	3,23100758	0,91975163764975411	6	0,0510243028	0,00297172461
2	1	0	0	0	3047,5647	3,30362296	3,30414844	0,88212705017240051	6	0,0576161779	0,00291467877
2	1	0	1	0	3054,8661	3,3766377	3,37703133	0,82998842180327949	6	0,0638764575	0,00280289701
2	1	0	1	0	3062,1677	3,44965267	3,4501493	0,76578133905099661	6	0,0697114989	0,00264205993
2	1	0	0	0	3069,4691	3,52266765	3,52311659	0,69698844208485158	6	0,0750546008	0,00245557143
2	1	0	0	0	3076,7707	3,59568262	3,59606624	0,62936143287353907	6	0,0798983425	0,00226322538
2	1	0	1	0	3084,0721	3,66869783	3,66941166	0,56349081966888192	6	0,0842544138	0,00206767977
2	1	0	1	0	3091,3737	3,74171233	3,74213791	0,50123906301127629	6	0,0881420746	0,00187570567
2	1	0	0	0	3098,6751	3,81472778	3,81536818	0,44404685724940653	6	0,0915929079	0,00169420219
2	1	0	0	0	3105,9767	3,88774252	3,8882153	0,39364839772935232	6	0,0946492851	0,00153058977
2	1	0	1	0	3113,2781	3,96075797	3,96129751	0,35147334583517242	6	0,0973664895	0,00139229046
2	0	0	1	0	3120,4601	3,96745896	3,96803617	0,21541395952442234	6	0,0995016024	0,000854770362
2	0	0	0	0	3127,7616	3,89444447	3,89497113	0,15767274929060682	6	0,100840375	0,000614130811
2	0	0	0	0	3135,0631	3,82142878	3,82193255	0,11974301516871821	6	0,101842731	0,00045764973
2	0	0	1	0	3142,3646	3,74841475	3,74878311	0,091290837454679142	6	0,102605425	0,000342229556
2	0	0	1	0	3149,6661	3,67539907	3,67595792	0,069070442389972621	6	0,103184946	0,000253900042
2	0	0	1	0	3156,9677	3,60238361	3,60292363	0,051314345306546214	6	0,103619285	0,000184881661
2	0	0	0	0	3164,3091	3,52896929	3,529392	0,037003343122907763	6	0,103938796	0,000130599306
2	0	0	0	0	3171,6107	3,45595384	3,45654964	0,025642836104250611	6	0,104162946	8,86357375E-005
2	0	0	1	0	3178,9121	3,38293886	3,38339114	0,016370205383282182	6	0,104312442	5,53868085E-005
2	0	0	1	0	3186,2137	3,30992389	3,31033444	0,0082338367388324826	6	0,104399443	2,7256754E-005
2	0	0	0	0	3193,5551	3,23650885	3,23695803	0,0010731387015699422	6	0,104431853	3,47370496E-006
2	0	0	0	0	3200,8567	3,16349363	3,16411996	-0,0049931538486378963	6	0,104416862	1,5798938E-005
2	0	0	1	0	3208,1981	3,09007859	3,09063244	-0,0096700386213207718	6	0,104361124	2,98865343E-005
2	0	0	1	0	3215,4997	3,01706386	3,01758909	-0,013827249744079117	6	0,104272746	4,17249576E-005
2	0	0	0	0	3222,8011	2,94404864	2,94454622	-0,017923581980910374	6	0,104153886	5,2776817E-005
2	0	0	0	0	3230,1027	2,87103391	2,87149477	-0,022140499049176768	6	0,104005374	6,35763281E-005
2	0	0	1	0	3237,4041	2,79801893	2,79854512	-0,027284884756362022	6	0,103824176	7,6357981E-005
2	0	0	1	0	3244,7057	2,72500396	2,72557831	-0,039926354915628013	6	0,103585333	0,000108822409
2	0	0	0	0	3252,0071	2,65198874	2,65249085	-0,071036561521598259	6	0,103187755	0,00018842383
2	0	0	0	0	3259,3487	2,5785737	2,57894063	-0,11660311305550546	6	0,102504723	0,000300712505
2	0	0	1	0	3266,6501	2,50555897	2,50603127	-0,17696999660175683	6	0,101441935	0,000443492347
2	0	0	1	0	3273,9517	2,43254375	2,43295717	-0,26419914455187542	6	0,0998504609	0,00064278522
2	0	0	0	0	3281,2531	2,35952878	2,36011934	-0,41467835588587667	6	0,0974316821	0,000978690456
2	0	0	0	0	3288,5547	2,28651404	2,28694272	-0,59957915930835968	6	0,0936977938	0,00137120322
2	0	0	1	0	3295,8561	2,21349859	2,21393991	-0,71684786028884058	6	0,0888494551	0,00158705807
2	0	0	1	0	3303,1577	2,14048386	2,14081717	-0,78754945389098726	6	0,0833344907	0,00168599933
2	0	0	0	0	3310,4591	2,06746888	2,0679121	-0,82991423513049869	6	0,0774113014	0,00171618967
2	0	0	0	0	3317,7607	1,99445403	1,9950031	-0,84856833531349453	6	0,0712659433	0,00169289648
2	0	0	1	0	3325,0621	1,92143881	1,9220804	-0,84623905147115149	6	0,0650639236	0,00162653951
2	0	0	1	0	3332,3637	1,84842396	1,84901083	-0,82679113552526042	6	0,0589443594	0,00152874575
2	0	0	0	0	3339,6651	1,77540898	1,77586555	-0,79508575341766989	6	0,0530140698	0,00141196535
2	0	0	0	0	3346,9667	1,70239389	1,70294726	-0,75614848981301107	6	0,0473451093	0,00128768105
2	0	0	1	0	3354,2681	1,62937891	1,62983322	-0,71382702852564877	6	0,0419759788	0,00116341899
2	0	0	1	0	3361,5697	1,55636406	1,55678165	-0,67190797123368192	6	0,0369162485	0,00104601402
2	0	0	0	0	3368,8711	1,4833492	1,48380113	-0,63303310920794957	6	0,0321515091	0,00093929522
2	0	0	0	0	3376,1727	1,41033399	1,41075373	-0,59896827578820582	6	0,0276549924	0,000844996714
2	0	0	1	0	3383,4741	1,33731902	1,33795571	-0,57342326344439168	6	0,0233802963	0,000767214922
2	0	0	1	0	3390,7757	1,26430404	1,26489949	-0,56545556143478003	6	0,0192348622	0,000715244445
2	1	0	1	1	3397,9577	1,20759237	1,20809686	-0,53492118983909088	6	0,0150976172	0,000646236585
2	1	0	1	1	3405,2593	1,28060746	1,28111732	-0,36168972830529536	6	0,0119438171	0,000463366974
2	1	0	0	1	3412,5607	1,35362244	1,35408902	-0,28737762842879254	6	0,00960460491	0,00038913489
2	1	0	0	1	3419,8623	1,42663729	1,427163	-0,24188623887797213	6	0,00768425502	0,000345211098
2	1	0	1	1	3427,1637	1,4996525	1,50026834	-0,20775967177555632	6	0,00604996877	0,000311695272
2	1	0	1	1	3434,4653	1,57266724	1,57317758	-0,17998852137545174	6	0,00463956594	0,000283153902
2	1	0	0	1	3441,7667	1,64568222	1,64622915	-0,15600468421837798	6	0,00341693102	0,000256819447
2	1	0	0	1	3449,0683	1,71869731	1,71931648	-0,13432218229260173	6	0,00236030063	0,000230942343
2	1	0	1	1	3456,3697	1,79171228	1,79221678	-0,1140903377802004	6	0,00145652296	0,000204474622
2	1	0	1	1	3463,6713	1,86472738	1,865242	-0,094760246221321062	6	0,00069649244	0,000176750793
2	1	0	0	1	3470,9727	1,93774235	1,93848944	-0,076350159899987046	6	7,41908225E-005	0,000148003979
2	1	0	0	1	3478,2743	2,01075745	2,01123857	-0,058527809360788774	6	-0,000415270973	0,000117713389
2	1	0	1	1	3485,6157	2,08417249	2,08470893	-0,04094091183678439	6	-0,000777490728	8,53498859E-005
2	1	0	1	1	3492,9173	2,15718722	2,15768456	-0,023908951505156317	6	-0,0010122963	5,15879765E-005
2	1	0	0	1	3500,2187	2,23020244	2,23068309	-0,0062896920350828595	6	-0,00112120865	1,403031E-005
2	1	0	0	1	3507,6003	2,30401754	2,30441594	0,014583219539080845	6	-0,00109135779	3,36058038E-005
2	1	0	1	1	3514,9018	2,377033	2,37768555	0,04453364570878848	6	-0,000881949672	0,000105887004
2	1	0	1	1	3522,2033	2,45004749	2,45051479	0,098705428307531482	6	-0,00037898813	0,000241879112
2	1	0	1	0	3529,4521	2,52156234	2,52197742	0,19366229334156326	7	0,000840621651	0,000488411926
2	1	0	1	0	3536,7537	2,59457707	2,59506512	0,32902740676783981	7	0,00273820129	0,000853847538
2	1	0	0	0	3544,0551	2,66759205	2,66820121	0,4693650664692681	7	0,00566109689	0,00125236041
2	1	0	0	0	3551,3567	2,74060726	2,74114633	0,59460325477023974	7	0,00955830049	0,00162989448
2	1	0	1	0	3558,6581	2,813622	2,81419826	0,70344378861288525	7	0,0143097444	0,00197963021
2	1	0	1	0	3565,9597	2,88663697	2,88717842	0,79429421173753306	7	0,0197922885	0,00229326915
2	1	0	0	0	3573,2611	2,95965219	2,96005249	0,86357780463166195	7	0,025860142	0,00255623553
2	1	0	0	0	3580,5627	3,03266716	3,03319287	0,90934100747108813	7	0,0323494934	0,00275820657
2	1	0	1	0	3587,8641	3,1056819	3,10612464	0,93046566706012608	7	0,0390829556	0,00289014238
2	1	0	1	0	3595,1657	3,17869687	3,17919397	0,92774251958838502	7	0,0458830707	0,00294947345
2	1	0	0	0	3602,4671	3,25171161	3,25214338	0,90426680776808154	7	0,0525863729	0,0029408054
2	1	0	0	0	3609,7687	3,32472682	3,32513714	0,8619630614088649	7	0,0590475909	0,00286614546
2	1	0	1	0	3617,0701	3,39774156	3,39812207	0,80561271737571264	7	0,0651455075	0,00273757032
2	1	0	1	0	3624,3717	3,47075701	3,47126269	0,73953850036142118	7	0,0707924888	0,00256713247
2	1	0	0	0	3631,6731	3,54377198	3,54435492	0,67193866355551667	7	0,0759478062	0,00238158903
2	1	0	0	0	3638,9747	3,61678696	3,61729956	0,60558934509754176	7	0,0806136131	0,00219059805
2	1	0	1	0	3646,2761	3,68980169	3,69031167	0,54116152392493254	7	0,0848007426	0,00199705479
2	1	0	1	0	3653,5777	3,76281667	3,76326966	0,4808207374342057	7	0,0885313749	0,00180945813
2	1	0	0	0	3660,8792	3,83583236	3,83638906	0,42606691620852819	7	0,0918403789	0,00163455843
2	1	0	0	0	3668,1807	3,90884686	3,90945339	0,37821060826105101	7	0,0947742313	0,00147859671
2	1	0	1	0	3675,4821	3,98186183	3,98237157	0,33899026312347936	7	0,0973905101	0,00134998513
2	0	0	1	0	3682,6541	3,94645476	3,9469316	0,19430958377887331	7	0,0992149636	0,00076692662
2	0	0	1	0	3689,9557	3,87343931	3,8739953	0,14498336316534787	7	0,100437745	0,00056166487
2	0	0	0	0	3697,2571	3,80042458	3,8009038	0,1105486559336657	7	0,101361103	0,000420184806
2	0	0	0	0	3704,5587	3,7274096	3,72790956	0,084339514305746317	7	0,102064393	0,000314410077
2	0	0	1	0	3711,8601	3,65439463	3,65483141	0,06323529045201001	7	0,10259705	0,000231114333
2	0	0	1	0	3719,2017	3,58097959	3,5816462	0,046632805571856781	7	0,102995716	0,000167022212
2	0	0	0	0	3726,5031	3,50796461	3,50843883	0,033234934563989958	7	0,103282906	0,000116602736
2	0	0	0	0	3733,8047	3,4349494	3,4354403	0,02262941524343287	7	0,103483044	7,77420064E-005
2	0	0	1	0	3741,1061	3,3619349	3,3624332	0,014013503093910557	7	0,103613563	4,71194689E-005
2	0	0	1	0	3748,4077	3,28891945	3,28927469	0,0066071401934433011	7	0,103685245	2,17326997E-005
2	0	0	0	0	3755,7491	3,21550441	3,21604872	-0,00037982247374236102	7	0,103705853	1,22152755E-006
2	0	0	0	0	3763,0507	3,14248967	3,14285493	-0,0063131198457321152	7	0,10368064	1,98412199E-005
2	0	0	1	0	3770,3921	3,06907487	3,06963897	-0,010568614793656811	7	0,103616923	3,24418324E-005
2	0	0	1	0	3777,6937	2,99605966	2,99653816	-0,01483787281904375	7	0,103521466	4,44622528E-005
2	0	0	0	0	3784,9952	2,92304397	2,92334342	-0,018928732848396259	7	0,103395797	5,53351856E-005
2	0	0	0	0	3792,2967	2,85002947	2,85057688	-0,023036112122806874	7	0,103240803	6,56662087E-005
2	0	0	1	0	3799,5982	2,77701402	2,77750206	-0,029084780191533152	7	0,103050336	8,07830365E-005
2	0	0	1	0	3806,8997	2,70399976	2,70442009	-0,046751464178130144	7	0,10278219	0,000126435596
2	0	0	0	0	3814,2011	2,6309855	2,63143063	-0,081951385421525133	7	0,102318481	0,000215649387
2	0	0	0	0	3821,5427	2,5575695	2,55802298	-0,1308073563052824	7	0,10154327	0,000334608223
2	0	0	1	0	3828,8442	2,48455524	2,48511863	-0,19665189913303482	7	0,100358948	0,000488703314
2	0	0	1	0	3836,1457	2,41153955	2,41212392	-0,2947887233285984	7	0,0985884517	0,000711066939
2	0	0	0	0	3843,4472	2,3385253	2,33901024	-0,4676388622743337	7	0,095849894	0,00109381205
2	0	0	0	0	3850,7487	2,26550961	2,26613641	-0,6341397909930455	7	0,0917810351	0,00143704726
2	0	0	0	0	3858,0503	2,19249463	2,19288397	-0,73396269059520064	7	0,0867519826	0,00160949503
2	0	0	1	0	3865,3517	2,11947966	2,11991739	-0,79568441805464474	7	0,0811478645	0,00168678525
2	0	0	1	0	3872,6533	2,04646492	2,04715014	-0,83070313033682202	7	0,0751936734	0,00170057407
2	0	0	0	0	3879,9547	1,97344971	1,97399628	-0,8431346835913463	7	0,0690669119	0,00166434469
2	0	0	0	0	3887,2563	1,90043449	1,90092218	-0,83565548655611725	7	0,062924467	0,00158851605
2	0	0	1	0	3894,5577	1,82741964	1,82796407	-0,81258592368275546	7	0,0568968058	0,0014853779
2	0	0	1	0	3901,8593	1,75440466	1,75487661	-0,77891633390552077	7	0,0510789305	0,00136690203
2	0	0	0	0	3909,1607	1,68138981	1,68188286	-0,73906378710159616	7	0,0455327705	0,00124301866
2	0	0	0	0	3916,4623	1,6083746	1,60880423	-0,69706673892559757	7	0,0402871706	0,00112144393
2	0	0	1	0	3923,7637	1,53535974	1,53578377	-0,65657818124249818	7	0,0353446081	0,00100836216
2	0	0	1	0	3931,0653	1,46234488	1,46279871	-0,61947320305086784	7	0,0306861773	0,000906164583
2	0	0	0	0	3938,3667	1,38932967	1,38988066	-0,58773483115214016	7	0,026280934	0,000816881249
2	0	0	0	0	3945,6683	1,31631482	1,3169179	-0,56643456262018912	7	0,0220734868	0,000745947822
2	0	0	1	0	3952,9697	1,24329984	1,24382174	-0,56795232749923443	7	0,0179529656	0,000706431456
2	1	0	1	1	3960,1517	1,22859681	1,22923708	-0,46107353090688096	7	0,0139829526	0,000566768693
2	1	0	1	1	3967,4533	1,30161166	1,30222654	-0,33345976571931891	7	0,0111529892	0,000434240152
2	1	0	0	1	3974,7547	1,37462676	1,37510014	-0,27117030919287987	7	0,00896789506	0,000372886338
2	1	0	0	1	3982,0563	1,44764173	1,44809854	-0,2298944138887304	7	0,007149057	0,000332909753
2	1	0	1	1	3989,3577	1,5206567	1,52113688	-0,19796381073279613	7	0,00559381023	0,000301130058
2	1	0	1	1	3996,6593	1,59367156	1,59433103	-0,17164181621262387	7	0,00424922677	0,000273653859
2	1	0	0	1	4003,9607	1,66668665	1,66731608	-0,14852755996226176	7	0,00308446051	0,000247642398
2	1	0	0	1	4011,2623	1,73970163	1,74025643	-0,12735420336118986	7	0,00208027358	0,000221628972
2	1	0	1	1	4018,5637	1,81271672	1,81323242	-0,10749062633624806	7	0,00122521364	0,000194905486
2	1	0	1	1	4025,8653	1,88573158	1,88635993	-0,088832508393184013	7	0,000511127233	0,000167570091
2	1	0	0	1	4033,1667	1,95874679	1,95922923	-0,07062308267793705	7	-6,76307172E-005	0,000138366813
2	1	0	0	1	4040,4683	2,03176165	2,03239226	-0,052889158673308454	7	-0,000515613821	0,00010749152
2	1	0	1	1	4047,8098	2,10517693	2,10568929	-0,035707176480610835	7	-0,000838547479	7,5188218E-005
2	1	0	1	1	4055,1113	2,17819166	2,17878938	-0,018691511417273434	7	-0,00103506749	4,07248663E-005
2	1	0	0	1	4062,4528	2,25160623	2,2521565	-0,00028859370882237338	7	-0,00110517268	6,49958224E-007
2	1	0	0	1	4069,7943	2,32502198	2,32536912	0,021962548819525862	7	-0,00102940411	5,10710342E-005
2	1	0	0	1	4077,0959	2,3980372	2,39848781	0,056075720322557478	7	-0,000754316687	0,000134496935
2	1	0	1	1	4083,9271	2,46640182	2,46688032	0,11586372833698944	7	-0,000187527199	0,000285821938