File: Experimentelles/Ausgewaehlte_Daten/Gefuege/CV/150807_LTO_LLTO_Li_05_CV_C03.txt
EC-Lab ASCII FILE
Nb header lines : 59

Cyclic Voltammetry

Run on channel : 3 (SN 6987)
Grouped channel(s) : 3
User :
CE vs. WE compliance from -10 V to 10 V
Electrode connection : standard
Ewe ctrl range : min = 0,00 V, max = 5,00 V
Acquisition started on : 08.07.2015 14:47:55
Saved on :
	File : 150807_LTO_LLTO_Li_05_CV_C03.mpr
	Directory : C:\Gielisch\ASS\LTO_LLTO_Li\02\
	Host : 192.168.0.2
Device : VMP3 (SN 03240324)
Address : 192.168.0.1
EC-Lab for windows v10.33 (software)
Internet server v10.33 (firmware)
Command interpretor v10.32 (firmware)
Electrode material :
Initial state :
Electrolyte :
Comments :
Mass of active material : 0,001 mg
 at x = 0,000
Molecular weight of active material (at x = 0) : 0,001 g/mol
Atomic weight of intercalated ion : 0,001 g/mol
Acquisition started at : xo = 0,000
Number of e- transfered per intercalated ion : 1
for DX = 1, DQ = 26,801 mA.h
Battery capacity : 0,000 A.h
Electrode surface area : 0,001 cm²
Characteristic mass : 0,001 g
Ei (V)              0,000
vs.                 Eoc
dE/dt               20,000
dE/dt unit          mV/s
E1 (V)              4,000
vs.                 Ref
Step percent        50
N                   10
E range min (V)     0,000
E range max (V)     5,000
I Range             Auto
Bandwidth           5
E2 (V)              1,000
vs.                 Ref
nc cycles           0
Reverse Scan        1
Ef (V)              0,000
vs.                 Eoc

Number of loops : 2
Loop 0 from point number 0 to 6229
Loop 1 from point number 6230 to 12501

mode	ox/red	error	control changes	counter inc.	time/s	control/V	Ewe/V	<I>/mA	cycle number	(Q-Qo)/C	P/W
2	1	0	1	0	6657,7151	0,887458086	0,888116121	5,6868901765483315E-007	1	0	5,05061881E-010
2	1	0	0	0	6658,9426	0,912007928	0,9126454	1,6015193103778611E-007	1	-1,08182532E-010	1,4616193E-010
2	1	0	0	0	6660,1926	0,937007904	0,937562108	1,7488156832132064E-008	1	1,56206298E-011	1,63962333E-011
2	1	0	0	0	6661,4426	0,962007999	0,962714434	6,4178931749695168E-007	1	4,25529167E-010	6,17859819E-010
2	1	0	0	0	6662,6926	0,987007976	0,987657785	4,2690943185479866E-007	1	1,09796672E-009	4,21640417E-010
2	1	0	0	0	6663,9426	1,01200807	1,01264119	1,0214398918125062E-006	1	2,01469885E-009	1,03435216E-009
2	1	0	0	0	6665,1926	1,03700793	1,03778923	8,1746620707158029E-007	1	3,18177396E-009	8,48357606E-010
2	1	0	0	0	6666,4426	1,06200802	1,06281698	1,4111123436493341E-006	1	4,60278304E-009	1,49975421E-009
2	1	0	0	0	6667,6926	1,08700812	1,08761334	1,2150970760106915E-006	1	6,2301595E-009	1,32155575E-009
2	1	0	0	0	6668,9426	1,11200821	1,11256123	1,7436014367959827E-006	1	8,10472134E-009	1,93986338E-009
2	1	0	0	0	6670,1926	1,13700831	1,13770473	1,652815352429735E-006	1	1,02000897E-008	1,88041582E-009
2	1	0	0	0	6671,4426	1,16200829	1,16269255	2,0902387458336618E-006	1	1,2505093E-008	2,43030507E-009
2	1	0	0	0	6672,6926	1,18700826	1,18752909	1,9941469381643328E-006	1	1,50207793E-008	2,36810749E-009
2	1	0	0	0	6673,9426	1,21200836	1,21274364	2,374387055554736E-006	1	1,77439414E-008	2,87952284E-009
2	1	0	0	0	6675,1926	1,23700833	1,23786938	2,2650312978627206E-006	1	2,06730117E-008	2,80381296E-009
2	1	0	0	0	6676,4426	1,26200843	1,26259935	2,6827058215048922E-006	1	2,37886812E-008	3,38718253E-009
2	1	0	0	0	6677,6926	1,28700852	1,2878896	2,6685573941533709E-006	1	2,71256422E-008	3,43680728E-009
2	1	0	0	0	6678,9426	1,3120085	1,3127439	2,9303040055344781E-006	1	3,06599368E-008	3,84673893E-009
2	1	0	0	0	6680,1926	1,3370086	1,33758485	3,0299328117435526E-006	1	3,44065576E-008	4,05279232E-009
2	1	0	0	0	6681,4426	1,36200857	1,36285281	3,2324327538914906E-006	1	3,8328654E-008	4,40532988E-009
2	1	0	0	0	6682,6926	1,38700867	1,38792086	3,3568214818903802E-006	1	4,24436202E-008	4,65900252E-009
2	1	0	0	0	6683,9426	1,41200876	1,41275728	3,4785572976166605E-006	1	4,66966164E-008	4,91435692E-009
2	1	0	0	0	6685,1926	1,43700874	1,43778527	3,6356642875527149E-006	1	5,11078362E-008	5,22730437E-009
2	1	0	0	0	6686,4426	1,46200895	1,46281755	3,682236251286759E-006	1	5,56824347E-008	5,38643974E-009
2	1	0	0	0	6687,6926	1,48700893	1,4877919	3,8950529059889018E-006	1	6,0468885E-008	5,79502801E-009
2	1	0	0	0	6688,9426	1,51200879	1,51294887	3,8284368522127878E-006	1	6,53891163E-008	5,79222936E-009
2	1	0	0	0	6690,1926	1,53700888	1,53773642	4,2864934976002464E-006	1	7,04915308E-008	6,59149713E-009
2	1	0	0	0	6691,4426	1,56200898	1,5628221	4,0388955837413677E-006	1	7,57190861E-008	6,31207531E-009
2	1	0	0	0	6692,6926	1,58700895	1,58787203	4,6074872736207091E-006	1	8,10762231E-008	7,31610017E-009
2	1	0	0	0	6693,9426	1,61200893	1,61293101	4,3908385512842003E-006	1	8,6592344E-008	7,08211978E-009
2	1	0	0	0	6695,1926	1,63700902	1,63782537	4,8008495330922982E-006	1	9,22783414E-008	7,86295296E-009
2	1	0	0	0	6696,4426	1,66200912	1,66280437	4,576537375239943E-006	1	9,8107904E-008	7,60988605E-009
2	1	0	0	0	6697,6926	1,68700898	1,68784547	5,0782183501917696E-006	1	1,04127167E-007	8,57124771E-009
2	1	0	0	0	6698,9426	1,71200919	1,71274447	4,8704128006336358E-006	1	1,10308719E-007	8,34177261E-009
2	1	0	0	0	6700,1926	1,73700917	1,73765659	5,2936874557948032E-006	1	1,16631327E-007	9,19861076E-009
2	1	0	0	0	6701,4426	1,76200914	1,76267111	5,0460894361440013E-006	1	1,23112386E-007	8,89459617E-009
2	1	0	0	0	6702,6926	1,78700936	1,7877301	5,5026723210268838E-006	1	1,29734957E-007	9,83729276E-009
2	1	0	0	0	6703,9426	1,81200922	1,8128202	5,384179089076128E-006	1	1,36530289E-007	9,76054881E-009
2	1	0	0	0	6705,1926	1,83700919	1,83769214	5,7632401714508346E-006	1	1,4347161E-007	1,05910614E-008
2	1	0	0	0	6706,4426	1,86200941	1,86274219	5,6698011047939136E-006	1	1,50606411E-007	1,05613776E-008
2	1	0	0	0	6707,6926	1,88700938	1,88759673	6,005532665338057E-006	1	1,57879171E-007	1,13360237E-008
2	1	0	0	0	6708,9426	1,9120096	1,91278028	5,8045064408647642E-006	1	1,65312201E-007	1,11027454E-008
2	1	0	0	0	6710,1926	1,93700945	1,93788815	6,2357402604810035E-006	1	1,72852921E-007	1,20841674E-008
2	1	0	0	0	6711,4426	1,96200955	1,96270251	6,1862203529648627E-006	1	1,80589097E-007	1,21417099E-008
2	1	0	0	0	6712,6926	1,98700964	1,98776615	6,3607181854447757E-006	1	1,88441902E-007	1,26436204E-008
2	1	0	0	0	6713,9426	2,01200962	2,01276731	6,4193751941106099E-006	1	1,96459482E-007	1,29207089E-008
2	1	0	0	0	6715,1926	2,03700948	2,03763032	6,7338839531632896E-006	1	2,04632158E-007	1,37211664E-008
2	1	0	0	0	6716,4426	2,06200957	2,06274724	6,7191456299429888E-006	1	2,129661E-007	1,3859899E-008
2	1	0	0	0	6717,6926	2,08700967	2,08784604	6,8517875230664051E-006	1	2,21456489E-007	1,43054777E-008
2	1	0	0	0	6718,9426	2,11201	2,112638	6,9747027161518195E-006	1	2,30086798E-007	1,47350221E-008
2	1	0	0	0	6720,1926	2,13700962	2,13780403	7,0147896046271642E-006	1	2,38853261E-007	1,4996246E-008
2	1	0	0	0	6721,4426	2,16200972	2,16271591	7,2830215774249242E-006	1	2,47760028E-007	1,57511071E-008
2	1	0	0	0	6722,6926	2,18700981	2,18781948	7,151263775784608E-006	1	2,56787757E-007	1,5645675E-008
2	1	0	0	0	6723,9426	2,21200991	2,21283412	7,5282616131112742E-006	1	2,65980759E-007	1,66587935E-008
2	1	0	0	0	6725,1926	2,23700976	2,23769736	7,3850084426659712E-006	1	2,75316665E-007	1,65254139E-008
2	1	0	0	0	6726,4426	2,2620101	2,2627697	7,7693746671112051E-006	1	2,84817958E-007	1,75803052E-008
2	1	0	0	0	6727,6926	2,28701019	2,28780651	7,6211107924522048E-006	1	2,94445783E-007	1,74356263E-008
2	1	0	0	0	6728,9426	2,31201029	2,31276751	8,0269947015191923E-006	1	3,04255593E-007	1,85645721E-008
2	1	0	0	0	6730,1926	2,33701015	2,33770204	7,8704773098134362E-006	1	3,14201657E-007	1,83988309E-008
2	1	0	0	0	6731,4426	2,36201024	2,36276984	8,353883574559255E-006	1	3,2430998E-007	1,97383034E-008
2	1	0	0	0	6732,6926	2,38701034	2,38783765	8,1121807416669606E-006	1	3,34555835E-007	1,93705709E-008
2	1	0	0	0	6733,9426	2,41201043	2,41281199	8,6486433440734989E-006	1	3,44981686E-007	2,08675512E-008
2	1	0	0	0	6735,1926	2,43701029	2,43788433	8,3211653268925274E-006	1	3,55596796E-007	2,02860377E-008
2	1	0	0	0	6736,4426	2,46201015	2,46265435	8,8402376547947251E-006	1	3,66360723E-007	2,17704503E-008
2	1	0	0	0	6737,6926	2,48701048	2,48773551	8,5731852434660621E-006	1	3,77226826E-007	2,13278177E-008
2	1	0	0	0	6738,9426	2,51201057	2,51279426	9,0430319001252288E-006	1	3,88270877E-007	2,27232793E-008
2	1	0	0	0	6740,1926	2,53701043	2,53785324	8,761830869203808E-006	1	3,99474203E-007	2,22362413E-008
2	1	0	0	0	6741,4426	2,56201029	2,56262779	9,3318966344634637E-006	1	4,10843114E-007	2,39141773E-008
2	1	0	0	0	6742,6926	2,58701038	2,5878334	9,1102372752831885E-006	1	4,22352656E-007	2,3575776E-008
2	1	0	0	0	6743,9426	2,61201072	2,61274123	9,5164159858995942E-006	1	4,33998565E-007	2,48639331E-008
2	1	0	0	0	6745,1926	2,63701057	2,63783574	9,3224646764998374E-006	1	4,45818586E-007	2,45911309E-008
2	1	0	0	0	6746,4426	2,66201043	2,6628325	9,7758048864475648E-006	1	4,57799331E-007	2,60313318E-008
2	1	0	0	0	6747,6926	2,68701077	2,68778896	9,6219397707701773E-006	1	4,69890097E-007	2,5861743E-008
2	1	0	0	0	6748,9426	2,71201086	2,7127192	9,9877371766339149E-006	1	4,82140649E-007	2,70939271E-008
2	1	0	0	0	6750,1926	2,73701096	2,73785806	9,9016676223847424E-006	1	4,94556275E-007	2,71093601E-008
2	1	0	0	0	6751,4426	2,76201081	2,76281023	1,0204385223165392E-005	1	5,07141294E-007	2,81927797E-008
2	1	0	0	0	6752,6926	2,78701091	2,78770041	1,0184931636769326E-005	1	5,19896389E-007	2,83925381E-008
2	1	0	0	0	6753,9426	2,812011	2,81277227	1,0432824330598109E-005	1	5,32798595E-007	2,93451592E-008
2	1	0	0	0	6755,1926	2,83701086	2,83785796	1,042545567505232E-005	1	5,45893613E-007	2,95859621E-008
2	1	0	0	0	6756,4426	2,86201072	2,86290836	1,0686906947470235E-005	1	5,59141995E-007	3,05956362E-008
2	1	0	0	0	6757,6926	2,88701129	2,88793159	1,0830749918913674E-005	1	5,7260587E-007	3,12784643E-008
2	1	0	0	0	6758,9426	2,91201115	2,91279483	1,0966929400629539E-005	1	5,86256192E-007	3,19444169E-008
2	1	0	0	0	6760,1926	2,93701124	2,93776965	1,1139363748582198E-005	1	6,00091823E-007	3,27248841E-008
2	1	0	0	0	6761,4426	2,9620111	2,96262836	1,1227202044757952E-005	1	6,14082126E-007	3,3262026E-008
2	1	0	0	0	6762,6926	2,98701072	2,98785996	1,1494618714039219E-005	1	6,28312193E-007	3,43443105E-008
2	1	0	0	0	6763,9426	3,01201057	3,01276326	1,1508872439427883E-005	1	6,42707732E-007	3,46735085E-008
2	1	0	0	0	6765,1926	3,03700995	3,03783989	1,1915394344269406E-005	1	6,57338489E-007	3,61970613E-008
2	1	0	1	0	6766,4428	3,06201291	3,06273198	1,1840842959628637E-005	1	6,72153021E-007	3,62653267E-008
2	1	0	1	0	6767,6928	3,08701205	3,08785677	1,226955592292312E-005	1	6,87233069E-007	3,78866325E-008
2	1	0	1	0	6768,9428	3,11201143	3,11280417	1,220786778069981E-005	1	7,02485863E-007	3,8000703E-008
2	1	0	1	0	6770,1928	3,13701129	3,13782763	1,2552737236622592E-005	1	7,17966259E-007	3,93883255E-008
2	1	0	1	0	6771,4428	3,16201162	3,16286874	1,2436011778155085E-005	1	7,33596266E-007	3,93334716E-008
2	1	0	1	0	6772,6928	3,18701148	3,18798089	1,293857767408285E-005	1	7,49452397E-007	4,12479366E-008
2	1	0	1	0	6773,9428	3,21201134	3,21274161	1,2792376728148826E-005	1	7,65521179E-007	4,10986019E-008
2	1	0	1	0	6775,1928	3,23701167	3,23776507	1,3310564377712146E-005	1	7,81785502E-007	4,30964811E-008
2	1	0	1	0	6776,4428	3,26201129	3,26279759	1,3094505127945122E-005	1	7,9824224E-007	4,27247215E-008
2	1	0	1	0	6777,6928	3,28701186	3,28779888	1,3648653382208277E-005	1	8,14951363E-007	4,4874028E-008
2	1	0	1	0	6778,9428	3,31201148	3,31280875	1,3431121049978675E-005	1	8,31846251E-007	4,44947368E-008
2	1	0	1	0	6780,1928	3,33701181	3,33779669	1,3909515825229474E-005	1	8,48944069E-007	4,64271359E-008
2	1	0	1	0	6781,4428	3,36201167	3,36275339	1,3743271166630554E-005	1	8,66236405E-007	4,62152308E-008
2	1	0	1	0	6782,6928	3,38701177	3,38774085	1,4299482603308667E-005	1	8,83790335E-007	4,84429421E-008
2	1	0	1	0	6783,9428	3,41201186	3,41281796	1,4085487260183936E-005	1	9,01548674E-007	4,80712039E-008
2	1	0	1	0	6785,1928	3,4370122	3,43778801	1,4516131437226723E-005	1	9,1951398E-007	4,9903381E-008
2	1	0	1	0	6786,4428	3,46201158	3,46279311	1,4530574349936166E-005	1	9,37691993E-007	5,03163733E-008
2	1	0	1	0	6787,6928	3,48701191	3,48778129	1,4935869608557843E-005	1	9,56111762E-007	5,20930463E-008
2	1	0	1	0	6788,9428	3,512012	3,51276469	1,4835356106838506E-005	1	9,74779709E-007	5,21131156E-008
2	1	0	1	0	6790,1928	3,5370121	3,53784132	1,5281032982851712E-005	1	9,93687877E-007	5,40618714E-008
2	1	0	1	0	6791,4428	3,56201196	3,56300282	1,5299307268311194E-005	1	1,01284093E-006	5,45114744E-008
2	1	0	1	0	6792,6928	3,58701181	3,58793235	1,571668684197936E-005	1	1,03225284E-006	5,63904088E-008
2	1	0	1	0	6793,9428	3,61201215	3,61278701	1,5734962784319117E-005	1	1,05189179E-006	5,68470675E-008
2	1	0	1	0	6795,1928	3,63701224	3,63767242	1,6095159821816195E-005	1	1,07176163E-006	5,85489204E-008
2	1	0	1	0	6796,4428	3,6620121	3,66285157	1,603148969782825E-005	1	1,09185328E-006	5,87209676E-008
2	1	0	1	0	6797,6928	3,68701196	3,68795919	1,6390803858080765E-005	1	1,11216661E-006	6,04486132E-008
2	1	0	1	0	6798,9428	3,71201253	3,71275592	1,6471567924462013E-005	1	1,13271244E-006	6,1154914E-008
2	1	0	1	0	6800,1928	3,73701239	3,73778844	1,6750409153482227E-005	1	1,15347393E-006	6,26094874E-008
2	1	0	1	0	6801,4428	3,76201248	3,76289201	1,6915475226950426E-005	1	1,1745193E-006	6,36511075E-008
2	1	0	1	0	6802,6928	3,78701258	3,78781271	1,699240640896783E-005	1	1,19572564E-006	6,43640519E-008
2	1	0	1	0	6803,9428	3,81201243	3,81296515	1,730013692453951E-005	1	1,2171613E-006	6,59648194E-008
2	1	0	1	0	6805,1928	3,83701253	3,83782816	1,7303673852590406E-005	1	1,23878817E-006	6,64085249E-008
2	1	0	1	0	6806,4428	3,86201239	3,8628962	1,7663280788029718E-005	1	1,26067562E-006	6,82314223E-008
2	1	0	1	0	6807,6928	3,88701224	3,88793755	1,7752592618257382E-005	1	1,28278009E-006	6,90209703E-008
2	1	0	1	0	6808,9428	3,91201282	3,91306782	1,8036447432610576E-005	1	1,30512444E-006	7,05778405E-008
2	1	0	1	0	6810,1928	3,93701291	3,93782854	1,8052953390889859E-005	1	1,32769719E-006	7,10894383E-008
2	1	0	1	0	6811,4428	3,96201277	3,96277642	1,8476522503381888E-005	1	1,35053119E-006	7,3218331E-008
2	1	0	1	0	6812,6928	3,98701262	3,98786211	1,8397822882602886E-005	1	1,37357995E-006	7,33679784E-008
2	0	0	0	0	6813,8682	3,98941255	3,99039793	1,8130179971312474E-005	1	1,39536724E-006	7,234663E-008
2	0	0	0	0	6815,1182	3,96441269	3,96499205	1,7734908110637782E-005	1	1,41779526E-006	7,03187695E-008
2	0	0	0	0	6816,3682	3,93941283	3,94021749	1,6886882431461101E-005	1	1,43940883E-006	6,65379929E-008
2	0	0	0	0	6817,6182	3,91441298	3,91535854	1,653906677692825E-005	1	1,46027855E-006	6,4756378E-008
2	0	0	0	0	6818,8682	3,88941264	3,89036632	1,5791556178454742E-005	1	1,48043569E-006	6,14349389E-008
2	0	0	0	0	6820,1182	3,86441231	3,86536956	1,5451992821993018E-005	1	1,49992354E-006	5,9727661E-008
2	0	0	0	0	6821,3682	3,83941245	3,84027958	1,472953670987337E-005	1	1,51876122E-006	5,65655398E-008
2	0	0	0	0	6822,6182	3,81441283	3,81538081	1,4457178883310102E-005	1	1,53702024E-006	5,51596422E-008
2	0	0	0	0	6823,8682	3,78941274	3,7903173	1,3798391598306371E-005	1	1,55473901E-006	5,23002832E-008
2	0	0	0	0	6825,1182	3,76441216	3,76535654	1,358115330550321E-005	1	1,57187992E-006	5,1137885E-008
2	0	0	0	0	6826,3682	3,73941231	3,74035978	1,3043511451634803E-005	1	1,58847911E-006	4,87874274E-008
2	0	0	0	0	6827,6182	3,71441221	3,71531415	1,2713380884734883E-005	1	1,60455022E-006	4,72342023E-008
2	0	0	0	0	6828,8682	3,68941236	3,69035268	1,2225553810459933E-005	1	1,6201617E-006	4,51166038E-008
2	0	0	0	0	6830,1182	3,66441226	3,66539598	1,1936098998275008E-005	1	1,63530353E-006	4,37505285E-008
2	0	0	0	0	6831,3682	3,6394124	3,64025235	1,1557332757977014E-005	1	1,649973E-006	4,20716084E-008
2	0	0	0	0	6832,6182	3,61441255	3,61527419	1,1215116280204208E-005	1	1,66418579E-006	4,05457214E-008
2	0	0	0	0	6833,8682	3,58941197	3,59010339	1,0855510065834178E-005	1	1,67799055E-006	3,89724022E-008
2	0	0	0	0	6835,1182	3,56441212	3,56532049	1,0541885595111357E-005	1	1,69130772E-006	3,75852025E-008
2	0	0	0	0	6836,3682	3,53941202	3,54024386	1,0158697609473138E-005	1	1,70424346E-006	3,59642662E-008
2	0	0	0	0	6837,6182	3,5144124	3,5152247	9,8553899697941069E-006	1	1,7167448E-006	3,46439109E-008
2	0	0	0	0	6838,8682	3,48941183	3,49020576	9,6387413274593715E-006	1	1,72888429E-006	3,36411894E-008
2	0	0	0	0	6840,1182	3,46441174	3,46511102	9,196602190042089E-006	1	1,74062347E-006	3,18672484E-008
2	0	0	0	0	6841,3682	3,43941188	3,44005203	8,9466455895709158E-006	1	1,75199807E-006	3,07769277E-008
2	0	0	0	0	6842,6182	3,41441202	3,41520238	8,6825404610880294E-006	1	1,76296476E-006	2,96526323E-008
2	0	0	0	0	6843,8682	3,38941193	3,39012551	8,3933817441666726E-006	1	1,77361142E-006	2,84546182E-008
2	0	0	0	0	6845,1182	3,36441159	3,36524892	8,0883046151753766E-006	1	1,78385653E-006	2,72191585E-008
2	0	0	0	0	6846,3682	3,3394115	3,3401947	7,8103468528870106E-006	1	1,79380129E-006	2,60880793E-008
2	0	0	0	0	6847,6182	3,31441212	3,31512189	7,526492788024873E-006	1	1,80341056E-006	2,49512411E-008
2	0	0	0	0	6848,8682	3,28941178	3,29031658	7,3938511570127795E-006	1	1,81268172E-006	2,43281111E-008
2	0	0	0	0	6850,1182	3,26441121	3,26515532	6,94994265397024E-006	1	1,82161011E-006	2,26926424E-008
2	0	0	0	0	6851,3682	3,23941159	3,24024749	6,8777266814431846E-006	1	1,83027066E-006	2,2285537E-008
2	0	0	0	0	6852,6182	3,21441174	3,21523309	6,4821590155117197E-006	1	1,83856491E-006	2,0841652E-008
2	0	0	0	0	6853,8682	3,1894114	3,19018269	6,4408925587250086E-006	1	1,84660621E-006	2,0547624E-008
2	0	0	0	0	6855,1182	3,16441131	3,16525769	5,891165704531017E-006	1	1,85434817E-006	1,86470572E-008
2	0	0	0	0	6856,3682	3,13941121	3,14012265	5,990205073763488E-006	1	1,8617859E-006	1,88099794E-008
2	0	0	0	0	6857,6182	3,11441183	3,11538219	5,588680924916185E-006	1	1,86896216E-006	1,74108763E-008
2	0	0	1	0	6858,8683	3,08941031	3,09028101	5,5506601474963322E-006	1	1,87586704E-006	1,71531003E-008
2	0	0	0	0	6860,1182	3,06441283	3,06530476	5,0757635500345882E-006	1	1,88247805E-006	1,55587614E-008
2	0	0	0	0	6861,3683	3,03941178	3,04011393	5,1079747426952608E-006	1	1,88884871E-006	1,55288244E-008
2	0	0	1	0	6862,6184	3,01441026	3,01518536	4,618537253522231E-006	1	1,89492289E-006	1,39257459E-008
2	0	0	1	0	6863,8684	2,98941112	2,99022269	4,7312860287033984E-006	1	1,90076571E-006	1,41475986E-008
2	0	0	1	0	6865,1184	2,96441078	2,96519065	4,2001289136384992E-006	1	1,90633239E-006	1,24541826E-008
2	0	0	1	0	6866,3684	2,93941092	2,9401896	4,3386662524737978E-006	1	1,91165191E-006	1,27565016E-008
2	0	0	1	0	6867,6184	2,91441107	2,91513038	3,8579128927183283E-006	1	1,91674008E-006	1,12463194E-008
2	0	0	1	0	6868,8684	2,88941097	2,89003587	3,9265919587739597E-006	1	1,92161156E-006	1,13479919E-008
2	0	0	1	0	6870,1184	2,86441088	2,86518168	3,413415544226039E-006	1	1,92623338E-006	9,78005588E-009
2	0	0	1	0	6871,3684	2,83941102	2,84000659	3,6147363095313882E-006	1	1,93060987E-006	1,02658753E-008
2	0	0	1	0	6872,6184	2,81441116	2,81510353	3,0729678982749498E-006	1	1,93476876E-006	8,6507228E-009
2	0	0	1	0	6873,8684	2,78941107	2,79020047	3,3099547245614509E-006	1	1,93876213E-006	9,2354373E-009
2	0	0	1	0	6875,1184	2,76441097	2,76530576	2,7746708692445469E-006	1	1,9424931E-006	7,6728135E-009
2	0	0	1	0	6876,3684	2,73941088	2,74011803	2,9771708371352794E-006	1	1,94604445E-006	8,15779977E-009
2	0	0	1	0	6877,6184	2,71441102	2,71523237	2,3749766487191472E-006	1	1,94938389E-006	6,44861364E-009
2	0	0	1	0	6878,8684	2,68941069	2,69001818	2,7000965798609008E-006	1	1,95255166E-006	7,26330907E-009
2	0	0	1	0	6880,1184	2,66441059	2,66520357	2,1023240329627251E-006	1	1,95551092E-006	5,60312152E-009
2	0	0	1	0	6881,3684	2,6394105	2,640167	2,3410793317082221E-006	1	1,95828306E-006	6,18084028E-009
2	0	0	1	0	6882,6184	2,61441064	2,61514354	1,8072694737619978E-006	1	1,96087603E-006	4,72626915E-009
2	0	0	1	0	6883,8684	2,58941054	2,59018683	2,0186121776056592E-006	1	1,96326755E-006	5,2285829E-009
2	0	0	1	0	6885,1184	2,56441045	2,56526589	1,622455019977967E-006	1	1,96549058E-006	4,1620285E-009
2	0	0	1	0	6886,3684	2,53941035	2,54026031	1,7388852263408954E-006	1	1,9675208E-006	4,41722126E-009
2	0	0	1	0	6887,6184	2,5144105	2,51521444	1,2932083826233459E-006	1	1,96938981E-006	3,25269633E-009
2	0	0	1	0	6888,8684	2,48941064	2,49009752	1,3338852654951386E-006	1	1,97104305E-006	3,3215044E-009
2	0	0	1	0	6890,1184	2,46441031	2,46514106	1,0438416304987886E-006	1	1,97250324E-006	2,57321675E-009
2	0	0	1	0	6891,3684	2,43941021	2,44008207	1,034998832509057E-006	1	1,97381564E-006	2,52548205E-009
2	0	0	1	0	6892,6184	2,41441059	2,41516972	7,8474779322916173E-007	1	1,97496797E-006	1,89529903E-009
2	0	0	1	0	6893,8684	2,3894105	2,3902576	7,446605162950048E-007	1	1,97592726E-006	1,77993043E-009
2	0	0	1	0	6895,1184	2,3644104	2,36512733	6,6654918582746176E-007	1	1,97675217E-006	1,57647373E-009
2	0	0	1	0	6896,3684	2,33941007	2,34016204	4,0273915961845498E-007	1	1,97740314E-006	9,42474876E-010
2	0	0	1	0	6897,6184	2,31441021	2,31507182	3,9094882628329178E-007	1	1,97792133E-006	9,05074626E-010
2	0	0	1	0	6898,8684	2,28941011	2,29014611	1,2360172147719122E-007	1	1,97823715E-006	2,83066015E-010
2	0	0	1	0	6900,1184	2,26441002	2,26516747	1,2360169039505909E-007	1	1,97840859E-006	2,7997854E-010
2	0	0	1	0	6901,3684	2,23941016	2,24015284	-7,0645001597562778E-008	1	1,97845634E-006	1,58255603E-010
2	0	0	1	0	6902,6184	2,21441007	2,21512508	-3,438950739402585E-008	1	1,97838153E-006	7,61770577E-011
2	0	0	1	0	6903,8684	2,18940997	2,19031096	-2,8994631348130739E-007	1	1,97814188E-006	6,35072606E-010
2	0	0	1	0	6905,1184	2,16440964	2,16512728	-2,2244630153105197E-007	1	1,97778195E-006	4,81624574E-010
2	0	0	1	0	6906,3684	2,13940978	2,14021063	-5,6083054685070682E-007	1	1,97727582E-006	1,20029553E-009
2	0	0	1	0	6907,6184	2,11440992	2,11500931	-4,334942445704704E-007	1	1,9766353E-006	9,16844378E-010
2	0	0	1	0	6908,8684	2,08940983	2,09007931	-8,9273001604892416E-007	1	1,97584404E-006	1,86587656E-009
2	0	0	1	0	6910,1184	2,06440949	2,0653007	-5,4137631923502982E-007	1	1,97492636E-006	1,11810494E-009
2	0	0	1	0	6911,3684	2,03940964	2,04018831	-1,0566165108786656E-006	1	1,97384429E-006	2,15569673E-009
2	0	0	1	0	6912,6184	2,01440978	2,01520944	-7,718784887634496E-007	1	1,97267968E-006	1,55549684E-009
2	0	0	1	0	6913,8684	1,98940957	1,98998141	-1,3298587939706232E-006	1	1,97133818E-006	2,64639421E-009
2	0	0	1	0	6915,1184	1,96440947	1,96515357	-1,0486579361041533E-006	1	1,96988844E-006	2,060774E-009
2	0	0	1	0	6916,3684	1,93940949	1,94009924	-1,5518129277013299E-006	1	1,96829706E-006	3,01067105E-009
2	0	0	1	0	6917,6184	1,91440952	1,91510236	-1,2664854820123896E-006	1	1,96656038E-006	2,4254494E-009
2	0	0	1	0	6918,8684	1,88940954	1,89017677	-1,702140456879175E-006	1	1,96470251E-006	3,21734639E-009
2	0	0	1	0	6920,1184	1,86440933	1,86516678	-1,4288981947334339E-006	1	1,96272867E-006	2,66513345E-009
2	0	0	1	0	6921,3684	1,83940935	1,84014809	-1,9364746906085402E-006	1	1,9606091E-006	3,56340024E-009
2	0	0	1	0	6922,6184	1,81440926	1,8151691	-1,6431885786606464E-006	1	1,95838493E-006	2,98266523E-009
2	0	0	1	0	6923,8684	1,78940928	1,79012334	-2,0493675677374202E-006	1	1,95603411E-006	3,66862074E-009
2	0	0	1	0	6925,1184	1,7644093	1,76512241	-1,9052299286949933E-006	1	1,95356779E-006	3,36296413E-009
2	0	0	1	0	6926,3684	1,73940909	1,74018776	-2,2542255862121472E-006	1	1,95095504E-006	3,92277588E-009
2	0	0	1	0	6927,6184	1,71440923	1,715271	-2,1525335718062E-006	1	1,94821314E-006	3,69217834E-009
2	0	0	1	0	6928,8684	1,68940902	1,69010532	-2,3906994105852669E-006	1	1,94537051E-006	4,04053369E-009
2	0	0	1	0	6930,1184	1,66440904	1,66522896	-2,2978501139389827E-006	1	1,94242034E-006	3,82644672E-009
2	0	0	1	0	6931,3684	1,63940907	1,64020097	-2,551932986606512E-006	1	1,93936239E-006	4,18568291E-009
2	0	0	1	0	6932,6184	1,61440909	1,61517763	-2,595852320558049E-006	1	1,93614346E-006	4,19276258E-009
2	0	0	1	0	6933,8684	1,58940899	1,59021199	-2,6550989081076163E-006	1	1,93284973E-006	4,22217017E-009
2	0	0	1	0	6935,1184	1,5644089	1,56513536	-2,761507271183185E-006	1	1,92941116E-006	4,32213287E-009
2	0	0	1	0	6936,3684	1,5394088	1,54028559	-2,8540617943398784E-006	1	1,92588232E-006	4,39607017E-009
2	0	0	1	0	6937,6184	1,51440883	1,51519084	-3,0435925364344333E-006	1	1,92220182E-006	4,61162353E-009
2	0	0	1	0	6938,8684	1,48940885	1,49022973	-3,0586250773933664E-006	1	1,91839899E-006	4,55805393E-009
2	0	0	1	0	6940,1184	1,46440876	1,46509504	-3,2690837003544461E-006	1	1,91447998E-006	4,78951812E-009
2	0	0	1	0	6941,3684	1,43940878	1,44005406	-3,1623805478801965E-006	1	1,91045274E-006	4,55399896E-009
2	0	0	1	0	6942,6184	1,41440868	1,41517758	-3,5541162730552102E-006	1	1,90626281E-006	5,02970554E-009
2	0	0	1	0	6943,8684	1,38940859	1,39013171	-3,4376861039115059E-006	1	1,90196067E-006	4,77883644E-009
2	0	0	1	0	6945,1184	1,36440861	1,36522412	-3,6646512018865741E-006	1	1,89752859E-006	5,0030704E-009
2	0	0	1	0	6946,3684	1,33940864	1,34017396	-3,5093128920335814E-006	1	1,89303216E-006	4,70308992E-009
2	0	0	1	0	6947,6184	1,31440854	1,31507504	-3,9078281292056499E-006	1	1,88837168E-006	5,13908738E-009
2	0	0	1	0	6948,8684	1,28940845	1,29019392	-3,7563216826731162E-006	1	1,88358661E-006	4,84638329E-009
2	0	0	1	0	6950,1184	1,26440847	1,2650727	-4,0634613172216954E-006	1	1,8786709E-006	5,14057419E-009
2	0	0	1	0	6951,3684	1,23940837	1,24010265	-3,8135048578064243E-006	1	1,87366811E-006	4,72913753E-009
2	0	0	1	0	6952,6184	1,21440828	1,215186	-4,3222604351929805E-006	1	1,86852651E-006	5,25235055E-009
2	0	0	1	0	6953,8684	1,18940842	1,19009602	-4,103843514100295E-006	1	1,86327054E-006	4,8839679E-009
2	0	0	1	0	6955,1184	1,16440821	1,16507244	-4,5353718886813318E-006	1	1,85788872E-006	5,28403676E-009
2	0	0	1	0	6956,3684	1,13940823	1,14010692	-4,2376642455182022E-006	1	1,852428E-006	4,8313904E-009
2	0	0	1	0	6957,6184	1,11440814	1,11505246	-4,7145857954083654E-006	1	1,84682676E-006	5,25701038E-009
2	0	0	1	0	6958,8684	1,08940816	1,09004688	-4,4322060806697216E-006	1	1,84112014E-006	4,83131224E-009
2	0	0	1	0	6960,1184	1,06440818	1,06505024	-4,8672715533055373E-006	1	1,83526129E-006	5,18388887E-009
2	0	0	1	0	6961,3684	1,03940809	1,04017806	-4,6535705522459155E-006	1	1,82930319E-006	4,84054219E-009
2	0	0	1	0	6962,6184	1,01440799	1,01521683	-5,099836868722649E-006	1	1,82320582E-006	5,17744025E-009
2	0	0	1	1	6963,8188	0,990408003	0,991207778	-5,0977737936785146E-006	1	1,81723942E-006	5,05295317E-009
2	0	0	1	1	6965,0688	0,965408087	0,96611774	-4,9170856939368851E-006	1	1,81090934E-006	4,75048356E-009
2	0	0	1	1	6966,3188	0,940407932	0,941054225	-5,3645312734547469E-006	1	1,80443033E-006	5,04831466E-009
2	0	0	1	1	6967,5688	0,915407896	0,916106522	-5,2383742596643968E-006	1	1,79783262E-006	4,79890883E-009
2	0	0	1	1	6968,8188	0,890408695	0,891222715	-5,5261394304661126E-006	1	1,79110134E-006	4,92502084E-009
2	1	0	1	0	9262,9973	0,886107802	0,88663888	-2,3747902084320858E-007	2	-3,97625488E-010	2,10558126E-010
2	1	0	1	0	9264,2473	0,911107898	0,911813557	-2,109506858844137E-007	2	-6,6976158E-010	1,92347693E-010
2	1	0	1	0	9265,4973	0,936107874	0,936890423	2,444531912202153E-007	2	-6,29758357E-010	2,29025854E-010
2	1	0	1	0	9266,7473	0,961108029	0,961824775	2,3354711514505661E-007	2	-2,91915769E-010	2,24631397E-010
2	1	0	1	0	9267,9973	0,986107945	0,986857057	6,6861254111450304E-007	2	2,9682376E-010	6,59825028E-010
2	1	0	1	0	9269,2473	1,01110804	1,01177812	7,3552297979800461E-007	2	1,18565657E-009	7,44186046E-010
2	1	0	1	0	9270,4973	1,03610802	1,03678823	1,0529791811285082E-006	2	2,28389374E-009	1,09171638E-009
2	1	0	1	0	9271,7473	1,06110811	1,06183827	1,1110468103520365E-006	2	3,63408459E-009	1,17975207E-009
2	1	0	1	0	9272,9973	1,08610809	1,08682609	1,4998350603988848E-006	2	5,21434673E-009	1,63005986E-009
2	1	0	1	0	9274,2473	1,11110818	1,11188066	1,4800861176070803E-006	2	7,0648225E-009	1,64567915E-009
2	1	0	1	0	9275,4973	1,13610828	1,136904	1,8075641829655414E-006	2	9,07574815E-009	2,05502704E-009
2	1	0	1	0	9276,7473	1,16110826	1,16189182	1,8084485119253875E-006	2	1,13237872E-008	2,10122142E-009
2	1	0	1	0	9277,9973	1,18610823	1,18690181	2,099965816455879E-006	2	1,37557183E-008	2,49245313E-009
2	1	0	1	0	9279,2473	1,21110845	1,21173847	2,1397584373003843E-006	2	1,64032041E-008	2,59282751E-009
2	1	0	1	0	9280,4973	1,2361083	1,23677516	2,3278152740165165E-006	2	1,92150491E-008	2,87898416E-009
2	1	0	1	0	9281,7473	1,2611084	1,26184297	2,4433608684298957E-006	2	2,22397372E-008	3,08313775E-009
2	1	0	1	0	9282,9973	1,28610849	1,286991	2,6296491597166003E-006	2	2,54338275E-008	3,38433481E-009
2	1	0	1	0	9284,2473	1,31110847	1,31190765	2,6830006489759779E-006	2	2,88342452E-008	3,51984908E-009
2	1	0	1	0	9285,4973	1,33610857	1,33679748	3,0034045975297536E-006	2	3,23940945E-008	4,01494349E-009
2	1	0	1	0	9286,7473	1,36110854	1,3618654	3,0234481194994758E-006	2	3,61325867E-008	4,11752943E-009
2	1	0	1	0	9287,9973	1,38610864	1,38685775	3,2353804350482694E-006	2	4,00115994E-008	4,48701254E-009
2	1	0	1	0	9289,2473	1,41110873	1,41192555	3,1876294254615078E-006	2	4,40752856E-008	4,50069537E-009
2	1	0	1	0	9290,4973	1,43610871	1,43687332	3,5165813515797619E-006	2	4,82784941E-008	5,05288211E-009
2	1	0	1	0	9291,7473	1,46110892	1,46178102	3,4685352435493734E-006	2	5,26455999E-008	5,0702389E-009
2	1	0	1	0	9292,9973	1,4861089	1,4867599	3,8101620831896698E-006	2	5,71751997E-008	5,66479619E-009
2	1	0	1	0	9294,2473	1,51110876	1,51188982	3,7193759878404198E-006	2	6,18927203E-008	5,62328673E-009
2	1	0	1	0	9295,4973	1,53610885	1,53688228	3,9716901593717805E-006	2	6,67030875E-008	6,1040204E-009
2	1	0	1	0	9296,7473	1,56110895	1,56180334	4,0147252266675232E-006	2	7,16867774E-008	6,27021146E-009
2	1	0	1	0	9297,9973	1,58610892	1,58681774	4,2384480609998579E-006	2	7,6815418E-008	6,72564449E-009
2	1	0	1	0	9299,2473	1,6111089	1,61197448	4,290030968032041E-006	2	8,21152426E-008	6,91542024E-009
2	1	0	1	0	9300,4973	1,63610899	1,63692689	4,4347578609547155E-006	2	8,75527135E-008	7,25937443E-009
2	1	0	1	0	9301,7473	1,66110909	1,66187024	4,3887754265020474E-006	2	9,31234752E-008	7,29357508E-009
2	1	0	1	0	9302,9973	1,68610919	1,68685794	4,7018102904417062E-006	2	9,88124924E-008	7,93128585E-009
2	1	0	1	0	9304,2473	1,71110916	1,71176112	4,7336444316249222E-006	2	1,04669361E-007	8,1028686E-009
2	1	0	1	0	9305,4973	1,73610914	1,73698032	4,8595066059702022E-006	2	1,10648024E-007	8,44086756E-009
2	1	0	1	0	9306,7473	1,76110911	1,76177263	4,890161623852352E-006	2	1,16791021E-007	8,61535288E-009
2	1	0	1	0	9307,9973	1,78610933	1,78677356	5,0970830335051699E-006	2	1,23069114E-007	9,10733355E-009
2	1	0	1	0	9309,2473	1,8111093	1,81180584	5,2197032903012256E-006	2	1,29547189E-007	9,45708933E-009
2	1	0	1	0	9310,4973	1,83610916	1,83698058	5,4089387849334912E-006	2	1,36157055E-007	9,93611593E-009
2	1	0	1	0	9311,7473	1,86110938	1,86182606	5,3924324819094752E-006	2	1,42942909E-007	1,00397717E-008
2	1	0	1	0	9312,9973	1,88610935	1,88677824	5,5846155688683322E-006	2	1,4982966E-007	1,05369313E-008
2	1	0	1	0	9314,2473	1,91110957	1,9118104	5,635903619349847E-006	2	1,56892582E-007	1,07747793E-008
2	1	0	1	0	9315,4973	1,93610942	1,93695843	5,7334693897919891E-006	2	1,64080802E-007	1,11054916E-008
2	1	0	1	0	9316,7473	1,96110952	1,96178591	5,9227052118002266E-006	2	1,71417014E-007	1,16190799E-008
2	1	0	1	0	9317,9973	1,98610973	1,98695636	6,0182071971818381E-006	2	1,78860162E-007	1,19579147E-008
2	1	0	1	0	9319,2473	2,01110959	2,01173925	6,193884230069847E-006	2	1,86476271E-007	1,24604798E-008
2	1	0	1	0	9320,4973	2,03610945	2,03690958	6,2304345457657165E-006	2	1,94205725E-007	1,26908315E-008
2	1	0	1	0	9321,7473	2,06110954	2,06192422	6,4217335354517798E-006	2	2,02105468E-007	1,32411282E-008
2	1	0	1	0	9322,9973	2,08610964	2,0870142	6,3315368731975142E-006	2	2,10077559E-007	1,32140077E-008
2	1	0	1	0	9324,2473	2,11110997	2,11176634	6,6911441007488653E-006	2	2,18208214E-007	1,41301326E-008
2	1	0	1	0	9325,4973	2,13610983	2,1369276	6,5396372795695142E-006	2	2,2649202E-007	1,39747316E-008
2	1	0	1	0	9326,7473	2,16110969	2,1618619	6,9039604934712422E-006	2	2,34949951E-007	1,49254085E-008
2	1	0	1	0	9327,9973	2,18611002	2,18688536	6,7480327206542131E-006	2	2,43516524E-007	1,47571741E-008
2	1	0	1	0	9329,2473	2,21110988	2,21185541	7,1662965084400128E-006	2	2,52211578E-007	1,58508122E-008
2	1	0	1	0	9330,4973	2,23610973	2,23690987	6,9281307009692928E-006	2	2,61017647E-007	1,54976032E-008
2	1	0	1	0	9331,7473	2,26111007	2,26195097	7,4077046003106253E-006	2	2,70006126E-007	1,67558643E-008
2	1	0	1	0	9332,9973	2,28611016	2,28679204	7,2261329964678438E-006	2	2,79142398E-007	1,65246625E-008
2	1	0	1	0	9334,2473	2,31111026	2,31186008	7,7496259070517978E-006	2	2,88438372E-007	1,79160509E-008
2	1	0	1	0	9335,4973	2,33611012	2,33687449	7,3788180811915302E-006	2	2,97859202E-007	1,72433712E-008
2	1	0	1	0	9336,7473	2,36111021	2,36180925	7,902900758562336E-006	2	3,07422425E-007	1,86651441E-008
2	1	0	1	0	9337,9973	2,38611031	2,38688135	7,6617873787654656E-006	2	3,17143702E-007	1,82877766E-008
2	1	0	1	0	9339,2473	2,4111104	2,41204262	8,1071693384897254E-006	2	3,27008195E-007	1,95548377E-008
2	1	0	1	0	9340,4973	2,43611026	2,43699479	7,8875736891051226E-006	2	3,37004678E-007	1,92219751E-008
2	1	0	1	0	9341,7473	2,46111012	2,46189809	8,3126166703937434E-006	2	3,47152223E-007	2,04648156E-008
2	1	0	1	0	9342,9973	2,48611045	2,48682356	8,1286869578468224E-006	2	3,57440484E-007	2,02146104E-008
2	1	0	1	0	9344,2473	2,51111078	2,51186919	8,5375185929276774E-006	2	3,67853687E-007	2,14451301E-008
2	1	0	1	0	9345,4973	2,5361104	2,53692365	8,3774638805304218E-006	2	3,78427501E-007	2,12529869E-008
2	1	0	1	0	9346,7473	2,56111026	2,56174231	8,7512197650439027E-006	2	3,89149903E-007	2,24183694E-008
2	1	0	1	0	9347,9973	2,58611059	2,58686829	8,712606383251456E-006	2	4,00026835E-007	2,25383658E-008
2	1	0	1	0	9349,2473	2,61111069	2,61179376	8,9372127210599091E-006	2	4,11023251E-007	2,33421567E-008
2	1	0	1	0	9350,4973	2,63611054	2,63688803	8,9012528763777062E-006	2	4,22182694E-007	2,34716069E-008
2	1	0	1	0	9351,7473	2,6611104	2,66188526	9,1302810205804659E-006	2	4,33450708E-007	2,43037608E-008
2	1	0	1	0	9352,9973	2,68611073	2,68685508	9,2054449922856051E-006	2	4,44888315E-007	2,4733696E-008
2	1	0	1	0	9354,2473	2,71111083	2,71199846	9,3339597179288934E-006	2	4,56457911E-007	2,53136836E-008
2	1	0	1	0	9355,4973	2,73611093	2,73675036	9,4695494691744525E-006	2	4,68201875E-007	2,59157922E-008
2	1	0	1	0	9356,7473	2,76111078	2,76186728	9,5803787871773312E-006	2	4,80073595E-007	2,6459734E-008
2	1	0	1	0	9357,9973	2,78611088	2,78685498	9,7634246729841434E-006	2	4,92132244E-007	2,72092482E-008
2	1	0	1	0	9359,2473	2,81111097	2,81182933	9,7162630304915661E-006	2	5,04329876E-007	2,7320473E-008
2	1	0	1	0	9360,4973	2,83611083	2,83682156	1,0058184663556094E-005	2	5,16722309E-007	2,85332753E-008
2	1	0	1	0	9361,7473	2,86111069	2,8619206	1,0023697816071347E-005	2	5,29247757E-007	2,86870279E-008
2	1	0	1	0	9362,9973	2,88611126	2,88703775	1,0365323978097278E-005	2	5,41959764E-007	2,99250829E-008
2	1	0	1	0	9364,2473	2,91111135	2,91170049	1,0184047606866512E-005	2	5,54818826E-007	2,9652897E-008
2	1	0	1	0	9365,4973	2,93611121	2,93677711	1,0701056012336538E-005	2	5,67902646E-007	3,1426616E-008
2	1	0	1	0	9366,7473	2,96111035	2,96184134	1,0511697657118011E-005	2	5,81137215E-007	3,1133979E-008
2	1	0	0	0	9367,9974	2,98611259	2,98676014	1,0993538736399723E-005	2	5,94562323E-007	3,28350644E-008
2	1	0	1	0	9369,2473	3,01110935	3,01194334	1,0764002049920314E-005	2	6,081724E-007	3,24205658E-008
2	1	0	1	0	9370,4974	3,03611064	3,03680801	1,1266977830065722E-005	2	6,22003995E-007	3,4215649E-008
2	1	0	0	0	9371,7475	3,06111217	3,06197572	1,1036123112207678E-005	2	6,35976846E-007	3,37923396E-008
2	1	0	0	0	9372,9975	3,08611131	3,08689547	1,1568239281595374E-005	2	6,50153936E-007	3,57099452E-008
2	1	0	0	0	9374,2475	3,1111114	3,11201262	1,1337442155460509E-005	2	6,64523441E-007	3,52822624E-008
2	1	0	0	0	9375,4975	3,13611126	3,13680005	1,1919003224260506E-005	2	6,7908627E-007	3,73875295E-008
2	1	0	0	0	9376,7475	3,16111159	3,16193008	1,1713260952909104E-005	2	6,93850495E-007	3,70365107E-008
2	1	0	0	0	9377,9975	3,18611145	3,18699312	1,2199320166330414E-005	2	7,0880759E-007	3,88791506E-008
2	1	0	0	0	9379,2475	3,21111131	3,21179008	1,203130749319011E-005	2	7,23921687E-007	3,86420353E-008
2	1	0	0	0	9380,4975	3,23611164	3,23703122	1,2465488287750426E-005	2	7,39233087E-007	4,03511748E-008
2	1	0	0	0	9381,7475	3,26111126	3,26193452	1,2300717442157171E-005	2	7,54740711E-007	4,01241351E-008
2	1	0	0	0	9382,9975	3,28611183	3,28688264	1,2743151360070883E-005	2	7,70439271E-007	4,18852437E-008
2	1	0	0	0	9384,2475	3,31111193	3,31183434	1,2601666907341008E-005	2	7,86351848E-007	4,17346335E-008
2	1	0	0	0	9385,4975	3,33611178	3,33697367	1,3017573417494464E-005	2	8,02434442E-007	4,34393002E-008
2	1	0	0	0	9386,7475	3,36111164	3,36185026	1,2952430866848541E-005	2	8,18740943E-007	4,35441336E-008
2	1	0	0	0	9387,9975	3,38611174	3,38684249	1,3321469839200752E-005	2	8,35229116E-007	4,51177193E-008
2	1	0	0	0	9389,2475	3,41111183	3,41189265	1,3341219029270136E-005	2	8,51955235E-007	4,55188065E-008
2	1	0	0	0	9390,4975	3,43611217	3,43696475	1,3622125421803802E-005	2	8,68854045E-007	4,68187658E-008
2	1	0	0	0	9391,7475	3,46111155	3,4618547	1,3735312309024739E-005	2	8,85950726E-007	4,75496549E-008
2	1	0	0	0	9392,9975	3,48611188	3,48679399	1,3925727641974533E-005	2	9,03265004E-007	4,85561422E-008
2	1	0	0	0	9394,2475	3,51111197	3,51196861	1,4157408736958064E-005	2	9,20799607E-007	4,97203736E-008
2	1	0	0	0	9395,4975	3,53611207	3,53703165	1,4093151837305114E-005	2	9,38503263E-007	4,98479231E-008
2	1	0	0	0	9396,7475	3,56111193	3,56191278	1,4654079168226186E-005	2	9,56444978E-007	5,21965511E-008
2	1	0	0	0	9397,9975	3,58611226	3,58683372	1,4458063907972707E-005	2	9,74573823E-007	5,18586702E-008
2	1	0	0	0	9399,2475	3,61111212	3,61190152	1,4895782141121792E-005	2	9,9294607E-007	5,3802097E-008
2	1	0	0	0	9400,4975	3,63611221	3,63682246	1,4753117861127296E-005	2	1,01149817E-006	5,36544711E-008
2	1	0	0	0	9401,7475	3,66111207	3,66189051	1,5259808999753958E-005	2	1,03028003E-006	5,58797488E-008
2	1	0	0	0	9402,9975	3,68611193	3,68711424	1,503726657490375E-005	2	1,04922219E-006	5,54441186E-008
2	1	0	0	0	9404,2475	3,7111125	3,71182609	1,563326974586809E-005	2	1,06842481E-006	5,80279789E-008
2	1	0	0	0	9405,4975	3,73611259	3,73692513	1,5377713151775926E-005	2	1,08781353E-006	5,7465364E-008
2	1	0	0	0	9406,7475	3,76111245	3,76198006	1,59286189458456E-005	2	1,10737165E-006	5,99231456E-008
2	1	0	0	0	9407,9975	3,78611255	3,78687382	1,5751173613672963E-005	2	1,12714838E-006	5,96477037E-008
2	1	0	0	0	9409,2475	3,8111124	3,81191087	1,619684978440664E-005	2	1,14714089E-006	6,17409484E-008
2	1	0	0	0	9410,4975	3,8361125	3,83695245	1,6152636625840198E-005	2	1,16735725E-006	6,19768983E-008
2	1	0	0	0	9411,7475	3,86111236	3,86193132	1,6527865442286506E-005	2	1,1877803E-006	6,38294821E-008
2	1	0	0	0	9412,9975	3,88611221	3,88683844	1,6501632337116896E-005	2	1,20842788E-006	6,41391793E-008
2	1	0	0	0	9414,2475	3,91111279	3,91187549	1,6872145926703958E-005	2	1,22928475E-006	6,60017321E-008
2	1	0	0	0	9415,4975	3,93611288	3,93695641	1,6856522247760787E-005	2	1,25034933E-006	6,63633912E-008
2	1	0	0	0	9416,7475	3,96111274	3,96194458	1,7180169838529411E-005	2	1,27164481E-006	6,80668819E-008
2	1	0	0	0	9417,9975	3,98611259	3,9869194	1,7299546405630106E-005	2	1,29322154E-006	6,89719002E-008
2	0	0	0	0	9419,1679	3,99041271	3,9913497	1,7183705939192778E-005	2	1,31351385E-006	6,85861821E-008
2	0	0	0	0	9420,4179	3,96541262	3,96641541	1,6482179154940621E-005	2	1,3344868E-006	6,53751684E-008
2	0	0	0	0	9421,6679	3,94041276	3,94122767	1,5845202087634592E-005	2	1,35464404E-006	6,24495513E-008
2	0	0	0	0	9422,9179	3,9154129	3,91617298	1,5258336096242899E-005	2	1,37409904E-006	5,97542851E-008
2	0	0	0	0	9424,1679	3,89041281	3,89128733	1,47507603161204E-005	2	1,39281951E-006	5,7399447E-008
2	0	0	0	0	9425,4179	3,86541224	3,86621523	1,4296830209382813E-005	2	1,41095143E-006	5,52746222E-008
2	0	0	0	0	9426,6679	3,84041238	3,84120488	1,3683730298065792E-005	2	1,4284841E-006	5,25620116E-008
2	0	0	0	0	9427,9179	3,81541252	3,81614566	1,3463838926057843E-005	2	1,44544629E-006	5,13799705E-008
2	0	0	0	0	9429,1679	3,79041243	3,79113555	1,2900258629618578E-005	2	1,46185823E-006	4,89066281E-008
2	0	0	0	0	9430,4179	3,76541233	3,76621032	1,2667103633206054E-005	2	1,47776848E-006	4,77069761E-008
2	0	0	0	0	9431,6679	3,74041247	3,74127173	1,1999472768046098E-005	2	1,49313837E-006	4,48932873E-008
2	0	0	0	0	9432,9179	3,71541262	3,71608782	1,185651422756735E-005	2	1,50805442E-006	4,40598491E-008
2	0	0	0	0	9434,1679	3,69041228	3,69123363	1,1191536205817333E-005	2	1,52244434E-006	4,13105745E-008
2	0	0	0	0	9435,4179	3,66541219	3,66620564	1,1060662757245099E-005	2	1,53636802E-006	4,05506633E-008
2	0	0	0	0	9436,6679	3,64041209	3,64115119	1,0462005602844491E-005	2	1,54982854E-006	3,8093745E-008
2	0	0	0	0	9437,9179	3,61541224	3,61615896	1,0456405163949987E-005	2	1,56289036E-006	3,7812022E-008
2	0	0	0	0	9439,1679	3,5904119	3,59112239	9,7737412250740864E-006	2	1,57551938E-006	3,50987008E-008
2	0	0	0	0	9440,4179	3,56541181	3,56619668	9,8138291683106547E-006	2	1,58776299E-006	3,49980454E-008
2	0	0	0	0	9441,6679	3,54041195	3,54117322	9,152682396149769E-006	2	1,59960052E-006	3,24112328E-008
2	0	0	0	0	9442,9179	3,51541209	3,51623869	9,1759686595364992E-006	2	1,61108233E-006	3,22648965E-008
2	0	0	0	0	9444,1679	3,490412	3,49122882	8,5139378806313165E-006	2	1,62215531E-006	2,97241058E-008
2	0	0	0	0	9445,4179	3,46541166	3,4661479	8,5846803975292301E-006	2	1,63287223E-006	2,97557712E-008
2	0	0	0	0	9446,6679	3,44041157	3,44120908	7,9241238190072128E-006	2	1,64321068E-006	2,72685661E-008
2	0	0	0	0	9447,9179	3,41541219	3,41620755	8,0464495437337242E-006	2	1,65320364E-006	2,74883423E-008
2	0	0	0	0	9449,1679	3,39041185	3,39123344	7,4460234721393152E-006	2	1,66286736E-006	2,52512038E-008
2	0	0	0	0	9450,4179	3,36541152	3,36610293	7,5615693186103322E-006	2	1,67220321E-006	2,5453021E-008
2	0	0	0	0	9451,6679	3,34041166	3,34112883	6,9060235579888294E-006	2	1,68121039E-006	2,30739143E-008
2	0	0	0	0	9452,9179	3,31541181	3,31618977	7,0401390335864563E-006	2	1,68993222E-006	2,33464377E-008
2	0	0	0	0	9454,1679	3,29041147	3,2911973	6,3639603245780442E-006	2	1,69833766E-006	2,09450484E-008
2	0	0	0	0	9455,4179	3,26541162	3,26626778	6,5865038073474893E-006	2	1,70643034E-006	2,15132854E-008
2	0	0	0	0	9456,6679	3,24041128	3,24126196	5,9194624047567462E-006	2	1,71422994E-006	1,91865279E-008
2	0	0	0	0	9457,9179	3,21541166	3,21618509	6,0706743070155776E-006	2	1,72176021E-006	1,95244123E-008
2	0	0	0	0	9459,1679	3,19041157	3,1911304	5,4596378381196186E-006	2	1,72899081E-006	1,74224155E-008
2	0	0	0	0	9460,4179	3,16541123	3,16624522	5,6606639046945088E-006	2	1,73596368E-006	1,79230497E-008
2	0	0	0	0	9461,6679	3,14041138	3,14123082	5,0572902897219706E-006	2	1,7426413E-006	1,58861155E-008
2	0	0	0	0	9462,9179	3,11541152	3,11614513	5,1639935729023546E-006	2	1,74903107E-006	1,60917537E-008
2	0	0	0	0	9464,1679	3,09041119	3,09121537	4,6316574011168781E-006	2	1,75518869E-006	1,43174503E-008
2	0	0	0	0	9465,4179	3,06541157	3,0662322	4,8377786495245248E-006	2	1,76110518E-006	1,48337529E-008
2	0	0	1	0	9466,6681	3,04040837	3,04110217	4,2745332603301702E-006	2	1,76676247E-006	1,29992923E-008
2	0	0	1	0	9467,9180	3,01541066	3,01612854	4,3716208480646419E-006	2	1,77218908E-006	1,31853701E-008
2	0	0	0	0	9469,1679	2,99041414	2,99111152	3,8279676480756864E-006	2	1,77733523E-006	1,14498784E-008
2	0	0	1	0	9470,4181	2,96541047	2,96627188	4,0216627132383661E-006	2	1,78228265E-006	1,19293446E-008
2	0	0	1	0	9471,6681	2,94041109	2,94113684	3,5808390299349824E-006	2	1,78702498E-006	1,05317373E-008
2	0	0	1	0	9472,9181	2,91541123	2,91628718	3,603240774591792E-006	2	1,79153187E-006	1,05080851E-008
2	0	0	1	0	9474,1681	2,89041138	2,8911128	3,2698673229163462E-006	2	1,79583571E-006	9,45355527E-009
2	0	0	1	0	9475,4181	2,8654108	2,86628008	3,2728150033165421E-006	2	1,7999314E-006	9,38080458E-009
2	0	0	1	0	9476,6681	2,84041071	2,84127951	2,9220507785602304E-006	2	1,80384268E-006	8,30236324E-009
2	0	0	1	0	9477,9181	2,81541085	2,81626916	2,9774656410531699E-006	2	1,80750658E-006	8,38534486E-009
2	0	0	1	0	9479,1681	2,790411	2,79118776	2,6131426120960726E-006	2	1,81100756E-006	7,29377181E-009
2	0	0	1	0	9480,4181	2,7654109	2,76622248	2,6423237369973056E-006	2	1,8143146E-006	7,30925542E-009
2	0	0	1	0	9481,6681	2,7404108	2,74124813	2,3266359814352445E-006	2	1,81741325E-006	6,37788666E-009
2	0	0	1	0	9482,9181	2,71541071	2,71613145	2,3151405588913328E-006	2	1,82028384E-006	6,28822594E-009
2	0	0	1	0	9484,1681	2,69041085	2,69119668	1,9997476108307046E-006	2	1,82299084E-006	5,38171419E-009
2	0	0	1	0	9485,4181	2,66541052	2,66606665	2,0330553735288576E-006	2	1,82550423E-006	5,42026113E-009
2	0	0	1	0	9486,6681	2,64041066	2,64129233	1,7789724935914291E-006	2	1,82785755E-006	4,69878625E-009
2	0	0	1	0	9487,9181	2,61541057	2,61609101	1,662542490360263E-006	2	1,83003476E-006	4,34936265E-009
2	0	0	1	0	9489,1681	2,59041071	2,59112096	1,4980664717200899E-006	2	1,83203451E-006	3,88167143E-009
2	0	0	1	0	9490,4181	2,56541038	2,56608438	1,3506865810253304E-006	2	1,83382701E-006	3,46597573E-009
2	0	0	1	0	9491,6681	2,54041028	2,5411675	1,3176735140990787E-006	2	1,83546842E-006	3,34842909E-009
2	0	0	1	0	9492,9181	2,51541042	2,51624656	1,1107521162721962E-006	2	1,83692873E-006	2,79492629E-009
2	0	0	1	0	9494,1681	2,4904108	2,49111676	1,0518001671062994E-006	2	1,83824773E-006	2,62015698E-009
2	0	0	1	0	9495,4181	2,46541047	2,46595526	7,7855786509119872E-007	2	1,83937368E-006	1,91988891E-009
2	0	0	1	0	9496,6681	2,44041014	2,4411366	7,9329592043934758E-007	2	1,84036674E-006	1,93654381E-009
2	0	0	1	0	9497,9181	2,41541028	2,41605067	5,2476973191408666E-007	2	1,8411929E-006	1,26787025E-009
2	0	0	1	0	9499,1681	2,39041042	2,39112949	5,6249901150725843E-007	2	1,84189082E-006	1,34500799E-009
2	0	0	1	0	9500,4181	2,36541009	2,36606646	3,258068719464089E-007	2	1,84240105E-006	7,70880693E-010
2	0	0	1	0	9501,6681	2,34041023	2,34115386	3,9301213685918304E-007	2	1,84280543E-006	9,20101884E-010
2	0	0	1	0	9502,9181	2,31541014	2,31613493	5,2269838708346099E-008	2	1,8430369E-006	1,21064006E-010
2	0	0	1	0	9504,1681	2,29041004	2,29116082	1,4865628716681053E-007	2	1,84316082E-006	3,40595468E-010
2	0	0	1	0	9505,4181	2,26540995	2,26631069	-1,7941133054097584E-007	2	1,84310557E-006	4,06601808E-010
2	0	0	1	0	9506,6681	2,24040985	2,24119401	-3,9400443449009747E-008	2	1,84298608E-006	8,83040377E-011
2	0	0	1	0	9507,9181	2,21540999	2,2161305	-3,291493419878944E-007	2	1,84267685E-006	7,29437899E-010
2	0	0	1	0	9509,1681	2,1904099	2,19126725	-2,5457513449141619E-007	2	1,84226781E-006	5,57842161E-010
2	0	0	1	0	9510,4181	2,1654098	2,16617703	-7,0997895264114445E-007	2	1,84169971E-006	1,53794011E-009
2	0	0	1	0	9511,6681	2,14040971	2,1411581	-4,9274096923255821E-007	2	1,84101702E-006	1,05503628E-009
2	0	0	1	0	9512,9181	2,11540961	2,11606812	-8,5323217804247462E-007	2	1,84016506E-006	1,80549742E-009
2	0	0	1	0	9514,1681	2,09040999	2,09108901	-6,0150733714068339E-007	2	1,83920861E-006	1,25780542E-009
2	0	0	1	0	9515,4181	2,06540942	2,06609702	-1,1155684350357616E-006	2	1,83812676E-006	2,30487252E-009
2	0	0	1	0	9516,6681	2,04040956	2,04109144	-8,482212621606551E-007	2	1,83695272E-006	1,73129711E-009
2	0	0	1	0	9517,9181	2,01540971	2,01606774	-1,2635378077739453E-006	2	1,83558711E-006	2,54737786E-009
2	0	0	1	0	9519,1681	1,99040973	1,99114251	-1,0401099826890973E-006	2	1,83411191E-006	2,07100714E-009
2	0	0	1	0	9520,4181	1,96540952	1,9662745	-1,4698697522217184E-006	2	1,83250779E-006	2,89016744E-009
2	0	0	1	0	9521,6681	1,94040942	1,94118452	-1,1768784273163349E-006	2	1,83082921E-006	2,28453811E-009
2	0	0	1	0	9522,9181	1,91540956	1,91608572	-1,6700116665883859E-006	2	1,82902807E-006	3,19988547E-009
2	0	0	1	0	9524,1681	1,89040947	1,89106655	-1,3773151904210218E-006	2	1,82711506E-006	2,60459476E-009
2	0	0	1	0	9525,4181	1,86540914	1,86605656	-1,8424461415741443E-006	2	1,82505926E-006	3,43810869E-009
2	0	0	1	0	9526,6681	1,84040928	1,84122908	-1,6207866721867715E-006	2	1,82289216E-006	2,98423952E-009
2	0	0	1	0	9527,9181	1,8154093	1,81611645	-2,0823807154015581E-006	2	1,8206033E-006	3,78184595E-009
2	0	0	1	0	9529,1681	1,79040933	1,79112875	-1,8232867927886726E-006	2	1,81819405E-006	3,26574146E-009
2	0	0	1	0	9530,4181	1,76540935	1,76615441	-2,2781012688200925E-006	2	1,81565827E-006	4,02347844E-009
2	0	0	1	0	9531,6681	1,74040914	1,7410419	-1,9971951367200317E-006	2	1,81301323E-006	3,47720031E-009
2	0	0	1	0	9532,9181	1,71540928	1,71612966	-2,3143565986119251E-006	2	1,81029282E-006	3,97173583E-009
2	0	0	1	0	9534,1681	1,69040906	1,69106638	-2,1769985736248477E-006	2	1,80744905E-006	3,68144915E-009
2	0	0	1	0	9535,4181	1,66540897	1,66619873	-2,5032975586088221E-006	2	1,80447239E-006	4,17099111E-009
2	0	0	1	0	9536,6681	1,64040911	1,64108622	-2,3615181990270032E-006	2	1,80138454E-006	3,87545507E-009
2	0	0	1	0	9537,9181	1,6154089	1,61617863	-2,7520750142652733E-006	2	1,79818892E-006	4,44784476E-009
2	0	0	1	0	9539,1681	1,59040892	1,59107959	-2,6489089670293702E-006	2	1,79485698E-006	4,21462509E-009
2	0	0	1	0	9540,4181	1,56540895	1,56630075	-3,0061578711511776E-006	2	1,79141887E-006	4,70854733E-009
2	0	0	1	0	9541,6681	1,54040885	1,54109967	-2,7889200187982474E-006	2	1,78787661E-006	4,29800373E-009
2	0	0	1	0	9542,9181	1,51540887	1,51614726	-3,0783740978411648E-006	2	1,78423841E-006	4,66726835E-009
2	0	0	1	0	9544,1681	1,49040866	1,4910928	-2,9837559558242874E-006	2	1,78049186E-006	4,44905712E-009
2	0	0	1	0	9545,4181	1,4654088	1,46622062	-3,195393701921959E-006	2	1,77661389E-006	4,68515227E-009
2	0	0	1	0	9546,6681	1,44040883	1,44111288	-3,1909725105151398E-006	2	1,7725946E-006	4,59855176E-009
2	0	0	1	0	9547,9181	1,41540861	1,41622722	-3,4370967558185414E-006	2	1,76849233E-006	4,86770979E-009
2	0	0	1	0	9549,1681	1,39040864	1,39111924	-3,335109877156135E-006	2	1,764285E-006	4,63953542E-009
2	0	0	1	0	9550,4181	1,36540866	1,36625171	-3,5040072154770214E-006	2	1,75997297E-006	4,78735585E-009
2	0	0	1	0	9551,6681	1,34040856	1,34111714	-3,5600116006064614E-006	2	1,75552395E-006	4,77439244E-009
2	0	0	1	0	9552,9181	1,31540859	1,31616497	-3,6888217673410534E-006	2	1,75095204E-006	4,8550981E-009
2	0	0	1	0	9554,1681	1,29040849	1,29119492	-3,7819656510704653E-006	2	1,74624915E-006	4,88325469E-009
2	0	0	1	0	9555,4181	1,2654084	1,26617134	-3,8444549190856973E-006	2	1,74144168E-006	4,86773866E-009
2	0	0	1	0	9556,6681	1,24040842	1,24113035	-3,9723805971692544E-006	2	1,73650244E-006	4,93024199E-009
2	0	0	1	0	9557,9181	1,21540844	1,21621811	-4,0557975422243712E-006	2	1,73144883E-006	4,93273422E-009
2	0	0	1	0	9559,1681	1,19040835	1,19122148	-4,2073042269532019E-006	2	1,72626937E-006	5,01183095E-009
2	0	0	1	0	9560,4181	1,16540825	1,16603339	-4,1560160697587181E-006	2	1,72103307E-006	4,84605334E-009
2	0	0	1	0	9561,6681	1,14040816	1,14112127	-4,3508520346020154E-006	2	1,71562795E-006	4,96484986E-009
2	0	0	1	0	9562,9181	1,1154083	1,11626697	-4,4027297926584774E-006	2	1,71013266E-006	4,91462204E-009
2	0	0	1	0	9564,1681	1,09040809	1,09090543	-4,5781121729478266E-006	2	1,70453552E-006	4,99428721E-009
2	0	0	1	0	9565,4181	1,06540823	1,06598425	-4,578996258378199E-006	2	1,6988522E-006	4,88113772E-009
2	0	0	1	0	9566,6681	1,04040802	1,04117453	-4,6515073150927462E-006	2	1,6929996E-006	4,84303087E-009
2	0	0	1	0	9567,9181	1,01540804	1,01615119	-4,8472275706343571E-006	2	1,68707322E-006	4,925516E-009
2	0	0	1	1	9569,1185	0,99140799	0,991990745	-4,9524570929154278E-006	2	1,68125314E-006	4,91279151E-009
2	0	0	1	1	9570,3685	0,966408014	0,966998458	-4,8761143008109478E-006	2	1,67505038E-006	4,7151949E-009
2	0	0	1	1	9571,6185	0,941407859	0,942157567	-5,2466269956404557E-006	2	1,66873247E-006	4,94314945E-009
2	0	0	1	1	9572,8685	0,916407943	0,917031825	-5,1735268879450861E-006	2	1,66230495E-006	4,74428896E-009
2	0	0	1	1	9574,1185	0,891407907	0,8921597	-5,3945966177100794E-006	2	1,65577342E-006	4,81284168E-009
2	0	0	1	1	9575,3485	0,866807997	0,867096305	-4,2187188017978336E-006	2	1,64920937E-006	3,65803543E-009
2	0	0	0	1	9575,3538	0,866658032	0,867616951	-3,8244106690399347E-006	2	1,64919095E-006	3,31812355E-009