File: Experimentelles/Ausgewaehlte_Daten/LiS/GCPL/LiS_NMR_05_GCPL_C01.mpt
EC-Lab ASCII FILE
Nb header lines : 72

Galvanostatic Cycling with Potential Limitation

Run on channel : 1 (SN 6985)
Grouped channel(s) : 1
User :
CE vs. WE compliance from -10 V to 10 V
Electrode connection : standard
Ewe ctrl range : min = 0,00 V, max = 5,00 V
Acquisition started on : 09.17.2015 16:13:32
Saved on :
	File : LiS_NMR_05_GCPL_C01.mpr
	Directory : C:\Gielisch\NeueZelle\LiS-Test\150917\
	Host : 192.168.0.2
Device : VMP3 (SN 0324)
Address : 192.168.0.1
EC-Lab for windows v10.33 (software)
Internet server v10.33 (firmware)
Command interpretor v10.32 (firmware)
Electrode material :
Initial state :
Electrolyte :
Comments :
Mass of active material : 0,001 mg
 at x = 0,000
Molecular weight of active material (at x = 0) : 0,001 g/mol
Atomic weight of intercalated ion : 0,001 g/mol
Acquisition started at : xo = 0,000
Number of e- transfered per intercalated ion : 1
for DX = 1, DQ = 26,801 mA.h
Battery capacity : 0,000 A.h
Electrode surface area : 0,001 cm²
Characteristic mass : 0,001 g
Ns                  0                   1                   2
Set I/C             I                   I                   I
Is                  0,000               30,000              -30,000
unit Is             mA                  µA                  µA
vs.                 <None>              <None>              <None>
N                   1                   1                   1
I sign              > 0                 > 0                 > 0
t1 (h:m:s)          0:00:0,0000         8:00:0,0000         8:00:0,0000
I Range             100 µA              100 µA              100 µA
Bandwidth           5                   5                   5
dE1 (mV)            0,00                10,00               10,00
dt1 (s)             0,0000              10,0000             10,0000
EM (V)              0,000               2,800               1,400
tM (h:m:s)          0:00:0,0000         0:00:0,0000         0:00:0,0000
Im                  0,000               0,000               0,000
unit Im             mA                  mA                  mA
E range min (V)     0,000               0,000               0,000
E range max (V)     5,000               5,000               5,000
dq                  0,000               1,000               1,000
unit dq             mA.h                mA.h                mA.h
dtq (s)             0,0000              120,0000            120,0000
dQM                 0,000               0,000               0,000
unit dQM            mA.h                mA.h                mA.h
dxM                 0,000               0,000               0,000
tR (h:m:s)          0:00:0,0000         0:00:0,0000         0:00:0,0000
dER/dt (mV/h)       0,0                 0,1                 0,1
dER (mV)            0,00                5,00                5,00
dtR (s)             1,0000              120,0000            120,0000
EL (V)              pass                4,200               3,500
goto Ns'            0                   0                   0
nc cycles           0                   0                   0

Number of loops : 2
Loop 0 from point number 0 to 5212
Loop 1 from point number 5213 to 10615

mode	ox/red	error	control changes	Ns changes	counter inc.	Ns	time/s	control/V/mA	Ewe/V	dq/mA.h	<I>/mA	P/W	(Q-Qo)/mA.h	x	Capacity/mA.h
1	1	0	0	1	0	1	3243,1485	0,0300000012	2,58654356	0	0	0	0	0	0
1	1	0	0	0	0	1	3469,2571	0,0300000012	2,38283896	8,3354450394916864E-005	0,030007602900225882	7,15032875E-005	0,0018843123048980192	-7,0306225580583898E-005	0,0018843123048980192
1	1	0	0	0	0	1	3849,2571	0,0300000012	2,3767097	8,335464933814688E-005	0,030007674519790496	7,13195332E-005	0,0050517869050798278	-0,0001884889616282607	0,0050517869050798278
1	1	0	0	0	0	1	4229,2571	0,0300000012	2,37170672	8,3354014052905971E-005	0,030007445422352096	7,11688626E-005	0,0082192507635329702	-0,00030667129688759846	0,0082192507635329702
1	1	0	0	0	0	1	4609,2571	0,0300000012	2,36376333	8,3354494477622221E-005	0,030007618375252038	7,09309097E-005	0,011386717378255866	-0,00042485373498706662	0,011386717378255866
1	1	0	0	0	0	1	4989,2571	0,0300000012	2,35830212	8,3355250270830272E-005	0,030007890460810234	7,07676736E-005	0,014554188550415507	-0,00054303634313062733	0,014554188550415507
1	1	0	0	0	0	1	5369,2571	0,0300000012	2,35350919	8,3354293796751245E-005	0,030007546130137613	7,06230348E-005	0,017721667308314333	-0,00066121923430831616	0,017721667308314333
1	1	0	0	0	0	1	5749,2571	0,0300000012	2,34970951	8,3354608078797658E-005	0,030007659271675693	7,05092825E-005	0,020889130748790317	-0,00077940155397236429	0,020889130748790317
1	1	0	0	0	0	1	6129,2571	0,0300000012	2,34753251	8,3353511553775104E-005	0,030007264522662797	7,04430277E-005	0,024056580888356861	-0,00089758337736159795	0,024056580888356861
1	1	0	0	0	0	1	6509,2571	0,0300000012	2,34682608	8,3353918102052467E-005	0,030007410880044422	7,04221748E-005	0,027224022446623645	-0,0010157648805709998	0,027224022446623645
1	1	0	0	0	0	1	6889,2571	0,0300000012	2,34695983	8,3354552747992179E-005	0,030007639352585478	7,04267222E-005	0,030391486528077318	-0,0011339472241507874	0,030391486528077318
1	1	0	0	0	0	1	7269,2571	0,0300000012	2,34797168	8,3355076274731085E-005	0,030007827822213766	7,04575286E-005	0,033558957677302931	-0,0012521298314386483	0,033558957677302931
1	1	0	0	0	0	1	7649,2571	0,0300000012	2,3499577	8,3354010630812928E-005	0,030007444190398586	7,05162238E-005	0,036726422134704307	-0,0013703121890455501	0,036726422134704307
1	1	0	0	0	0	1	8029,2571	0,0300000012	2,35188627	8,3353957841172813E-005	0,030007425186127917	7,05740531E-005	0,039893879211228474	-0,0014884942712619997	0,039893879211228474
1	1	0	0	0	0	1	8409,2570	0,0300000012	2,35427308	8,3353640009442125E-005	0,030007310766703482	7,06454011E-005	0,043061322579857811	-0,0016066758420184624	0,043061322579857811
1	1	0	0	0	0	1	8789,2570	0,0300000012	2,35702276	8,335341847812137E-005	0,03000723101542704	7,07277286E-005	0,046228766732389958	-0,001724857442023393	0,046228766732389958
1	1	0	0	0	0	1	9169,2570	0,0300000012	2,36007786	8,3354051673163955E-005	0,030007458965645139	7,08199368E-005	0,049396196970541254	-0,0018430385228640659	0,049396196970541254
1	1	0	0	0	0	1	9549,2570	0,0300000012	2,36343861	8,33542213641728E-005	0,030007520054409062	7,09209344E-005	0,052563628350568538	-0,0019612196463096675	0,052563628350568538
1	1	0	0	0	0	1	9929,2570	0,0300000012	2,36670399	8,3354146551961702E-005	0,030007493122012736	7,10188542E-005	0,05573108989672704	-0,0020794018952941827	0,05573108989672704
1	1	0	0	0	0	1	10309,2570	0,0300000012	2,3702364	8,3353698141562432E-005	0,030007331694267046	7,1124472E-005	0,058898543720313869	-0,0021975838561391667	0,058898543720313869
1	1	0	0	0	0	1	10689,2570	0,0300000012	2,373559	8,3354559433336064E-005	0,030007641759309306	7,12249093E-005	0,062066007568070669	-0,0023157661909994099	0,062066007568070669
1	1	0	0	0	0	1	11069,2570	0,0300000012	2,37697697	8,3354764963500211E-005	0,030007715750169293	7,13276459E-005	0,0652334827570112	-0,0024339489490144659	0,0652334827570112
1	1	0	0	0	0	1	11449,2570	0,0300000012	2,38033772	8,3354847354193523E-005	0,030007745410819251	7,14285707E-005	0,068400970957790362	-0,0025521321925187162	0,068400970957790362
1	1	0	0	0	0	1	11829,2570	0,0300000012	2,38367915	8,3355020429628582E-005	0,030007807717976627	7,15289862E-005	0,07156845629078167	-0,0026703153290219456	0,07156845629078167
1	1	0	0	0	0	1	12209,2570	0,0300000012	2,3870399	8,3354950053927795E-005	0,030007782382724038	7,16297727E-005	0,074735928403302144	-0,0027884979722516339	0,074735928403302144
1	1	0	0	0	0	1	12589,2570	0,0300000012	2,3903625	8,3355387555435302E-005	0,03000793988326864	7,17298535E-005	0,077903411945259443	-0,002906681041928976	0,077903411945259443
1	1	0	0	0	0	1	12969,2570	0,0300000012	2,39347482	8,3354294665054323E-005	0,030007546442726726	7,18223091E-005	0,08107087703866391	-0,0030248634232660083	0,08107087703866391
1	1	0	0	0	0	1	13349,2570	0,0300000012	2,39653015	8,3355685940012339E-005	0,030008047301717677	7,19151867E-005	0,0842383438202256	-0,0031430458675904563	0,0842383438202256
1	1	0	0	0	0	1	13729,2570	0,0300000012	2,39935613	8,3354645605819917E-005	0,030007672781403872	7,19990931E-005	0,087405823833449293	-0,0032612288056060032	0,087405823833449293
1	1	0	0	0	0	1	14109,2570	0,0300000012	2,40136123	8,3354398458989133E-005	0,030007583808543706	7,20590469E-005	0,090573295732072422	-0,0033794114408548941	0,090573295732072422
1	1	0	0	0	0	1	14489,2570	0,0300000012	2,40309882	8,3354750178443891E-005	0,03000771042754896	7,2111492E-005	0,09374077073906912	-0,0034975941920813811	0,09374077073906912
1	1	0	0	0	0	1	14869,2570	0,0300000012	2,4047792	8,3355125537866522E-005	0,030007845556942739	7,21622418E-005	0,096908247269955814	-0,0036157770001662528	0,096908247269955814
1	1	0	0	0	0	1	15249,2570	0,0300000012	2,4062686	8,3355142580966157E-005	0,030007851692458682	7,22069526E-005	0,10007572104333989	-0,0037339597053649952	0,10007572104333989
1	1	0	0	0	0	1	15629,2570	0,0300000012	2,40760517	8,335496004256937E-005	0,03000778597863504	7,22468976E-005	0,10324320559267502	-0,0038521428126289587	0,10324320559267502
1	1	0	0	0	0	1	16009,2570	0,0300000012	2,4092474	8,3354469868251021E-005	0,030007609515878304	7,22957557E-005	0,10641068744867083	-0,0039703258194008115	0,10641068744867083
1	1	0	0	0	0	1	16389,2569	0,0300000012	2,41054583	8,3354845632385037E-005	0,03000774479105552	7,23350458E-005	0,1095781621193473	-0,0040885085580787386	0,1095781621193473
1	1	0	0	0	0	1	16769,2569	0,0300000012	2,41211152	8,3355063829984922E-005	0,030007823342105094	7,23822159E-005	0,1127456396180049	-0,0042066914022724442	0,1127456396180049
1	1	0	0	0	0	1	17149,2569	0,0300000012	2,41373467	8,3355010740355494E-005	0,030007804229838272	7,24308775E-005	0,11591312056697878	-0,004324874375202089	0,11591312056697878
1	1	0	0	0	0	1	17529,2569	0,0300000012	2,4154532	8,3355539265709619E-005	0,030007994498968058	7,24829079E-005	0,11908061239617096	-0,0044430577540873075	0,11908061239617096
1	1	0	0	0	0	1	17909,2569	0,0300000012	2,41709542	8,3354619707394803E-005	0,03000766345797072	7,25313876E-005	0,12224810711493662	-0,0045612412407863974	0,12224810711493662
1	1	0	0	0	0	1	18289,2569	0,0300000012	2,41890931	8,3354892745303616E-005	0,030007761751619078	7,25860518E-005	0,12541561049799246	-0,0046794250507618035	0,12541561049799246
1	1	0	0	0	0	1	18669,2569	0,0300000012	2,42093349	8,3355068704113357E-005	0,030007825096791354	7,26469516E-005	0,12858310665479272	-0,0047976085911158976	0,12858310665479272
1	1	0	0	0	0	1	19049,2569	0,0300000012	2,42312932	8,3355451080948122E-005	0,030007962752453536	7,27131774E-005	0,1317506052713005	-0,0049157922232449869	0,1317506052713005
1	1	0	0	0	0	1	19429,2569	0,0300000012	2,42530608	8,3355069245522214E-005	0,030007825291698547	7,27781589E-005	0,1349181086397947	-0,005033976032677079	0,1349181086397947
1	1	0	0	0	0	1	19809,2569	0,0300000012	2,42794132	8,3355168793350464E-005	0,030007861128917146	7,28573286E-005	0,13808559863663994	-0,005152159343194969	0,13808559863663994
1	1	0	0	0	0	1	20189,2569	0,0300000012	2,43055725	8,3355032265807194E-005	0,030007811979000973	7,29357052E-005	0,14125308910919546	-0,0052703426714622496	0,14125308910919546
1	1	0	0	0	0	1	20569,2569	0,0300000012	2,43399429	8,3355529639559488E-005	0,030007991033553965	7,30392785E-005	0,14442058101592234	-0,0053885260532403917	0,14442058101592234
1	1	0	0	0	0	1	20949,2569	0,0300000012	2,43773699	8,3355682955123494E-005	0,030008046227157677	7,31517212E-005	0,14758808366308774	-0,005506709835758736	0,14758808366308774
1	1	0	0	0	0	1	21329,2569	0,0300000012	2,441957	8,3355579299955738E-005	0,030008008911296838	7,32782646E-005	0,15075558557417018	-0,0056248935908128352	0,15075558557417018
1	1	0	0	0	0	1	21709,2569	0,0300000012	2,44694066	8,3355059933020826E-005	0,030007821939198003	7,34273563E-005	0,15392309171184893	-0,0057430775035669254	0,15392309171184893
1	1	0	0	0	0	1	22089,2569	0,0300000012	2,4531846	8,3355105261421875E-005	0,030007838257422573	7,36147704E-005	0,15709059200957488	-0,0058612611984245248	0,15709059200957488
1	1	0	0	0	0	1	22469,2569	0,0300000012	2,46137643	8,3354775867631859E-005	0,030007719675656736	7,38602903E-005	0,16025808603541878	-0,0059794446592697715	0,16025808603541878
1	1	0	0	0	0	1	22849,2569	0,0300000012	2,47289062	8,335474101774807E-005	0,030007707129698426	7,42057746E-005	0,1634255712926848	-0,0060976277929475904	0,1634255712926848
1	1	0	0	0	0	1	23229,2569	0,0300000012	2,49091625	8,3354851449632806E-005	0,030007746885177408	7,47467857E-005	0,16659305999345779	-0,0062158110551072819	0,16659305999345779
1	1	0	0	0	0	1	23609,2569	0,0300000012	2,51850843	8,3355617071088E-005	0,030008022508904614	7,55754591E-005	0,16976055885140083	-0,0063339946962446438	0,16976055885140083
1	1	0	0	0	0	1	23989,2569	0,0300000012	2,56036448	8,3354955577188058E-005	0,030007784371097754	7,68308673E-005	0,17292804453753088	-0,0064521778459239552	0,17292804453753088
1	1	0	0	0	0	1	24369,2569	0,0300000012	2,61627436	8,3355429086109824E-005	0,030007954834311648	7,85090451E-005	0,17609553424543949	-0,0065703611456612314	0,17609553424543949
1	1	0	0	0	0	1	24749,2568	0,0300000012	2,67336798	8,3355768621485274E-005	0,030008077067048294	8,0222635E-005	0,17926302429171306	-0,00668854445802336	0,17926302429171306
1	1	0	0	0	0	1	25129,2568	0,0300000012	2,72272849	8,3355272325790592E-005	0,030007898400596045	8,17033579E-005	0,18243052930368163	-0,0068067283287756902	0,18243052930368163
1	1	0	0	0	0	1	25509,2568	0,0300000012	2,75891328	8,3355724640190605E-005	0,030008061233782022	8,27896365E-005	0,18559803944231088	-0,0069249123908106227	0,18559803944231088
1	1	0	0	0	0	1	25889,2568	0,0300000012	2,78707814	8,335461618958249E-005	0,030007662191558266	8,36336985E-005	0,18876553431459066	-0,0070430958832375322	0,18876553431459066
1	0	0	1	0	0	2	26103,2642	-0,0300000012	2,62007427	-6,1831882225556506E-006	-0,02999121243691431	7,85792072E-005	0,19045106229364774	-0,0071059851983526208	4,9150310789648851E-005
1	0	0	1	0	0	2	26342,2698	-0,0300000012	2,36328578	-8,3309380099280832E-005	-0,029991377198852506	7,08781954E-005	0,18845993243859184	-0,0070316934663579226	0,002040280165845529
1	0	0	1	0	0	2	26722,2698	-0,0300000012	2,34421015	-8,3308589153095258E-005	-0,029991092458222246	7,03054247E-005	0,18529419328200698	-0,0069135754820441766	0,0052060193224305075
1	0	0	1	0	0	2	27102,2698	-0,0300000012	2,33376527	-8,3308882736497459E-005	-0,029991198148248326	6,9992413E-005	0,18212845341567181	-0,0067954574712486925	0,0083717591887657651
1	0	0	1	0	0	2	27482,2698	-0,0300000012	2,32354927	-8,3308861159823014E-005	-0,029991190380645427	6,96860079E-005	0,17896273361946227	-0,0066773402092965798	0,011537478984975357
1	0	0	1	0	0	2	27862,2698	-0,0300000012	2,30729961	-8,3307748366043814E-005	-0,029990789774880064	6,91977402E-005	0,17579701312825702	-0,0065592229214132429	0,014703199476180602
1	0	0	1	0	0	2	28242,2698	-0,0300000012	2,24967122	-8,3308016239044557E-005	-0,029990886209161504	6,74696348E-005	0,17263130655883331	-0,0064411061529702938	0,017868906045604294
1	0	0	1	0	0	2	28622,2698	-0,0300000012	2,20042539	-8,3308268328507738E-005	-0,02999097696136935	6,59929065E-005	0,16946558735599325	-0,0063229889131575949	0,021034625248444374
1	0	0	1	0	0	2	29002,2698	-0,0300000012	2,17180204	-8,3307638233941466E-005	-0,029990750127322746	6,51339724E-005	0,16629987651937514	-0,0062048719854998848	0,024200336085062464
1	0	0	1	0	0	2	29382,2698	-0,0300000012	2,15410113	-8,3308319255399206E-005	-0,029990995295050496	6,46036351E-005	0,16313416669312902	-0,006086755095540512	0,027366045911308579
1	0	0	1	0	0	2	29762,2698	-0,0300000012	2,14115477	-8,3308396127281907E-005	-0,029991022968928608	6,42154191E-005	0,15996845056664419	-0,0059686379705107622	0,030531762037793382
1	0	0	1	0	0	2	30142,2698	-0,0300000012	2,13088179	-8,3308266506840794E-005	-0,029990976305569235	6,39072241E-005	0,15680273123993962	-0,0058505207260765133	0,033697481364497933
1	0	0	1	0	0	2	30522,2698	-0,0300000012	2,12114334	-8,3307793375208154E-005	-0,029990805978179424	6,36147961E-005	0,15363700892878422	-0,0057324033702883891	0,036863203675653299
1	0	0	1	0	0	2	30902,2698	-0,0300000012	2,1114049	-8,3308393018734131E-005	-0,029991021849851392	6,33231903E-005	0,15047129847466656	-0,0056142864569022848	0,040028914129771027
1	0	0	1	0	0	2	31282,2698	-0,0300000012	2,10164738	-8,3309203063655232E-005	-0,029991313466026515	6,30311624E-005	0,14730557287842054	-0,0054961689785430131	0,043194639726017011
1	0	0	1	0	0	2	31662,2698	-0,0300000012	2,09047699	-8,3309436201842291E-005	-0,029991397395774874	6,26963229E-005	0,1441398341509665	-0,0053780510102407142	0,046360378453471085
1	0	0	1	0	0	2	32042,2698	-0,0300000012	2,07907724	-8,3309203438978227E-005	-0,029991313601142803	6,23542583E-005	0,14097408222937355	-0,0052599325496473549	0,049526130375063974
1	0	0	1	0	0	2	32422,2698	-0,0300000012	2,07015991	-8,3309464069807706E-005	-0,029991407428242541	6,20870123E-005	0,13780832517066232	-0,0051418138973812045	0,052691887433775174
1	0	0	1	0	0	2	32802,2698	-0,0300000012	2,06534815	-8,3309765336103744E-005	-0,029991515465133798	6,19429193E-005	0,13464255114433794	-0,0050236946120305933	0,05585766146009952
1	0	0	1	0	0	2	33182,2698	-0,0300000012	2,06315207	-8,3310533460126157E-005	-0,02999179198978135	6,18776248E-005	0,13147676387075938	-0,0049055748324071194	0,05902344873367808
1	0	0	1	0	0	2	33562,2698	-0,0300000012	2,0621593	-8,3311052214975155E-005	-0,029991978741526643	6,18482372E-005	0,12831096925234256	-0,0047874547787378534	0,062189243352094861
1	0	0	1	0	0	2	33942,2698	-0,0300000012	2,0618155	-8,3310615862098842E-005	-0,029991821654491462	6,18375998E-005	0,1251451541217452	-0,0046693339597315533	0,065355058482692173
1	0	0	1	0	0	2	34322,2698	-0,0300000012	2,06221652	-8,3310032086446886E-005	-0,029991611495257152	6,18491977E-005	0,1219793605159709	-0,0045512139438453414	0,068520852088466496
1	0	0	1	0	0	2	34702,2698	-0,0300000012	2,06282759	-8,3310571331530803E-005	-0,029991805623487002	6,1867926E-005	0,11881358049568035	-0,0044330944348517946	0,071686632108757043
1	0	0	1	0	0	2	35082,2698	-0,0300000012	2,06336212	-8,3310264520140173E-005	-0,029991695171386573	6,18837294E-005	0,11564778712917994	-0,0043149744278932128	0,074852425475257459
1	0	0	1	0	0	2	35462,2698	-0,0300000012	2,06389689	-8,3310045882024704E-005	-0,029991616461665152	6,18996055E-005	0,11248198437375702	-0,0041968540706213107	0,078018228230680358
1	0	0	1	0	0	2	35842,2698	-0,0300000012	2,06454611	-8,331058897636832E-005	-0,029991811975628493	6,19194761E-005	0,10931619078872592	-0,0040787340555090554	0,081184021815711462
1	0	0	1	0	0	2	36222,2698	-0,0300000012	2,06450796	-8,3309810483828186E-005	-0,029991531718314566	6,1917759E-005	0,10615039535686198	-0,0039606139714889837	0,084349817247575398
1	0	0	1	0	0	2	36602,2698	-0,0300000012	2,06490898	-8,3310070354077555E-005	-0,029991625271604166	6,19299753E-005	0,10298460441333275	-0,0038424940549347149	0,08751560819110464
1	0	0	1	0	0	2	36982,2698	-0,0300000012	2,06509972	-8,3310057495720691E-005	-0,029991620642595706	6,1935687E-005	0,099818823889619674	-0,0037243745271577965	0,090681388714817715
1	0	0	1	0	0	2	37362,2698	-0,0300000012	2,06553888	-8,3310759816318746E-005	-0,029991873478010534	6,19493803E-005	0,096653051739377203	-0,0036062553118063245	0,093847160865060186
1	0	0	1	0	0	2	37742,2698	-0,0300000012	2,06582546	-8,3309710633216627E-005	-0,02999149577209447	6,19571947E-005	0,093487271315299507	-0,0034881357877469363	0,097012941289137882
1	0	0	1	0	0	2	38122,2698	-0,0300000012	2,06626463	-8,3309729004796186E-005	-0,029991502385863098	6,19703787E-005	0,090321507820677133	-0,003370016895348288	0,10017870478376026
1	0	0	1	0	0	2	38502,2698	-0,0300000012	2,06626463	-8,3309954638696397E-005	-0,029991583614067021	6,19705461E-005	0,087155734575156544	-0,0032518976391305171	0,10334447802928085
1	0	0	1	0	0	2	38882,2698	-0,0300000012	2,06637907	-8,331053093075753E-005	-0,029991791079208646	6,19744096E-005	0,083989949004276557	-0,0031337779230370157	0,10651026360016083
1	0	0	1	0	0	2	39262,2698	-0,0300000012	2,06672287	-8,3310214434026022E-005	-0,02999167714038551	6,19844868E-005	0,080824150923802381	-0,003015657740193735	0,10967606168063501
1	0	0	1	0	0	2	39642,2698	-0,0300000012	2,06674194	-8,3309981548641293E-005	-0,029991593301647168	6,1984887E-005	0,077658372475116288	-0,0028975382898388634	0,11284184012932112
1	0	0	1	0	0	2	40022,2698	-0,0300000012	2,06666565	-8,3309659741818906E-005	-0,029991477451191322	6,1982355E-005	0,074492596520025971	-0,0027794189325234032	0,11600761608441142
1	0	0	1	0	0	2	40402,2698	-0,0300000012	2,0662837	-8,3310292449676339E-005	-0,029991705226019578	6,19713683E-005	0,071326807698673523	-0,0026612990951504035	0,11917340490576387
1	0	0	1	0	0	2	40782,2698	-0,0300000012	2,06590176	-8,331062204132064E-005	-0,029991823879011302	6,19601633E-005	0,068161010136661811	-0,0025431789316516547	0,12233920246777557
1	0	0	1	0	0	2	41162,2698	-0,0300000012	2,06540537	-8,3310496724417638E-005	-0,029991778764926304	6,19451821E-005	0,064995199884205722	-0,0024250582946553638	0,12550501272023171
1	0	0	1	0	0	2	41542,2698	-0,0300000012	2,06446958	-8,3310195117361011E-005	-0,029991670186386131	6,19168932E-005	0,061829411269620851	-0,0023069384649971408	0,12867080133481654
1	0	0	1	0	0	2	41922,2698	-0,0300000012	2,06382036	-8,3311098930322458E-005	-0,029991995559051642	6,18980921E-005	0,058663612660305229	-0,0021888182624220749	0,13183659994413219
1	0	0	1	0	0	2	42302,2698	-0,0300000012	2,06259847	-8,331072689292745E-005	-0,02999186162558969	6,18611666E-005	0,055497804849368589	-0,0020706977165221571	0,1350024077550688
1	0	0	1	0	0	2	42682,2698	-0,0300000012	2,06151009	-8,3310216207988557E-005	-0,029991677779012026	6,18281483E-005	0,052332006151806643	-0,0019525775106545027	0,13816820645263078
1	0	0	1	0	0	2	43062,2698	-0,0300000012	2,05992508	-8,331061653192672E-005	-0,029991821895629498	6,17809055E-005	0,04916621689280887	-0,0018344576569523674	0,14133399571162854
1	0	0	1	0	0	2	43442,2698	-0,0300000012	2,05793929	-8,3310239752858048E-005	-0,02999168625516503	6,17210681E-005	0,046000424633199635	-0,0017163376912933843	0,14449978797123776
1	0	0	1	0	0	2	43822,2698	-0,0300000012	2,0556097	-8,3310022216497203E-005	-0,02999160794207527	6,1651037E-005	0,042834645489086278	-0,0015982182149911862	0,1476655671153511
1	0	0	1	0	0	2	44202,2698	-0,0300000012	2,05261183	-8,3309637364931405E-005	-0,02999146939551184	6,15608442E-005	0,039668873636066074	-0,0014800990107294771	0,1508313389683713
1	0	0	1	0	0	2	44582,2698	-0,0300000012	2,04862094	-8,3310188313635699E-005	-0,029991667737045018	6,14415621E-005	0,036503099966870496	-0,0013619797387038226	0,15399711263756688
1	0	0	1	0	0	2	44962,2698	-0,0300000012	2,04346538	-8,3310420513049613E-005	-0,029991751328833869	6,12871081E-005	0,033337311840629792	-0,0012438599272663766	0,15716290076380755
1	0	0	1	0	0	2	45342,2698	-0,0300000012	2,03617096	-8,331049887349623E-005	-0,029991779538594598	6,10683928E-005	0,030171514000097869	-0,0011257397533756645	0,16032869860433942
1	0	0	1	0	0	2	45722,2698	-0,0300000012	2,0257833	-8,3310315162771277E-005	-0,029991713402733741	6,07567126E-005	0,027005724859797565	-0,0010076199041022917	0,16349448774463974
1	0	0	1	0	0	2	46102,2698	-0,0300000012	2,01130939	-8,3310367134089267E-005	-0,029991732112408186	6,03226508E-005	0,023839935405897146	-0,00088950004312807667	0,16666027719854013
1	0	0	1	0	0	2	46482,2698	-0,0300000012	1,99061048	-8,3310627081017536E-005	-0,029991825693302182	5,97020407E-005	0,020674129089874285	-0,00077137955300540224	0,16982608351456301
1	0	0	1	0	0	2	46862,2698	-0,0300000012	1,96269381	-8,3309340133331725E-005	-0,029991362392136154	5,88638613E-005	0,017508342567128614	-0,000653259801396512	0,1729918700373087
1	0	0	1	0	0	2	47242,2698	-0,0300000012	1,9274255	-8,3310076647231142E-005	-0,02999162753713945	5,78066283E-005	0,014342573048239032	-0,00053514068422435437	0,17615763955619821
1	0	0	1	0	0	2	47622,2698	-0,0300000012	1,88283885	-8,33095178903184E-005	-0,029991426384651238	5,64690235E-005	0,011176803457869506	-0,00041702156438518394	0,17932340914656768
1	0	0	1	0	0	2	48002,2698	-0,0300000012	1,80987728	-8,3310103502124544E-005	-0,029991637204901062	5,42811831E-005	0,0080110260233190733	-0,00029890215186907731	0,18248918658111811
1	0	0	1	0	0	2	48382,2698	-0,0300000012	1,73344028	-8,3309943037107584E-005	-0,029991579437495059	5,19886125E-005	0,0048452439411324768	-0,00018078256594341651	0,18565496866330464
1	0	0	1	0	0	2	48762,2698	-0,0300000012	1,70987725	-8,3310063701847373E-005	-0,029991622876801299	5,12819934E-005	0,0016794765059677677	-6,2663526517835482E-005	0,18882073609846928
1	0	0	1	0	0	2	49142,2698	-0,0300000012	1,70145631	-8,3309045647374451E-005	-0,029991256377191731	5,10288119E-005	-0,001486299284661831	5,5455824661374592E-005	0,19198651188909888
1	0	0	1	0	0	2	49522,2698	-0,0300000012	1,69813383	-8,3309866485392883E-005	-0,029991551878877818	5,09296697E-005	-0,0046520554584144941	0,00017357444390853104	0,19515226806285158
1	0	0	1	0	0	2	49902,2698	-0,0300000012	1,69597614	-8,3309592312822746E-005	-0,029991453176752755	5,086479E-005	-0,0078178224489474893	0,00029169346674430496	0,19831803505338451
1	0	0	1	0	0	2	50282,2698	-0,0300000012	1,69437218	-8,331020307054537E-005	-0,029991673049532486	5,0817056E-005	-0,010983604369626819	0,00040981304664391251	0,20148381697406374
1	0	0	1	0	0	2	50662,2698	-0,0300000012	1,69301641	-8,3308691438390976E-005	-0,02999112886195792	5,07754739E-005	-0,014149375854363379	0,000527932237164464	0,20464958845880035
1	0	0	1	0	0	2	51042,2698	-0,0300000012	1,69179428	-8,3309788915432154E-005	-0,029991523953692013	5,07394871E-005	-0,017315148366359808	0,0006460514660134624	0,2078153609707968
1	0	0	1	0	0	2	51422,2698	-0,0300000012	1,69034314	-8,3309983560091085E-005	-0,029991594025769101	5,0696086E-005	-0,020480930787154192	0,00076417106457303488	0,21098114339159117
1	0	0	1	0	0	2	51802,2698	-0,0300000012	1,68925476	-8,331063684427904E-005	-0,02999182920807632	5,06638389E-005	-0,02364669816509368	0,00088229010186346598	0,21414691076953059
1	0	0	1	0	0	2	52182,2698	-0,0300000012	1,68814719	-8,3310433144577677E-005	-0,029991755876183962	5,06304968E-005	-0,026812501824792394	0,001000410492875115	0,21731271442922918
1	0	0	1	0	0	2	52562,2698	-0,0300000012	1,68698239	-8,3310165852618714E-005	-0,029991659651078918	5,05954013E-005	-0,029978286437353555	0,001118530173212453	0,22047849904179043
1	0	0	1	0	0	2	52942,2698	-0,0300000012	1,68555033	-8,3310680040882701E-005	-0,029991844758853606	5,05527642E-005	-0,033144077810255117	0,0012366501057871805	0,22364429041469197
1	0	0	1	0	0	2	53322,2698	-0,0300000012	1,68429005	-8,3310560338095667E-005	-0,029991801665850355	5,05148928E-005	-0,036309868726813683	0,0013547700213351373	0,22681008133125056
1	0	0	1	0	0	2	53702,2698	-0,0300000012	1,68299162	-8,3310035902592883E-005	-0,029991612869069702	5,04756317E-005	-0,039475667923517574	0,0014728902458264493	0,2299758805279544
1	0	0	1	0	0	2	54082,2698	-0,0300000012	1,68190312	-8,3310058128916557E-005	-0,029991620870546214	5,04429991E-005	-0,042641448622706298	0,0015910097801505997	0,2331416612271431
1	0	0	1	0	0	2	54462,2698	-0,0300000012	1,68081474	-8,3309684310108429E-005	-0,029991486295775539	5,04101336E-005	-0,045807220282828813	0,0017091289772150371	0,23630743288726554
1	0	0	1	0	0	2	54842,2698	-0,0300000012	1,68022287	-8,3309126324123802E-005	-0,029991285420821446	5,03920419E-005	-0,048972989332912762	0,0018272480768954262	0,23947320193734944
1	1	0	1	0	0	1	55074,7524	0,0300000012	1,8908205	8,335344905168233E-005	0,030007241602712794	5,67383067E-005	-0,04795422542938265	0,0017892366259120816	0,0014777538299862829
1	1	0	1	0	0	1	55454,7524	0,0300000012	1,91696143	8,3352657689816422E-005	0,030006956712441606	5,75221784E-005	-0,044786819707879238	0,0016710564598205043	0,0046451595514896954
1	1	0	1	0	0	1	55834,7524	0,0300000012	1,93116808	8,3352683696792346E-005	0,030006966074952915	5,79484949E-005	-0,041619428167331213	0,0015528768228394387	0,0078125510920377331
1	1	0	1	0	0	1	56214,7524	0,0300000012	1,9422431	8,3352506835531021E-005	0,030006902404898957	5,82807006E-005	-0,038452036785576256	0,0014346971917831565	0,010979942473792683
1	1	0	1	0	0	1	56594,7524	0,0300000012	1,95534217	8,3352406227236826E-005	0,030006866185913114	5,86736896E-005	-0,035284639982664819	0,0013165173584562365	0,01414733927670411
1	1	0	1	0	0	1	56974,7524	0,0300000012	1,98379362	8,3352743960710042E-005	0,030006987769963245	5,95276724E-005	-0,032117237305292525	0,0011983373059452842	0,017314741954076422
1	1	0	1	0	0	1	57354,7524	0,0300000012	2,05030131	8,335314301877385E-005	0,030007131430865952	6,1523664E-005	-0,028949837653722086	0,001080157366331067	0,020482141605646877
1	1	0	1	0	0	1	57734,7524	0,0300000012	2,11308527	8,3353741251449613E-005	0,030007346794628819	6,34080861E-005	-0,025782416075088282	0,0009619766085886345	0,023649563184280678
1	1	0	1	0	0	1	58114,7524	0,0300000012	2,13892078	8,3353750414835917E-005	0,030007350093447885	6,41833467E-005	-0,022614977713527245	0,00084379522465262195	0,026817001545841715
1	1	0	1	0	0	1	58494,7524	0,0300000012	2,1535666	8,3353019754402342E-005	0,030007087055692288	6,46222616E-005	-0,01944754771846159	0,00072561415288180122	0,029984431540907373
1	1	0	1	0	0	1	58874,7524	0,0300000012	2,16983533	8,3353607791682918E-005	0,030007298749112902	6,51109003E-005	-0,016280132134219824	0,0006074336187981952	0,033151847125149146
1	1	0	1	0	0	1	59254,7524	0,0300000012	2,19246292	8,3352946169984832E-005	0,030007060565302035	6,57893688E-005	-0,013112721819099126	0,00048925328131258061	0,036319257440269811
1	1	0	1	0	0	1	59634,7524	0,0300000012	2,2135818	8,3352626903706944E-005	0,030006945629442208	6,64228282E-005	-0,0099453205513407616	0,00037107328139621894	0,039486658708028186
1	1	0	1	0	0	1	60014,7524	0,0300000012	2,23034716	8,3352722877429594E-005	0,030006980179982298	6,69259825E-005	-0,0067779132593796506	0,00025289305670875331	0,042654065999989299
1	1	0	1	0	0	1	60394,7524	0,0300000012	2,24081111	8,3353070049029248E-005	0,030007105161757946	6,7240253E-005	-0,0036105045616089498	0,0001347127795686417	0,045821474697760019
1	1	0	1	0	0	1	60774,7524	0,0300000012	2,24644423	8,3352596348255053E-005	0,030006934629479546	6,74089024E-005	-0,0004430926394901161	1,6532382123766064E-005	0,048988886619878867
1	1	0	1	0	0	1	61154,7524	0,0300000012	2,25047326	8,3352829123950656E-005	0,030007018428729811	6,75299962E-005	0,0027243059127023626	-0,00010164751647118122	0,052156285172071347
1	1	0	1	0	0	1	61534,7524	0,0300000012	2,2537384	8,3353167948623501E-005	0,030007140405611808	6,76282434E-005	0,0058917179804298586	-0,00021982791934891178	0,055323697239798829
1	1	0	1	0	0	1	61914,7524	0,0300000012	2,25717545	8,3352940485295309E-005	0,030007058518813811	6,77311982E-005	0,0090591335177298611	-0,00033800845168105754	0,058491112777098803
1	1	0	1	0	0	1	62294,7524	0,0300000012	2,26086068	8,3352638233142592E-005	0,030006949708039034	6,78415308E-005	0,012226540725700157	-0,00045618867323471296	0,061658519985069107
1	1	0	1	0	0	1	62674,7524	0,0300000012	2,2650044	8,3352295303199846E-005	0,030006826253259878	6,79655932E-005	0,015393944906637187	-0,00057436878184568736	0,064825924166006131
1	1	0	1	0	0	1	63054,7524	0,0300000012	2,26918626	8,3352408217266202E-005	0,030006866902323686	6,80911689E-005	0,018561328210533072	-0,00069254811150618714	0,067993307469902029
1	1	0	1	0	0	1	63434,7524	0,0300000012	2,27325344	8,3352399211790822E-005	0,030006863660352557	6,82132086E-005	0,021728727131381619	-0,00081072802385618803	0,071160706390750605
1	1	0	1	0	0	1	63814,7524	0,0300000012	2,27632761	8,3352579417741965E-005	0,030006928534494848	6,83055987E-005	0,024896111878940205	-0,0009289074073816841	0,074328091138309146
1	1	0	1	0	0	1	64194,7524	0,0300000012	2,27804613	8,3352460860688653E-005	0,030006885853955731	6,83570688E-005	0,028063514621140938	-0,001047087462311473	0,077495493880509901
1	1	0	1	0	0	1	64574,7524	0,0300000012	2,27902007	8,3353359091199117E-005	0,030007209216938899	6,83870312E-005	0,031230925107071667	-0,0011652678061702395	0,080662904366440666
1	1	0	1	0	0	1	64954,7524	0,0300000012	2,27976465	8,3352476221198835E-005	0,030006891383739392	6,84086481E-005	0,034398338229222829	-0,0012834482483899346	0,083830317488591834
1	1	0	1	0	0	1	65334,7524	0,0300000012	2,28056669	8,3352683342889779E-005	0,030006965947547994	6,84328843E-005	0,03756571693274615	-0,001401627406404349	0,086997696192115149
1	1	0	1	0	0	1	65714,7560	0,0300000012	2,28096771	8,3354102975585395E-005	0,030006884075123661	6,84447368E-005	0,040733134442921818	-0,0015198080123471379	0,090165113702290816
1	1	0	1	0	0	1	66094,7635	0,0300000012	2,28167415	8,3354220916206643E-005	0,030006926545833088	6,84660263E-005	0,043900600560578483	-0,0016379904319003971	0,093332579819947494
1	1	0	1	0	0	1	66474,7710	0,0300000012	2,28222799	8,3354974352858138E-005	0,030007197746927251	6,84832703E-005	0,047068079601329427	-0,0017561733336316787	0,096500058860698419
1	1	0	1	0	0	1	66854,7785	0,0300000012	2,28291535	8,3354199833443597E-005	0,030006918844406099	6,85032574E-005	0,050235563285147642	-0,0018743564086020426	0,099667542544516672
1	1	0	1	0	0	1	67234,7860	0,0300000012	2,28356457	8,3355016325393472E-005	0,030007212775698419	6,85234045E-005	0,053403048170858438	-0,0019925395284166352	0,10283502743022747
1	1	0	1	0	0	1	67614,7935	0,0300000012	2,28459573	8,3354992325728141E-005	0,030007204207251539	6,85543273E-005	0,056570541730660582	-0,0021107229718732378	0,10600252099002963
1	1	0	1	0	0	1	67994,8010	0,0300000012	2,28562689	8,3354621164914637E-005	0,030007070632520582	6,85849664E-005	0,059738031769355699	-0,0022289062839526032	0,10917001102872477
1	1	0	1	0	0	1	68374,8085	0,0300000012	2,28681087	8,3354769445231398E-005	0,030007124006790598	6,86206185E-005	0,062905509236060544	-0,0023470891269541091	0,11233748849542965
1	1	0	1	0	0	1	68754,8161	0,0300000012	2,2881093	8,3354538744625958E-005	0,030007040850020269	6,86593921E-005	0,066072993039556429	-0,0024652722063898077	0,11550497229892552
1	1	0	1	0	0	1	69134,8236	0,0300000012	2,28948402	8,335404369876617E-005	0,030006862637033184	6,87002321E-005	0,069240461124482138	-0,0025834546993445197	0,11867244038385123
1	1	0	1	0	0	1	69514,8311	0,0300000012	2,29120255	8,3354275872413478E-005	0,030006946264004442	6,87519932E-005	0,072407922386557491	-0,0027016369377295117	0,12183990164592658
1	1	0	1	0	0	1	69894,8386	0,0300000012	2,29232931	8,3353698182747597E-005	0,030006738365506566	6,87853244E-005	0,07557538306502327	-0,0028198191543392451	0,12500736232439238
1	1	0	1	0	0	1	70274,8461	0,0300000012	2,2937994	8,3353840515948838E-005	0,030006789604446451	6,88295549E-005	0,078742842000311373	-0,0029380013059086758	0,1281748212596805
1	1	0	1	0	0	1	70654,8536	0,0300000012	2,29547977	8,3354077699180275E-005	0,030006874897899482	6,88801738E-005	0,081910298573655808	-0,0030561833693508134	0,13134227783302499
1	1	0	1	0	0	1	71034,8611	0,0300000012	2,2967782	8,3354179368043942E-005	0,030006911476658522	6,89192166E-005	0,085077746730327206	-0,0031743651187555635	0,13450972598969643
1	1	0	1	0	0	1	71414,8686	0,0300000012	2,29855418	8,335454408545047E-005	0,03000704279189175	6,89728113E-005	0,088245196737295309	-0,0032925469371973702	0,13767717599666459
1	1	0	1	0	0	1	71794,8761	0,0300000012	2,29987168	8,335336870658729E-005	0,030006619756258106	6,90113739E-005	0,091412641170811802	-0,0034107285476862048	0,14084462043018115
1	1	0	1	0	0	1	72174,8836	0,0300000012	2,30120826	8,3353728909252429E-005	0,030006749426480397	6,90517772E-005	0,094580082190850381	-0,0035289100308135885	0,14401206145021971
1	1	0	1	0	0	1	72554,8912	0,0300000012	2,30275512	8,3354122443228134E-005	0,030006891030327347	6,90985253E-005	0,097747534015336806	-0,0036470919170694483	0,14717951327470621
1	1	0	1	0	0	1	72934,8987	0,0300000012	2,30435896	8,3355038435508813E-005	0,030007220734876954	6,91474052E-005	0,10091500324725922	-0,0037652744528201491	0,15034698250662861
1	1	0	1	0	0	1	73314,9062	0,0300000012	2,30602026	8,3353206425905229E-005	0,030006561224455098	6,91957393E-005	0,10408245940838469	-0,0038834565008818426	0,15351443866775418
1	1	0	1	0	0	1	73694,9137	0,0300000012	2,30783439	8,3354224007162778E-005	0,03000692765261687	6,92510221E-005	0,10724990296633616	-0,004001638078702169	0,15668188222570576
1	1	0	1	0	0	1	74074,9212	0,0300000012	2,30964828	8,3354290151865114E-005	0,030006951469828275	6,93055044E-005	0,11041736356660261	-0,0041198202923941805	0,15984934282597222
1	1	0	1	0	0	1	74454,9287	0,0300000012	2,31144309	8,335272423881623E-005	0,030006387714544774	6,93580587E-005	0,11358478109206686	-0,0042380008989074074	0,16301676035143645
1	1	0	1	0	0	1	74834,9362	0,0300000012	2,31331444	8,3353129103158912E-005	0,030006533388772934	6,94145492E-005	0,11675220613366006	-0,004356181785857511	0,16618418539302963
1	1	0	1	0	0	1	75214,9437	0,0300000012	2,31556773	8,3353343115084698E-005	0,030006610431543443	6,94823393E-005	0,11991961972987866	-0,0044743622457652998	0,16935159898924819
1	1	0	1	0	0	1	75594,9512	0,0300000012	2,31801176	8,3353495924423142E-005	0,030006665520064922	6,95558047E-005	0,12308704713026803	-0,0045925432207252602	0,17251902638963757
1	1	0	1	0	0	1	75974,9587	0,0300000012	2,32041788	8,3353910622290432E-005	0,030006814842230688	6,96283532E-005	0,12625448173594744	-0,004710724464524279	0,17568646099531696
1	1	0	1	0	0	1	76354,9663	0,0300000012	2,32343483	8,335370025845865E-005	0,030006739101569619	6,97187061E-005	0,12942193092804955	-0,0048289062525623398	0,17885391018741907
1	1	0	1	0	0	1	76734,9738	0,0300000012	2,3267765	8,3353851542808115E-005	0,030006793462255539	6,98190997E-005	0,13258937868836395	-0,0049470879871784781	0,18202135794773347
1	1	0	1	0	0	1	77114,9813	0,0300000012	2,33197021	8,3353700868164506E-005	0,030006739220455942	6,99748198E-005	0,1357568292117195	-0,0050652698248873952	0,18518880847108902
1	1	0	1	0	0	1	77494,9888	0,0300000012	2,34260607	8,3354619697150246E-005	0,030007070045449862	7,02947436E-005	0,13892429036893858	-0,0051834520593600582	0,1883562696283081
1	1	0	1	0	0	1	77874,9963	0,0300000012	2,36196828	8,3354025680157875E-005	0,030006856262943078	7,08752414E-005	0,14209173727046096	-0,0053016337619335104	0,19152371652983046
1	1	0	1	0	0	1	78255,0038	0,0300000012	2,40869355	8,3353434821797734E-005	0,030006643557438176	7,22768091E-005	0,14525918750543782	-0,005419815588882631	0,19469116676480733
1	1	0	1	0	0	1	78635,0113	0,0300000012	2,44042921	8,335329332564855E-005	0,030006592522022643	7,32289627E-005	0,14842662983942854	-0,0055379971210353357	0,19785860909879805
1	1	0	1	0	0	1	79015,0188	0,0300000012	2,50264049	8,3354165432664256E-005	0,03000690646037031	7,50964973E-005	0,15159406907482406	-0,0056561785375752883	0,20102604833419357
1	1	0	1	0	0	1	79395,0263	0,0300000012	2,6415751	8,3353147317758861E-005	0,030006539971399322	7,92645296E-005	0,15476149752685549	-0,0057743595517734285	0,20419347678622502
1	0	0	0	0	0	2	79678,7155	-0,0300000012	2,71356297	-4,0923688098167379E-006	-0,029992938164693517	8,13877268E-005	0,15708845950308701	-0,0058611816317402765	1,8812175159756506E-005
1	0	0	0	0	0	2	79846,2920	-0,0300000012	2,37592673	-8,3314459962356416E-005	-0,029992612835029382	7,12602487E-005	0,15569232871116605	-0,0058090901147758925	0,0014149429670807178
1	0	0	0	0	0	2	80226,2995	-0,0300000012	2,25318456	-8,3314988443317517E-005	-0,029992803022964096	6,75793199E-005	0,15252637406863885	-0,0056909640903919136	0,0045808976096078349
1	0	0	0	0	0	2	80606,3070	-0,0300000012	2,19307399	-8,3315806383267059E-005	-0,02999309747552599	6,57770797E-005	0,14936039323791792	-0,005572837088891216	0,0077468784403288755
1	0	0	0	0	0	2	80986,3146	-0,0300000012	2,16920519	-8,3313763438310067E-005	-0,029992362120307667	6,50595903E-005	0,14619444076648118	-0,0054547111455135424	0,010912830911765603
1	0	0	0	0	0	2	81366,3221	-0,0300000012	2,1543684	-8,3314464356543283E-005	-0,029992614466834278	6,46151384E-005	0,14302850359718582	-0,005336585773079337	0,014078768081060923
1	0	0	0	0	0	2	81746,3296	-0,0300000012	2,14209056	-8,3313764358042854E-005	-0,029992362447215123	6,42463565E-005	0,13986256579554088	-0,0052184603770513178	0,017244705882705856
1	0	0	0	0	0	2	82126,3371	-0,0300000012	2,13248563	-8,331437351016535E-005	-0,029992581651230221	6,39587524E-005	0,1366966270925116	-0,0051003349473914374	0,020410644585735165
1	0	0	0	0	0	2	82506,3446	-0,0300000012	2,12484789	-8,3314346062536858E-005	-0,029992571770104685	6,37296544E-005	0,13353068728121259	-0,0049822094763805242	0,023576584397034205
1	0	0	0	0	0	2	82886,3521	-0,0300000012	2,11623597	-8,3314247335617741E-005	-0,029992536294844179	6,34712851E-005	0,13036473297326214	-0,0048640834644800544	0,02674253870498472
1	0	0	0	0	0	2	83266,3596	-0,0300000012	2,10466456	-8,3314396770360576E-005	-0,02999259013633296	6,31243383E-005	0,12719877498976509	-0,0047459573154399981	0,029908496688481837
1	0	0	0	0	0	2	83646,3671	-0,0300000012	2,09521246	-8,3314973721487642E-005	-0,029992797834634259	6,28412818E-005	0,12403280987037027	-0,0046278309001500026	0,033074461807876589
1	0	0	0	0	0	2	84026,3746	-0,0300000012	2,08677244	-8,331444912797047E-005	-0,029992608874324045	6,2587751E-005	0,12086684264377557	-0,0045097044062375462	0,036240429034471264
1	0	0	0	0	0	2	84406,3821	-0,0300000012	2,07764506	-8,3314538157545037E-005	-0,0299926409229408	6,23140659E-005	0,11770089002466731	-0,0043915784573500486	0,039406381653579526
1	0	0	0	0	0	2	84786,3897	-0,0300000012	2,07027459	-8,3314784215556262E-005	-0,029992729541179341	6,20931824E-005	0,11453492437793326	-0,0042734520223843174	0,042572347300313587
1	0	0	0	0	0	2	85166,3972	-0,0300000012	2,06154823	-8,3314458297565568E-005	-0,029992612285645408	6,18312188E-005	0,11136895727059466	-0,0041553255329214662	0,04573831440765223
1	0	0	0	0	0	2	85546,4047	-0,0300000012	2,05326104	-8,3314619849746419E-005	-0,029992670443281222	6,15827812E-005	0,10820301794498917	-0,0040372000800324307	0,048904253733257747
1	0	0	0	0	0	2	85926,4122	-0,0300000012	2,04602408	-8,3314485128037632E-005	-0,029992621859231098	6,13656302E-005	0,10503707997607922	-0,0039190746777635302	0,05207019170216768
1	0	0	0	0	0	2	86306,4197	-0,0300000012	2,03874874	-8,3314286920862886E-005	-0,029992550479872026	6,11472715E-005	0,1018711447740495	-0,0038009493787306502	0,055236126904197421
1	0	0	0	0	0	2	86686,4272	-0,0300000012	2,03483438	-8,331335340802455E-005	-0,029992214434461843	6,102919E-005	0,098705229590298381	-0,0036828248266066605	0,058402042087948557
1	0	0	0	0	0	2	87066,4347	-0,0300000012	2,03132081	-8,331385634146217E-005	-0,029992395586079667	6,09241761E-005	0,095539317733825088	-0,003564700398627879	0,061567953944421862
1	0	0	0	0	0	2	87446,4422	-0,0300000012	2,02839947	-8,3314423788856294E-005	-0,029992599863104717	6,08369737E-005	0,092373393880833779	-0,0034465755230428813	0,064733877797413146
1	0	0	0	0	0	2	87826,4497	-0,0300000012	2,02435136	-8,3313251924804518E-005	-0,029992177943122477	6,07147049E-005	0,089207491030776717	-0,0033284514311055994	0,067899780647470208
1	0	0	0	0	0	2	88206,4572	-0,0300000012	2,0194056	-8,3313863857131853E-005	-0,029992398179939104	6,05668174E-005	0,086041565948261261	-0,0032103265096454029	0,071065705729985664
1	0	0	0	0	0	2	88586,4648	-0,0300000012	2,01243615	-8,3314183263625549E-005	-0,029992513164004134	6,03580193E-005	0,082875662061730202	-0,0030922023790358829	0,07423160961651671
1	0	0	0	0	0	2	88966,4723	-0,0300000012	2,00462627	-8,3312722913817408E-005	-0,029991987546224954	6,01227257E-005	0,079709744960681446	-0,0029740777553749402	0,077397526717565478
1	0	0	0	0	0	2	89346,4798	-0,0300000012	1,99505961	-8,3312761651559014E-005	-0,029992001505502176	5,98358311E-005	0,076543835067252941	-0,00285595340064	0,080563436610993984
1	0	0	0	0	0	2	89726,4873	-0,0300000012	1,98155951	-8,3313987488341005E-005	-0,029992442765901165	5,94318117E-005	0,073377921086282509	-0,0027378288933933744	0,083729350591964416
1	0	0	0	0	0	2	90106,4948	-0,0300000012	1,96198726	-8,331283068367177E-005	-0,029992026244844883	5,88439725E-005	0,070212011836453914	-0,0026197045626720118	0,086895259841793011
1	0	0	0	0	0	2	90486,5023	-0,0300000012	1,9328866	-8,3312525778491469E-005	-0,029991916481149485	5,7970974E-005	0,067046121062604224	-0,0025015809213142637	0,090061150615642701
1	0	0	0	0	0	2	90866,5098	-0,0300000012	1,88711607	-8,3313320775102413E-005	-0,029992202746895571	5,65987684E-005	0,063880232905302413	-0,0023834573775834346	0,093227038772944512
1	0	0	0	0	0	2	91246,5173	-0,0300000012	1,81992114	-8,3312628964479603E-005	-0,029991953738748384	5,45829898E-005	0,060714336218190093	-0,0022653335155939069	0,096392935460056819
1	0	0	0	0	0	2	91626,5248	-0,0300000012	1,72706258	-8,331239848107927E-005	-0,029991870762174202	5,17978369E-005	0,05754845288656169	-0,0021472101519154413	0,099558818791685261
1	0	0	0	0	0	2	92006,5324	-0,0300000012	1,68658137	-8,331282887162848E-005	-0,029992025592347616	5,05839926E-005	0,05438256619008096	-0,0020290866626898109	0,10272470548816598
1	0	0	0	0	0	2	92386,5399	-0,0300000012	1,67638469	-8,3312970411032448E-005	-0,029992076545351366	5,02782568E-005	0,05121667870372519	-0,001910963143992881	0,10589059297452178
1	0	0	0	0	0	2	92766,5474	-0,0300000012	1,67004526	-8,3313084200748954E-005	-0,029992117553617798	5,00881943E-005	0,048050786844546874	-0,0017928394621400624	0,10905648483370011
1	0	0	0	0	0	2	93146,5549	-0,0300000012	1,66842222	-8,331271194273399E-005	-0,029991983610373299	5,00392925E-005	0,044884908986508397	-0,0016747163026885958	0,11222236269173859
1	0	0	0	0	0	2	93526,5624	-0,0300000012	1,67119098	-8,3312424317002291E-005	-0,029991880067156064	5,01221584E-005	0,041719028401595814	-0,0015565930414937904	0,11538824327665114
1	0	0	0	0	0	2	93906,5699	-0,0300000012	1,67149639	-8,3312710494113472E-005	-0,029991982998058682	5,01314898E-005	0,03855314566468519	-0,0014384697000050445	0,11855412601356182
1	0	0	0	0	0	2	94286,5774	-0,0300000012	1,67227936	-8,3311120890805286E-005	-0,029991410731229606	5,01540162E-005	0,035387280558032378	-0,0013203470163249213	0,12171999112021466
1	0	0	0	0	0	2	94666,5849	-0,0300000012	1,67256582	-8,3310781562804339E-005	-0,029991288595115418	5,01624054E-005	0,03222143408880007	-0,0012022250280320162	0,12488583758944694
1	0	0	0	0	0	2	95046,5924	-0,0300000012	1,67245114	-8,331204356046185E-005	-0,029991742997466579	5,01597242E-005	0,029055573440947866	-0,0010841025107157386	0,1280516982372992
1	0	0	0	0	0	2	95426,5999	-0,0300000012	1,67203104	-8,3311712020387251E-005	-0,029991623645398304	5,01469258E-005	0,025889729230324506	-0,00096598060669456973	0,13121754244792253
1	0	0	0	0	0	2	95806,6075	-0,0300000012	1,67170644	-8,3312246380684275E-005	-0,029991815947061325	5,01375107E-005	0,022723878519303651	-0,00084785846013483034	0,13438339315894333
1	0	0	0	0	0	2	96186,6150	-0,0300000012	1,67136276	-8,3311727484688166E-005	-0,029991629101060442	5,01268914E-005	0,019558032033579293	-0,00072973647122658419	0,13754923964466766
1	0	0	0	0	0	2	96566,6225	-0,0300000012	1,67136276	-8,3311902870838016E-005	-0,029991692238826458	5,01269969E-005	0,016392185278174749	-0,00061161447225620774	0,14071508640007221
1	0	0	0	0	0	2	96946,6300	-0,0300000012	1,67063713	-8,3311636612854067E-005	-0,029991596492589126	5,01050745E-005	0,013226351863725078	-0,00049349297105479475	0,14388091981452174
1	0	0	0	0	0	2	97326,6375	-0,0300000012	1,67002618	-8,3311200333345267E-005	-0,029991439442052493	5,0086488E-005	0,010060526169268178	-0,00037537175789669158	0,14704674550897866
1	0	0	0	0	0	2	97706,6450	-0,0300000012	1,66964424	-8,3311265627646605E-005	-0,029991462909829382	5,00750721E-005	0,0068947045479254093	-0,00025725069671195309	0,15021256713032134
1	0	0	0	0	0	2	98086,6525	-0,0300000012	1,66916692	-8,3311688576100595E-005	-0,029991615093547488	5,00610113E-005	0,0037288862706664678	-0,00013912976029947834	0,15337838540758029
1	0	0	0	0	0	2	98466,6600	-0,0300000012	1,66847944	-8,3311000432922611E-005	-0,029991367367598086	5,00399801E-005	0,00056305013382794208	-2,1008157522076829E-005	0,15654422154441878
1	0	0	0	0	0	2	98846,6675	-0,0300000012	1,66800213	-8,331121042670889E-005	-0,029991443042074195	5,0025792E-005	-0,0026027652150914358	9,7112669630111616E-005	0,15971003689333811
1	0	0	0	0	0	2	99226,6750	-0,0300000012	1,66771567	-8,3312148189689536E-005	-0,029991780663593357	5,0017763E-005	-0,0057685962102720794	0,00021523408056534448	0,16287586788851875
1	0	0	0	0	0	2	99606,6826	-0,0300000012	1,66712368	-8,3311329796703322E-005	-0,029991486036767904	4,99995149E-005	-0,00893441186617504	0,0003333549191715031	0,1660416835444217
1	0	0	0	0	0	2	99986,6901	-0,0300000012	1,6669327	-8,3311076095120781E-005	-0,029991394605451059	4,99936359E-005	-0,01210022876612245	0,00045147580419463283	0,16920750044436912
1	0	0	0	0	0	2	100366,6976	-0,0300000012	1,66651273	-8,3311030599599066E-005	-0,029991378227386963	4,99810121E-005	-0,015266055950430662	0,00056959707294109146	0,17237332762867741
1	0	0	0	0	0	2	100746,7051	-0,0300000012	1,66649354	-8,3312240876257408E-005	-0,029991813970045683	4,99811649E-005	-0,018431888648367718	0,00068771854740845555	0,17553916032661453
1	0	0	0	0	0	2	101126,7126	-0,0300000012	1,66590166	-8,3310984415933491E-005	-0,029991361712971155	4,99626585E-005	-0,021597716576867136	0,0008058398439216887	0,17870498825511395
1	0	0	0	0	0	2	101506,7201	-0,0300000012	1,66590166	-8,3310387969120512E-005	-0,029991146996361619	4,9962302E-005	-0,02476351757553377	0,00092396013564665318	0,18187078925378058
1	0	0	0	0	0	2	101886,7276	-0,0300000012	1,66534793	-8,3310635468198195E-005	-0,029991235996685069	4,99458438E-005	-0,027929317159304922	0,0010420803745799648	0,18503658883755171
1	0	0	0	0	0	2	102266,7351	-0,0300000012	1,66498506	-8,3310079624669414E-005	-0,02999103588282969	4,99346279E-005	-0,031095097712112294	0,0011601999034424302	0,18820236939035904
1	0	0	0	0	0	2	102646,7426	-0,0300000012	1,66475594	-8,3310796494388749E-005	-0,029991293976314912	4,9928185E-005	-0,034260901477059667	0,0012783202983810486	0,19136817315530637
1	0	0	0	0	0	2	103026,7501	-0,0300000012	1,66454589	-8,3310685748544832E-005	-0,02999125419487961	4,99218186E-005	-0,037426719042722669	0,0013964412082429219	0,19453399072096938
1	0	0	0	0	0	2	103406,7577	-0,0300000012	1,66372478	-8,3310479804149107E-005	-0,02999118005636224	4,98970694E-005	-0,040592531887195629	0,0015145619419508474	0,1976998035654423
1	0	0	0	0	0	2	103786,7652	-0,0300000012	1,66332388	-8,3309804824491354E-005	-0,029990936997220384	4,98846421E-005	-0,043758331990976646	0,0016326822002864262	0,20086560366922336
1	0	0	0	0	0	2	104166,7727	-0,0300000012	1,66273189	-8,3309654441248205E-005	-0,029990882819823392	4,98667978E-005	-0,046924115451198618	0,0017508018376284397	0,20403138712944547
1	0	0	0	0	0	2	104546,7802	-0,0300000012	1,66244543	-8,3309883357957018E-005	-0,029990965228209728	4,98583431E-005	-0,050089901343863488	0,001868921565728168	0,2071971730221103
1	0	0	0	0	0	2	104926,7877	-0,0300000012	1,6618917	-8,3309824737513229E-005	-0,029990944236989843	4,9841703E-005	-0,053255680124061114	0,0019870410284521808	0,21036295180230794
1	0	0	0	0	0	2	105306,7952	-0,0300000012	1,66141438	-8,3309288751540902E-005	-0,029990751285852826	4,98270674E-005	-0,056421447052190944	0,002105160048959609	0,21352871873043786
1	0	0	0	0	0	2	105686,8027	-0,0300000012	1,6608988	-8,3309667067498803E-005	-0,029990887432566426	4,98118279E-005	-0,059587211699604006	0,0022232789843704275	0,21669448337785101
1	0	0	0	0	0	2	106066,8102	-0,0300000012	1,66032588	-8,3309532764885158E-005	-0,029990839017547603	4,97945657E-005	-0,062752972199018918	0,0023413977650138586	0,21986024387726595
1	0	0	0	0	0	2	106446,8177	-0,0300000012	1,6598103	-8,3310292881603046E-005	-0,02999111265415753	4,9779559E-005	-0,065918736599624154	0,0024595166912159453	0,2230260082778712
1	0	0	0	0	0	2	106826,8252	-0,0300000012	1,65925658	-8,3309088886818957E-005	-0,029990679309789971	4,97622314E-005	-0,069084509522508902	0,0025776359353957395	0,22619178120075594
1	0	0	0	0	0	2	107206,8328	-0,0300000012	1,65887475	-8,3310317624877734E-005	-0,029991121673283782	4,97515139E-005	-0,072250280478116634	0,0026957551061737827	0,22935755215636365
1	0	0	0	0	0	2	107586,8403	-0,0300000012	1,65822554	-8,3310223213190003E-005	-0,029991087667592813	4,97319888E-005	-0,075416059716825651	0,002813874586005472	0,2325233313950727
1	0	0	0	0	0	2	107966,8478	-0,0300000012	1,65837824	-8,3309877748290688E-005	-0,029990963209118906	4,97363617E-005	-0,078581833773976346	0,0029319938725062541	0,23568910545222352
1	0	0	0	0	0	2	108346,8553	-0,0300000012	1,65809178	-8,3310922418100122E-005	-0,029991339282817101	4,97283945E-005	-0,08174761315440448	0,0030501133576256742	0,23885488483265155
1	0	0	0	0	0	2	108476,4507	-0,0300000012	1,65765262	-7,9917977027284595E-005	-0,029991117055707942	4,9714854E-005	-0,082827250988980557	0,0030903960968222138	0,23993452266722762