File: Experimentelles/Rohdaten/Batterietests/AlteZelle/150511_LLTO_LTO_Tests/LLTO_Aufladen/ZView-Export/LLTO_LP30_Li_Aufladen_03_CV_C02.txt
EC-Lab ASCII FILE
Nb header lines : 64

Cyclic Voltammetry

Run on channel : 2 (SN 6986)
Grouped channel(s) : 2
User :
CE vs. WE compliance from -10 V to 10 V
Electrode connection : standard
Ewe ctrl range : min = -5,00 V, max = 5,00 V
Acquisition started on : 05.11.2015 15:06:01
Saved on :
	File : LLTO_LP30_Li_Aufladen_03_CV_C02.mpr
	Directory : C:\Hupfer\150511_LLTO_LTO_Tests\LLTO_Aufladen\
	Host : 192.168.0.2
Device : VMP3 (SN 0324)
Address : 192.168.0.1
EC-Lab for windows v10.33 (software)
Internet server v10.33 (firmware)
Command interpretor v10.32 (firmware)
Electrode material :
Initial state :
Electrolyte :
Comments :
Mass of active material : 0,001 mg
 at x = 0,000
Molecular weight of active material (at x = 0) : 0,001 g/mol
Atomic weight of intercalated ion : 0,001 g/mol
Acquisition started at : xo = 0,000
Number of e- transfered per intercalated ion : 1
for DX = 1, DQ = 26,801 mA.h
Battery capacity : 0,000 A.h
Electrode surface area : 0,001 cm²
Characteristic mass : 0,001 g
Ei (V)              0,000
vs.                 Eoc
dE/dt               20,000
dE/dt unit          mV/s
E1 (V)              4,000
vs.                 Ref
Step percent        50
N                   10
E range min (V)     -5,000
E range max (V)     5,000
I Range             Auto
Bandwidth           5
E2 (V)              1,000
vs.                 Ref
nc cycles           0
Reverse Scan        1
Ef (V)              0,000
vs.                 Eoc

Number of loops : 7
Loop 0 from point number 0 to 2998
Loop 1 from point number 2999 to 5998
Loop 2 from point number 5999 to 8998
Loop 3 from point number 8999 to 11997
Loop 4 from point number 11998 to 14997
Loop 5 from point number 14998 to 17998
Loop 6 from point number 17999 to 20998

mode	ox/red	error	control changes	counter inc.	time/s	control/V	Ewe/V	<I>/mA	cycle number	(Q-Qo)/C	P/W
2	1	0	0	0	295225,6158	2,61804438	2,61864209	0,0058576595038175578	1	0	1,53391138E-005
2	1	0	0	0	295229,6116	2,69796062	2,69857383	0,041440356471057754	1	0,000157822928	0,000111829861
2	1	0	0	0	295233,6124	2,77797794	2,77872396	0,04373506195325849	1	0,000331292656	0,000121527664
2	1	0	0	0	295237,6132	2,85799503	2,85872746	0,046461107200702733	1	0,000515124178	0,000132819638
2	1	0	1	0	295241,6142	2,93801188	2,93859768	0,049964768286036576	1	0,000711529865	0,000146826351
2	1	0	1	0	295245,6150	3,01802897	3,01877451	0,053686513436129626	1	0,000922197418	0,000162067474
2	1	0	1	0	295249,6158	3,0980463	3,09867144	0,05837436139376695	1	0,00114970363	0,000180882969
2	1	0	1	0	295253,6167	3,17806196	3,17869997	0,063807628877812902	1	0,00139696186	0,000202825307
2	1	0	0	0	295257,6176	3,25808024	3,25881624	0,070268252510922726	1	0,00166819734	0,000228991325
2	1	0	0	0	295261,6184	3,33809757	3,33887768	0,077277145063916698	1	0,00196628668	0,000258018932
2	1	0	0	0	295265,6192	3,41811419	3,41893053	0,086216689725580723	1	0,00229600561	0,000294768863
2	1	0	1	0	295269,6202	3,49813151	3,49896526	0,096290046409532198	1	0,0026644161	0,000336915517
2	1	0	1	0	295273,6610	3,5789485	3,57984948	0,10855096794182083	1	0,00308191939	0,00038859612
2	1	0	1	0	295277,6618	3,65896583	3,65977311	0,12255999871909573	1	0,00354718114	0,000448541774
2	1	0	1	0	295281,6626	3,73898125	3,7397666	0,1382857104238301	1	0,00407295488	0,000517156266
2	1	0	0	0	295285,6635	3,81900001	3,81985569	0,15050507081604003	1	0,00465397444	0,000574907637
2	1	0	0	0	295289,6643	3,89901733	3,89992642	0,16722317126200371	1	0,00529112341	0,000652158051
2	1	0	0	0	295293,6651	3,97903442	3,97990727	0,19202018306693082	1	0,00601041736	0,000764222525
2	0	0	1	0	295297,6865	3,94042611	3,94116521	-0,011911052992757021	1	0,00632712105	4,69434272E-005
2	0	0	1	0	295301,6873	3,86040902	3,86120629	-0,043063997161677306	1	0,00620051892	0,000166278973
2	0	0	1	0	295305,6881	3,78039193	3,78130984	-0,05398554502365305	1	0,00600051647	0,000204136071
2	0	0	1	0	295309,6890	3,7003746	3,70111442	-0,059088132589860621	1	0,00576990796	0,000218691945
2	0	0	0	0	295313,6899	3,62035775	3,62103963	-0,062280611824935501	1	0,00552315777	0,000225520562
2	0	0	0	0	295317,6907	3,5403409	3,54100943	-0,063306269908529395	1	0,00526826642	0,000224168092
2	0	0	0	0	295321,6915	3,46032357	3,46116638	-0,063486962208386227	1	0,00501124607	0,00021973894
2	0	0	1	0	295325,6925	3,38030672	3,38106918	-0,063293763548482931	1	0,00475494424	0,000214000596
2	0	0	1	0	295329,6933	3,30028963	3,30099034	-0,063225880472195507	1	0,00449938932	0,000208708021
2	0	0	1	0	295333,6941	3,2202723	3,22095084	-0,06363587917035712	1	0,004242789	0,000204968033
2	0	0	1	0	295337,6950	3,14025688	3,14070487	-0,06447648370980064	1	0,00398373976	0,0002025016
2	0	0	0	0	295341,6959	3,06023836	3,06093502	-0,06543138122220759	1	0,00372063462	0,000200281211
2	0	0	0	0	295345,6967	2,98022103	2,9808557	-0,06685563255342935	1	0,00345261302	0,000199286995
2	0	0	0	0	295349,6975	2,90020394	2,90073657	-0,068003566918413133	1	0,00317951175	0,000197260437
2	0	0	1	0	295353,6985	2,82018709	2,8207109	-0,068989225128596838	1	0,00290238601	0,000194598659
2	0	0	1	0	295357,6993	2,74016976	2,74070287	-0,069836244185421402	1	0,00262165908	0,000191400395
2	0	0	1	0	295361,7001	2,66015291	2,66079283	-0,071310900660507776	1	0,00233691349	0,000189743529
2	0	0	1	0	295365,7010	2,58013368	2,58084941	-0,074110983429036659	1	0,00204365258	0,000191269282
2	0	0	0	0	295369,7019	2,50011849	2,50067019	-0,079123249855235328	1	0,00173519168	0,000197861154
2	0	0	0	0	295373,7027	2,4201014	2,42080021	-0,088188379157886131	1	0,00140001823	0,000213486448
2	0	0	0	0	295377,7435	2,33928418	2,34000421	-0,10164891140259582	1	0,00101294753	0,000237858883
2	0	0	1	0	295381,7445	2,25926685	2,2599206	-0,11697300475228667	1	0,000572784746	0,000264349714
2	0	0	1	0	295385,7453	2,17925	2,18009496	-0,13502836627541192	1	6,54826144E-005	0,000294374651
2	0	0	1	0	295389,7461	2,09923291	2,09984684	-0,15393179204935725	1	-0,000515287684	0,000323233195
2	0	0	1	0	295393,7469	2,01921582	2,01986098	-0,17316328980787165	1	-0,00117174257	0,00034976576
2	0	0	0	0	295397,7479	1,93919861	1,93989301	-0,1963678532521529	1	-0,001912929	0,000380932615
2	0	0	0	0	295401,7487	1,85918176	1,85985827	-0,2270549236693304	1	-0,00276054488	0,000422289973
2	0	0	0	0	295405,7495	1,77916467	1,77986372	-0,26443635620590378	1	-0,00374531932	0,000470660685
2	0	0	0	0	295409,7504	1,69914865	1,69983888	-0,31354550229929504	1	-0,00490129041	0,000532976817
2	0	0	1	0	295413,7512	1,61913037	1,6197809	-0,39199034731696083	1	-0,00629834179	0,000634938478
2	0	0	1	0	295417,7520	1,53911316	1,53980434	-0,56190722559889306	1	-0,00817049015	0,000865227194
2	0	0	1	0	295421,7528	1,45909619	1,45964479	-0,85097064615949235	1	-0,0109674176	0,00124211493
2	0	0	0	0	295425,7838	1,378479	1,37892926	-1,2075116875823042	1	-0,0151096107	0,00166507321
2	0	0	0	0	295429,7846	1,29846179	1,2991749	-1,5694553198085472	1	-0,0206721257	0,0020389969
2	0	0	0	0	295433,7854	1,21844482	1,21906006	-1,9281948404731325	1	-0,0276696458	0,0023505853
2	0	0	1	0	295437,7864	1,13842762	1,13896739	-2,3238816048811888	1	-0,0361913107	0,00264682528
2	0	0	1	0	295441,7872	1,05841053	1,05889726	-2,6314649984792666	1	-0,0461281613	0,00278645102
2	1	0	0	1	295445,6586	1,01920211	1,0197767	-2,3672940281254106	1	-0,0565700047	0,00241411128
2	1	0	0	1	295449,6594	1,0992192	1,09992266	-1,0717636344057517	1	-0,0632112548	0,00117885706
2	1	0	1	1	295453,7004	1,18003666	1,18070066	-0,24061565142539178	1	-0,0657503158	0,000284095062
2	1	0	1	1	295457,7812	1,26165402	1,26231086	0,35599586578016851	1	-0,0654499903	0,000449377461
2	1	0	1	1	295461,7820	1,34167123	1,34221196	0,80902321622880538	1	-0,063081257	0,00108588068
2	1	0	0	1	295465,8130	1,42228818	1,42275405	1,2192749810163547	1	-0,0590118915	0,00173472846
2	1	0	0	1	295469,8138	1,50230551	1,5028466	1,6871690653540342	1	-0,0531142578	0,00253555621
2	1	0	0	1	295473,8146	1,58232248	1,58278322	1,8580373812605158	1	-0,0459504016	0,00294087036
2	1	0	0	1	295477,8155	1,66233897	1,66286194	1,8854403002047776	1	-0,0384043604	0,0031352269
2	1	0	1	1	295481,8164	1,74235678	1,74312413	1,5537049388167715	1	-0,0313432999	0,00270830048
2	1	0	1	1	295485,8172	1,82237375	1,82303846	1,0777249092029173	1	-0,0261055436	0,00196473394
2	1	0	1	1	295489,8180	1,90239084	1,90306008	0,60368025544342016	1	-0,0227345731	0,00114883983
2	1	0	0	1	295493,8590	1,98320818	1,98391354	0,26570693106839373	1	-0,0210858695	0,000527139578
2	1	0	0	1	295497,8598	2,06322527	2,06380582	0,1677557533882839	1	-0,0202556811	0,000346215296
2	1	0	0	1	295501,8606	2,14324236	2,14384055	0,13711516571196414	1	-0,0196518153	0,000293953053
2	1	0	0	1	295505,8615	2,22326064	2,22400117	0,12612613790750293	1	-0,0191262234	0,000280504668
2	1	0	1	1	295509,8624	2,3032763	2,30396771	0,12552079434196206	1	-0,0186214149	0,000289195857
2	1	0	1	1	295513,8632	2,38329363	2,38418508	0,12664207767833163	1	-0,018112978	0,000301938155
2	1	0	1	1	295517,8640	2,46331072	2,46384597	0,12793229334056477	1	-0,0176004954	0,000315205456
2	1	0	0	1	295521,8650	2,54332757	2,54392505	0,13539638846284685	1	-0,0170722175	0,000344438275
2	1	0	0	0	295525,8314	2,62114453	2,62184572	0,17104534735834349	2	9,56754957E-006	0,000448454521
2	1	0	0	0	295529,8322	2,70116162	2,70183587	0,1381583796572613	2	0,000592822733	0,000373281277
2	1	0	0	0	295533,8330	2,78117847	2,78179502	0,12560414081370363	2	0,00111840642	0,00034940496
2	1	0	1	0	295537,8340	2,86119533	2,86196303	0,12079774315434299	2	0,00161443581	0,000345718669
2	1	0	1	0	295541,8348	2,94121242	2,94189978	0,1193402232947156	2	0,00209820434	0,000351086986
2	1	0	1	0	295545,8356	3,02122998	3,0219214	0,11861134706824171	2	0,00257821893	0,000358434161
2	1	0	1	0	295549,8363	3,10124707	3,10188913	0,12011956314866458	2	0,00305937557	0,000372597569
2	1	0	0	0	295553,8373	3,18126369	3,18188834	0,12276014031980522	2	0,00354888081	0,000390609057
2	1	0	0	0	295557,8381	3,26128101	3,26194525	0,12564256997709978	2	0,00404936308	0,00040983918
2	1	0	0	0	295561,8389	3,34129834	3,34209108	0,12932008780815219	2	0,00456332834	0,000432199507
2	1	0	1	0	295565,8399	3,42131519	3,42213011	0,13283447752258282	2	0,00509204948	0,000454576861
2	1	0	1	0	295569,8407	3,50133228	3,50212908	0,13701626266939027	2	0,0056361598	0,000479848648
2	1	0	1	0	295573,8415	3,58134913	3,58215976	0,14227529321969934	2	0,0061981827	0,000509652833
2	1	0	1	0	295577,8423	3,66136622	3,66236782	0,15126472790898131	2	0,00678823376	0,000553987047
2	1	0	0	0	295581,8433	3,74138355	3,74227762	0,16274925892206426	2	0,00741989538	0,000609052891
2	1	0	0	0	295585,8441	3,8214004	3,8221035	0,17138742950434115	2	0,00809176546	0,000655060518
2	1	0	0	0	295589,8449	3,90141773	3,90225387	0,18523318410195389	2	0,00880677998	0,000722826924
2	1	0	0	0	295593,8458	3,98143554	3,98217845	0,20839202901028163	2	0,00959416945	0,000829854223
2	0	0	1	0	295597,7671	3,94002604	3,94088054	0,0037511260172189696	2	0,00995304249	1,47827395E-005
2	0	0	1	0	295601,8479	3,85840869	3,85918546	-0,032176312007424166	2	0,00987696461	0,000124174359
2	0	0	1	0	295605,8487	3,77839136	3,77916002	-0,045733807923239443	2	0,00971442554	0,000172835382
2	0	0	0	0	295609,8497	3,69837475	3,69919658	-0,052829380095418374	2	0,00951240212	0,000195426255
2	0	0	0	0	295613,8505	3,6183567	3,61909032	-0,057713695327510054	2	0,00928681623	0,000208871075
2	0	0	0	0	295617,8513	3,53834009	3,53902912	-0,060259936886185587	2	0,00904670358	0,000213261665
2	0	0	0	0	295621,8522	3,45832253	3,45912766	-0,061583215603816858	2	0,0087991748	0,000213024206
2	0	0	1	0	295625,8531	3,37830591	3,37891483	-0,062242981175788262	2	0,00854827091	0,000210313738
2	0	0	1	0	295629,8539	3,29828882	3,29902267	-0,062892131076229069	2	0,00829486456	0,000207482561
2	0	0	1	0	295633,8547	3,21827197	3,2188592	-0,063786312989477427	2	0,00803805701	0,000205319157
2	0	0	0	0	295637,8557	3,13825488	3,1389091	-0,064842857713639565	2	0,0077773612	0,000203535834
2	0	0	0	0	295641,8565	3,05823779	3,05864763	-0,066181505081692954	2	0,00751161668	0,000202425901
2	0	0	0	0	295645,8573	2,97822094	2,97876859	-0,067944136939734886	2	0,0072396351	0,000202389856
2	0	0	0	0	295649,8582	2,8982017	2,89867806	-0,069178911386029939	2	0,00696164602	0,0002005274
2	0	0	1	0	295653,8591	2,81818652	2,81884599	-0,070115723560944205	2	0,00667977287	0,000197645422
2	0	0	1	0	295657,8599	2,73816919	2,73864245	-0,070722676149604698	2	0,00639469922	0,000193684129
2	0	0	1	0	295661,8607	2,6581521	2,65869665	-0,071681412083477222	2	0,00610661041	0,000190579129
2	0	0	0	0	295665,8617	2,57813525	2,57874203	-0,072940729032441472	2	0,00581419561	0,00018809532
2	0	0	0	0	295669,8625	2,49811792	2,49876499	-0,075652471967730944	2	0,00551393349	0,000189037746
2	0	0	0	0	295673,8633	2,41810107	2,41884613	-0,080030223492670643	2	0,0052002538	0,000193580796
2	0	0	0	0	295677,8641	2,33808374	2,33870435	-0,087007189031553472	2	0,00486280862	0,000203484087
2	0	0	1	0	295681,8651	2,25806689	2,25869203	-0,096781569533046067	2	0,00449278858	0,000218599758
2	0	0	1	0	295685,9058	2,17724943	2,1778121	-0,10824921089051986	2	0,00407488924	0,00023574644
2	0	0	1	0	295689,9066	2,09723234	2,09778619	-0,11910504654601506	2	0,00361644523	0,000249856908
2	0	0	0	0	295693,9076	2,01721525	2,01777792	-0,12961636487118869	2	0,00311609288	0,000261537032
2	0	0	0	0	295697,9084	1,9371984	1,93779242	-0,1434089196500925	2	0,00256796484	0,000277896732
2	0	0	0	0	295701,9092	1,85718119	1,85786009	-0,16398842356822806	2	0,00195211917	0,000304667541
2	0	0	0	0	295705,9100	1,77716422	1,77782977	-0,19588772504141616	2	0,00123273593	0,000348255038
2	0	0	1	0	295709,9110	1,69714713	1,69775951	-0,2469177764185	2	0,000350864575	0,000419207005
2	0	0	1	0	295713,9118	1,6171298	1,61771142	-0,33855229222939309	2	-0,000803383242	0,000547679898
2	0	0	1	0	295717,9126	1,53711283	1,53788149	-0,52536035708531245	2	-0,00249437499	0,000807941949
2	0	0	1	0	295721,9135	1,45709753	1,45759499	-0,82812413804735744	2	-0,00517546711	0,00120706961
2	0	0	0	0	295725,9544	1,37627864	1,37688637	-1,1887980362882899	2	-0,00924840942	0,00163683982
2	0	0	0	0	295729,9552	1,29626143	1,29674494	-1,5463356963462301	2	-0,0147286039	0,00200520293
2	0	0	0	0	295733,9560	1,21624434	1,21689713	-1,8985147280273101	2	-0,0216164328	0,00231029722
2	0	0	1	0	295737,9570	1,13622713	1,13675106	-2,2789643445501254	2	-0,0300011113	0,00259061507
2	0	0	1	0	295741,9578	1,05621004	1,05689442	-2,5753844590099318	2	-0,039730709	0,00272190943
2	1	0	0	1	295745,8192	1,02120268	1,02167261	-2,2585565776184371	2	-0,0498608202	0,00230750535
2	1	0	0	1	295749,8200	1,10121965	1,10186303	-0,98911547440069875	2	-0,0561254472	0,00108986977
2	1	0	1	1	295753,8610	1,18203712	1,18259656	-0,17317665832254934	2	-0,0583634041	0,000204798125
2	1	0	1	1	295757,9418	1,26365435	1,26420677	0,41217891927118086	2	-0,0578121953	0,000521079404
2	1	0	1	1	295761,9426	1,34367156	1,34432602	0,85657169849230643	2	-0,0552362539	0,00115151168
2	1	0	0	1	295765,9836	1,4244889	1,42509949	1,2638382962732298	2	-0,0509753004	0,00180109532
2	1	0	0	1	295769,9844	1,50450587	1,50516534	1,720136098563696	2	-0,0449145921	0,00258908933
2	1	0	0	1	295773,9852	1,58452296	1,58511984	1,8814709319008694	2	-0,037643455	0,00298235682
2	1	0	1	1	295777,9862	1,66453993	1,66506994	1,9026641376592154	2	-0,0300120637	0,00316806883
2	1	0	1	1	295781,9870	1,74455726	1,7451179	1,5523731614704435	2	-0,022922745	0,00270907418
2	1	0	1	1	295785,9878	1,82457423	1,82520163	1,0768124076227466	2	-0,0176855344	0,00196539983
2	1	0	1	1	295789,9886	1,90459132	1,90532982	0,60466272280449114	2	-0,0143172378	0,00115208188
2	1	0	0	1	295794,0296	1,98540866	1,9860189	0,27677539498027805	2	-0,0126397237	0,000549681135
2	1	0	0	1	295798,0304	2,06542563	2,06593347	0,17741801175806659	2	-0,0117659392	0,000366533815
2	1	0	0	1	295802,0312	2,14544272	2,14600801	0,14263607830637048	2	-0,0111323567	0,000306098169
2	1	0	1	1	295806,0322	2,22545958	2,22596693	0,1282860751512156	2	-0,0105910003	0,000285560556
2	1	0	1	1	295810,0330	2,3054769	2,30608201	0,1243259005110559	2	-0,0100846291	0,000286705734
2	1	0	1	1	295814,0338	2,38549399	2,3861568	0,12254161020327326	2	-0,00958761666	0,000292403507
2	1	0	1	1	295818,0345	2,46551132	2,46614265	0,12151890354989891	2	-0,00909664016	0,000299682957
2	1	0	0	1	295822,0355	2,54552817	2,54605246	0,12715319068067909	2	-0,00859824847	0,000323738699
2	1	0	0	0	295825,9199	2,62194467	2,62271357	0,16028672658527965	3	8,97019981E-006	0,000420386175
2	1	0	0	0	295829,9207	2,70196152	2,70257497	0,12456092074582403	3	0,000543554313	0,000336635218
2	1	0	0	0	295833,9215	2,78197885	2,78270721	0,11809941979676931	3	0,00102985394	0,000328636117
2	1	0	0	0	295837,9224	2,86199641	2,86257386	0,11565922309043674	3	0,00150041725	0,00033108308
2	1	0	1	0	295841,9233	2,94201279	2,94257665	0,11622640105930437	3	0,00196727784	0,000342005107
2	1	0	1	0	295845,9241	3,02203012	3,02270031	0,11809512996976982	3	0,00243904022	0,000356966193
2	1	0	1	0	295849,9249	3,10204744	3,10273051	0,12001336888513526	3	0,00291857868	0,000372369133
2	1	0	0	0	295853,9259	3,18206406	3,18278718	0,1222205950050703	3	0,0034067037	0,000389002147
2	1	0	0	0	295857,9267	3,26208138	3,26272869	0,12484256426493534	3	0,00390450098	0,000407327403
2	1	0	0	0	295861,9275	3,342098	3,3429811	0,12760472173492032	3	0,00441350555	0,000426580169
2	1	0	0	0	295865,9284	3,42211485	3,42290401	0,13022239312832262	3	0,00493347738	0,000445738755
2	1	0	1	0	295869,9293	3,50213265	3,50295711	0,1326933781167976	3	0,00546337012	0,000464819226
2	1	0	1	0	295873,9301	3,58214927	3,58294296	0,13651249895769091	3	0,00600496493	0,000489116472
2	1	0	1	0	295877,9309	3,66216683	3,66310668	0,14372443947595758	3	0,00656790193	0,000526477932
2	1	0	0	0	295881,9319	3,74218345	3,74303913	0,15473025047254918	3	0,0071682022	0,000579161395
2	1	0	0	0	295885,9327	3,82220054	3,82298899	0,16319535253569174	3	0,00780693674	0,00062389404
2	1	0	0	0	295889,9335	3,90221786	3,90309072	0,1778968859774377	3	0,0084908409	0,000694347662
2	1	0	0	0	295893,9344	3,98223615	3,98330045	0,20237665018065322	3	0,00925106741	0,000806126976
2	0	0	1	0	295897,8357	3,93962574	3,94030476	0,0049204073349337075	3	0,00959333871	1,93879041E-005
2	0	0	1	0	295901,8965	3,85840845	3,85910535	-0,030726696580165024	3	0,0095246667	0,000118577562
2	0	0	1	0	295905,8974	3,77839088	3,77918172	-0,044955075868769344	3	0,0093663726	0,000169893407
2	0	0	0	0	295909,8983	3,69837475	3,69920516	-0,05230115176419847	3	0,00916669983	0,00019347269
2	0	0	0	0	295913,8991	3,61835718	3,61910343	-0,057149105118932787	3	0,008943161	0,000206828525
2	0	0	0	0	295917,8999	3,53834009	3,53928256	-0,059576633170731917	3	0,00870546699	0,000210858532
2	0	0	1	0	295921,9009	3,45832324	3,45903015	-0,060739580058940531	3	0,0084608458	0,000210100043
2	0	0	1	0	295925,9017	3,37830615	3,37907553	-0,061465921596177037	3	0,0082132956	0,000207697987
2	0	0	1	0	295929,9025	3,29828882	3,29896545	-0,062163712801755699	3	0,00796319917	0,000205075936
2	0	0	1	0	295933,9033	3,21827197	3,21889472	-0,063064967851256256	3	0,00770945987	0,000202999494
2	0	0	0	0	295937,9043	3,13825464	3,13901591	-0,06425268993781943	3	0,00745144486	0,000201690214
2	0	0	0	0	295941,9051	3,05823755	3,05896807	-0,065703908490294835	3	0,00718783773	0,000200986164
2	0	0	0	0	295945,9059	2,9782207	2,97884846	-0,067638465651760678	3	0,00691730343	0,000201484741
2	0	0	1	0	295949,9069	2,89820361	2,8987205	-0,068835318821516774	3	0,00664040446	0,000199534348
2	0	0	1	0	295953,9076	2,81818628	2,81864142	-0,06967718343043616	3	0,00635992922	0,000196394991
2	0	0	1	0	295957,9084	2,73816919	2,73869991	-0,070086711172568371	3	0,00607692311	0,00019194647
2	0	0	1	0	295961,9092	2,6581521	2,65866995	-0,07081893728011191	3	0,00579175958	0,000188284175
2	0	0	0	0	295965,9102	2,57813501	2,57876849	-0,071739001656640269	3	0,00550354039	0,00018499828
2	0	0	0	0	295969,9110	2,49811792	2,49863625	-0,073956064077920717	3	0,00520915072	0,0001847893
2	0	0	0	0	295973,9118	2,41810083	2,41883731	-0,077788688647732301	3	0,00490332488	0,000188158185
2	0	0	0	0	295977,9127	2,33808494	2,33880329	-0,083828055117945216	3	0,00457666395	0,000196057328
2	0	0	1	0	295981,9136	2,25806665	2,2586832	-0,092009598742827328	3	0,00422206707	0,000207820529
2	0	0	1	0	295985,9544	2,17724967	2,17802119	-0,10215665170646781	3	0,00382654672	0,000222499351
2	0	0	1	0	295989,9552	2,09723234	2,09775949	-0,11253401404246666	3	0,0033936149	0,000236069289
2	0	0	0	0	295993,9562	2,01721525	2,01788044	-0,12288609445440346	3	0,00291999173	0,000247969438
2	0	0	0	0	295997,9570	1,93719852	1,93769455	-0,13630028408779805	3	0,00239919685	0,000264108327
2	0	0	0	0	296001,9578	1,85718107	1,85772181	-0,15569843589845856	3	0,00181387563	0,000289244374
2	0	0	0	0	296005,9587	1,77716339	1,77781057	-0,18625829478996403	3	0,00113076647	0,000331131974
2	0	0	1	0	296009,9596	1,69714701	1,69769704	-0,2365611196254145	3	0,000289171672	0,000401609112
2	0	0	1	0	296013,9604	1,61712992	1,61766243	-0,32791674471701837	3	-0,000822995906	0,000530458579
2	0	0	1	0	296017,9612	1,53711295	1,53785455	-0,51513290177616877	3	-0,00247187796	0,000792199455
2	0	0	0	0	296021,9622	1,45709562	1,45764649	-0,8183103962629143	3	-0,00511309458	0,00119280722
2	0	0	0	0	296026,0030	1,37627852	1,37678409	-1,1787079798954618	3	-0,0091462601	0,00162282644
2	0	0	0	0	296030,0038	1,29626131	1,29679394	-1,534365374181064	3	-0,0145829637	0,00198975578
2	0	0	0	0	296034,0047	1,21624517	1,21684873	-1,8839698584834714	3	-0,0214182008	0,0022925064
2	0	0	1	0	296038,0056	1,13622725	1,13676	-2,2601580051360166	3	-0,0297374167	0,00256925728
2	0	0	1	0	296042,0064	1,05621004	1,05677879	-2,5530972489052147	3	-0,0393848084	0,00269805896
2	1	0	0	1	296045,8678	1,02120256	1,02169037	-2,2336815123757318	3	-0,0494221933	0,002282131
2	1	0	0	1	296049,8686	1,10121953	1,10178745	-0,96710962553819034	3	-0,0555923842	0,00106554921
2	1	0	1	1	296053,9096	1,18203712	1,18265891	-0,15385067502588333	3	-0,0577469468	0,00018195287
2	1	0	1	1	296057,9904	1,26365435	1,26427352	0,42926553236665344	3	-0,0571215786	0,000542709022
2	1	0	1	1	296061,9912	1,34367156	1,34438384	0,87184320017692762	3	-0,0544812195	0,00117209193
2	1	0	0	1	296066,0322	1,4244889	1,42489922	1,2764353999109357	3	-0,0501640849	0,00181879185
2	1	0	0	1	296070,0330	1,50450587	1,50506306	1,7311324689674947	3	-0,0440560691	0,00260546361
2	1	0	0	1	296074,0338	1,58452308	1,58516872	1,8914733233827405	3	-0,0367436521	0,00299830432
2	1	0	0	1	296078,0347	1,66453958	1,66514087	1,9122226448750438	3	-0,0290735997	0,00318412017
2	1	0	1	1	296082,0356	1,74455714	1,74512255	1,5615379813092579	3	-0,0219476074	0,00272507523
2	1	0	1	1	296086,0363	1,82457411	1,82517934	1,0855020546803278	3	-0,0166745149	0,00198123581
2	1	0	1	1	296090,0371	1,90459132	1,90511608	0,61000913733409792	3	-0,0132770156	0,00116213819
2	1	0	0	1	296094,0781	1,98540843	1,98617005	0,2784317165475232	3	-0,011586953	0,000553012709
2	1	0	0	1	296098,0789	2,06542563	2,06608462	0,17879185784194896	3	-0,0107075004	0,000369399117
2	1	0	0	1	296102,0797	2,14544272	2,14617705	0,14367881061991917	3	-0,0100689456	0,000308360177
2	1	0	0	1	296106,0806	2,22546101	2,22614646	0,12871795795926666	3	-0,00952446554	0,000286545022
2	1	0	1	1	296110,0815	2,3054769	2,30615735	0,12387369276472594	3	-0,00901824795	0,000285672228
2	1	0	1	1	296114,0823	2,38549399	2,38609457	0,12128730594283632	3	-0,00852483138	0,000289402989
2	1	0	1	1	296118,0831	2,46551132	2,46608472	0,11958630096718869	3	-0,0080401022	0,000294909958
2	1	0	0	1	296122,0841	2,54552841	2,54606128	0,12348960591824643	3	-0,00755246123	0,000314412115
2	1	0	0	0	296126,0125	2,62254453	2,62318563	0,15111523697635475	4	8,45355771E-006	0,000396403309
2	1	0	0	0	296130,0133	2,70256162	2,70307779	0,11884866282344221	4	0,000514315383	0,00032125719
2	1	0	0	0	296134,0141	2,78257871	2,78306794	0,11411803529632536	4	0,000982263125	0,000317598257
2	1	0	0	0	296138,0150	2,86259532	2,86329389	0,11383348535542437	4	0,00144119945	0,000325938716
2	1	0	1	0	296142,0159	2,94261312	2,94327545	0,1157461308046337	4	0,00190352008	0,000340672734
2	1	0	1	0	296146,0167	3,02263045	3,02330565	0,1184079681902528	4	0,00237477175	0,000357983488
2	1	0	1	0	296150,0175	3,10264778	3,10333109	0,12049155840995451	4	0,00285573979	0,000373925199
2	1	0	0	0	296154,0185	3,18266392	3,18337917	0,12255889901684515	4	0,0033453349	0,000390151457
2	1	0	0	0	296158,0193	3,26268125	3,26348066	0,12484063085651563	4	0,00384358922	0,000407414977
2	1	0	0	0	296162,0201	3,34269834	3,34341764	0,12699030427675856	4	0,00435132487	0,000424581638
2	1	0	0	0	296166,0210	3,42271519	3,42340207	0,12901270071125648	4	0,00486767665	0,000441662356
2	1	0	1	0	296170,0219	3,50273252	3,50342441	0,13071598098785667	4	0,00539119728	0,000457953545
2	1	0	1	0	296174,0227	3,58274961	3,58363271	0,13395541511406694	4	0,00592370657	0,00048004702
2	1	0	1	0	296178,0235	3,66276717	3,66362333	0,14062602714532114	4	0,00647514546	0,00051520078
2	1	0	0	0	296182,0245	3,74278355	3,74353719	0,15134379127994003	4	0,00706212781	0,000566561124
2	1	0	0	0	296186,0253	3,82280111	3,82351446	0,16000331884801949	4	0,00768716913	0,000611775031
2	1	0	0	0	296190,0261	3,9028182	3,90370035	0,17577288779257418	4	0,00836001802	0,000686164713
2	1	0	0	0	296194,0270	3,98283648	3,98365664	0,20129460073991072	4	0,00911344774	0,000801888586
2	0	0	1	0	296197,9783	3,93802571	3,93880653	0,0073485628807380966	4	0,00945439842	2,8944567E-005
2	0	0	1	0	296202,0591	3,85640836	3,85707164	-0,028672179629750438	4	0,00939549413	0,000110590649
2	0	0	0	0	296206,0601	3,77639079	3,77724147	-0,043549155618099578	4	0,00924398098	0,000164495679
2	0	0	0	0	296210,0609	3,69637394	3,69718027	-0,052020672424178291	4	0,00904764794	0,000192329797
2	0	0	0	0	296214,0617	3,61635685	3,6172123	-0,056757830833602752	4	0,00882597547	0,000205305128
2	0	0	0	0	296218,0625	3,53633976	3,53702617	-0,059341969149599654	4	0,00858996063	0,000209894104
2	0	0	1	0	296222,0634	3,45632267	3,45707607	-0,060266578181958131	4	0,00834720396	0,000208346144
2	0	0	1	0	296226,0642	3,37630558	3,37688565	-0,061053408085610995	4	0,00810167938	0,000206170371
2	0	0	1	0	296230,0650	3,29628873	3,29704714	-0,061656436839795942	4	0,00785358716	0,000203284173
2	0	0	0	0	296234,0660	3,21627116	3,21690059	-0,062845388617092326	4	0,00760158245	0,000202167372
2	0	0	0	0	296238,0668	3,13625431	3,13687897	-0,063770441338418138	4	0,0073449458	0,000200040158
2	0	0	0	0	296242,0676	3,05623722	3,05673361	-0,065777957534279066	4	0,00708227744	0,00020106569
2	0	0	0	0	296246,0684	2,97621989	2,9768014	-0,067526624926055987	4	0,00681237178	0,000201013347
2	0	0	1	0	296250,0694	2,89620304	2,89673996	-0,068876846796936678	4	0,0065361294	0,000199518312
2	0	0	1	0	296254,0702	2,81618619	2,81682062	-0,069715925699305843	4	0,00625654683	0,000196377252
2	0	0	1	0	296258,0710	2,73616886	2,73673272	-0,069976232652725018	4	0,00597475749	0,000191506246
2	0	0	1	0	296262,0719	2,65615368	2,65671754	-0,070321425613240883	4	0,00569107709	0,000186824167
2	0	0	0	0	296266,0728	2,57613468	2,57662344	-0,071384108849558144	4	0,00540466886	0,000183929966
2	0	0	0	0	296270,0736	2,49611759	2,4967401	-0,07305309366158985	4	0,00511275604	0,000182394593
2	0	0	0	0	296274,0744	2,41610074	2,41683006	-0,077118106410598861	4	0,00481011812	0,000186381352
2	0	0	1	0	296278,0754	2,33608365	2,33692431	-0,082640542200315917	4	0,00448772823	0,000193124695
2	0	0	1	0	296282,0762	2,25606632	2,25669837	-0,090534483901809843	4	0,00413877098	0,000204309021
2	0	0	1	0	296286,1170	2,1752491	2,17591166	-0,10001301565379706	4	0,00375077571	0,000217619483
2	0	0	1	0	296290,1179	2,09523368	2,09586072	-0,1106399555296953	4	0,00332569983	0,000231885933
2	0	0	0	0	296294,1188	2,01521492	2,01577091	-0,12149987359427779	4	0,00285826414	0,000244915922
2	0	0	0	0	296298,1196	1,93519795	1,93588758	-0,13531290055080197	4	0,00234203017	0,000261950569
2	0	0	0	0	296302,1204	1,8551805	1,85580385	-0,1544670796849672	4	0,0017609701	0,000286660594
2	0	0	1	0	296306,1214	1,77516365	1,77572036	-0,18466810157728954	4	0,00108310697	0,000327918911
2	0	0	1	0	296310,1222	1,69514668	1,69561887	-0,23463550855025427	4	0,000248572731	0,000397852389
2	0	0	1	0	296314,1230	1,61512935	1,61572194	-0,32676762373496422	4	-0,00085719995	0,000527965603
2	0	0	1	0	296318,1239	1,53511202	1,53586495	-0,51623548076933459	4	-0,00250578462	0,00079286797
2	0	0	0	0	296322,1248	1,45509529	1,45559037	-0,82130308325093005	4	-0,00515584648	0,00119548081
2	0	0	0	0	296326,1656	1,37427819	1,37472332	-1,181341902939268	4	-0,00920053571	0,0016240183
2	0	0	0	0	296330,1664	1,29426098	1,29486227	-1,535055449577335	4	-0,0146442093	0,00198768545
2	0	0	1	0	296334,1674	1,21424377	1,21490324	-1,8834992423653498	4	-0,0214791354	0,00228826934
2	0	0	1	0	296338,1682	1,1342268	1,13482857	-2,2558652670294848	4	-0,0297918282	0,00256002042
2	0	0	1	0	296342,1690	1,05420971	1,05478489	-2,5452229957337443	4	-0,0394149348	0,00268466282
2	1	0	0	1	296346,0304	1,02320313	1,02373326	-2,1758162776629037	4	-0,0493563302	0,00222745538
2	1	0	0	1	296350,0312	1,10322011	1,10382581	-0,92799392880662528	4	-0,0553389341	0,00102434366
2	1	0	1	1	296354,0721	1,18403733	1,18479061	-0,12454977409086032	4	-0,0573568344	0,000147565399
2	1	0	1	1	296358,1529	1,2656548	1,26623166	0,4531533019272391	4	-0,056624338	0,000573797035
2	1	0	1	1	296362,1537	1,34567189	1,3461864	0,8912802531763529	4	-0,0538972877	0,00119982939
2	1	0	0	1	296366,1947	1,42648911	1,4270221	1,2974270380757459	4	-0,0495030358	0,00185145705
2	1	0	0	1	296370,1955	1,50650644	1,50711477	1,7448428794741514	4	-0,0433202833	0,00262967846
2	1	0	0	1	296374,1963	1,58652341	1,58714926	1,9002042150608141	4	-0,0359655172	0,00301590771
2	1	0	1	1	296378,1973	1,66654038	1,66713941	1,916031084126857	4	-0,0282681547	0,00319429091
2	1	0	1	1	296382,1981	1,74655759	1,74716532	1,5548119133821814	4	-0,0211524218	0,00271651335
2	1	0	1	1	296386,1989	1,8265748	1,8270843	1,0805648577710051	4	-0,0159003623	0,00197428302
2	1	0	1	1	296390,1997	1,90659189	1,90736377	0,60183470461655283	4	-0,0125277499	0,0011479177
2	1	0	0	1	296394,2407	1,987409	1,98807919	0,27369343599787354	4	-0,0108662639	0,000544124225
2	1	0	0	1	296398,2415	2,06742597	2,06811428	0,17739503287399683	4	-0,00999751966	0,000366873195
2	1	0	0	1	296402,2423	2,14744306	2,14814878	0,1433235967738713	4	-0,00936169084	0,0003078804
2	1	0	1	1	296406,2433	2,22746015	2,22812557	0,12856431586529848	4	-0,00881764479	0,000286457449
2	1	0	1	1	296410,2441	2,30747747	2,30833387	0,12350728559411371	4	-0,00831189565	0,000285096059
2	1	0	1	1	296414,2449	2,38749433	2,38820386	0,12052294829239642	4	-0,00782038551	0,000287833362
2	1	0	1	1	296418,2457	2,46751142	2,46806955	0,11857152606050038	4	-0,00733898301	0,00029264277
2	1	0	0	1	296422,2467	2,54752874	2,54812193	0,12136480457114552	4	-0,00685709901	0,000309252326
2	1	0	0	0	296426,2031	2,62534523	2,62606049	0,13389232399425178	5	2,23156767E-005	0,000351609342
2	1	0	0	0	296430,2039	2,70536256	2,70606875	0,11579589983793648	5	0,000509643636	0,000313351658
2	1	0	0	0	296434,2047	2,78537965	2,78620529	0,11245410290926317	5	0,000967844855	0,000313320226
2	1	0	1	0	296438,2057	2,86539626	2,86599565	0,11315577461694832	5	0,00142203493	0,000324303954
2	1	0	1	0	296442,2065	2,94541359	2,94599438	0,11555000663631731	5	0,00188264565	0,000340409664
2	1	0	1	0	296446,2073	3,02543044	3,02601123	0,11862319300847667	5	0,00235429569	0,00035895512
2	1	0	1	0	296450,2082	3,10544896	3,1060605	0,12079971604254446	5	0,0028366542	0,000375211239
2	1	0	0	0	296454,2091	3,18546438	3,18620086	0,12283159337110238	5	0,00332773034	0,000391366135
2	1	0	0	0	296458,2099	3,26548171	3,26606226	0,12471067515649859	5	0,00382681866	0,000407312822
2	1	0	0	0	296462,2107	3,34549904	3,34630132	0,12686953246938693	5	0,00433427235	0,000424543687
2	1	0	1	0	296466,2117	3,42551613	3,4261713	0,12829458354799539	5	0,00484888162	0,000439559226
2	1	0	1	0	296470,2125	3,50553346	3,50627279	0,12985784845012472	5	0,00536906719	0,000455317029
2	1	0	1	0	296474,2133	3,58555031	3,58629847	0,13281406455294082	5	0,00589712663	0,000476310874
2	1	0	1	0	296478,2142	3,66556883	3,6664288	0,13935716717152325	5	0,00644332729	0,000510943122
2	1	0	0	0	296482,2151	3,74558473	3,74641252	0,14983013461999373	5	0,00702499226	0,00056132552
2	1	0	0	0	296486,2159	3,82560158	3,82644296	0,15891068861647085	5	0,00764466915	0,000608062663
2	1	0	0	0	296490,2166	3,90561867	3,90649557	0,17516108547096288	5	0,00831441302	0,000684265979
2	1	0	1	0	296494,2176	3,985636	3,98649001	0,20207063281150272	5	0,00906836335	0,000805552583
2	0	0	1	0	296498,1288	3,9360249	3,93696833	0,0089235661003775053	5	0,00938648544	3,51317976E-005
2	0	0	1	0	296502,2096	3,85440803	3,85538054	-0,026119098261309302	5	0,00933649484	0,000100699064
2	0	0	0	0	296506,2106	3,77439117	3,77505231	-0,042129908537458182	5	0,00919289421	0,000159042611
2	0	0	0	0	296510,2114	3,69437361	3,69526649	-0,051011388077987718	5	0,00900149811	0,000188500679
2	0	0	0	0	296514,2122	3,61435628	3,6152451	-0,056220375294623981	5	0,0087828692	0,000203250442
2	0	0	0	0	296518,2131	3,5343411	3,53496718	-0,058909214070597133	5	0,00854907278	0,000208242142
2	0	0	1	0	296522,2140	3,4543221	3,4551177	-0,059865476770535334	5	0,00830839295	0,000206842262
2	0	0	1	0	296526,2148	3,37430501	3,37500739	-0,060435617489189798	5	0,00806471985	0,00020397066
2	0	0	1	0	296530,2156	3,29428816	3,29492855	-0,061355610817879219	5	0,00781836826	0,000202162351
2	0	0	0	0	296534,2166	3,21427083	3,21486688	-0,062339442463041459	5	0,00756779453	0,000200413007
2	0	0	0	0	296538,2174	3,13425374	3,13492537	-0,063773488988063898	5	0,00731220329	0,000199925125
2	0	0	0	0	296542,2182	3,05423689	3,05490017	-0,065573958429954394	5	0,00705016917	0,000200321898
2	0	0	1	0	296546,2192	2,97421956	2,97484303	-0,067371860853637274	5	0,00678076968	0,000200420705
2	0	0	1	0	296550,2200	2,89420295	2,8947506	-0,068618223855824947	5	0,00650513545	0,000198632639
2	0	0	1	0	296554,2208	2,81418562	2,81477332	-0,069391361230777933	5	0,00622636452	0,000195320958
2	0	0	1	0	296558,2216	2,73416877	2,7346189	-0,069591386752477222	5	0,0059456029	0,000190305916
2	0	0	0	0	296562,2226	2,65415144	2,65466881	-0,070115266798959411	5	0,00566311274	0,000186132806
2	0	0	0	0	296566,2234	2,57413411	2,57467866	-0,0708086141988784	5	0,00537806144	0,000182309421
2	0	0	0	0	296570,2242	2,49411726	2,49481726	-0,072785167290862374	5	0,00508772302	0,000181585696
2	0	0	0	0	296574,2251	2,41410136	2,41492629	-0,076501933272983718	5	0,00478692632	0,000184746532
2	0	0	1	0	296578,2260	2,33408308	2,33482361	-0,0820988436936656	5	0,00446688756	0,000191686326
2	0	0	1	0	296582,2268	2,25406599	2,25469565	-0,089764712999263258	5	0,00412081694	0,000202392112
2	0	0	1	0	296586,2676	2,17324853	2,17396212	-0,099288525680695462	5	0,00373647898	0,00021584949
2	0	0	0	0	296590,2686	2,09323168	2,09381151	-0,10992695508455918	5	0,00331477704	0,000230166319
2	0	0	0	0	296594,2694	2,01321459	2,01378584	-0,12152070214075384	5	0,00284913601	0,000244716677
2	0	0	0	0	296598,2702	1,9331975	1,93393385	-0,13524344411713051	5	0,00233291974	0,000261551875
2	0	0	0	0	296602,2711	1,85318041	1,85366285	-0,15498505996068435	5	0,00175099785	0,000287290051
2	0	0	1	0	296606,2720	1,77316308	1,77393103	-0,18487726617603606	5	0,00107234181	0,000327959511
2	0	0	1	0	296610,2728	1,69314623	1,69374502	-0,23489576671272816	5	0,000237424974	0,000397853524
2	0	0	1	0	296614,2736	1,61312914	1,61379945	-0,32768952122164838	5	-0,000869737472	0,000528825156
2	0	0	0	0	296618,2746	1,53311205	1,53353786	-0,51965354410585805	5	-0,0025263892	0,000796908396
2	0	0	0	0	296622,2753	1,45309484	1,45374787	-0,82595335195460787	5	-0,00519242883	0,00120072789
2	0	0	0	0	296626,3161	1,37227774	1,37288976	-1,1853840047562194	5	-0,00925529841	0,00162740157
2	0	0	0	0	296630,3170	1,29226053	1,29276574	-1,5373301518040515	5	-0,0147126457	0,00198740768
2	0	0	1	0	296634,3179	1,21224344	1,21280253	-1,8851556303324237	5	-0,0215544924	0,00228632148
2	0	0	1	0	296638,3187	1,13222623	1,13278997	-2,2542173120157757	5	-0,0298690088	0,00255355472
2	0	0	1	0	296642,3195	1,05220914	1,05263078	-2,540850810154673	5	-0,0394794345	0,00267457776
2	1	0	0	1	296646,1809	1,02520347	1,02584279	-2,12241085480764	5	-0,0493335426	0,00217725988
2	1	0	0	1	296650,1818	1,1052196	1,10585415	-0,8925634087671703	5	-0,0551441647	0,000987045001
2	1	0	1	1	296654,2227	1,18603778	1,18659317	-0,098179011252122355	5	-0,057039246	0,000116498544
2	1	0	1	1	296658,3035	1,26765537	1,26822567	0,47382862065678342	5	-0,0562113635	0,00060092163
2	1	0	1	1	296662,3044	1,34767365	1,34827948	0,90858734115088205	5	-0,0534081161	0,0012250297
2	1	0	0	1	296666,3453	1,42848969	1,42901611	1,3166307576552896	5	-0,0489454642	0,00188148662
2	1	0	0	1	296670,3461	1,50850689	1,50903285	1,756972645443879	5	-0,042695798	0,00265132939
2	1	0	0	1	296674,3469	1,58852363	1,58912981	1,9072153129511094	5	-0,0353063978	0,0030308126
2	1	0	1	1	296678,3479	1,66854084	1,66913784	1,9177276268601632	5	-0,0275897626	0,00320095173
2	1	0	1	1	296682,3487	1,74855793	1,74929726	1,5459306303549603	5	-0,020493133	0,0027042923
2	1	0	1	1	296686,3495	1,8285749	1,82904696	1,073834625935092	5	-0,0152687281	0,00196409388
2	1	0	1	1	296690,3504	1,9085927	1,90928721	0,59309749241126221	5	-0,0119262692	0,00113239349
2	1	0	0	1	296694,3913	1,98940945	1,9901309	0,26946053381457168	5	-0,0102935415	0,000536261708
2	1	0	0	1	296698,3921	2,06942677	2,07007241	0,17607665500017466	5	-0,0094357729	0,000364491425
2	1	0	0	1	296702,3929	2,14944363	2,15011144	0,14322851869036413	5	-0,00880321953	0,000307957263
2	1	0	1	1	296706,3939	2,22946072	2,2301774	0,12860177850557797	5	-0,00825987756	0,000286804774
2	1	0	1	1	296710,3947	2,30947757	2,31009626	0,12345662283608005	5	-0,00775443623	0,000285196671
2	1	0	1	1	296714,3955	2,3894949	2,39025569	0,12015119562339115	5	-0,00726406416	0,000287192088
2	1	0	1	1	296718,3964	2,46951246	2,47016692	0,11826562063367734	5	-0,00678464025	0,00029213581
2	1	0	0	1	296722,3973	2,54952908	2,55013371	0,11975008885686477	5	-0,00630641216	0,000305378751
2	1	0	0	0	296726,2977	2,62614536	2,62671041	0,13009083095110242	6	2,16578319E-005	0,000341710955
2	1	0	0	0	296730,2985	2,70616269	2,70676732	0,11414231711791211	6	0,000498692447	0,000308956689
2	1	0	0	0	296734,2993	2,78617954	2,78689075	0,11158347919721395	6	0,000951917493	0,000310970965
2	1	0	1	0	296738,3003	2,86619663	2,86698341	0,11281646864005862	6	0,00140348193	0,000323442946
2	1	0	1	0	296742,3011	2,94621396	2,94685793	0,11545607916735445	6	0,00186295027	0,000340232655
2	1	0	1	0	296746,3019	3,02623081	3,02684379	0,1188062235230123	6	0,002334608	0,00035960789
2	1	0	1	0	296750,3028	3,10624814	3,10691881	0,12099955662177541	6	0,00281773903	0,000375935808
2	1	0	0	0	296754,3037	3,18626475	3,18693113	0,12314180959085013	6	0,0033096543	0,000392444461
2	1	0	0	0	296758,3044	3,26628208	3,26700091	0,12469836512442755	6	0,00380916474	0,000407389685
2	1	0	0	0	296762,3052	3,34629893	3,34698701	0,12677218192429395	6	0,0043162927	0,000424304832
2	1	0	1	0	296766,3062	3,42631602	3,42713308	0,12788998982351907	6	0,00482948078	0,000438296003
2	1	0	1	0	296770,3070	3,50633383	3,50711846	0,1292196487042061	6	0,00534724863	0,000453188608
2	1	0	1	0	296774,3078	3,58635068	3,58717132	0,13204544918887717	6	0,00587202096	0,000473669643
2	1	0	1	0	296778,3087	3,66636944	3,66714454	0,13840354678702149	6	0,00641440134	0,000507545832
2	1	0	0	0	296782,3096	3,74638462	3,74729395	0,14875828186740093	6	0,00699194288	0,000557441032
2	1	0	0	0	296786,3104	3,82640171	3,82727957	0,1580989845269567	6	0,0076076393	0,000605089008
2	1	0	0	0	296790,3112	3,90641904	3,90714526	0,17452029285399907	6	0,00827447232	0,000681876147
2	1	0	1	0	296794,3122	3,98643589	3,98736644	0,20231209039964781	6	0,00902752951	0,000806692464
2	0	0	1	0	296798,1834	3,93602538	3,93702173	0,011408741022157998	6	0,00934201013	4,49164618E-005
2	0	0	1	0	296802,2643	3,85440636	3,85512114	-0,023371731137657338	6	0,00930323731	9,01008534E-005
2	0	0	0	0	296806,2652	3,77439094	3,7752831	-0,040027200434081203	6	0,0091694966	0,000151114014
2	0	0	0	0	296810,2660	3,69437361	3,69500852	-0,049638148190246406	6	0,00898506492	0,000183413387
2	0	0	0	0	296814,2668	3,61435676	3,61513805	-0,055256553520276141	6	0,00877110474	0,000199760063
2	0	0	1	0	296818,2678	3,53433967	3,53523231	-0,058241600739871501	6	0,00854062755	0,000205897595
2	0	0	1	0	296822,2686	3,45432234	3,45511341	-0,059250550284224653	6	0,00830256008	0,000204717377
2	0	0	1	0	296826,2694	3,37430501	3,37495399	-0,059924716104027494	6	0,00806098804	0,000202243158
2	0	0	1	0	296830,2702	3,29428816	3,29505754	-0,060932976642141926	6	0,0078163594	0,000200777664
2	0	0	0	0	296834,2712	3,21427107	3,21492481	-0,062069712353319373	6	0,00756708207	0,000199549453
2	0	0	0	0	296838,2720	3,13425374	3,13505054	-0,06353499757608864	6	0,00731246406	0,000199185422
2	0	0	0	0	296842,2728	3,05423689	3,05480671	-0,065419048588309824	6	0,00705111073	0,000199842543
2	0	0	1	0	296846,2738	2,97421956	2,97474957	-0,067263140351751347	6	0,00678229611	0,000200091003
2	0	0	1	0	296850,2746	2,89420295	2,89479041	-0,068441682521047437	6	0,00650727842	0,000198124326
2	0	0	1	0	296854,2754	2,81418562	2,81477809	-0,069229895757789709	6	0,00622922974	0,000194866792
2	0	0	1	0	296858,2763	2,73416686	2,73476815	-0,06937626180577216	6	0,00594927603	0,000189727987
2	0	0	0	0	296862,2772	2,6541512	2,65473986	-0,069861880227647283	6	0,00566776888	0,00018546512
2	0	0	0	0	296866,2780	2,57413411	2,57456303	-0,070525354412555917	6	0,00538385194	0,000181571973
2	0	0	0	0	296870,2788	2,49411726	2,4947238	-0,072465845642404544	6	0,00509478291	0,00018078227
2	0	0	1	0	296874,2798	2,41409993	2,41480947	-0,076000685493153421	6	0,00479556201	0,000183527169
2	0	0	1	0	296878,2806	2,33408284	2,33483243	-0,081552819728300416	6	0,00447748229	0,000190412175
2	0	0	1	0	296882,2814	2,25406599	2,25469995	-0,08905360271671337	6	0,00413392065	0,00020078916
2	0	0	1	0	296886,3222	2,17324853	2,17383742	-0,098450655979963827	6	0,00375262229	0,000214015716
2	0	0	0	0	296890,3231	2,09323168	2,09376264	-0,10930756448457686	6	0,00333389034	0,000228864097
2	0	0	0	0	296894,3239	2,01321459	2,01386595	-0,12125064596464896	6	0,00287001184	0,000244182535
2	0	0	0	0	296898,3247	1,93319738	1,93371582	-0,13509856599073178	6	0,00235457509	0,00026124224
2	0	0	0	0	296902,3256	1,853181	1,85392225	-0,15475474241355379	6	0,00177323131	0,000286903261
2	0	0	1	0	296906,3265	1,77316344	1,77386868	-0,1843826655574481	6	0,00109592162	0,000327070622
2	0	0	1	0	296910,3273	1,69314611	1,69372725	-0,23378706926963754	6	0,000264212256	0,000395971525
2	0	0	1	0	296914,3281	1,61312914	1,6137681	-0,32586970514859014	6	-0,000836961903	0,00052587816
2	0	0	0	0	296918,3291	1,53311193	1,53367126	-0,51698480739637274	6	-0,00248454884	0,000792884734
2	0	0	0	0	296922,3299	1,45309484	1,45366323	-0,82235303383180634	6	-0,00513803121	0,00119542435
2	0	0	0	0	296926,3707	1,37227774	1,37290311	-1,1810954418722837	6	-0,0091850739	0,00162152958
2	0	0	0	0	296930,3716	1,2922622	1,29284346	-1,5318957013464109	6	-0,0146232462	0,00198050123
2	0	0	1	0	296934,3725	1,21224344	1,212816	-1,8782757145386954	6	-0,0214410424	0,00227800291
2	0	0	1	0	296938,3733	1,13222635	1,13272333	-2,2464289830791043	6	-0,0297261961	0,00254458259
2	0	0	1	0	296942,3741	1,05220926	1,05276895	-2,5315742056678765	6	-0,0393022336	0,00266516278
2	1	0	0	1	296946,1355	1,0230031	1,02350628	-2,1547949543153885	6	-0,0489067361	0,00220544613
2	1	0	0	1	296950,1363	1,10301995	1,10354996	-0,90860666831330765	6	-0,0548077114	0,00100269285
2	1	0	1	1	296954,1773	1,18383741	1,18447471	-0,10698368921185875	6	-0,0567510538	0,000126719475
2	1	0	1	1	296958,2581	1,26545489	1,2659514	0,46865718542703584	6	-0,0559511147	0,000593297242
2	1	0	1	1	296962,2589	1,34547198	1,34607065	0,9050448801782167	6	-0,0531655401	0,00121825433
2	1	0	0	1	296966,2999	1,42628932	1,42671049	1,3084292560816024	6	-0,0487208143	0,00186674972
2	1	0	0	1	296970,3007	1,50630629	1,50685644	1,7543876734044234	6	-0,042498827	0,00264361035
2	1	0	0	1	296974,3015	1,58632326	1,58681118	1,9087609320327434	6	-0,0351082273	0,00302884309
2	1	0	0	1	296978,3024	1,66634107	1,66698372	1,9245237676509178	6	-0,027376974	0,00320814969
2	1	0	1	1	296982,3033	1,74635732	1,74700511	1,564443285542552	6	-0,0202252939	0,00273309043
2	1	0	1	1	296986,3041	1,82637465	1,82708001	1,0906896898868333	6	-0,0149338748	0,00199277722
2	1	0	1	1	296990,3049	1,90639162	1,90704334	0,60848914790484173	6	-0,011524721	0,00116041512
2	1	0	0	1	296994,3359	1,98700917	1,98763895	0,27350484755717686	6	-0,00985708367	0,000543628877
2	1	0	0	1	296998,3367	2,06702614	2,06769133	0,17724072177790528	6	-0,00899023004	0,0003664791
2	1	0	0	1	297002,3375	2,14704299	2,14764142	0,14369237114226462	6	-0,00835404452	0,000308599701
2	1	0	0	1	297006,3384	2,22706103	2,22773457	0,12903521485296032	6	-0,00780838076	0,000287456205
2	1	0	1	1	297010,3393	2,30707717	2,30786204	0,12355177132067989	6	-0,00730184326	0,000285140442
2	1	0	1	1	297014,3401	2,38709426	2,38775444	0,12014891695300634	6	-0,00681144698	0,000286886119
2	1	0	1	1	297018,3409	2,46711135	2,46760225	0,11774020136713648	6	-0,00633272808	0,000290535972
2	1	0	0	1	297022,3419	2,54712868	2,54774809	0,11877042915741077	6	-0,00585711841	0,000302597124
2	1	0	0	0	297026,2944	2,6245451	2,62509918	0,13859751936117515	7	7,75726494E-006	0,000363832223
2	1	0	0	0	297030,2952	2,70456243	2,70522738	0,11311983824189942	7	0,000480297778	0,000306014874
2	1	0	0	0	297034,2960	2,78457928	2,78534222	0,11105116601619536	7	0,000930919137	0,00030931551
2	1	0	1	0	297038,2970	2,86459661	2,86538124	0,11220514185519814	7	0,00138074672	0,00032151051
2	1	0	1	0	297042,2978	2,94461346	2,94526458	0,115264247706232	7	0,00183920434	0,000339483697
2	1	0	1	0	297046,2986	3,02463055	3,02533484	0,11865456028047693	7	0,00231062947	0,000358969788
2	1	0	1	0	297050,2994	3,10464787	3,10531163	0,121105571743104	7	0,00279403199	0,000376070529
2	1	0	0	0	297054,3004	3,18466449	3,18531513	0,12304743884683144	7	0,00328634633	0,000391944865
2	1	0	0	0	297058,3012	3,26468182	3,2654345	0,1248456653793899	7	0,00378607772	0,000407675339
2	1	0	0	0	297062,3020	3,34469867	3,3455627	0,12624794681108398	7	0,00429273909	0,000422370416
2	1	0	0	0	297066,3029	3,42471552	3,4254055	0,12743546564674624	7	0,00480458234	0,000436518138
2	1	0	1	0	297070,3038	3,50473309	3,50542307	0,12839333644067608	7	0,00532037299	0,000450072956
2	1	0	1	0	297074,3046	3,58475065	3,58563972	0,13097980847858248	7	0,00584246451	0,000469646417
2	1	0	1	0	297078,3054	3,66476703	3,66563892	0,1371986464493813	7	0,00638116291	0,00050292071
2	1	0	0	0	297082,3064	3,74478459	3,74562931	0,14762183540948646	7	0,00695422944	0,00055293669
2	1	0	0	0	297086,3072	3,82480168	3,82561946	0,1568769967631865	7	0,00756546063	0,000600151718
2	1	0	0	0	297090,3080	3,90481853	3,90557432	0,17373640959461434	7	0,00822816696	0,00067854044
2	1	0	0	0	297094,3089	3,98483682	3,98562312	0,20103921748496269	7	0,00897721481	0,000801266578
2	0	0	1	0	297098,2602	3,9360249	3,93676376	0,013464033493720189	7	0,00931132119	5,30047182E-005
2	0	0	1	0	297102,3411	3,85440731	3,85520649	-0,020799850824554598	7	0,00928232726	8,01877177E-005
2	0	0	0	0	297106,3420	3,77439094	3,77510953	-0,037789467127165574	7	0,00915820803	0,000142659381
2	0	0	0	0	297110,3428	3,69437361	3,69516397	-0,04795563425351257	7	0,00898144767	0,000177203925
2	0	0	0	0	297114,3436	3,61435628	3,61513853	-0,054076706447326208	7	0,00877304468	0,00019549478
2	0	0	1	0	297118,3446	3,53433967	3,53517008	-0,057317194839318963	7	0,00854672771	0,000202626034
2	0	0	1	0	297122,3454	3,4543221	3,45509553	-0,058540767420909299	7	0,00831180159	0,000202263938
2	0	0	1	0	297126,3462	3,37430501	3,37516308	-0,059380183643143565	7	0,00807273109	0,00020041781
2	0	0	1	0	297130,3470	3,29428768	3,2949152	-0,060547651904116595	7	0,00782991294	0,00019949938
2	0	0	0	0	297134,3480	3,21427107	3,21493363	-0,061815001648264922	7	0,00758205075	0,000198731126
2	0	0	0	0	297138,3488	3,13425374	3,13489032	-0,063413417027157862	7	0,00732832402	0,000198794107
2	0	0	0	0	297142,3496	3,05423713	3,05488682	-0,065256477437085184	7	0,0070675984	0,000199351154
2	0	0	1	0	297146,3506	2,97421956	2,97479415	-0,067157313503601485	7	0,00679928763	0,000199779184
2	0	0	1	0	297150,3514	2,89420271	2,89462137	-0,068350354442374694	7	0,0065247668	0,000197848392
2	0	0	1	0	297154,3522	2,81418586	2,8147471	-0,069066702414095795	7	0,00624725362	0,000194405293
2	0	0	1	0	297158,3531	2,73416662	2,734653	-0,069192280377185395	7	0,00596795091	0,00018921688
2	0	0	0	0	297162,3539	2,65415144	2,65467334	-0,069673097588948237	7	0,0056871986	0,00018495931
2	0	0	0	0	297166,3547	2,57413411	2,57460761	-0,070280553126294106	7	0,00540416315	0,000180944844
2	0	0	0	0	297170,3555	2,49411726	2,4947238	-0,072192900391571942	7	0,00511608506	0,000180101342
2	0	0	1	0	297174,3565	2,41410017	2,41500545	-0,07567612701785353	7	0,0048180623	0,00018275826
2	0	0	1	0	297178,3573	2,33408284	2,33476138	-0,081118313862975194	7	0,00450156722	0,000189391911
2	0	0	1	0	297182,3581	2,25406623	2,25488234	-0,088480285101533274	7	0,00415998278	0,000199512637
2	0	0	1	0	297186,3789	2,1736486	2,17431855	-0,097531818772833126	7	0,00378313009	0,00021206525
2	0	0	0	0	297190,3999	2,09323168	2,09374046	-0,10868005708067186	7	0,00336521002	0,000227547833
2	0	0	0	0	297194,4007	2,01321435	2,01384807	-0,12081315735768605	7	0,00290345703	0,00024329935
2	0	0	0	0	297198,4015	1,93319738	1,93381345	-0,13468369932983331	7	0,00238968804	0,000260453147
2	0	0	0	0	297202,4024	1,85318112	1,85383308	-0,15427652378786493	7	0,0018101146	0,000286002934
2	0	0	1	0	297206,4033	1,77316332	1,77376175	-0,18356504546547914	7	0,00113545894	0,000325600646
2	0	0	1	0	297210,4041	1,69314611	1,69376302	-0,23249284429820173	7	0,000307900104	0,000393787777
2	0	0	1	0	297214,4049	1,61312914	1,61388826	-0,32384821120649619	7	-0,000786568853	0,000522654853
2	0	0	0	0	297218,4059	1,53311205	1,53372478	-0,51415186168417382	7	-0,00242445664	0,000788567471
2	0	0	0	0	297222,4067	1,45309484	1,45375216	-0,81888653462132582	7	-0,00506537315	0,00119045808
2	0	0	0	0	297226,4475	1,37227774	1,37299216	-1,1768576787025467	7	-0,00909670163	0,00161581638
2	0	0	1	0	297230,4485	1,29226053	1,29269493	-1,5270185870705219	7	-0,0145167019	0,00197396916
2	0	0	1	0	297234,4493	1,21224344	1,21282494	-1,8720820780705373	7	-0,0213123802	0,00227050786
2	0	0	1	0	297238,4501	1,13222647	1,13290131	-2,2397846698208886	7	-0,0295708515	0,00253745494
2	0	0	1	0	297242,4509	1,05220926	1,05272436	-2,5237506054066115	7	-0,039118208	0,00265681371
2	1	0	0	1	297246,2123	1,02300298	1,02363098	-2,1461610587106554	7	-0,0486910269	0,00219687703
2	1	0	0	1	297250,2131	1,10302007	1,10355437	-0,90031196618522278	7	-0,0545582734	0,000993543188
2	1	0	1	1	297254,2541	1,18383741	1,18457711	-0,099475291824933312	7	-0,0564697012	0,000117836156
2	1	0	1	1	297258,3349	1,26545477	1,2660315	0,4753348039532215	7	-0,0556405336	0,000601788808
2	1	0	1	1	297262,3357	1,34547198	1,34600842	0,91107600306471514	7	-0,0528295375	0,00122631597
2	1	0	0	1	297266,3767	1,4262892	1,42694199	1,3131966389439605	7	-0,0483627282	0,00187385548
2	1	0	0	1	297270,3775	1,50630617	1,50686109	1,7586293824844397	7	-0,0421229415	0,00265001017
2	1	0	0	1	297274,3783	1,58632338	1,58688664	1,9122523320494	7	-0,0347163901	0,00303452765
2	1	0	0	1	297278,3792	1,66634154	1,66685641	1,9281645521855814	7	-0,0269701276	0,00321397348
2	1	0	1	1	297282,3801	1,74635768	1,74700952	1,5675300841254442	7	-0,0198044311	0,00273849
2	1	0	1	1	297286,3809	1,82637465	1,82705748	1,0939549180092664	7	-0,0145002231	0,0019987186
2	1	0	1	1	297290,3817	1,90639162	1,90719461	0,60942305500310029	7	-0,0110812224	0,00116228836
2	1	0	0	1	297294,4226	1,9872092	1,98793268	0,27184217895759933	7	-0,00941317342	0,00054040394
2	1	0	0	1	297298,4234	2,06722593	2,06786942	0,17666474684935539	7	-0,00855069794	0,000365319633
2	1	0	0	1	297302,4242	2,14724326	2,14796209	0,14356550784712851	7	-0,00791580696	0,000308373274
2	1	0	0	1	297306,4251	2,22726154	2,22792673	0,12913242408905301	7	-0,0073700333	0,000287697592
2	1	0	1	1	297310,4260	2,30727744	2,30798674	0,12355003566308821	7	-0,00686315913	0,000285151851
2	1	0	1	1	297314,4268	2,38729429	2,38809729	0,11997544748225699	7	-0,00637286436	0,000286513037
2	1	0	1	1	297318,4276	2,46731138	2,46784711	0,11750859373973066	7	-0,00589462509	0,000289993244
2	1	0	0	1	297322,4286	2,54732847	2,54802394	0,11799816630297554	7	-0,00542052649	0,000300662155
2	1	0	0	1	297326,1736	2,62224531	2,62288785	0,11890133917331669	7	-0,00497324159	0,000311864889