File: Experimentelles/Rohdaten/Batterietests/AlteZelle/Batterietest Li vs LATP/ECLab-Export/LATP vs Li Batterietest Probe1_02_GCPL_C01_loop2.mpt
EC-Lab ASCII FILE
Nb header lines : 3
mode	ox/red	error	control changes	Ns changes	counter inc.	Ns	time/s	control/V/mA	Ewe/V	dq/mA.h	<I>/mA	P/W	(Q-Qo)/mA.h	x	Capacity/mA.h
1	1	0	1	1	0	1	7823,03	0,100000001	1,21294248	0	0	0	0	0	0
1	1	0	1	0	0	1	7835,03	0,100000001	1,50263131	5,5562969099316333E-005	0,10001334558965032	0,000150283187	0,00033200522935438598	-1,2387561492990544E-005	0,00033200522935438598
1	1	0	1	0	0	1	7847,03	0,100000001	1,64555669	5,5562955546710227E-005	0,10001332119495904	0,000164577592	0,0006653827801794487	-2,4826326145157872E-005	0,0006653827801794487
1	1	0	1	0	0	1	7859,03	0,100000001	1,7843194	5,5562818384418886E-005	0,10001307430283163	0,000178455273	0,00099875991306129536	-3,7265075203301882E-005	0,00099875991306129536
1	1	0	1	0	0	1	7871,03	0,100000001	1,93093014	5,5562837072544627E-005	0,1000131079414584	0,000193118321	0,0013321370554409766	-4,970382461582288E-005	0,0013321370554409766
1	1	0	1	0	0	1	7883,03	0,100000001	2,08466339	5,556281389296055E-005	0,10001306621820651	0,000208493584	0,0016655137644787475	-6,2142557859774554E-005	0,0016655137644787475
1	1	0	1	0	0	1	7895,03	0,100000001	2,24057317	5,5562891008125408E-005	0,10001320502550494	0,000224086907	0,0019988911562479882	-7,4581316577355315E-005	0,0019988911562479882
1	1	0	1	0	0	1	7907,03	0,100000001	2,38029051	5,5562816907134317E-005	0,10001307164371938	0,000238060165	0,0023322684029556659	-8,7020069882494118E-005	0,0023322684029556659
1	1	0	1	0	0	1	7919,03	0,100000001	2,4650147	5,556280197865433E-005	0,10001304477245507	0,000246533629	0,0026656456409221571	-9,9458822861487526E-005	0,0026656456409221571
1	1	0	1	0	0	1	7931,03	0,100000001	2,49990106	5,5562827941030266E-005	0,10001309150473232	0,000250022829	0,002999022576327607	-0,00011189756455152165	0,002999022576327607
1	1	0	1	0	0	1	7943,03	0,100000001	2,5178504	5,5562826624347104E-005	0,10001308913470261	0,000251817983	0,0033323995534087072	-0,00012433630779653032	0,0033323995534087072
1	1	0	1	0	0	1	7955,03	0,100000001	2,52955556	5,556282023547424E-005	0,10001307763473131	0,000252988626	0,003665776357341625	-0,00013677504458114754	0,003665776357341625
1	1	0	1	0	0	1	7967,03	0,100000001	2,5380528	5,5562708398534189E-005	0,10001287632823678	0,000253837963	0,003999152793522992	-0,0001492137676444599	0,003999152793522992
1	1	0	1	0	0	1	7979,03	0,100000001	2,54506063	5,5562729712575674E-005	0,1000129146935119	0,000254538929	0,0043325290678421504	-0,00016165248466847568	0,0043325290678421504
1	1	0	1	0	0	1	7991,03	0,100000001	2,55113268	5,5562763379679782E-005	0,10001297529430005	0,000255146384	0,0046659059629287834	-0,00017409122485416054	0,0046659059629287834
1	1	0	1	0	0	1	8003,03	0,100000001	2,556422	5,5562868917981786E-005	0,10001316526324595	0,00025567587	0,0049992830731670733	-0,00018652997306744304	0,0049992830731670733
1	1	0	1	0	0	1	8015,03	0,100000001	2,56136751	5,5562807682073779E-005	0,10001305503861021	0,000256170199	0,0053326600146728928	-0,00019896871498509014	0,0053326600146728928
1	1	0	1	0	0	1	8027,03	0,100000001	2,5657022	5,5562720737523501E-005	0,10001289853841782	0,000256603322	0,0056660365891366208	-0,00021140744320790333	0,0056660365891366208
1	1	0	1	0	0	1	8039,03	0,100000001	2,56980753	5,5562788902057536E-005	0,10001302123458058	0,00025701421	0,0059994129983886925	-0,00022384616526644752	0,0059994129983886925
1	1	0	1	0	0	1	8051,03	0,100000001	2,57366467	5,5562806273500128E-005	0,1000130525031776	0,000257400068	0,0063327899016655834	-0,00023628490575772192	0,0063327899016655834
1	1	0	1	0	0	1	8063,03	0,100000001	2,57754111	5,5562881828182272E-005	0,10001318850160712	0,00025778811	0,0066661669629357606	-0,00024872365214393824	0,0066661669629357606
1	1	0	1	0	0	1	8075,03	0,100000001	2,58111167	5,5562847596075802E-005	0,1000131268838147	0,000258145039	0,0069995441962030042	-0,00026116240494759642	0,0069995441962030042
1	1	0	1	0	0	1	8087,03	0,100000001	2,58462524	5,5562795805434387E-005	0,10001303366065904	0,000258496206	0,0073329210578154214	-0,00027360114388431325	0,0073329210578154214
1	1	0	1	0	0	1	8099,03	0,100000001	2,58808136	5,5562849592003552E-005	0,10001313047648472	0,000258842105	0,0076662977086074496	-0,00028603987495503798	0,0076662977086074496
1	1	0	1	0	0	1	8111,03	0,100000001	2,59149933	5,5562774011658298E-005	0,1000129944318616	0,000259183609	0,0079996744548000243	-0,00029847860958528531	0,0079996744548000243
1	1	0	1	0	0	1	8123,03	0,100000001	2,59480286	5,5562766287475821E-005	0,10001298052833299	0,000259513967	0,0083330511998787366	-0,00031091734417397299	0,0083330511998787366
1	1	0	1	0	0	1	8135,03	0,100000001	2,59812522	5,5562866024672979E-005	0,10001316005529003	0,000259846711	0,0086664283933996173	-0,0003233560954946409	0,0086664283933996173
1	1	0	1	0	0	1	8147,03	0,100000001	2,6013906	5,5562751686407462E-005	0,10001295424640963	0,000260172761	0,008999805381417344	-0,00033579483914770982	0,008999805381417344
1	1	0	1	0	0	1	8159,03	0,100000001	2,6046176	5,5562827463779187E-005	0,10001309064568037	0,000260495843	0,0093331822607488947	-0,00034823357874555142	0,0093331822607488947
1	1	0	1	0	0	1	8171,03	0,100000001	2,6079402	5,5562809370458125E-005	0,10001305807770206	0,000260828063	0,0096665598028414656	-0,00036067234307189766	0,0096665598028414656
1	1	0	1	0	0	1	8183,03	0,100000001	2,61114812	5,5562854546639654E-005	0,10001313939482981	0,000261149107	0,0099999364420834381	-0,0003731110737116743	0,0099999364420834381
1	1	0	1	0	0	1	8195,03	0,100000001	2,61443233	5,5562826569709517E-005	0,10001308903635494	0,000261477457	0,010333313019931798	-0,0003855498020607728	0,010333313019931798
1	1	0	1	0	0	1	8207,03	0,100000001	2,61762118	5,5562738504674701E-005	0,10001293051929035	0,000261795969	0,010666690093217693	-0,00039798854889531162	0,010666690093217693
1	1	0	1	0	0	1	8219,03	0,100000001	2,62082911	5,5562881323198477E-005	0,10001318759263626	0,000262117479	0,011000066858857939	-0,00041042728425117779	0,011000066858857939
1	1	0	1	0	0	1	8231,03	0,100000001	2,62388444	5,5562754470027155E-005	0,10001295925692514	0,000262422458	0,011333443618183402	-0,00042286601937143078	0,011333443618183402
1	1	0	1	0	0	1	8243,03	0,100000001	2,62735963	5,5562818112886611E-005	0,10001307381407354	0,000262770307	0,01166682021103392	-0,00043530474828027987	0,01166682021103392
1	1	0	1	0	0	1	8255,03	0,100000001	2,63062477	5,5562865692294304E-005	0,10001315945700842	0,000263097085	0,01200019722648427	-0,0004477434929568969	0,01200019722648427
1	1	0	1	0	0	1	8267,03	0,100000001	2,63390923	5,5562856239577133E-005	0,1000131424421173	0,000263425551	0,012333574430262946	-0,00046018224466029683	0,012333574430262946
1	1	0	1	0	0	1	8279,03	0,100000001	2,63723159	5,5562899921503334E-005	0,10001322106958541	0,000263758033	0,012666951814200798	-0,00047262100308567802	0,012666951814200798
1	1	0	1	0	0	1	8291,03	0,100000001	2,64043975	5,5562923478169574E-005	0,10001326347158515	0,00026407899	0,013000329384139912	-0,00048505976845101626	0,013000329384139912
1	1	0	1	0	0	1	8303,03	0,100000001	2,64381933	5,5562862882183654E-005	0,10001315439880918	0,000264416711	0,013333706617590523	-0,00049749852126151616	0,013333706617590523
1	1	0	1	0	0	1	8315,03	0,100000001	2,64731383	5,556288430550032E-005	0,10001319296077965	0,000264766306	0,013667083949674819	-0,00050993727775217146	0,013667083949674819
1	1	0	1	0	0	1	8327,03	0,100000001	2,65082717	5,5562848721113472E-005	0,10001312890888254	0,000265117531	0,014000461214662498	-0,00052237603173936154	0,014000461214662498
1	1	0	1	0	0	1	8339,03	0,100000001	2,65420699	5,5563012929840218E-005	0,10001342448459427	0,000265456329	0,014333838969642573	-0,00053481480400882694	0,014333838969642573
1	1	0	1	0	0	1	8351,03	0,100000001	2,65770149	5,5562904518925478E-005	0,10001322934494538	0,000265805313	0,014667216626605293	-0,00054725357262113293	0,014667216626605293
1	1	0	1	0	0	1	8363,03	0,100000001	2,66113853	5,5562944848504326E-005	0,10001330193818819	0,000266149262	0,015000593987113968	-0,00055969233017233997	0,015000593987113968
1	1	0	1	0	0	1	8375,03	0,100000001	2,66476655	5,5562801820122534E-005	0,10001304448709782	0,00026651143	0,015333970623990381	-0,00057213106072385446	0,015333970623990381
1	1	0	1	0	0	1	8387,03	0,100000001	2,66837549	5,5562724410659738E-005	0,10001290515006312	0,000266871997	0,015667347224836618	-0,00058456978993103437	0,015667347224836618
1	1	0	1	0	0	1	8399,03	0,100000001	2,67215633	5,5562672002034054E-005	0,10001281081453578	0,000267249852	0,01600072334554384	-0,00059700850122358234	0,01600072334554384
1	1	0	1	0	0	1	8411,03	0,100000001	2,6757462	5,5562681365344262E-005	0,1000128276684943	0,000267608935	0,016334099361294739	-0,00060944720860006874	0,016334099361294739
1	1	0	1	0	0	1	8423,03	0,100000001	2,67956519	5,5562696831507814E-005	0,10001285550758907	0,000267990952	0,01666747530159857	-0,00062188591316152346	0,01666747530159857
1	1	0	1	0	0	1	8435,03	0,100000001	2,68338418	5,5562624222702451E-005	0,10001272481173782	0,000268372562	0,017000851280968288	-0,00063432461918057907	0,017000851280968288
1	1	0	1	0	0	1	8447,03	0,100000001	2,68722224	5,5562763209972115E-005	0,10001297498882626	0,000268757081	0,017334227522980074	-0,00064676333499916339	0,017334227522980074
1	1	0	1	0	0	1	8459,03	0,100000001	2,69100285	5,5562876521299283E-005	0,10001317894921762	0,000269135751	0,017667604459301526	-0,00065920207672337485	0,017667604459301526
1	1	0	1	0	0	1	8471,03	0,100000001	2,69505095	5,5562810099787181E-005	0,10001305939049437	0,000269540295	0,018000981356221421	-0,00067164081697746112	0,018000981356221421
1	1	0	1	0	0	1	8483,03	0,100000001	2,6990037	5,5562883805897498E-005	0,10001319206149456	0,000269935961	0,018334358111351379	-0,00068407955194117414	0,018334358111351379
1	1	0	1	0	0	1	8495,03	0,100000001	2,70303273	5,556276608837975E-005	0,10001298016996005	0,000270338351	0,018667734993574582	-0,00069651829164690726	0,018667734993574582
1	1	0	1	0	0	1	8507,03	0,100000001	2,70715714	5,5562667971269952E-005	0,10001280355916027	0,000270750374	0,01900111117251265	-0,00070895700511212634	0,01900111117251265
1	1	0	1	0	0	1	8519,03	0,100000001	2,71141529	5,5562641605734822E-005	0,10001275610119648	0,000271176104	0,019334487201248259	-0,00072139571297308966	0,019334487201248259
1	1	0	1	0	0	1	8531,03	0,100000001	2,71569276	5,5562795314109984E-005	0,1000130327762751	0,000271604658	0,01966786361435352	-0,00073383443517540147	0,01966786361435352
1	1	0	1	0	0	1	8543,03	0,100000001	2,72006536	5,5562636319547891E-005	0,10001274658605987	0,000272041216	0,020001239257041427	-0,00074627312863240602	0,020001239257041427
1	1	0	1	0	0	1	8555,03	0,100000001	2,72422814	5,5562749005854131E-005	0,10001294942141355	0,000272458099	0,020334615392420502	-0,00075871184047238054	0,020334615392420502
1	1	0	1	0	0	1	8567,03	0,100000001	2,72884893	5,556280752768119E-005	0,10001305476070355	0,00027292053	0,020667991884039984	-0,00077115056560416346	0,020667991884039984
1	1	0	1	0	0	1	8579,03	0,100000001	2,7333746	5,5562808326548998E-005	0,10001305619866563	0,000273373153	0,021001368552133091	-0,00078358929732041472	0,021001368552133091
1	1	0	1	0	0	1	8591,03	0,100000001	2,73803377	5,5562760698712531E-005	0,10001297046855894	0,000273838901	0,021334745312137802	-0,00079602803246601139	0,021334745312137802
1	1	0	1	0	0	1	8603,03	0,100000001	2,74267387	5,5562767588016058E-005	0,10001298286930544	0,000274302991	0,021668121969463987	-0,0008084667637805344	0,021668121969463987
1	1	0	1	0	0	1	8615,03	0,100000001	2,7473712	5,5562751159899763E-005	0,10001295329869574	0,000274772698	0,022001498635968464	-0,00082090549543751155	0,022001498635968464
1	1	0	1	0	0	1	8627,03	0,100000001	2,75222111	5,5562639219893344E-005	0,10001275180668176	0,000275257218	0,022334875062385843	-0,00083334421813651648	0,022334875062385843
1	1	0	1	0	0	1	8639,03	0,100000001	2,75712872	5,5562757577747104E-005	0,1000129648508211	0,000275748607	0,022668251374105258	-0,00084578293655598605	0,022668251374105258
1	1	0	1	0	0	1	8651,03	0,100000001	2,76220775	5,5562797608888806E-005	0,10001303690687704	0,000276256789	0,023001627941093571	-0,00085822166449988147	0,023001627941093571
1	1	0	1	0	0	1	8663,03	0,100000001	2,76724887	5,5562812467416128E-005	0,10001306365222653	0,000276761042	0,023335004788159555	-0,00087066040289385139	0,023335004788159555
1	1	0	1	0	0	1	8675,03	0,100000001	2,77238536	5,5562875513815213E-005	0,10001317713574627	0,000277275074	0,023668381372790842	-0,00088309913149602995	0,023668381372790842
1	1	0	1	0	0	1	8687,03	0,100000001	2,77803755	5,5562754492378893E-005	0,10001295929715826	0,000277839747	0,024001758188604544	-0,0008955378687239351	0,024001758188604544
1	1	0	1	0	0	1	8699,03	0,100000001	2,78349876	5,5562693997803661E-005	0,10001285040692152	0,000278385647	0,024335134533884272	-0,00090797658839558502	0,024335134533884272
1	1	0	1	0	0	1	8711,03	0,100000001	2,78903627	5,5562875454210573E-005	0,1000131770284579	0,000278940366	0,024668511450424438	-0,00092041532938173018	0,024668511450424438
1	1	0	1	0	0	1	8723,03	0,100000001	2,7948029	5,5562799408204032E-005	0,10001304014564448	0,000279516738	0,025001888415444294	-0,00093285407217671757	0,025001888415444294
1	1	0	1	0	0	1	8735,03	0,100000001	2,80070329	5,5562788378033376E-005	0,10001302029133706	0,000280106789	0,025335265175235414	-0,00094529280731434509	0,025335265175235414
1	1	0	1	0	0	1	8747,03	0,100000001	2,80689001	5,5562928285863667E-005	0,10001327212543464	0,000280726264	0,025668642412798336	-0,0009577315602782807	0,025668642412798336
1	1	0	1	0	0	1	8759,03	0,100000001	2,81311488	5,5562813571757741E-005	0,10001306564004147	0,000281348242	0,0260020197238128	-0,00097017031598279219	0,0260020197238128
1	1	0	1	0	0	1	8771,03	0,100000001	2,81966448	5,5562861919403078E-005	0,10001315266580413	0,000282003544	0,026335396717067456	-0,00098260905983125798	0,026335396717067456
1	1	0	1	0	0	1	8783,03	0,100000001	2,82630944	5,5562911733571027E-005	0,10001324233130752	0,000282668363	0,026668773896339101	-0,00099504781062026778	0,026668773896339101
1	1	0	1	0	0	1	8795,03	0,100000001	2,83314538	5,5562943320307469E-005	0,10001329918743381	0,000283352216	0,027002151231374646	-0,0010074865672210381	0,027002151231374646
1	1	0	1	0	0	1	8807,03	0,100000001	2,84034419	5,5562721598893408E-005	0,10001290008888365	0,000284071051	0,027335528228345069	-0,0010199253112081443	0,027335528228345069
1	1	0	1	0	0	1	8819,03	0,100000001	2,847543	5,5562853761017325E-005	0,10001313798070958	0,00028479172	0,02766890520668904	-0,0010323640545002722	0,02766890520668904
1	1	0	1	0	0	1	8831,03	0,100000001	2,8550663	5,5562912425647174E-005	0,10001324357704461	0,000285544433	0,028002282756412246	-0,0010448028191113277	0,028002282756412246
1	1	0	1	0	0	1	8843,03	0,100000001	2,86289525	5,5562896305488218E-005	0,10001321456075813	0,000286327355	0,028335660118235939	-0,0010572415767115998	0,028335660118235939
1	1	0	1	0	0	1	8855,03	0,100000001	2,87078142	5,5562902750240435E-005	0,10001322616131227	0,000287116098	0,028669037740478957	-0,001069680344028467	0,028669037740478957
1	1	0	1	0	0	1	8867,03	0,100000001	2,87914515	5,5562858351816736E-005	0,10001314624414864	0,000287952367	0,029002415194709306	-0,0010821191050765558	0,029002415194709306
1	1	0	1	0	0	1	8879,03	0,100000001	2,88758492	5,5562958026097882E-005	0,10001332565785686	0,00028879696	0,029335792575789453	-0,001094557863395312	0,029335792575789453
1	1	0	1	0	0	1	8891,03	0,100000001	2,89661694	5,5562853781299456E-005	0,10001313801721744	0,000289699761	0,029669169675632525	-0,0011069966112207349	0,029669169675632525
1	1	0	1	0	0	1	8903,03	0,100000001	2,90572524	5,5562918249517677E-005	0,10001325406001163	0,000290611031	0,030002547234768294	-0,0011194353761829859	0,030002547234768294
1	1	0	1	0	0	1	8915,03	0,100000001	2,91523433	5,55628560607632E-005	0,10001314212025222	0,000291561737	0,030335924469203622	-0,0011318741290302269	0,030335924469203622
1	1	0	1	0	0	1	8927,03	0,100000001	2,92503023	5,5562863456706208E-005	0,10001315543294979	0,000292541517	0,030669301700597466	-0,0011443128817639861	0,030669301700597466
1	1	0	1	0	0	1	8939,03	0,100000001	2,93515038	5,5562892144752877E-005	0,10001320707143442	0,000293553807	0,031002679215143168	-0,0011567516450625216	0,031002679215143168
1	1	0	1	0	0	1	8951,03	0,100000001	2,94595814	5,5562910275740755E-005	0,10001323970721302	0,00029463481	0,031336056961041395	-0,0011691904169931307	0,031336056961041395
1	1	0	1	0	0	1	8963,03	0,100000001	2,9570713	5,5562922945453062E-005	0,10001326251269544	0,000295746344	0,031669434257392698	-0,0011816291721505403	0,031669434257392698
1	1	0	1	0	0	1	8975,03	0,100000001	2,9684329	5,5562890204704467E-005	0,10001320357934725	0,00029688247	0,032002811513322541	-0,0011940679257997704	0,032002811513322541
1	1	0	1	0	0	1	8987,03	0,100000001	2,98061538	5,5562739763822816E-005	0,10001293278575701	0,000298100087	0,032336188169001325	-0,0012065066570528264	0,032336188169001325
1	1	0	1	0	0	1	8999,03	0,100000001	2,9931035	5,5562879550788141E-005	0,10001318440229762	0,000299349806	0,032669564662834458	-0,0012189453822672038	0,032669564662834458
1	1	0	1	0	0	1	9011,03	0,100000001	3,00610709	5,5562797279821504E-005	0,10001303631455587	0,000300649903	0,033002941496433933	-0,00123138412015872	0,033002941496433933
1	1	0	1	0	0	1	9023,03	0,100000001	3,01987457	5,5562771464387578E-005	0,10001298984677426	0,000302026689	0,033336318330347155	-0,0012438228580619427	0,033336318330347155
1	1	0	1	0	0	1	9035,03	0,100000001	3,03434849	5,5562895461089082E-005	0,10001321304083966	0,000303474953	0,033669695278404928	-0,0012562616002240522	0,033669695278404928
1	1	0	1	0	0	1	9047,03	0,100000001	3,04950976	5,5562876007623142E-005	0,10001317802460054	0,000304991176	0,034003072478676454	-0,0012687003517965957	0,034003072478676454
1	1	0	1	0	0	1	9059,03	0,100000001	3,06518674	5,5562880332271258E-005	0,10001318580896726	0,000306559086	0,034336449836943744	-0,0012811391092641736	0,034336449836943744
1	1	0	1	0	0	1	9071,03	0,100000001	3,08179927	5,5562743424127494E-005	0,1000129393743055	0,000308219809	0,034669826506504192	-0,0012935778410351734	0,034669826506504192
1	1	0	1	0	0	1	9083,03	0,100000001	3,09932852	5,5562711488455533E-005	0,10001288189009526	0,000309972791	0,035003202887579411	-0,0013060165620424013	0,035003202887579411
1	1	0	1	0	0	1	9095,03	0,100000001	3,1176405	5,5562869159711731E-005	0,10001316569835986	0,00031180511	0,035336579569870835	-0,0013184552942884109	0,035336579569870835
1	1	0	1	0	0	1	9107,03	0,100000001	3,13711715	5,5562756545841696E-005	0,10001296299339133	0,000313752389	0,03566995629415168	-0,0013308940281011021	0,03566995629415168
1	1	0	1	0	0	1	9119,03	0,100000001	3,15775895	5,5562808965643245E-005	0,1000130573490353	0,000315817131	0,036003333137750259	-0,0013433327663656982	0,036003333137750259
1	1	0	1	0	0	1	9131,03	0,100000001	3,17950797	5,5562809051324928E-005	0,1000130575032623	0,000317992322	0,03633671018398848	-0,001355771512191052	0,03633671018398848
1	1	0	1	0	0	1	9143,03	0,100000001	3,20238376	5,5562868606299162E-005	0,10001316470221722	0,000320280524	0,036670087446211994	-0,0013682102660751078	0,036670087446211994
1	1	0	1	0	0	1	9155,03	0,100000001	3,22697783	5,5562940422031616E-005	0,1000132939705372	0,000322740671	0,037003464751140589	-0,001380649021552547	0,037003464751140589
1	1	0	1	0	0	1	9167,03	0,100000001	3,25264144	5,556290968673097E-005	0,10001323864699538	0,000325307192	0,037336842192311725	-0,001393087782113379	0,037336842192311725
1	1	0	1	0	0	1	9179,03	0,100000001	3,28021455	5,5562785394075846E-005	0,10001301492021344	0,000328064139	0,037670219078275123	-0,001405526521958664	0,037670219078275123
1	1	0	1	0	0	1	9191,03	0,100000001	3,30948687	5,5562750548124314E-005	0,10001295219749994	0,000330991548	0,038003596045072774	-0,001417965264819983	0,038003596045072774
1	1	0	1	0	0	1	9203,03	0,100000001	3,3407836	5,5562821382863654E-005	0,10001307970003229	0,000334122044	0,03833697253618272	-0,0014304039899327547	0,03833697253618272
1	1	0	1	0	0	1	9215,03	0,100000001	3,37374139	5,5562805849644877E-005	0,10001305174023814	0,000337418169	0,038670349296202752	-0,0014428427250789229	0,038670349296202752
1	1	0	1	0	0	1	9227,03	0,100000001	3,40904784	5,5562718317326573E-005	0,10001289418206328	0,000340948754	0,039003725711693024	-0,001455281447370223	0,039003725711693024
1	1	0	1	0	0	1	9239,03	0,100000001	3,44634008	5,5562835765795571E-005	0,10001310558931005	0,000344679167	0,039337102471549971	-0,0014677201825103062	0,039337102471549971
1	1	0	1	0	0	1	9251,03	0,100000001	3,48575211	5,556275630535351E-005	0,10001296256051261	0,000348620408	0,03967047903571369	-0,0014801589103488125	0,03967047903571369
1	1	0	1	0	0	1	9263,03	0,100000001	3,52751255	5,5562826556877958E-005	0,10001308901325813	0,000352797419	0,04000385559741209	-0,0014925976380953338	0,04000385559741209
1	1	0	1	0	0	1	9275,03	0,100000001	3,57173634	5,5562835137463283E-005	0,10001310445831192	0,000357220444	0,040337232458115942	-0,001505036376998151	0,040337232458115942
1	1	0	1	0	0	1	9287,03	0,100000001	3,61821342	5,5562950353241626E-005	0,10001331184671544	0,000361869519	0,040670609753188237	-0,001517475132107839	0,040670609753188237
1	1	0	1	0	0	1	9299,03	0,100000001	3,66717267	5,5562794037163258E-005	0,10001303047777098	0,000366765045	0,04100398661486688	-0,0015299138710470266	0,04100398661486688
1	1	0	1	0	0	1	9311,03	0,100000001	3,71886277	5,5562780235376621E-005	0,10001300563455472	0,000371934642	0,041337363205909395	-0,0015423525998884166	0,041337363205909395
1	1	0	1	0	0	1	9323,03	0,100000001	3,77305412	5,5562899182654093E-005	0,10001321973965675	0,000377355289	0,041670740197411507	-0,0015547913436714928	0,041670740197411507
1	1	0	1	0	0	1	9335,03	0,100000001	3,82940316	5,5562887632184557E-005	0,10001319894881134	0,000382990867	0,042004117407407693	-0,0015672300956068765	0,042004117407407693
1	1	0	1	0	0	1	9347,03	0,100000001	3,88777614	5,5562836486432288E-005	0,10001310688645616	0,000388828572	0,042337494836248122	-0,0015796688557076333	0,042337494836248122
1	1	0	1	0	0	1	9359,03	0,100000001	3,94794416	5,5562773170156608E-005	0,10001299291715854	0,000394845702	0,04267087162043079	-0,0015921075917553418	0,04267087162043079
1	1	0	1	0	0	1	9371,03	0,100000001	4,00964022	5,5562787875533107E-005	0,10001301938683658	0,000401016237	0,043004248197669856	-0,0016045463200817069	0,043004248197669856
1	1	0	1	0	0	1	9383,03	0,100000001	4,07166052	5,5562895814163814E-005	0,10001321367637419	0,000407219864	0,043337625002290304	-0,0016169850568919766	0,043337625002290304
1	1	0	1	0	0	1	9395,03	0,100000001	4,13121748	5,5562764077964762E-005	0,10001297655121302	0,000413175352	0,043671001663626144	-0,001629423788356105	0,043671001663626144
1	1	0	1	0	0	1	9407,03	0,100000001	4,18802452	5,556278507949577E-005	0,1000130143539693	0,000418856944	0,044004378049677517	-0,001641862509549	0,044004378049677517
1	1	0	1	0	0	1	9419,03	0,100000001	4,24089289	5,5562712180531686E-005	0,10001288313583237	0,000424143916	0,04433775451328448	-0,0016543012336355984	0,04433775451328448
1	1	0	1	0	0	1	9431,03	0,100000001	4,29027224	5,556275092810393E-005	0,10001295288146323	0,000429082807	0,044671130823291923	-0,001666739951991192	0,044671130823291923
1	1	0	1	0	0	1	9443,03	0,100000001	4,3361001	5,5562697788079578E-005	0,10001285722941824	0,000433665758	0,045004507062694771	-0,0016791786677124333	0,045004507062694771
1	1	0	1	0	0	1	9455,03	0,100000001	4,37826157	5,5562665599915712E-005	0,10001279929072259	0,000437882205	0,045337883394064269	-0,0016916173868650739	0,045337883394064269
1	1	0	1	0	0	1	9467,03	0,100000001	4,41639423	5,5562807124521997E-005	0,10001305403501699	0,000441697077	0,045671259843095405	-0,0017040561104078282	0,045671259843095405
1	1	0	1	0	0	1	9479,03	0,100000001	4,45005846	5,556276739223136E-005	0,10001298251689298	0,000445063633	0,04600463683401968	-0,0017164948541693446	0,04600463683401968
1	1	0	1	0	0	1	9491,03	0,100000001	4,47957897	5,5562740419059994E-005	0,10001293396518394	0,000448015839	0,046338013399674342	-0,0017289335820634797	0,046338013399674342
1	0	0	0	1	0	2	9500,22	-0,100000001	4,48673582	-5,4839385880364314E-009	-0,032903631561416141	0,000147629908	0,046593135266903046	-0,0017384525219447814	5,4839385880364314E-009
1	0	0	0	0	0	2	9512,22	-0,100000001	4,03008509	-5,5545239234964051E-005	-0,099981431833429837	0,000402933685	0,04625986493382281	-0,0017260177577308291	0,00033327581701883008
1	0	0	0	0	0	2	9524,22	-0,100000001	3,66936302	-5,5545332377983462E-005	-0,09998159949086679	0,000366868771	0,045926592877369056	-0,0017135829292154938	0,0006665478734725879
1	0	0	0	0	0	2	9536,22	-0,100000001	3,33233786	-5,5545430228941965E-005	-0,099981775622594253	0,000333173055	0,045593320371022752	-0,0017011480839140627	0,00099982037981889318
1	0	0	0	0	0	2	9548,22	-0,100000001	3,02217937	-5,5545328886558611E-005	-0,099981593206302003	0,000302162312	0,045260048372956294	-0,0016887132575772362	0,0013330923778853483
1	0	0	0	0	0	2	9560,22	-0,100000001	2,74975228	-5,5545273233619002E-005	-0,099981493031009472	0,000274924329	0,044926776516621818	-0,0016762784365286205	0,0016663642342198227
1	0	0	0	0	0	2	9572,22	-0,100000001	2,59855866	-5,5545249225364787E-005	-0,099981449816151386	0,000259807653	0,044593505238170099	-0,0016638436370415878	0,0019996355126715366
1	0	0	0	0	0	2	9584,22	-0,100000001	2,54194236	-5,5545387802024685E-005	-0,099981699254142195	0,000254147715	0,044260233436850714	-0,0016514088180456586	0,0023329073139909245
1	0	0	0	0	0	2	9596,22	-0,100000001	2,50759053	-5,5545342748363814E-005	-0,099981618157551654	0,000250712968	0,043926961332573754	-0,0016389739877459757	0,0026661794182678893
1	0	0	0	0	0	2	9608,22	-0,100000001	2,48232818	-5,5545408377216922E-005	-0,099981736289488678	0,000248187484	0,043593689158015046	-0,0016265391548239856	0,0029994515928265946
1	0	0	0	0	0	2	9620,22	-0,100000001	2,46220207	-5,5545391774839827E-005	-0,099981706405209562	0,000246175157	0,043260416631574944	-0,0016141043087728278	0,0033327241192667014
1	0	0	0	0	0	2	9632,22	-0,100000001	2,44562769	-5,5545407784481843E-005	-0,099981735222565542	0,000244518102	0,042927144293759526	-0,0016016694697595107	0,0036659964570821158
1	0	0	0	0	0	2	9644,22	-0,100000001	2,43281507	-5,5545543387946157E-005	-0,09998197930880425	0,000243237664	0,042593871264145286	-0,0015892346049342496	0,0039992694866963558
1	0	0	0	0	0	2	9656,22	-0,100000001	2,42460418	-5,5545532851583424E-005	-0,099981960343351104	0,000242416674	0,042260598030512211	-0,0015767997324967712	0,0043325427203294304
1	0	0	0	0	0	2	9668,22	-0,100000001	2,41965866	-5,5545533376435437E-005	-0,099981961288084736	0,000241922215	0,041927324900440966	-0,0015643648639233242	0,0046658158504006771
1	0	0	0	0	0	2	9680,22	-0,100000001	2,41555309	-5,5545459885978035E-005	-0,099981829005259827	0,000241511414	0,041594052086046675	-0,0015519300071282086	0,0049990886647949626
1	0	0	0	0	0	2	9692,22	-0,100000001	2,41205883	-5,554560282495287E-005	-0,099982086295417638	0,000241162677	0,041260778525172512	-0,0015394951224809251	0,005332362225669127
1	0	0	0	0	0	2	9704,22	-0,100000001	2,40888906	-5,5545573472976685E-005	-0,099982033461859853	0,00024084562	0,040927505230105274	-0,0015270602477512557	0,005665635520736377
1	0	0	0	0	0	2	9716,22	-0,100000001	2,40598655	-5,5545418904473382E-005	-0,099981755238550541	0,000240554757	0,040594232319176307	-0,0015146253873543014	0,005998908431665353
1	0	0	0	0	0	2	9728,22	-0,100000001	2,40302682	-5,5545427504099078E-005	-0,099981770717876992	0,000240258873	0,040260960052014739	-0,0015021905509771744	0,0063321806988269107
1	0	0	0	0	0	2	9740,22	-0,100000001	2,40018177	-5,5545514944526886E-005	-0,099981928110648934	0,000239974805	0,039927687108287482	-0,001489755689356472	0,0066654536425541683
1	0	0	0	0	0	2	9752,22	-0,100000001	2,39726019	-5,5545556341194445E-005	-0,099982002624651456	0,000239682879	0,039594413860754528	-0,0014773208164003706	0,0069987268900871283
1	0	0	0	0	0	2	9764,22	-0,100000001	2,39447236	-5,5545484364032749E-005	-0,099981873065758822	0,000239403831	0,039261141189056659	-0,0014648859649294502	0,0073319995617849971
1	0	0	0	0	0	2	9776,22	-0,100000001	2,39170361	-5,554543084568448E-005	-0,099981776732730778	0,000239126777	0,038927868518588134	-0,0014524511135043987	0,0076652722322535181
1	0	0	0	0	0	2	9788,22	-0,100000001	2,38883948	-5,5545533845822016E-005	-0,099981962132980595	0,000238840861	0,0385945955745136	-0,0014400162518707387	0,007998545176328055
1	0	0	0	0	0	2	9800,22	-0,100000001	2,38597512	-5,5545549392700192E-005	-0,099981990117361638	0,000238554538	0,03826132232404345	-0,0014275813788050466	0,0083318184267982003
1	0	0	0	0	0	2	9812,22	-0,100000001	2,38305354	-5,5545568498472378E-005	-0,099982024507751987	0,000238262524	0,037928048849491296	-0,0014151464973785533	0,0086650919013503514
1	0	0	0	0	0	2	9824,22	-0,100000001	2,3799603	-5,5545569409098886E-005	-0,099982026146879744	0,000237953253	0,037594775485214362	-0,0014027116200665771	0,008998365265627287
1	0	0	0	0	0	2	9836,22	-0,100000001	2,37686682	-5,5545534552799328E-005	-0,099981963405539763	0,000237643806	0,037261501956683584	-0,001390276736626069	0,0093316387941580672
1	0	0	0	0	0	2	9848,22	-0,100000001	2,37360168	-5,5545572139736678E-005	-0,099982031062027827	0,000237317523	0,036928228670204371	-0,0013778418622168304	0,0096649120806372826
1	0	0	0	0	0	2	9860,22	-0,100000001	2,3704319	-5,5545563462707731E-005	-0,099982015443375514	0,000237000553	0,036594955628285498	-0,0013654069969324667	0,0099981851225561562
1	0	0	0	0	0	2	9872,22	-0,100000001	2,36689925	-5,5545438064055309E-005	-0,099981789725798426	0,000236646825	0,03626168261709655	-0,0013529721327946778	0,010331458133745112
1	0	0	0	0	0	2	9884,22	-0,100000001	2,36348128	-5,5545632867763443E-005	-0,099982140372477312	0,000236305917	0,035928409470276819	-0,0013405372635963221	0,010664731280564851
1	0	0	0	0	0	2	9896,22	-0,100000001	2,35983419	-5,5545554077045786E-005	-0,099981998549183808	0,000235940941	0,035595136138224058	-0,001328102387486673	0,010998004612617611
1	0	0	0	0	0	2	9908,22	-0,100000001	2,35622525	-5,5545697287138963E-005	-0,09998225632735465	0,000235580723	0,035261862258026285	-0,0013156674909249963	0,011331278492815382
1	0	0	0	0	0	2	9920,22	-0,100000001	2,35234904	-5,5545532613992691E-005	-0,09998195991568777	0,000235192463	0,034928588919692262	-0,0013032326145809848	0,011664551831149397
1	0	0	0	0	0	2	9932,22	-0,100000001	2,34853005	-5,5545498153401747E-005	-0,099981897886623334	0,00023481049	0,03459531607533257	-0,0012907977566678198	0,01199782467550909
1	0	0	0	0	0	2	9944,22	-0,100000001	2,34455824	-5,5545383646670317E-005	-0,099981691774504269	0,000234412903	0,034262043337987635	-0,0012783629027475195	0,012331097412854024
1	0	0	0	0	0	2	9956,22	-0,100000001	2,34058666	-5,5545351354612243E-005	-0,099981633648799027	0,000234015679	0,033928771063949613	-0,0012659280661138227	0,012664369686892054
1	0	0	0	0	0	2	9968,22	-0,100000001	2,33632851	-5,5545385582579507E-005	-0,099981695259140838	0,000233590079	0,033595499097376768	-0,001253493240952065	0,012997641653464909
1	0	0	0	0	0	2	9980,22	-0,100000001	2,33199382	-5,5545327320694925E-005	-0,099981590387747315	0,000233156446	0,033262227181927322	-0,0012410584176977902	0,013330913568914358
1	0	0	0	0	0	2	9992,22	-0,100000001	2,32767844	-5,5545262661245133E-005	-0,099981474000736294	0,00023272472	0,032928955359611373	-0,0012286235979184515	0,01366418539123031
1	0	0	0	0	0	2	10004,22	-0,100000001	2,32342029	-5,5545301284641024E-005	-0,099981543522849728	0,00023229915	0,032595683439947379	-0,0012161887745069264	0,013997457310894306
1	0	0	0	0	0	2	10016,22	-0,100000001	2,31876111	-5,5545289624482394E-005	-0,099981522534563942	0,00023183327	0,032262411621302906	-0,0012037539548645752	0,014330729129538774
1	0	0	0	0	0	2	10028,22	-0,100000001	2,31429291	-5,5545339997857805E-005	-0,099981613206640781	0,000231386744	0,031929139765148077	-0,0011913191338226624	0,014664000985693613
1	0	0	0	0	0	2	10040,22	-0,100000001	2,30948091	-5,5545409193055494E-005	-0,099981737757998131	0,00023090592	0,031595867634002253	-0,0011788843025204656	0,01499727311683944
1	0	0	0	0	0	2	10052,22	-0,100000001	2,30480266	-5,5545268116725811E-005	-0,099981483820601626	0,000230437596	0,031262595478393267	-0,0011664494703055155	0,015330545272448419
1	0	0	0	0	0	2	10064,22	-0,100000001	2,30002904	-5,5545450127373139E-005	-0,099981811439770778	0,000229961064	0,030929323324068269	-0,0011540146381384726	0,015663817426773418
1	0	0	0	0	0	2	10076,22	-0,100000001	2,2951026	-5,5545474788794912E-005	-0,099981855830330522	0,000229468613	0,030596050773820666	-0,001141579791199025	0,015997089977021027
1	0	0	0	0	0	2	10088,22	-0,100000001	2,29015684	-5,5545386899676589E-005	-0,09998169762991561	0,000228973775	0,030262778414802144	-0,0011291449513945915	0,016330362336039549
1	0	0	0	0	0	2	10100,22	-0,100000001	2,2850585	-5,5545393397410707E-005	-0,099981709325837158	0,00022846405	0,02992950591860311	-0,0011167101064717691	0,016663634832238576
1	0	0	0	0	0	2	10112,22	-0,100000001	2,27999854	-5,5545414369967251E-005	-0,099981747076439411	0,00022795824	0,029596233601651808	-0,0011042752682369202	0,016996907149189882
1	0	0	0	0	0	2	10124,22	-0,100000001	2,27470922	-5,5545364975515334E-005	-0,099981658166424883	0,000227429206	0,029262961607497318	-0,0010918404420460542	0,017330179143344368
1	0	0	0	0	0	2	10136,22	-0,100000001	2,26947713	-5,5545369517472051E-005	-0,099981666341947085	0,000226906108	0,028929689367602406	-0,0010794056066862829	0,017663451383239283
1	0	0	0	0	0	2	10148,22	-0,100000001	2,26411152	-5,5545397061026758E-005	-0,09998171592034615	0,000226369753	0,028596417120671238	-0,0010669707710639794	0,017996723630170451
1	0	0	0	0	0	2	10160,22	-0,100000001	2,2587266	-5,5545522393037875E-005	-0,099981941517968896	0,000225831871	0,028263144449278429	-0,0010545359196044413	0,018329996301563261
1	0	0	0	0	0	2	10172,22	-0,100000001	2,25317001	-5,554542158709632E-005	-0,099981760067271885	0,0002252759	0,027929871693703165	-0,0010421010650039427	0,018663269057138522
1	0	0	0	0	0	2	10184,22	-0,100000001	2,24755621	-5,5545462108320659E-005	-0,099981833005476582	0,000224714793	0,02759659847693448	-0,0010296661931956976	0,018996542273907206
1	0	0	0	0	0	2	10196,22	-0,100000001	2,24178958	-5,5545520734869773E-005	-0,099981938533266253	0,000224138465	0,027263325742130611	-0,0010172313393702075	0,019329815008711078
1	0	0	0	0	0	2	10208,22	-0,100000001	2,23608017	-5,5545516733494074E-005	-0,099981931330789914	0,000223567607	0,02693005273603993	-0,0010047964754226419	0,01966308801480176
1	0	0	0	0	0	2	10220,22	-0,100000001	2,23019886	-5,5545531505925792E-005	-0,099981957921167334	0,000222979652	0,02659677950039023	-0,00099236160290992051	0,019996361250451459
1	0	0	0	0	0	2	10232,22	-0,100000001	2,22420311	-5,5545543706251514E-005	-0,099981979881753894	0,000222380229	0,026263506202289354	-0,00097992672806706176	0,020329634548552336
1	0	0	0	0	0	2	10244,22	-0,100000001	2,21805453	-5,5545472614881069E-005	-0,099981851917285555	0,000221765193	0,025930233237214938	-0,00096749186564986816	0,020662907513626749
1	0	0	0	0	0	2	10256,22	-0,100000001	2,21173406	-5,5545212691856755E-005	-0,099981384055836109	0,000221132228	0,025596961188826022	-0,00095505703743544307	0,020996179562015667
1	0	0	0	0	0	2	10268,22	-0,100000001	2,20533729	-5,5545330083618566E-005	-0,099981595361009933	0,000220493137	0,025263689344922016	-0,00094262221685062477	0,021329451405919674
1	0	0	0	0	0	2	10280,22	-0,100000001	2,1988833	-5,5545404890759123E-005	-0,099981730013864563	0,000219848152	0,024930416985495782	-0,00093018737703097907	0,021662723765345907
1	0	0	0	0	0	2	10292,22	-0,100000001	2,19237185	-5,5545409792827232E-005	-0,099981738837587277	0,000219197143	0,024597144585821094	-0,00091775253570960947	0,021995996165020595
1	0	0	0	0	0	2	10304,22	-0,100000001	2,18555498	-5,554533595467607E-005	-0,099981605928913574	0,000218515299	0,02426387221292959	-0,00090531769538755648	0,022329268537912099
1	0	0	0	0	0	2	10316,22	-0,100000001	2,17856622	-5,5545299646341139E-005	-0,099981540573909901	0,0002178164	0,023930599974290922	-0,00089288286007465728	0,022662540776550768
1	0	0	0	0	0	2	10328,22	-0,100000001	2,17157745	-5,5545330875449709E-005	-0,09998159678630601	0,000217117777	0,023597328012709546	-0,00088044803509913805	0,022995812738132144
1	0	0	0	0	0	2	10340,22	-0,100000001	2,16430235	-5,5545370715773773E-005	-0,099981668498890202	0,000216390559	0,023264055651669434	-0,00086801319521927629	0,023329085099172256
1	0	0	0	0	0	2	10352,22	-0,100000001	2,15677905	-5,5545268971059059E-005	-0,099981485358401498	0,000215637978	0,02293078417546896	-0,00085557838835397146	0,023662356575372726
1	0	0	0	0	0	2	10364,22	-0,100000001	2,14933205	-5,5545443577071034E-005	-0,099981799649226854	0,000214894084	0,022597512083552096	-0,00084314355851545997	0,023995628667289594
1	0	0	0	0	0	2	10376,22	-0,100000001	2,14159846	-5,5545351605448454E-005	-0,099981634100304205	0,000214120519	0,02226423980966225	-0,00083070872188729178	0,02432890094117944
1	0	0	0	0	0	2	10388,22	-0,100000001	2,13359785	-5,5545235041942861E-005	-0,09998142428599159	0,000213320149	0,021930967909948426	-0,00081827389922013427	0,024662172840893264
1	0	0	0	0	0	2	10400,22	-0,100000001	2,12538695	-5,554537941970759E-005	-0,099981684165971251	0,00021249977	0,021597695898438227	-0,00080583907238170368	0,024995444852403462
1	0	0	0	0	0	2	10412,22	-0,100000001	2,11704254	-5,5545167136109536E-005	-0,099981302055490138	0,000211664665	0,021264424741320461	-0,00079340427742180339	0,025328716009521229
1	0	0	0	0	0	2	10424,22	-0,100000001	2,10841155	-5,5545063180228077E-005	-0,099981114934901248	0,000210801343	0,020931154278607149	-0,00078096950837106701	0,025661986472234541
1	0	0	0	0	0	2	10436,22	-0,100000001	2,09964705	-5,5545078700201376E-005	-0,09998114287085353	0,000209925114	0,02059788374832825	-0,00076853473679936768	0,025995257002513437
1	0	0	0	0	0	2	10448,22	-0,100000001	2,09053874	-5,5545209868500627E-005	-0,099981378973795021	0,00020901495	0,020264612810403258	-0,00075609995001784448	0,026328527940438432
1	0	0	0	0	0	2	10460,22	-0,100000001	2,08118224	-5,5545245015372832E-005	-0,09998144223816576	0,000208079597	0,019931341762773427	-0,00074366515914308634	0,026661798988068262
1	0	0	0	0	0	2	10472,22	-0,100000001	2,07142472	-5,5545226023428966E-005	-0,099981408052666394	0,000207103963	0,019598070325522938	-0,00073123035373105766	0,026995070425318752
1	0	0	0	0	0	2	10484,22	-0,100000001	2,06160998	-5,554512924907936E-005	-0,099981233858834982	0,000206122306	0,019264799162857795	-0,00071879555856417741	0,027328341587983894
1	0	0	0	0	0	2	10496,22	-0,100000001	2,05139422	-5,5545267764478925E-005	-0,099981483186557222	0,000205101431	0,01893152803804368	-0,00070636076480956966	0,02766161271279801
1	0	0	0	0	0	2	10508,22	-0,100000001	2,04085374	-5,5545169716080026E-005	-0,099981306699437069	0,000204047217	0,01859825673494503	-0,00069392596440292646	0,027994884015896659
1	0	0	0	0	0	2	10520,22	-0,100000001	2,03010345	-5,5545251056551936E-005	-0,099981453112288282	0,000202972689	0,018264985555244141	-0,00068149116860041946	0,028328155195597549
1	0	0	0	0	0	2	10532,22	-0,100000001	2,01868463	-5,5545077347507078E-005	-0,099981140436003763	0,000201830393	0,017931714770260106	-0,00066905638752532928	0,028661425980581581
1	0	0	0	0	0	2	10544,22	-0,100000001	2,00730419	-5,5545030842224755E-005	-0,099981056726494554	0,00020069239	0,017598444325060634	-0,0006566216191280576	0,028994696425781056
1	0	0	0	0	0	2	10556,22	-0,100000001	1,99523604	-5,5544989251014259E-005	-0,099980981862314739	0,000199485658	0,017265174118390662	-0,00064418685963064256	0,029327966632451027
1	0	0	0	0	0	2	10568,22	-0,100000001	1,98282433	-5,5545092811187104E-005	-0,099981168270628134	0,000198245092	0,016931903931246602	-0,00063175210086176538	0,029661236819595085
1	0	0	0	0	0	2	10580,22	-0,100000001	1,96995437	-5,5545069822420678E-005	-0,099981126890848064	0,000196958252	0,016598633542150413	-0,00061931733455778278	0,029994507208691277
1	0	0	0	0	0	2	10592,22	-0,100000001	1,95660698	-5,5545072755879821E-005	-0,099981132171074598	0,000195623783	0,01626536298401297	-0,00060688256194664371	0,030327777766828717
1	0	0	0	0	0	2	10604,22	-0,100000001	1,94308782	-5,5545039974566963E-005	-0,09998107316471072	0,000194272012	0,015932092826017232	-0,00059444780426532966	0,030661047924824454
1	0	0	0	0	0	2	10616,22	-0,100000001	1,92867124	-5,5545007556676864E-005	-0,09998101481250784	0,000192830514	0,015598822786741117	-0,00058201305101360435	0,030994317964100576
1	0	0	0	0	0	2	10628,22	-0,100000001	1,91415906	-5,5544974731074438E-005	-0,099980955726422784	0,000191379455	0,015265553106085866	-0,00056957831114250566	0,031327587644755821
1	0	0	0	0	0	2	10640,22	-0,100000001	1,89894044	-5,5545038367311155E-005	-0,099981070271650253	0,000189858096	0,014932283106882694	-0,0005571435593859559	0,031660857643958995
1	0	0	0	0	0	2	10652,22	-0,100000001	1,88309169	-5,5545032907277344E-005	-0,099981060443589261	0,000188273509	0,014599013174537725	-0,00054470881012397549	0,031994127576303968
1	0	0	0	0	0	2	10664,22	-0,100000001	1,86689913	-5,5544952247705728E-005	-0,099980915256358592	0,000186654288	0,014265743068338427	-0,00053227405437525613	0,03232739768250327
1	0	0	0	0	0	2	10676,22	-0,100000001	1,85015297	-5,5545119259920384E-005	-0,099981215878348608	0,000184980541	0,013932472530115139	-0,00051983928250714106	0,032660668220726554
1	0	0	0	0	0	2	10688,22	-0,100000001	1,83287203	-5,5545182926373344E-005	-0,099981330477965338	0,000183252982	0,013599201871070754	-0,00050740450613102829	0,032993938879770931
1	0	0	0	0	0	2	10700,22	-0,100000001	1,8147701	-5,5545204942425094E-005	-0,09998137010685897	0,000181443203	0,013265930791519739	-0,00049496971406524787	0,033327209959321952
1	0	0	0	0	0	2	10712,22	-0,100000001	1,79688382	-5,5545204551269613E-005	-0,099981369402779085	0,000179654904	0,012932659747671082	-0,00048253492333157037	0,033660481003170618
1	0	0	0	0	0	2	10724,22	-0,100000001	1,77809453	-5,5545258698364102E-005	-0,099981466867550336	0,000177776499	0,012599388264775022	-0,00047010011621644397	0,033993752486066675
1	0	0	0	0	0	2	10736,22	-0,100000001	1,75888503	-5,5545099974920352E-005	-0,099981181165348134	0,000175855399	0,012266117499992413	-0,00045766533589509594	0,034327023250849293
1	0	0	0	0	0	2	10748,22	-0,100000001	1,73908365	-5,5545078300353549E-005	-0,099981142151127411	0,000173875567	0,011932846696300387	-0,00044523055412198528	0,034660294054541318
1	0	0	0	0	0	2	10760,22	-0,100000001	1,71819377	-5,5545149732795027E-005	-0,099981270729523635	0,000171787193	0,011599575708924646	-0,00043279576549538829	0,034993565041917056
1	0	0	0	0	0	2	10772,22	-0,100000001	1,6968075	-5,5545320899950131E-005	-0,099981578830406554	0,000169649487	0,011266304495975542	-0,00042036096845234573	0,03532683625486617
1	0	0	0	0	0	2	10784,22	-0,100000001	1,67458105	-5,5545325893908742E-005	-0,09998158781953216	0,000167427279	0,010933032667420971	-0,00040792614844023552	0,035660108083420742
1	0	0	0	0	0	2	10796,22	-0,100000001	1,6521827	-5,5545212658329139E-005	-0,099981383995486413	0,000165187506	0,010599760993589709	-0,00039549133420106003	0,035993379757252019
1	0	0	0	0	0	2	10808,22	-0,100000001	1,62953615	-5,5545202593008678E-005	-0,099981365877909376	0,000162923257	0,010266489698358872	-0,00038305653408797542	0,036326651052482854
1	0	0	0	0	0	2	10820,22	-0,100000001	1,606565	-5,5545201501912538E-005	-0,099981363913936294	0,000160626558	0,0099332182667646144	-0,00037062172888698829	0,036659922484077114
1	0	0	0	0	0	2	10832,22	-0,100000001	1,58344102	-5,5545341027279699E-005	-0,099981615059600205	0,000158314986	0,0095999466358950592	-0,00035818691625077178	0,036993194114946675
1	0	0	0	0	0	2	10844,22	-0,100000001	1,56024075	-5,5545356882943046E-005	-0,099981643599794598	0,00015599544	0,0092666745640086656	-0,00034575208715962413	0,037326466186833075
1	0	0	0	0	0	2	10856,22	-0,100000001	1,53686857	-5,5545258923951123E-005	-0,099981467273606989	0,000153658373	0,0089334029879373018	-0,00033331727656800192	0,037659737762904429
1	0	0	0	0	0	2	10868,22	-0,100000001	1,51351547	-5,5545139221681491E-005	-0,09998125180951904	0,000151323169	0,0086001319730366298	-0,00032088248691441261	0,037993008777805094
1	0	0	0	0	0	2	10880,22	-0,100000001	1,49016237	-5,5545160783661741E-005	-0,099981290621083968	0,000148988358	0,0082668610000396787	-0,00030844769882430758	0,038326279750802035
1	0	0	0	0	0	2	10892,22	-0,100000001	1,46675205	-5,554508520414432E-005	-0,09998115457795095	0,000146647566	0,0079335900665386701	-0,00029601291220784922	0,038659550684303046
1	0	0	0	0	0	2	10904,22	-0,100000001	1,44324625	-5,5545097767064966E-005	-0,099981177191208397	0,000144297461	0,0076003194631927552	-0,00028357813790992131	0,03899282128764896
1	0	0	0	0	0	2	10916,22	-0,100000001	1,41991222	-5,5544959678418106E-005	-0,099980928631641037	0,000141964148	0,0072670492072587226	-0,00027114337657439786	0,039326091543582989
1	0	0	0	0	0	2	10928,22	-0,100000001	1,39720833	-5,5544982018570106E-005	-0,099980968843915123	0,000139694239	0,0069337790831726477	-0,00025870862015829891	0,039659361667669056
1	0	0	0	0	0	2	10940,22	-0,100000001	1,37494373	-5,5545036426434912E-005	-0,09998106677807296	0,000137468334	0,0066005090476756314	-0,00024627386704757693	0,039992631703166067
1	0	0	0	0	0	2	10952,22	-0,100000001	1,35350013	-5,5545006307462848E-005	-0,099981012563922586	0,000135324313	0,0062672388737944294	-0,00023383910877355485	0,040325901877047264
1	0	0	0	0	0	2	10964,22	-0,100000001	1,33337414	-5,554504425285591E-005	-0,099981080865630925	0,000133312191	0,0059339689367489702	-0,0002214043593361928	0,040659171814092723
1	0	0	0	0	0	2	10976,22	-0,100000001	1,31513846	-5,5545164298680096E-005	-0,099981296948117069	0,000131489243	0,0056006984272369094	-0,00020896958853933213	0,040992442323604794
1	0	0	0	0	0	2	10988,22	-0,100000001	1,29888868	-5,5545129631542496E-005	-0,099981234547268646	0,000129864493	0,0052674275248081338	-0,00019653480308222058	0,041325713226033574
1	0	0	0	0	0	2	11000,22	-0,100000001	1,28500676	-5,5545174570547213E-005	-0,099981315437478106	0,000128476662	0,0049341566710283373	-0,00018410001944026781	0,04165898407981337
1	0	0	0	0	0	2	11012,22	-0,100000001	1,27322519	-5,5545158403201242E-005	-0,099981286336255002	0,000127298699	0,0046008856236505856	-0,0001716652285749151	0,041992255127191117
1	0	0	0	0	0	2	11024,22	-0,100000001	1,26312399	-5,5545162350353267E-005	-0,09998129344112873	0,000126288767	0,0042676144251854074	-0,0001592304320722873	0,042325526325656301
1	0	0	0	0	0	2	11036,22	-0,100000001	1,25462675	-5,5545291530589267E-005	-0,099981525965556365	0,000125439503	0,0039343430094641958	-0,00014679562746354483	0,04265879774137751
1	0	0	0	0	0	2	11048,22	-0,100000001	1,24727523	-5,5545188527140352E-005	-0,099981340559346074	0,000124704253	0,0036010716302711123	-0,00013436082421771589	0,042992069120570605
1	0	0	0	0	0	2	11060,22	-0,100000001	1,24085927	-5,5545509971678259E-005	-0,099981919159521306	0,000124063488	0,0032677996740417363	-0,0001219259994418871	0,043325341076799974
1	0	0	0	0	0	2	11072,22	-0,100000001	1,23501623	-5,5545291993353107E-005	-0,09998152679853129	0,000123478807	0,0029345275633469242	-0,00010949116890274515	0,043658613187494784
1	0	0	0	0	0	2	11084,22	-0,100000001	1,22963142	-5,5545266307890419E-005	-0,099981480564697882	0,000122940372	0,0026012558659979053	-9,7056353786090534E-005	0,043991884884843802
1	0	0	0	0	0	2	11096,22	-0,100000001	1,22466683	-5,5545275441060461E-005	-0,09998149700440416	0,00012244402	0,002267984196356768	-8,4621539703254234E-005	0,044325156554484941
1	0	0	0	0	0	2	11108,22	-0,100000001	1,22019863	-5,5545383839557568E-005	-0,099981692121701312	0,000121997524	0,0019347120274381514	-7,2186706991703885E-005	0,044658428723403552
1	0	0	0	0	0	2	11120,22	-0,100000001	1,21584499	-5,5545347294045824E-005	-0,099981626339779379	0,00012156216	0,0016014394971957645	-5,9751860798677862E-005	0,044991701253645939
1	0	0	0	0	0	2	11132,22	-0,100000001	1,21175861	-5,554536258429289E-005	-0,099981653862224435	0,000121153629	0,0012681672669621814	-4,731702579938368E-005	0,04532497348387952
1	0	0	0	0	0	2	11144,22	-0,100000001	1,20782506	-5,5545360429419418E-005	-0,099981649983452122	0,000120760342	0,00093489471683999002	-3,4882178864615418E-005	0,045658246034001715
1	0	0	0	0	0	2	11156,22	-0,100000001	1,20400608	-5,5545366838988326E-005	-0,099981661520676301	0,000120378529	0,00060162229749411443	-2,2447336809287334E-005	0,045991518453347597
1	0	0	0	0	0	2	11168,22	-0,100000001	1,20018709	-5,5545373070157235E-005	-0,09998167273678048	0,000119996716	0,00026835005521004493	-1,0012501360373298E-005	0,046324790695631661
1	0	0	0	0	0	2	11168,96	-0,100000001	1,19993889	-2,0690651047146982E-005	-0,099981670701004134	0,000119971897	0,00024765940416289792	-9,2405053509280435E-006	0,046345481346678803