File: Experimentelles/Rohdaten/Batterietests/AlteZelle/Batterietest Li vs LATP/ECLab-Export/LATP vs Li Batterietest Probe1_02_GCPL_C01_loop5.mpt
EC-Lab ASCII FILE
Nb header lines : 3
mode	ox/red	error	control changes	Ns changes	counter inc.	Ns	time/s	control/V/mA	Ewe/V	dq/mA.h	<I>/mA	P/W	(Q-Qo)/mA.h	x	Capacity/mA.h
1	1	0	1	1	0	1	17659,81	0,100000001	1,21286619	0	0	0	0	0	0
1	1	0	1	0	0	1	17671,81	0,100000001	1,53068173	5,5563065856281254E-005	0,10001351975218928	0,000153088869	0,00033200670530141197	-1,2387616562558515E-005	0,00033200670530141197
1	1	0	1	0	0	1	17683,81	0,100000001	1,69356132	5,5563062272138067E-005	0,10001351330073147	0,000169379011	0,00066538542715326746	-2,4826424907309949E-005	0,00066538542715326746
1	1	0	1	0	0	1	17695,81	0,100000001	1,84800088	5,556316101551056E-005	0,1000136910388041	0,000184825389	0,00099876413101817971	-3,7265232580944339E-005	0,00099876413101817971
1	1	0	1	0	0	1	17707,81	0,100000001	2,0078826	5,5562980199025734E-005	0,10001336556912749	0,000200815091	0,001332142899451479	-4,970404266371207E-005	0,001332142899451479
1	1	0	1	0	0	1	17719,81	0,100000001	2,172328	5,5563226818210554E-005	0,10001380948366554	0,000217262801	0,001665521938923655	-6,2142862859304704E-005	0,001665521938923655
1	1	0	1	0	0	1	17731,81	0,100000001	2,32919264	5,5563171152025466E-005	0,10001370928453115	0,000232951192	0,0019989009419281357	-7,4581681694238605E-005	0,0019989009419281357
1	1	0	1	0	0	1	17743,81	0,100000001	2,4417572	5,5563187799519962E-005	0,10001373925002163	0,000244209281	0,0023322802237900506	-8,7020510933718298E-005	0,0023322802237900506
1	1	0	1	0	0	1	17755,81	0,100000001	2,49056363	5,5563294589933421E-005	0,10001393147276816	0,00024909107	0,002665659518786097	-9,9459340663250086E-005	0,002665659518786097
1	1	0	1	0	0	1	17767,81	0,100000001	2,51252294	5,556318621709943E-005	0,10001373640166462	0,000251286809	0,0029990391198006682	-0,00011189818181074448	0,0029990391198006682
1	1	0	1	0	0	1	17779,81	0,100000001	2,52579379	5,556329042878416E-005	0,10001392398269942	0,000252614554	0,0033324186104783488	-0,00012433701884142115	0,0033324186104783488
1	1	0	1	0	0	1	17791,81	0,100000001	2,53528404	5,5563296946386496E-005	0,10001393571438376	0,000253563747	0,0036657981301768691	-0,0001367758569549044	0,0036657981301768691
1	1	0	1	0	0	1	17803,81	0,100000001	2,54275012	5,5563287905520864E-005	0,10001391944082544	0,000254310406	0,0039991775743144992	-0,00014921469224910918	0,0039991775743144992
1	1	0	1	0	0	1	17815,81	0,100000001	2,54905152	5,5563214182025856E-005	0,10001378673853282	0,0002549403	0,0043325567970945523	-0,00016165351928416515	0,0043325567970945523
1	1	0	1	0	0	1	17827,81	0,100000001	2,55455065	5,5563167325738406E-005	0,10001370239721437	0,000255490071	0,0046659362704637062	-0,00017409235566903741	0,0046659362704637062
1	1	0	1	0	0	1	17839,81	0,100000001	2,55943894	5,5563217839433088E-005	0,10001379332186589	0,00025597919	0,0049993152423599437	-0,00018653117334328096	0,0049993152423599437
1	1	0	1	0	0	1	17851,81	0,100000001	2,563869	5,5563084567586579E-005	0,10001355343253928	0,000256421656	0,0053326940403078906	-0,00019896998452727987	0,0053326940403078906
1	1	0	1	0	0	1	17863,81	0,100000001	2,56820369	5,556330920880039E-005	0,10001395778672906	0,000256856205	0,0056660731400507104	-0,00021140880697165126	0,0056660731400507104
1	1	0	1	0	0	1	17875,81	0,100000001	2,57209897	5,5563178492916954E-005	0,100013722498136	0,000257245207	0,0059994526484905754	-0,00022384764466505891	0,0059994526484905754
1	1	0	1	0	0	1	17887,81	0,100000001	2,5760324	5,5562995175934496E-005	0,1000133925275636	0,00025763773	0,0063328310696233382	-0,00023628644178957667	0,0063328310696233382
1	1	0	1	0	0	1	17899,81	0,100000001	2,57964134	5,5563089251104326E-005	0,10001356186287133	0,000257999112	0,0066662094311394534	-0,00024872523668971712	0,0066662094311394534
1	1	0	1	0	0	1	17911,81	0,100000001	2,58319306	5,5563163350025811E-005	0,10001369524093162	0,000258354674	0,0069995881800439526	-0,00026116404604383914	0,0069995881800439526
1	1	0	1	0	0	1	17923,81	0,100000001	2,58655381	5,5562953068564339E-005	0,10001331673429638	0,000258689834	0,0073329660314780045	-0,000273602821912132	0,0073329660314780045
1	1	0	1	0	0	1	17935,81	0,100000001	2,59006715	5,5562870217694176E-005	0,10001316760272829	0,000259040826	0,0076663435318692608	-0,00028604158468254621	0,0076663435318692608
1	1	0	1	0	0	1	17947,81	0,100000001	2,59333253	5,5562850345340038E-005	0,10001313183249042	0,000259367313	0,0079997211219737843	-0,00029848035080028301	0,0079997211219737843
1	1	0	1	0	0	1	17959,81	0,100000001	2,59663582	5,5562950444304282E-005	0,10001331201062822	0,000259698136	0,0083330985117818662	-0,0003109191094446903	0,0083330985117818662
1	1	0	1	0	0	1	17971,81	0,100000001	2,60001564	5,556294582908352E-005	0,10001330370323075	0,000260036148	0,0086664762061684429	-0,00032335787945333075	0,0086664762061684429
1	1	0	1	0	0	1	17983,81	0,100000001	2,60326195	5,5562933827439942E-005	0,10001328210027206	0,000260360772	0,0089998541022240205	-0,00033579665698651277	0,0089998541022240205
1	1	0	1	0	0	1	17995,81	0,100000001	2,60658431	5,5562947162737453E-005	0,10001330610380786	0,000260693108	0,0093332318011715917	-0,00034823542716533005	0,0093332318011715917
1	1	0	1	0	0	1	18007,81	0,100000001	2,60975409	5,5563029105464614E-005	0,10001345360071853	0,000261010515	0,0096666096759060915	-0,00036067420390299392	0,0096666096759060915
1	1	0	1	0	0	1	18019,81	0,100000001	2,61294293	5,5562879859573312E-005	0,10001318495811094	0,000261328736	0,0099999873951635328	-0,00037311297483959974	0,0099999873951635328
1	1	0	1	0	0	1	18031,81	0,100000001	2,61609364	5,5562951643433837E-005	0,10001331416906146	0,000261644193	0,01033336535545181	-0,00038555175476939021	0,01033336535545181
1	1	0	1	0	0	1	18043,81	0,100000001	2,61939692	5,5563072331663635E-005	0,10001353140787773	0,000261975132	0,010666743417322957	-0,00039799053848937408	0,010666743417322957
1	1	0	1	0	0	1	18055,81	0,100000001	2,62270045	5,5562807514849638E-005	0,10001305473760675	0,000262304296	0,011000120874439584	-0,00041042929964515366	0,011000120874439584
1	1	0	1	0	0	1	18067,81	0,100000001	2,6260612	5,5562835827883744E-005	0,10001310570106877	0,000262640533	0,011333497761210123	-0,00042286803952055392	0,011333497761210123
1	1	0	1	0	0	1	18079,81	0,100000001	2,62925005	5,5562826494789786E-005	0,10001308890149942	0,000262959424	0,011666874878318677	-0,0004353067879901751	0,011666874878318677
1	1	0	1	0	0	1	18091,81	0,100000001	2,63264894	5,5562834501680397E-005	0,10001310331390272	0,000263299386	0,012000251930241685	-0,0004477455340276361	0,012000251930241685
1	1	0	1	0	0	1	18103,81	0,100000001	2,63604784	5,5562806661758157E-005	0,10001305320204208	0,000263639202	0,012333628706157112	-0,00046018426976688294	0,012333628706157112
1	1	0	1	0	0	1	18115,81	0,100000001	2,63935113	5,556290962878201E-005	0,10001323854268725	0,000263970054	0,012667005878046059	-0,00047262302028043437	0,012667005878046059
1	1	0	1	0	0	1	18127,81	0,100000001	2,64273095	5,556280238222745E-005	0,10001304549888669	0,000264307571	0,013000383032263885	-0,00048506177013465242	0,013000383032263885
1	1	0	1	0	0	1	18139,81	0,100000001	2,64635897	5,5562996019919712E-005	0,10001339404673699	0,00026467134	0,013333760878203963	-0,0004975005457979577	0,013333760878203963
1	1	0	1	0	0	1	18151,81	0,100000001	2,64973879	5,5563035189277594E-005	0,10001346455158205	0,000265009556	0,013667138593657469	-0,00050993931659263366	0,013667138593657469
1	1	0	1	0	0	1	18163,81	0,100000001	2,65329051	5,556303580022521E-005	0,10001346565128776	0,000265364768	0,014000516537438157	-0,00052237809590650368	0,014000516537438157
1	1	0	1	0	0	1	18175,81	0,100000001	2,65688038	5,556309150407712E-005	0,1000135659182224	0,000265724084	0,014333895072589226	-0,0005348168972851977	0,014333895072589226
1	1	0	1	0	0	1	18187,81	0,100000001	2,66037464	5,5563122326715123E-005	0,10001362139897149	0,000266073708	0,014667273603041872	-0,00054725569848858733	0,014667273603041872
1	1	0	1	0	0	1	18199,81	0,100000001	2,66402173	5,5563075710088019E-005	0,10001353748904168	0,000266438234	0,015000651920519674	-0,0005596944917455991	0,015000651920519674
1	1	0	1	0	0	1	18211,81	0,100000001	2,6678791	5,5563032642420794E-005	0,10001345996723973	0,00026682383	0,015334030270585069	-0,00057213328621849798	0,015334030270585069
1	1	0	1	0	0	1	18223,81	0,100000001	2,67137337	5,5563073532448877E-005	0,10001353356929118	0,000267173484	0,01566740874677721	-0,00058457208539735514	0,01566740874677721
1	1	0	1	0	0	1	18235,81	0,100000001	2,67528772	5,5563090255690944E-005	0,10001356367112726	0,000267565047	0,016000786901901475	-0,00059701087259673818	0,016000786901901475
1	1	0	1	0	0	1	18247,81	0,100000001	2,67908764	5,5563131452848512E-005	0,10001363782601179	0,000267945288	0,016334165482061088	-0,00060944967565476147	0,016334165482061088
1	1	0	1	0	0	1	18259,81	0,100000001	2,68305945	5,5563086028728218E-005	0,10001355606259427	0,000268342323	0,016667544234453699	-0,0006218884851390295	0,016667544234453699
1	1	0	1	0	0	1	18271,81	0,100000001	2,68710756	5,5562981533093587E-005	0,10001336797044965	0,000268746691	0,017000922286964845	-0,0006343272685097792	0,017000922286964845
1	1	0	1	0	0	1	18283,81	0,100000001	2,6908884	5,5563039689428275E-005	0,10001347265185334	0,000269125099	0,017334300536325712	-0,0006467660592252567	0,017334300536325712
1	1	0	1	0	0	1	18295,81	0,100000001	2,69514656	5,5563038982864883E-005	0,10001347138003925	0,000269550976	0,017667678652606381	-0,00065920484497533286	0,017667678652606381
1	1	0	1	0	0	1	18307,81	0,100000001	2,69915652	5,5562973534067469E-005	0,10001335357220246	0,000269951706	0,018001056812076822	-0,00067164363233687757	0,018001056812076822
1	1	0	1	0	0	1	18319,81	0,100000001	2,70335746	5,5563057988882067E-005	0,10001350559087058	0,000270372257	0,01833443515813961	-0,00068408242666043354	0,01833443515813961
1	1	0	1	0	0	1	18331,81	0,100000001	2,70767283	5,556303962113129E-005	0,10001347252891878	0,00027080375	0,018667813140360742	-0,00069652120740856832	0,018667813140360742
1	1	0	1	0	0	1	18343,81	0,100000001	2,71193099	5,5562932340221267E-005	0,10001327942327842	0,000271229103	0,0190011907763596	-0,00070895997523868454	0,0190011907763596
1	1	0	1	0	0	1	18355,81	0,100000001	2,71643734	5,5562967254883712E-005	0,10001334226967157	0,000271679979	0,019334568323239584	-0,00072139873974365568	0,019334568323239584
1	1	0	1	0	0	1	18367,81	0,100000001	2,72084832	5,5562979143940742E-005	0,10001336366997448	0,000272121193	0,019667946025262176	-0,00073383751003720614	0,019667946025262176
1	1	0	1	0	0	1	18379,81	0,100000001	2,72548842	5,5563106132050355E-005	0,10001359224857456	0,000272585894	0,020001324043389718	-0,00074627629212505728	0,020001324043389718
1	1	0	1	0	0	1	18391,81	0,100000001	2,72993755	5,5562986841632262E-005	0,10001337752581939	0,00027303028	0,020334702276566685	-0,00075871508223669158	0,020334702276566685
1	1	0	1	0	0	1	18403,81	0,100000001	2,73471117	5,5562983689208826E-005	0,10001337185145712	0,0002735077	0,020668080433406656	-0,00077115386950008986	0,020668080433406656
1	1	0	1	0	0	1	18415,81	0,100000001	2,73956132	5,5562957363410125E-005	0,1000133244650189	0,000273992628	0,021001458418031427	-0,00078359265033790746	0,021001458418031427
1	1	0	1	0	0	1	18427,81	0,100000001	2,74431586	5,5562969380782714E-005	0,10001334609628982	0,000274468213	0,021334836364741846	-0,00079603142976108992	0,021334836364741846
1	1	0	1	0	0	1	18439,81	0,100000001	2,74935699	5,5563007049262522E-005	0,1000134138995543	0,000274972583	0,021668214244678096	-0,00080847020669283802	0,021668214244678096
1	1	0	1	0	0	1	18451,81	0,100000001	2,75434065	5,556304667683111E-005	0,10001348522917862	0,000275471219	0,02200159217680111	-0,00082090898557174451	0,02200159217680111
1	1	0	1	0	0	1	18463,81	0,100000001	2,75957274	5,5562958026097882E-005	0,10001332565785686	0,00027599404	0,022334969942421859	-0,00083334775823822771	0,022334969942421859
1	1	0	1	0	0	1	18475,81	0,100000001	2,76478577	5,5563086198021971E-005	0,10001355636732302	0,000276516046	0,022668347820744643	-0,00084578653510977549	0,022668347820744643
1	1	0	1	0	0	1	18487,81	0,100000001	2,7702086	5,5563113294955757E-005	0,10001360514180443	0,000277058542	0,023001726360680643	-0,00085822533666700173	0,023001726360680643
1	1	0	1	0	0	1	18499,81	0,100000001	2,77572703	5,556305269317495E-005	0,10001349605859765	0,000277610176	0,023335104609038576	-0,0008706641273450583	0,023335104609038576
1	1	0	1	0	0	1	18511,81	0,100000001	2,7813983	5,5562944005346963E-005	0,10001330042050493	0,000278176827	0,023668482552438045	-0,00088310290664470451	0,023668482552438045
1	1	0	1	0	0	1	18523,81	0,100000001	2,78722215	5,5563032202008698E-005	0,10001345917449795	0,000278759719	0,024001860457794435	-0,00089554168452491238	0,024001860457794435
1	1	0	1	0	0	1	18535,81	0,100000001	2,7932179	5,5562942458523648E-005	0,1000132976362229	0,000279358937	0,024335238253991539	-0,00090798045833224038	0,024335238253991539
1	1	0	1	0	0	1	18547,81	0,100000001	2,79932833	5,5562948775788147E-005	0,10001330900729914	0,000279970089	0,024668615644713149	-0,0009204192170107328	0,024668615644713149
1	1	0	1	0	0	1	18559,81	0,100000001	2,80561066	5,5562974030358925E-005	0,1000133544655271	0,000280598528	0,02500199335927879	-0,00093285798777228122	0,02500199335927879
1	1	0	1	0	0	1	18571,81	0,100000001	2,8121984	5,5562962217463392E-005	0,10001333320231486	0,000281257322	0,025335371206925053	-0,00094529676349924659	0,025335371206925053
1	1	0	1	0	0	1	18583,81	0,100000001	2,81884336	5,5562963735726144E-005	0,10001333593518787	0,000281921937	0,025668749097965565	-0,0009577355408453097	0,025668749097965565
1	1	0	1	0	0	1	18595,81	0,100000001	2,82587028	5,5562973243080909E-005	0,10001335304842666	0,000282624766	0,026002127090052506	-0,00097017432196155098	0,026002127090052506
1	1	0	1	0	0	1	18607,81	0,100000001	2,83289719	5,5563034234361517E-005	0,10001346283273307	0,000283327856	0,026335505145584861	-0,00098261310544502605	0,026335505145584861
1	1	0	1	0	0	1	18619,81	0,100000001	2,8404398	5,5563114904281171E-005	0,10001360803859021	0,000284082635	0,026668883323360554	-0,00099505189348956429	0,026668883323360554
1	1	0	1	0	0	1	18631,81	0,100000001	2,84805846	5,5563007141980858E-005	0,1000134140664473	0,000284844049	0,027002261531943978	-0,0010074906826835805	0,027002261531943978
1	1	0	1	0	0	1	18643,81	0,100000001	2,85590649	5,5563017983403475E-005	0,10001343358100824	0,000285629008	0,02733563945972496	-0,00101992946140048	0,02733563945972496
1	1	0	1	0	0	1	18655,81	0,100000001	2,86409831	5,5562971708261306E-005	0,10001335028575133	0,000286448078	0,027669017149961974	-0,0010323682312542947	0,027669017149961974
1	1	0	1	0	0	1	18667,81	0,100000001	2,87265277	5,5562946238451533E-005	0,10001330444009318	0,000287303497	0,028002394731095994	-0,0010448069970373301	0,028002394731095994
1	1	0	1	0	0	1	18679,81	0,100000001	2,88126469	5,5562842355420192E-005	0,10001311745063451	0,000288164272	0,028335772292644099	-0,0010572457620895883	0,028335772292644099
1	1	0	1	0	0	1	18691,81	0,100000001	2,89043021	5,5562902097900704E-005	0,10001322498710074	0,000289081247	0,028669149605887949	-0,0010696845178772811	0,028669149605887949
1	1	0	1	0	0	1	18703,81	0,100000001	2,89992023	5,5562945519884429E-005	0,10001330314667238	0,000290030614	0,029002527440512243	-0,0010821232931183795	0,029002527440512243
1	1	0	1	0	0	1	18715,81	0,100000001	2,90948677	5,5562996363474266E-005	0,1000133946651352	0,000290987635	0,02933590549490839	-0,0010945620765594608	0,02933590549490839
1	1	0	1	0	0	1	18727,81	0,100000001	2,91972184	5,5563022809724013E-005	0,10001344226838531	0,00029201142	0,029669283301234144	-0,0011070008507447027	0,029669283301234144
1	1	0	1	0	0	1	18739,81	0,100000001	2,93020487	5,5562863452566995E-005	0,10001315542549922	0,000293059042	0,030002660524195994	-0,0011194396031638526	0,030002660524195994
1	1	0	1	0	0	1	18751,81	0,100000001	2,94122267	5,5562885754224326E-005	0,1000131955684829	0,000294161087	0,030336037863255277	-0,0011318783599147541	0,030336037863255277
1	1	0	1	0	0	1	18763,81	0,100000001	2,95275593	5,5562922675990394E-005	0,10001326202766262	0,000295314763	0,030669415271543693	-0,0011443171192486875	0,030669415271543693
1	1	0	1	0	0	1	18775,81	0,100000001	2,96467113	5,5563011347419686E-005	0,10001342163623728	0,000296506914	0,031002793201623174	-0,0011567558980513472	0,031002793201623174
1	1	0	1	0	0	1	18787,81	0,100000001	2,97708273	5,5562947058429318E-005	0,10001330591605322	0,000297747873	0,03133617118097376	-0,0011691946786923779	0,03133617118097376
1	1	0	1	0	0	1	18799,81	0,100000001	2,99025822	5,5562937095347379E-005	0,1000132879825055	0,000299065548	0,031669549060020902	-0,0011816334555909522	0,031669549060020902
1	1	0	1	0	0	1	18811,81	0,100000001	3,00383472	5,5562993845591942E-005	0,10001339013294698	0,000300423708	0,032002927044481766	-0,0011940722364226542	0,032002927044481766
1	1	0	1	0	0	1	18823,81	0,100000001	3,01823235	5,5562953362448346E-005	0,1000133172632876	0,000301863416	0,032336304693955821	-0,0012065110047555482	0,032336304693955821
1	1	0	1	0	0	1	18835,81	0,100000001	3,03329825	5,55630112869872E-005	0,10001342152745878	0,000303370529	0,032669682955879194	-0,0012189497959397496	0,032669682955879194
1	1	0	1	0	0	1	18847,81	0,100000001	3,04903245	5,5563005239185357E-005	0,10001341064141536	0,000304944144	0,033003060961587872	-0,0012313885775642363	0,033003060961587872
1	1	0	1	0	0	1	18859,81	0,100000001	3,06575966	5,5562983457826906E-005	0,10001337143496968	0,000306616974	0,033336438578839418	-0,001243827344694865	0,033336438578839418
1	1	0	1	0	0	1	18871,81	0,100000001	3,0833652	5,5562885272006195E-005	0,10001319470049026	0,000308377203	0,033669816032449709	-0,0012562661057198182	0,033669816032449709
1	1	0	1	0	0	1	18883,81	0,100000001	3,10200167	5,5562914784583776E-005	0,10001324782313054	0,000310241274	0,03400319373857632	-0,0012687048761664952	0,03400319373857632
1	1	0	1	0	0	1	18895,81	0,100000001	3,12163138	5,5562930139816467E-005	0,10001327546254973	0,000312204589	0,034336571329026054	-0,0012811436422971123	0,034336571329026054
1	1	0	1	0	0	1	18907,81	0,100000001	3,14242554	5,5562901061856083E-005	0,10001322312222038	0,000314284116	0,034669948503925875	-0,0012935823929230037	0,034669948503925875
1	1	0	1	0	0	1	18919,81	0,100000001	3,16436577	5,5562895871698854E-005	0,10001321377993726	0,000316478399	0,035003325678681638	-0,0013060211435435197	0,035003325678681638
1	1	0	1	0	0	1	18931,81	0,100000001	3,18777609	5,5562865737825632E-005	0,10001315953896483	0,00031881957	0,035336702671734714	-0,0013184598873844642	0,035336702671734714
1	1	0	1	0	0	1	18943,81	0,100000001	3,21273303	5,5562823278208576E-005	0,10001308311165317	0,00032131534	0,035670079632669581	-0,0013308986300270354	0,035670079632669581
1	1	0	1	0	0	1	18955,81	0,100000001	3,23908401	5,5562809035182003E-005	0,10001305747420504	0,000323950691	0,03600345687960409	-0,0013433373833406374	0,03600345687960409
1	1	0	1	0	0	1	18967,81	0,100000001	3,26730633	5,556295413772265E-005	0,10001331865878136	0,000326774141	0,036336834090113126	-0,0013557761352951562	0,036336834090113126
1	1	0	1	0	0	1	18979,81	0,100000001	3,29726624	5,5562918305397037E-005	0,10001325416059448	0,000329770322	0,036670211622755469	-0,0013682148992689016	0,036670211622755469
1	1	0	1	0	0	1	18991,81	0,100000001	3,3291738	5,55629836809304E-005	0,10001337183655597	0,000332961907	0,03700358905142992	-0,0013806536593634658	0,03700358905142992
1	1	0	1	0	0	1	19003,81	0,100000001	3,36346817	5,5563039588431514E-005	0,10001347247005918	0,000336392142	0,037336967298249306	-0,001393092449984117	0,037336967298249306
1	1	0	1	0	0	1	19015,81	0,100000001	3,39974856	5,5563175347116256E-005	0,10001371683569469	0,000340021477	0,037670345798517178	-0,001405531250061272	0,037670345798517178
1	1	0	1	0	0	1	19027,81	0,100000001	3,43835855	5,5563171208318739E-005	0,10001370938585904	0,000343883003	0,038003724523437018	-0,0014179700585204941	0,038003724523437018
1	1	0	1	0	0	1	19039,81	0,100000001	3,4792788	5,556314594174425E-005	0,10001366390602442	0,000347975409	0,038337103455146067	-0,0014304088746952995	0,038337103455146067
1	1	0	1	0	0	1	19051,81	0,100000001	3,52306342	5,556298113365968E-005	0,10001336725146862	0,00035235344	0,038670481699046483	-0,0014428476652070403	0,038670481699046483
1	1	0	1	0	0	1	19063,81	0,100000001	3,56933045	5,5562997046030234E-005	0,10001339589373595	0,000356980861	0,039003859437201907	-0,0014552864368487552	0,039003859437201907
1	1	0	1	0	0	1	19075,81	0,100000001	3,61855721	5,5563083456622234E-005	0,10001355143280344	0,000361904764	0,039337237591997523	-0,0014677252240358762	0,039337237591997523
1	1	0	1	0	0	1	19087,81	0,100000001	3,67059064	5,5562991193599168E-005	0,1000133853593599	0,000367108209	0,039670616062099635	-0,0014801640229875059	0,039670616062099635
1	1	0	1	0	0	1	19099,81	0,100000001	3,72573686	5,5563078869962029E-005	0,10001354317681496	0,000372624141	0,040003994563769446	-0,0014926028231169693	0,040003994563769446
1	1	0	1	0	0	1	19111,81	0,100000001	3,78390002	5,5562969165957638E-005	0,10001334570960467	0,000378440513	0,040337372690144416	-0,0015050416092436778	0,040337372690144416
1	1	0	1	0	0	1	19123,81	0,100000001	3,84483171	5,5562937962098259E-005	0,1000132895426571	0,000384534273	0,040670750799382221	-0,001517480394730975	0,040670750799382221
1	1	0	1	0	0	1	19135,81	0,100000001	3,90805507	5,5563024369378886E-005	0,10001344507576413	0,00039085804	0,041004128678814304	-0,001529919171643912	0,041004128678814304
1	1	0	1	0	0	1	19147,81	0,100000001	3,9741807	5,5563028530114227E-005	0,10001345256508782	0,000397471536	0,04133750697986151	-0,0015423579642878762	0,04133750697986151
1	1	0	1	0	0	1	19159,81	0,100000001	4,04206324	5,5562944204029114E-005	0,10001330077813277	0,000404260092	0,041670884571536858	-0,0015547967304642227	0,041670884571536858
1	1	0	1	0	0	1	19171,81	0,100000001	4,11042309	5,5563106741756198E-005	0,10001359334604509	0,000411098183	0,042004262741450528	-0,0015672355182154182	0,042004262741450528
1	1	0	1	0	0	1	19183,81	0,100000001	4,17689228	5,5562936674389574E-005	0,10001328722478146	0,000417744741	0,042337640467723104	-0,0015796742894137683	0,042337640467723104
1	1	0	1	0	0	1	19195,81	0,100000001	4,23921251	5,5562883567478918E-005	0,10001319163234112	0,000423977181	0,04267101777850247	-0,0015921130451095078	0,04267101777850247
1	1	0	1	0	0	1	19207,81	0,100000001	4,29787207	5,5562918258210022E-005	0,10001325407565786	0,000429844164	0,043004395072873158	-0,0016045518001930179	0,043004395072873158
1	1	0	1	0	0	1	19219,81	0,100000001	4,35204411	5,5562997736864621E-005	0,10001339713723786	0,000435262715	0,043337772687457395	-0,0016169905672241254	0,043337772687457395
1	1	0	1	0	0	1	19231,81	0,100000001	4,40161467	5,556297762774759E-005	0,10001336094082677	0,00044022029	0,043671150605959917	-0,0016294293455948333	0,043671150605959917
1	1	0	1	0	0	1	19243,81	0,100000001	4,44591475	5,5562817093812755E-005	0,10001307197974058	0,000444649602	0,044004528031410342	-0,0016418681055691043	0,044004528031410342
1	1	0	1	0	0	1	19255,81	0,100000001	4,48423815	5,5562889313118323E-005	0,10001320197449218	0,000448483013	0,044337905499812115	-0,0016543068671459478	0,044337905499812115
1	0	0	0	0	0	2	19265,40	-0,100000001	4,31156301	-5,5544671526799597E-005	-0,099980409958721446	0,00043107185	0,044382103721479475	-0,0016559559622214979	0,00011109456793301635
1	0	0	0	0	0	2	19277,40	-0,100000001	3,90027761	-5,5544965215027334E-005	-0,099980938597537779	0,000389953406	0,044048834565578125	-0,0016435212419296733	0,00044436372383435571
1	0	0	0	0	0	2	19289,40	-0,100000001	3,53856277	-5,5544955736233133E-005	-0,099980921535707994	0,000353788753	0,04371556465794839	-0,0016310864935898512	0,00077763363146409382
1	0	0	0	0	0	2	19301,40	-0,100000001	3,19720316	-5,5544990179439386E-005	-0,09998098353348	0,000319659506	0,04338229500040112	-0,0016186517545809424	0,001110903289011369
1	0	0	0	0	0	2	19313,40	-0,100000001	2,88727379	-5,5544988450076845E-005	-0,099980980420627392	0,000288672454	0,043049024952319245	-0,0016062170010006624	0,0014441733370932435
1	0	0	0	0	0	2	19325,40	-0,100000001	2,6476326	-5,5544998387081754E-005	-0,099980998307236454	0,000264712959	0,04271575458362439	-0,001593782235457881	0,001777443705788089
1	0	0	0	0	0	2	19337,40	-0,100000001	2,56155276	-5,5545086514204742E-005	-0,09998115693605975	0,000256107014	0,042382484582832186	-0,0015813474836420422	0,0021107137065803008
1	0	0	0	0	0	2	19349,40	-0,100000001	2,51933408	-5,5545090939435693E-005	-0,099981164901475558	0,000251885969	0,042049214027173715	-0,0015689127111233968	0,0024439842622387738
1	0	0	0	0	0	2	19361,40	-0,100000001	2,49042439	-5,5544980520589478E-005	-0,099980966147549978	0,000248995028	0,041715943870755021	-0,0015564779535009248	0,0027772544186574714
1	0	0	0	0	0	2	19373,40	-0,100000001	2,46817875	-5,5545001422365504E-005	-0,099981003770747277	0,000246771	0,041382673882529862	-0,0015440432021539792	0,0031105244068826227
1	0	0	0	0	0	2	19385,40	-0,100000001	2,45015311	-5,554501520469785E-005	-0,099981028578945779	0,000244968833	0,041049403806222707	-0,0015316084475205757	0,0034437944831897811
1	0	0	0	0	0	2	19397,40	-0,100000001	2,43623304	-5,5545195333245728E-005	-0,099981352810335885	0,000243577873	0,040716133006384282	-0,001519173665891248	0,0037770652830282016
1	0	0	0	0	0	2	19409,40	-0,100000001	2,42733479	-5,5545226348770989E-005	-0,099981408638282048	0,000242688344	0,04038286184924665	-0,0015067388709306067	0,0041103364401658368
1	0	0	0	0	0	2	19421,40	-0,100000001	2,42172074	-5,554514750548535E-005	-0,09998126672036617	0,000242126713	0,04004959092882183	-0,0014943040848020384	0,0044436073605906618
1	0	0	0	0	0	2	19433,40	-0,100000001	2,41782546	-5,5545101032902797E-005	-0,09998118306971657	0,000241737056	0,039716320217995078	-0,0014818693064938563	0,0047768780714174112
1	0	0	0	0	0	2	19445,40	-0,100000001	2,4141593	-5,5545048204561075E-005	-0,099981087978700314	0,000241370275	0,03938304991089543	-0,0014694345432492746	0,005110148378517065
1	0	0	0	0	0	2	19457,40	-0,100000001	2,4109323	-5,5545005174146758E-005	-0,0999810105239536	0,000241047441	0,03904977956957111	-0,0014569997787277251	0,0054434187198413754
1	0	0	0	0	0	2	19469,40	-0,100000001	2,4079535	-5,5545025907870797E-005	-0,099981047844657318	0,000240749709	0,038716509572975232	-0,0014445650270684563	0,0057766887164372557
1	0	0	0	0	0	2	19481,40	-0,100000001	2,40512729	-5,5544965893030163E-005	-0,099980939817942886	0,000240466892	0,03838323978475968	-0,0014321302831841386	0,0061099585046528128
1	0	0	0	0	0	2	19493,40	-0,100000001	2,40230131	-5,5544994828187757E-005	-0,099980991901227187	0,000240184469	0,038049969676466342	-0,0014196955273572877	0,0064432286129461427
1	0	0	0	0	0	2	19505,40	-0,100000001	2,39943719	-5,5545035845703546E-005	-0,099981065732756493	0,000239898291	0,037716699528970125	-0,0014072607700677248	0,0067764987604423565
1	0	0	0	0	0	2	19517,40	-0,100000001	2,39668751	-5,5544945973902938E-005	-0,099980903963513446	0,000239622983	0,037383429769810182	-0,0013948260272675107	0,0071097685196023053
1	0	0	0	0	0	2	19529,40	-0,100000001	2,39391875	-5,5545074194669728E-005	-0,099981134760896461	0,000239346715	0,037050159808548685	-0,0013823912769266158	0,0074430384808638067
1	0	0	0	0	0	2	19541,40	-0,100000001	2,39103532	-5,5545137421538432E-005	-0,099981248569261491	0,000239058703	0,036716889143130746	-0,0013699565003126971	0,0077763091462817485
1	0	0	0	0	0	2	19553,40	-0,100000001	2,3881712	-5,5545153252780435E-005	-0,099981277065497446	0,000238772409	0,03638361847100976	-0,0013575217234486787	0,0081095798184027315
1	0	0	0	0	0	2	19565,40	-0,100000001	2,38511586	-5,5545152766837011E-005	-0,09998127619079927	0,000238466921	0,036050347686672678	-0,0013450869423977272	0,0084428506027398042
1	0	0	0	0	0	2	19577,40	-0,100000001	2,38204169	-5,5545105102989408E-005	-0,099981190395872538	0,000238159366	0,035717077155531168	-0,0013326521707938427	0,0087761211338813158
1	0	0	0	0	0	2	19589,40	-0,100000001	2,37906289	-5,554509733203385E-005	-0,099981176408152358	0,000237861503	0,035383806549047309	-0,0013202173963788339	0,0091093917403651648
1	0	0	0	0	0	2	19601,40	-0,100000001	2,37572122	-5,5545068467656774E-005	-0,099981124452273011	0,000237527274	0,035050535921838016	-0,0013077826211905314	0,0094426623675744614
1	0	0	0	0	0	2	19613,40	-0,100000001	2,37249422	-5,5545107967323725E-005	-0,099981195551674381	0,000237204804	0,034717265216327661	-0,0012953478430807107	0,0097759330730848064
1	0	0	0	0	0	2	19625,40	-0,100000001	2,36907625	-5,5545100298606682E-005	-0,099981181747983539	0,000236863038	0,034383994837115904	-0,0012829130771455296	0,01010920345229656
1	0	0	0	0	0	2	19637,40	-0,100000001	2,36565828	-5,5545156703641011E-005	-0,099981283277046554	0,000236521548	0,034050724190667558	-0,001270478301239392	0,010442474098744909
1	0	0	0	0	0	2	19649,40	-0,100000001	2,36195374	-5,5545057218107917E-005	-0,099981104203084813	0,000236150736	0,033717453457586336	-0,0012580435221008653	0,010775744831826126
1	0	0	0	0	0	2	19661,40	-0,100000001	2,35821128	-5,5545079576886368E-005	-0,099981144448886502	0,000235776664	0,033384182926985837	-0,0012456087505171666	0,01110901536242664
1	0	0	0	0	0	2	19673,40	-0,100000001	2,35437322	-5,5545136977814963E-005	-0,099981247770559232	0,000235393178	0,033050912509654835	-0,0012331739831597053	0,011442285779757632
1	0	0	0	0	0	2	19685,40	-0,100000001	2,35036325	-5,5545140969670483E-005	-0,099981254955899264	0,000234992272	0,032717641482228077	-0,0012207391930387507	0,011775556807184381
1	0	0	0	0	0	2	19697,40	-0,100000001	2,34639144	-5,5545079924994042E-005	-0,099981145075480346	0,000234594903	0,032384370676577792	-0,001208304411192575	0,012108827612834667
1	0	0	0	0	0	2	19709,40	-0,100000001	2,34215236	-5,5545040249410598E-005	-0,099981073659429286	0,000234170904	0,032051099995986733	-0,0011958696340125269	0,012442098293425715
1	0	0	0	0	0	2	19721,40	-0,100000001	2,3379705	-5,5545107363412774E-005	-0,099981194464634662	0,00023375309	0,031717829235571405	-0,0011834348538541278	0,012775369053841045
1	0	0	0	0	0	2	19733,40	-0,100000001	2,3335979	-5,5545211190150842E-005	-0,09998138135276544	0,000233316343	0,031384558339895334	-0,001171000068648969	0,01310863994951711
1	0	0	0	0	0	2	19745,40	-0,100000001	2,32926321	-5,5545294683426618E-005	-0,099981531640663654	0,000232883307	0,031051286780062925	-0,0011585652586632438	0,01344191150934952
1	0	0	0	0	0	2	19757,40	-0,100000001	2,32464242	-5,5545309820936787E-005	-0,099981558888182285	0,000232421371	0,030718015054605766	-0,0011461304424978368	0,013775183234806682
1	0	0	0	0	0	2	19769,40	-0,100000001	2,31992579	-5,5545166250318291E-005	-0,099981300461065856	0,00023194919	0,030384743578895789	-0,0011336956356508326	0,014108454710516656
1	0	0	0	0	0	2	19781,40	-0,100000001	2,31526685	-5,554517580817143E-005	-0,099981317665201728	0,000231483427	0,030051472601065062	-0,0011212608473803731	0,014441725688347373
1	0	0	0	0	0	2	19793,40	-0,100000001	2,31053114	-5,5545268135352262E-005	-0,099981483854129242	0,00023101033	0,029718201057212499	-0,0011088260379908774	0,014774997232199946
1	0	0	0	0	0	2	19805,40	-0,100000001	2,30568099	-5,5545204513188864E-005	-0,099981369334233754	0,00023052514	0,029384929862143546	-0,0010963912416149674	0,015108268427268902
1	0	0	0	0	0	2	19817,40	-0,100000001	2,30081201	-5,5545233001311622E-005	-0,099981420612855322	0,000230038451	0,029051658393762451	-0,0010839564350414141	0,01544153989564999
1	0	0	0	0	0	2	19829,40	-0,100000001	2,29577088	-5,5545345430158906E-005	-0,099981622984782886	0,000229534897	0,02871838674170096	-0,0010715216216144979	0,015774811547711482
1	0	0	0	0	0	2	19841,40	-0,100000001	2,29065347	-5,5545193511992698E-005	-0,099981349532080397	0,000229022626	0,028385115279073379	-0,0010590868152556157	0,016108083010339062
1	0	0	0	0	0	2	19853,40	-0,100000001	2,28534508	-5,5545165972577197E-005	-0,099981299961131891	0,000228491772	0,028051844257445248	-0,001046652025351016	0,01644135403196719
1	0	0	0	0	0	2	19865,40	-0,100000001	2,28018928	-5,5545127941502464E-005	-0,099981231505196544	0,000227976125	0,027718573198082826	-0,0010342172340384989	0,016774625091329616
1	0	0	0	0	0	2	19877,40	-0,100000001	2,27476645	-5,5545183702475494E-005	-0,099981331874949235	0,000227434182	0,027385302385812698	-0,0010217824519453277	0,017107895903599741
1	0	0	0	0	0	2	19889,40	-0,100000001	2,26934338	-5,554524278019865E-005	-0,099981438214852198	0,000226892211	0,027052031228747088	-0,0010093476569873738	0,01744116706066535
1	0	0	0	0	0	2	19901,40	-0,100000001	2,2638824	-5,5545333848645286E-005	-0,099981602138058125	0,000226346587	0,026718759358138541	-0,00099691283540617306	0,017774438931273898
1	0	0	0	0	0	2	19913,40	-0,100000001	2,25828743	-5,554519294078151E-005	-0,09998134850390025	0,000225786629	0,026385487807532019	-0,00098447802576467814	0,018107710481880419
1	0	0	0	0	0	2	19925,40	-0,100000001	2,25255895	-5,5545200161635872E-005	-0,099981361501438259	0,000225213909	0,026052216691562566	-0,00097204323234007693	0,018440981597849872
1	0	0	0	0	0	2	19937,40	-0,100000001	2,24679232	-5,5545181119193638E-005	-0,099981327225041818	0,000224637275	0,025718945644386813	-0,00095960844148226099	0,018774252645025629
1	0	0	0	0	0	2	19949,40	-0,100000001	2,24081564	-5,5545132275670765E-005	-0,099981239306699584	0,000224039526	0,02538567463756009	-0,00094717365212992154	0,019107523651852352
1	0	0	0	0	0	2	19961,40	-0,100000001	2,23491526	-5,5545148125125299E-005	-0,099981267835718093	0,000223449664	0,025052403594013594	-0,00093473886140751808	0,019440794695398848
1	0	0	0	0	0	2	19973,40	-0,100000001	2,22874761	-5,5545129514402816E-005	-0,099981234336417216	0,000222832939	0,024719132544246688	-0,00092230407045302285	0,019774065745165754
1	0	0	0	0	0	2	19985,40	-0,100000001	2,22257996	-5,5545122100247277E-005	-0,099981220990937075	0,000222216258	0,024385861632428522	-0,00090986928464558042	0,02010733665698392
1	0	0	0	0	0	2	19997,40	-0,100000001	2,21616411	-5,5545114712996614E-005	-0,099981207693885734	0,000221574766	0,024052591205848874	-0,00089743451694303974	0,020440607083563565
1	0	0	0	0	0	2	20009,40	-0,100000001	2,20974827	-5,5545041961388454E-005	-0,099981076740989453	0,000220933012	0,02371932074611497	-0,00088499974800346893	0,020773877543297469
1	0	0	0	0	0	2	20021,40	-0,100000001	2,20316052	-5,5545062093685069E-005	-0,099981112979123802	0,000220274436	0,023386050268639165	-0,0008725649784019241	0,021107148020773274
1	0	0	0	0	0	2	20033,40	-0,100000001	2,19645834	-5,5545119857622515E-005	-0,099981216954212467	0,000219604583	0,023052779779402205	-0,00086013020836155482	0,021440418510010234
1	0	0	0	0	0	2	20045,40	-0,100000001	2,18950772	-5,5544987074616883E-005	-0,099980977944799437	0,000218909117	0,022719509677212973	-0,00084769545276245645	0,021773688612199469
1	0	0	0	0	0	2	20057,40	-0,100000001	2,18248081	-5,554499919960896E-005	-0,099980999769785434	0,000218206609	0,022386239454140141	-0,00083526069265302861	0,022106958835272298
1	0	0	0	0	0	2	20069,40	-0,100000001	2,17530107	-5,5545053841753139E-005	-0,099981098125646157	0,000217488996	0,022052969064177613	-0,00082282592631672166	0,022440229225234826
1	0	0	0	0	0	2	20081,40	-0,100000001	2,16796851	-5,5545135255489082E-005	-0,099981244670372634	0,000216756191	0,021719698210168918	-0,00081039114266622848	0,02277350007924352
1	0	0	0	0	0	2	20093,40	-0,100000001	2,16027331	-5,5545007571991949E-005	-0,099981014840074982	0,000215986322	0,021386427832226246	-0,00079795637677839859	0,023106770457186195
1	0	0	0	0	0	2	20105,40	-0,100000001	2,15263534	-5,5544974173108742E-005	-0,099980954722084506	0,000215222535	0,021053157788269923	-0,00078552162335204851	0,023440040501142512
1	0	0	0	0	0	2	20117,40	-0,100000001	2,14478731	-5,5545066962639494E-005	-0,099981121743241882	0,000214438245	0,020719887470802784	-0,00077308685972064205	0,023773310818609651
1	0	0	0	0	0	2	20129,40	-0,100000001	2,13657665	-5,5545216747870048E-005	-0,099981391356660147	0,00021361791	0,020386616516721616	-0,00076065207233631027	0,024106581772690819
1	0	0	0	0	0	2	20141,40	-0,100000001	2,12811756	-5,5545216520213421E-005	-0,099981390946878195	0,000212772153	0,020053345164509568	-0,00074821727009718016	0,024439853124902867
1	0	0	0	0	0	2	20153,40	-0,100000001	2,11967754	-5,5545270480629466E-005	-0,099981488075628262	0,00021192852	0,019720073826913494	-0,00073578246840339149	0,024773124462498944
1	0	0	0	0	0	2	20165,40	-0,100000001	2,11087489	-5,5545066048287686E-005	-0,099981120097408602	0,000211047634	0,019386803081979229	-0,00072334768882261184	0,025106395207433206
1	0	0	0	0	0	2	20177,40	-0,100000001	2,10195756	-5,5545136507186624E-005	-0,099981246923428224	0,000210156344	0,019053532557842506	-0,0007109129174800855	0,02543966573156993
1	0	0	0	0	0	2	20189,40	-0,100000001	2,09235287	-5,5545189001907904E-005	-0,099981341413927667	0,000209196252	0,018720261629051091	-0,00069847813103934835	0,025772936660361344
1	0	0	0	0	0	2	20201,40	-0,100000001	2,08286262	-5,5545124698430298E-005	-0,099981225667666573	0,000208247162	0,018386991039582298	-0,0006860433572591945	0,026106207249830138
1	0	0	0	0	0	2	20213,40	-0,100000001	2,07281876	-5,5545127417892218E-005	-0,099981230562698086	0,000207242963	0,018053720995975738	-0,00067360860384589453	0,026439477293436698
1	0	0	0	0	0	2	20225,40	-0,100000001	2,06279397	-5,5545204542991187E-005	-0,099981369387877926	0,000206240962	0,01772045012892687	-0,00066117381970885491	0,026772748160485565
1	0	0	0	0	0	2	20237,40	-0,100000001	2,05208158	-5,5545097234348461E-005	-0,099981176232318669	0,000205169534	0,017387179475049466	-0,00064873904352552909	0,027106018814362973
1	0	0	0	0	0	2	20249,40	-0,100000001	2,04125476	-5,554508425336745E-005	-0,099981152866552563	0,000204087002	0,017053908582661171	-0,00063630425844304141	0,027439289706751264
1	0	0	0	0	0	2	20261,40	-0,100000001	2,03014159	-5,55452727853424E-005	-0,09998149222411159	0,000202976589	0,016720637452823706	-0,00062386946450100595	0,02777256083658873
1	0	0	0	0	0	2	20273,40	-0,100000001	2,01858926	-5,5545036367244186E-005	-0,099981066671529638	0,000201820701	0,016387366578030378	-0,00061143468007500992	0,028105831711382058
1	0	0	0	0	0	2	20285,40	-0,100000001	2,00655937	-5,554516030227145E-005	-0,099981289754581427	0,000200618393	0,016054095820424746	-0,00059899990002144461	0,02843910246898769
1	0	0	0	0	0	2	20297,40	-0,100000001	1,99418581	-5,5545093793008058E-005	-0,099981170037905882	0,000199381029	0,015720825306060288	-0,00058656512904353459	0,028772372983352147
1	0	0	0	0	0	2	20309,40	-0,100000001	1,98144948	-5,554505559595095E-005	-0,099981101283202253	0,000198107504	0,015387554747173229	-0,0005741303564044263	0,029105643542239206
1	0	0	0	0	0	2	20321,40	-0,100000001	1,9680258	-5,554499494698313E-005	-0,099980992115058842	0,000196765177	0,015054284895723763	-0,00056169561016076582	0,029438913393688672
1	0	0	0	0	0	2	20333,40	-0,100000001	1,95425832	-5,5545031684968205E-005	-0,099981058243432781	0,000195388813	0,01472101474027447	-0,00054926085257446304	0,029772183549137965
1	0	0	0	0	0	2	20345,40	-0,100000001	1,94005179	-5,5545110922306778E-005	-0,099981200870643955	0,000193968706	0,014387744319934269	-0,00053682608510472442	0,030105453969478163
1	0	0	0	0	0	2	20357,40	-0,100000001	1,92513859	-5,5545199516332813E-005	-0,099981360339892749	0,000192477979	0,014054473498536765	-0,00052439130267099853	0,030438724790875667
1	0	0	0	0	0	2	20369,40	-0,100000001	1,90984356	-5,5545013562258752E-005	-0,099981025622555366	0,000190948122	0,013721202903336819	-0,00051195652867700768	0,030771995386075616
1	0	0	0	0	0	2	20381,40	-0,100000001	1,89395666	-5,5544940706342458E-005	-0,099980894481904448	0,000189359474	0,013387932978418837	-0,00049952177969213805	0,0311052653109936
1	0	0	0	0	0	2	20393,40	-0,100000001	1,87745869	-5,5545145633733939E-005	-0,099981263351213581	0,000187710699	0,013054662500216187	-0,00048708701006347366	0,03143853578919625
1	0	0	0	0	0	2	20405,40	-0,100000001	1,86036873	-5,5545135162770752E-005	-0,099981244503479629	0,000186001984	0,012721392034575629	-0,0004746522409035177	0,031771806254836813
1	0	0	0	0	0	2	20417,40	-0,100000001	1,84276319	-5,5544959737608832E-005	-0,099980928738184346	0,000184241173	0,012388121654931328	-0,00046221747495219782	0,032105076634481107
1	0	0	0	0	0	2	20429,40	-0,100000001	1,82452762	-5,5545072773264518E-005	-0,09998113220236704	0,000182418342	0,012054851315691939	-0,00044978271050843949	0,032438346973720506
1	0	0	0	0	0	2	20441,40	-0,100000001	1,80552816	-5,554510563446416E-005	-0,099981191352527117	0,000180518851	0,011721581071049677	-0,00043734794959422714	0,032771617218362771
1	0	0	0	0	0	2	20453,40	-0,100000001	1,78645802	-5,5545079957693818E-005	-0,09998114513433993	0,000178612114	0,011388310307825066	-0,00042491316933101011	0,033104887981587386
1	0	0	0	0	0	2	20465,40	-0,100000001	1,7663511	-5,5545221787773901E-005	-0,099981400428487194	0,000176602261	0,011055039330060987	-0,00041247838106303706	0,033438158959351462
1	0	0	0	0	0	2	20477,40	-0,100000001	1,74563313	-5,554517963487241E-005	-0,099981324553263565	0,000174530709	0,0107217682734946	-0,00040004358985484397	0,03377143001591785
1	0	0	0	0	0	2	20489,40	-0,100000001	1,72424686	-5,5545045654806822E-005	-0,099981083389142605	0,000172392072	0,010388497387294016	-0,0003876088050032281	0,034104700902118432
1	0	0	0	0	0	2	20501,40	-0,100000001	1,70205855	-5,5545130130317478E-005	-0,099981235445063629	0,000170173924	0,010055226493123381	-0,00037517401985423885	0,034437971796289069
1	0	0	0	0	0	2	20513,40	-0,100000001	1,67922103	-5,5545111498485011E-005	-0,099981201907764774	0,000167890539	0,0097219556117346291	-0,00036273923518215885	0,034771242677677811
1	0	0	0	0	0	2	20525,40	-0,100000001	1,65592527	-5,5545095088995168E-005	-0,099981172370682701	0,000165561345	0,0093886847857252173	-0,00035030445257635648	0,035104513503687219
1	0	0	0	0	0	2	20537,40	-0,100000001	1,63234305	-5,554501853014032E-005	-0,099981034564742285	0,000163203353	0,0090554143399239014	-0,00033786968415662938	0,035437783949488538
1	0	0	0	0	0	2	20549,40	-0,100000001	1,60837901	-5,5545154015637107E-005	-0,099981278438639475	0,000160807787	0,0087221436848875149	-0,00032543490793006048	0,035771054604524928
1	0	0	0	0	0	2	20561,40	-0,100000001	1,58422387	-5,5545154259850586E-005	-0,099981278878223757	0,000158392722	0,0083888729589836902	-0,00031300012905933216	0,036104325330428762
1	0	0	0	0	0	2	20573,40	-0,100000001	1,55964875	-5,5545046358886688E-005	-0,099981084656486374	0,00015593537	0,0080556021066132966	-0,00030056534546996614	0,036437596182799155
1	0	0	0	0	0	2	20585,40	-0,100000001	1,5350163	-5,5545086916536096E-005	-0,099981157660256179	0,000153472705	0,007722331447350775	-0,00028813056908571446	0,03677086684206167
1	0	0	0	0	0	2	20597,40	-0,100000001	1,51015472	-5,5545041987051571E-005	-0,099981076787183053	0,000150986889	0,0073890610593237427	-0,00027569580282162352	0,037104137230088698
1	0	0	0	0	0	2	20609,40	-0,100000001	1,48529315	-5,5545099520021011E-005	-0,099981180346529318	0,000148501364	0,0070557907030183846	-0,00026326103774111094	0,037437407586394054
1	0	0	0	0	0	2	20621,40	-0,100000001	1,46004975	-5,554519997454352E-005	-0,099981361164672013	0,000145977756	0,0067225197738399526	-0,00025082625128593373	0,03777067851557248
1	0	0	0	0	0	2	20633,40	-0,100000001	1,43497813	-5,554512924825152E-005	-0,09998123385734487	0,000143470883	0,0063892490706810944	-0,00023839147326385072	0,038103949218731334
1	0	0	0	0	0	2	20645,40	-0,100000001	1,41013563	-5,5545154669218592E-005	-0,099981279615086157	0,000140987162	0,0060559781690267635	-0,00022595668783563475	0,03843722012038567
1	0	0	0	0	0	2	20657,40	-0,100000001	1,38557959	-5,5545168682932851E-005	-0,099981304839772134	0,00013853205	0,0057227073935952038	-0,00021352190711696003	0,038770490895817222
1	0	0	0	0	0	2	20669,40	-0,100000001	1,36178732	-5,5545248553156851E-005	-0,099981448606177075	0,000136153467	0,005389436397488208	-0,00020108711816458813	0,039103761891924211
1	0	0	0	0	0	2	20681,40	-0,100000001	1,33900714	-5,5545003058595789E-005	-0,099981006715961805	0,000133875277	0,0050561659061096192	-0,00018865234804431171	0,039437032383302797
1	0	0	0	0	0	2	20693,40	-0,100000001	1,31825089	-5,5545043783469331E-005	-0,099981080020735078	0,000131800145	0,004722895588088656	-0,00017621758439224134	0,039770302701323757
1	0	0	0	0	0	2	20705,40	-0,100000001	1,29965246	-5,5544969473034144E-005	-0,099980946261950106	0,000129940483	0,0043896254426189997	-0,00016378282717829229	0,040103572846793414
1	0	0	0	0	0	2	20717,40	-0,100000001	1,28382277	-5,5544979062759213E-005	-0,099980963523455437	0,000128357831	0,0040563557457417651	-0,0001513480867019296	0,04043684254367065
1	0	0	0	0	0	2	20729,40	-0,100000001	1,27059007	-5,5545052500234707E-005	-0,099981095710912947	0,000127034989	0,0037230856183819872	-0,0001389133301636844	0,040770112671030426
1	0	0	0	0	0	2	20741,40	-0,100000001	1,25972509	-5,5545091132322944E-005	-0,099981165248672602	0,000125948776	0,0033898152871801197	-0,00012647856601981682	0,041103383002232301
1	0	0	0	0	0	2	20753,40	-0,100000001	1,2507695	-5,5544872922615872E-005	-0,099980772471195136	0,000125052902	0,003056545265561465	-0,00011404381342691512	0,04143665302385095
1	0	0	0	0	0	2	20765,40	-0,100000001	1,24311244	-5,5544876273721453E-005	-0,099980778503185254	0,000124287355	0,0027232757290604614	-0,00010160907893440523	0,041769922560351962
1	0	0	0	0	0	2	20777,40	-0,100000001	1,23648655	-5,554514354426E-005	-0,099981259590160448	0,00012362549	0,0023900057195047117	-8,9174326791586739E-005	0,042103192569907712
1	0	0	0	0	0	2	20789,40	-0,100000001	1,23054802	-5,5545059132079283E-005	-0,099981107648233318	0,000123031554	0,0020567355417860458	-7,6739568374383757E-005	0,042436462747626381
1	0	0	0	0	0	2	20801,40	-0,100000001	1,22525871	-5,5545047852314182E-005	-0,09998108734465591	0,000122502694	0,001723464883451536	-6,4304792024757427E-005	0,042769733405960896
1	0	0	0	0	0	2	20813,40	-0,100000001	1,2202177	-5,5545014758904774E-005	-0,099981027776518246	0,000121998622	0,0013901943645384989	-5,1870020877133702E-005	0,043103003924873926
1	0	0	0	0	0	2	20825,40	-0,100000001	1,21567309	-5,5545136825078067E-005	-0,099981247495632819	0,000121544515	0,0010569235164451514	-3,9435237447350022E-005	0,043436274772967264
1	0	0	0	0	0	2	20837,40	-0,100000001	1,21133852	-5,554522802225417E-005	-0,099981411650551795	0,000121111334	0,00072365267069956467	-2,7000454105164442E-005	0,043769545618712845
1	0	0	0	0	0	2	20849,40	-0,100000001	1,20730948	-5,5545091536309984E-005	-0,099981165975849293	0,00012070821	0,00039038158815134701	-1,456566192755432E-005	0,044102816701261069
1	0	0	0	0	0	2	20861,40	-0,100000001	1,20343328	-5,5545073115577299E-005	-0,099981132818530048	0,000120320619	5,7111044905127501E-005	-2,1308898720268458E-006	0,04443608724450729
1	0	0	0	0	0	2	20871,70	-0,100000001	1,20005345	-8,2373372241854669E-006	-0,099981167794127552	0,000119982746	-0,00022885182818037795	8,5387694039653747E-006	0,044722050117592787