File: Experimentelles/Rohdaten/Batterietests/AlteZelle/Batterietest Li vs LATP/ECLab-Export/LATP vs Li Batterietest Probe1_02_GCPL_C01_loop10.mpt
EC-Lab ASCII FILE
Nb header lines : 3
mode	ox/red	error	control changes	Ns changes	counter inc.	Ns	time/s	control/V/mA	Ewe/V	dq/mA.h	<I>/mA	P/W	(Q-Qo)/mA.h	x	Capacity/mA.h
1	1	0	1	1	0	1	33563,52	0,100000001	1,21208322	0	0	0	0	0	0
1	1	0	1	0	0	1	33575,52	0,100000001	1,53339326	5,5563062932756211E-005	0,10001351309267152	0,000153360044	0,00033200608830956781	-1,2387593541763254E-005	0,00033200608830956781
1	1	0	1	0	0	1	33587,52	0,100000001	1,70035911	5,5563086580899027E-005	0,10001355565932848	0,000170058964	0,00066538495831911603	-2,4826407414477402E-005	0,00066538495831911603
1	1	0	1	0	0	1	33599,52	0,100000001	1,85856044	5,556319715786311E-005	0,10001375469786346	0,00018588161	0,00099876369199669888	-3,7265216200462618E-005	0,00099876369199669888
1	1	0	1	0	0	1	33611,52	0,100000001	2,0231967	5,556310281861159E-005	0,10001358488721104	0,000202347161	0,0013321424452506819	-4,9704025716869651E-005	0,0013321424452506819
1	1	0	1	0	0	1	33623,52	0,100000001	2,19218659	5,5563039733303917E-005	0,10001347133365744	0,000219248192	0,001665521063159487	-6,2142830183366131E-005	0,001665521063159487
1	1	0	1	0	0	1	33635,52	0,100000001	2,34971976	5,556296076046096E-005	0,10001332918254038	0,000235003303	0,0019988990871700957	-7,4581612490722381E-005	0,0019988990871700957
1	1	0	1	0	0	1	33647,52	0,100000001	2,45235491	5,5563173674046995E-005	0,10001371242699454	0,000245269126	0,0023322777474242768	-8,702041853718176E-005	0,0023322777474242768
1	1	0	1	0	0	1	33659,52	0,100000001	2,49344707	5,5563030549221568E-005	0,10001345480230925	0,000249378267	0,0026656563706014704	-9,9459223200248896E-005	0,0026656563706014704
1	1	0	1	0	0	1	33671,52	0,100000001	2,51315308	5,5563068887425798E-005	0,10001352381107672	0,000251349295	0,0029990349438457011	-0,00011189802600025003	0,0029990349438457011
1	1	0	1	0	0	1	33683,52	0,100000001	2,5252974	5,556311277258727E-005	0,10001360280436723	0,000252564088	0,0033324137558740026	-0,00012433683770960594	0,0033324137558740026
1	1	0	1	0	0	1	33695,52	0,100000001	2,53423381	5,5563094043897261E-005	0,10001356909272528	0,00025345778	0,0036657921280154733	-0,00013677563300619269	0,0036657921280154733
1	1	0	1	0	0	1	33707,52	0,100000001	2,54137516	5,5563179863409862E-005	0,10001372356784766	0,000254172395	0,0039991707806924122	-0,00014921443876993501	0,0039991707806924122
1	1	0	1	0	0	1	33719,52	0,100000001	2,54760027	5,5563147950089645E-005	0,10001366612387139	0,000254794839	0,0043325496112147117	-0,00016165325116932678	0,0043325496112147117
1	1	0	1	0	0	1	33731,52	0,100000001	2,55277491	5,5563169661495418E-005	0,10001370520440171	0,00025531248	0,0046659284975538624	-0,00017409206565132038	0,0046659284975538624
1	1	0	1	0	0	1	33743,52	0,100000001	2,55779696	5,5563178098864032E-005	0,10001372039166518	0,000255814783	0,0049993073555613536	-0,00018653087907622163	0,0049993073555613536
1	1	0	1	0	0	1	33755,52	0,100000001	2,56207418	5,5563156323714387E-005	0,10001368119639589	0,000256242463	0,0053326863573737421	-0,00019896969786667696	0,0053326863573737421
1	1	0	1	0	0	1	33767,52	0,100000001	2,56631327	5,5563175407962669E-005	0,10001371554804274	0,000256666535	0,0056660652181445696	-0,00021140851139468205	0,0056660652181445696
1	1	0	1	0	0	1	33779,52	0,100000001	2,57030416	5,5563258055183622E-005	0,10001386431304016	0,000257066044	0,0059994444039316608	-0,0002238473370494809	0,0059994444039316608
1	1	0	1	0	0	1	33791,52	0,100000001	2,57383657	5,5563082170983155E-005	0,10001354772147994	0,00025741852	0,0063328232230847885	-0,0002362861490246736	0,0063328232230847885
1	1	0	1	0	0	1	33803,52	0,100000001	2,57756019	5,5563216423822778E-005	0,1000137893765908	0,000257791573	0,0066662019119864512	-0,00024872495614000906	0,0066662019119864512
1	1	0	1	0	0	1	33815,52	0,100000001	2,58097816	5,5563162653810445E-005	0,10001369259056878	0,000258133165	0,006999580977291031	-0,00026116377729944342	0,006999580977291031
1	1	0	1	0	0	1	33827,52	0,100000001	2,58445334	5,556316249569257E-005	0,10001369230595661	0,000258480723	0,0073329602395794432	-0,00027360260580860934	0,0073329602395794432
1	1	0	1	0	0	1	33839,52	0,100000001	2,58779502	5,5563214398506618E-005	0,10001378573102171	0,000258815184	0,0076663393699255232	-0,00028604142939482954	0,0076663393699255232
1	1	0	1	0	0	1	33851,52	0,100000001	2,59123206	5,5563156871745984E-005	0,10001368218285277	0,000259158667	0,0079997186200057446	-0,00029848025744849152	0,0079997186200057446
1	1	0	1	0	0	1	33863,52	0,100000001	2,59453559	5,5563169005016486E-005	0,10001370402273963	0,000259489112	0,0083330974033145408	-0,00031091906808628403	0,0083330974033145408
1	1	0	1	0	0	1	33875,52	0,100000001	2,59780073	5,5563175445629491E-005	0,10001371561584302	0,000259815715	0,0086664766278790067	-0,00032335789518791891	0,0086664766278790067
1	1	0	1	0	0	1	33887,52	0,100000001	2,6010468	5,5563173068066438E-005	0,10001371133622954	0,000260140339	0,0089998559378097421	-0,00033579672547468403	0,0089998559378097421
1	1	0	1	0	0	1	33899,52	0,100000001	2,60415936	5,5563231757117645E-005	0,1000138169765215	0,000260451925	0,0093332349293105267	-0,00034823554388039955	0,0093332349293105267
1	1	0	1	0	0	1	33911,52	0,100000001	2,60744357	5,5563162970874042E-005	0,10001369316128325	0,000260780071	0,0096666138749869299	-0,00036067436057634573	0,0096666138749869299
1	1	0	1	0	0	1	33923,52	0,100000001	2,61084247	5,5563175352911155E-005	0,10001371544895002	0,000261120062	0,0099999929136830029	-0,00037311318074298099	0,0099999929136830029
1	1	0	1	0	0	1	33935,52	0,100000001	2,6138978	5,556316813495424E-005	0,1000137024566276	0,000261425594	0,010333372360098442	-0,00038555201612217382	0,010333372360098442
1	1	0	1	0	0	1	33947,52	0,100000001	2,61731577	5,5563203445325293E-005	0,10001376601529539	0,000261767593	0,010666751424491152	-0,00039799083724758522	0,010666751424491152
1	1	0	1	0	0	1	33959,52	0,100000001	2,62061906	5,5563160755982003E-005	0,1000136891744776	0,000262097776	0,011000130314293166	-0,00041042965185878285	0,011000130314293166
1	1	0	1	0	0	1	33971,52	0,100000001	2,62388444	5,556310826457209E-005	0,10001359468993992	0,000262424117	0,011333508766890558	-0,00042286845015728826	0,011333508766890558
1	1	0	1	0	0	1	33983,52	0,100000001	2,62730241	5,5563243365950054E-005	0,10001383787241981	0,000262766611	0,01166688775398888	-0,00043530726839874189	0,01166688775398888
1	1	0	1	0	0	1	33995,52	0,100000001	2,63068223	5,5563147702978714E-005	0,10001366567907171	0,000263104186	0,012000266728628173	-0,00044774608617533248	0,012000266728628173
1	1	0	1	0	0	1	34007,52	0,100000001	2,63394737	5,5563184590389331E-005	0,1000137320764107	0,000263430906	0,012333645772099242	-0,00046018490652012915	0,012333645772099242
1	1	0	1	0	0	1	34019,52	0,100000001	2,63746071	5,5563056163489818E-005	0,100013500907992	0,000263781665	0,012667024620695408	-0,00047262371959388134	0,012667024620695408
1	1	0	1	0	0	1	34031,52	0,100000001	2,64093614	5,5563039243635206E-005	0,10001347045225378	0,000264129194	0,013000403232620987	-0,00048506252383713555	0,013000403232620987
1	1	0	1	0	0	1	34043,52	0,100000001	2,64458323	5,5563107845269971E-005	0,10001359393519611	0,000264494272	0,013333781455121272	-0,00049750131355040851	0,013333781455121272
1	1	0	1	0	0	1	34055,52	0,100000001	2,64805841	5,5563006034741798E-005	0,10001341067624574	0,000264841365	0,013667159556451523	-0,00050994009874266464	0,013667159556451523
1	1	0	1	0	0	1	34067,52	0,100000001	2,65161014	5,5563078403472896E-005	0,10001354093996149	0,000265196926	0,014000537706335555	-0,00052237888574652755	0,014000537706335555
1	1	0	1	0	0	1	34079,52	0,100000001	2,65535283	5,5563128567404218E-005	0,10001363123503768	0,000265571492	0,014333916138152866	-0,00053481768326970016	0,014333916138152866
1	1	0	1	0	0	1	34091,52	0,100000001	2,65892339	5,5563130416803891E-005	0,10001363456395709	0,000265928596	0,014667294896203782	-0,0005472564929650871	0,014667294896203782
1	1	0	1	0	0	1	34103,52	0,100000001	2,66262794	5,5563109466599091E-005	0,10001359685358851	0,000266299001	0,015000673589707418	-0,00055969530025212845	0,015000673589707418
1	1	0	1	0	0	1	34115,52	0,100000001	2,66656137	5,5563092112541197E-005	0,10001356561628437	0,00026669231	0,015334052225854006	-0,00057213410539910112	0,015334052225854006
1	1	0	1	0	0	1	34127,52	0,100000001	2,67032313	5,5563125506043437E-005	0,10001362572458829	0,00026706871	0,015667431076955635	-0,00058457291856633536	0,015667431076955635
1	1	0	1	0	0	1	34139,52	0,100000001	2,67421842	5,5563213057816026E-005	0,10001378331777866	0,000267458701	0,016000810139022112	-0,00059701173960495168	0,016000810139022112
1	1	0	1	0	0	1	34151,52	0,100000001	2,67811394	5,5563226378626298E-005	0,10001380729523709	0,000267848372	0,016334189297001565	-0,00060945056422221018	0,016334189297001565
1	1	0	1	0	0	1	34163,52	0,100000001	2,68221927	5,5563130956143142E-005	0,10001363553476774	0,000268258504	0,016667568239569834	-0,00062188938080218778	0,016667568239569834
1	1	0	1	0	0	1	34175,52	0,100000001	2,68619108	5,5563242235945331E-005	0,1000138358384113	0,000268656266	0,017000947197013184	-0,00063432819793717453	0,017000947197013184
1	1	0	1	0	0	1	34187,52	0,100000001	2,69035363	5,5563163520975245E-005	0,10001369415146542	0,000269072218	0,017334326277237962	-0,00064676701965330163	0,017334326277237962
1	1	0	1	0	0	1	34199,52	0,100000001	2,69451642	5,556311291911536E-005	0,10001360306811779	0,000269488286	0,017667704773927894	-0,00065920581959695898	0,017667704773927894
1	1	0	1	0	0	1	34211,52	0,100000001	2,69871736	5,5563211173646976E-005	0,1000137799262744	0,000269908924	0,018001083763937734	-0,00067164463794704538	0,018001083763937734
1	1	0	1	0	0	1	34223,52	0,100000001	2,70308995	5,5563176282991962E-005	0,10001371712309546	0,000270346063	0,018334463017414179	-0,00068408346612742502	0,018334463017414179
1	1	0	1	0	0	1	34235,52	0,100000001	2,70746279	5,5563167779395974E-005	0,10001370181662272	0,000270783377	0,018667842087802128	-0,00069652228747652672	0,018667842087802128
1	1	0	1	0	0	1	34247,52	0,100000001	2,71198821	5,5563118867162202E-005	0,10001361377460208	0,000271235738	0,019001220898002138	-0,00070896109911766656	0,019001220898002138
1	1	0	1	0	0	1	34259,52	0,100000001	2,71645641	5,5563065047065414E-005	0,10001351689842805	0,000271682366	0,019334599511348291	-0,00072139990341392435	0,019334599511348291
1	1	0	1	0	0	1	34271,52	0,100000001	2,72109652	5,5562983146558202E-005	0,10001336947751536	0,000272146019	0,019667977998301552	-0,00073383870299429338	0,019667977998301552
1	1	0	1	0	0	1	34283,52	0,100000001	2,72588944	5,5562980278912512E-005	0,10001336431575312	0,000272625388	0,020001356075925712	-0,00074627748730204339	0,020001356075925712
1	1	0	1	0	0	1	34295,52	0,100000001	2,73049116	5,5562999625586803E-005	0,10001339913976677	0,000273085694	0,020334734224272435	-0,0007587162742485472	0,020334734224272435
1	1	0	1	0	0	1	34307,52	0,100000001	2,73537946	5,5563021368450592E-005	0,10001343827692152	0,000273574697	0,020668112506215523	-0,0007711550661797111	0,020668112506215523
1	1	0	1	0	0	1	34319,52	0,100000001	2,74028683	5,556291503624784E-005	0,10001324687895691	0,00027406498	0,021001490314527686	-0,00078359384043906829	0,021001490314527686
1	1	0	1	0	0	1	34331,52	0,100000001	2,7452898	5,5562963131401274E-005	0,10001333345023294	0,000274565595	0,021334868196164323	-0,00079603261743426035	0,021334868196164323
1	1	0	1	0	0	1	34343,52	0,100000001	2,75040722	5,556295794952247E-005	0,10001332412285112	0,000275077356	0,021668246199425478	-0,00080847139896742656	0,021668246199425478
1	1	0	1	0	0	1	34355,52	0,100000001	2,75567746	5,5563159534914624E-005	0,10001368697655632	0,000275605475	0,022001624942327293	-0,00082091020809758029	0,022001624942327293
1	1	0	1	0	0	1	34367,52	0,100000001	2,76111937	5,5563068103873069E-005	0,10001352240068182	0,00027614928	0,022335003620828778	-0,00083334901482487104	0,022335003620828778
1	1	0	1	0	0	1	34379,52	0,100000001	2,76644683	5,5563126840525203E-005	0,10001362812665546	0,000276682375	0,022668382266712858	-0,00084578782033516262	0,022668382266712858
1	1	0	1	0	0	1	34391,52	0,100000001	2,77207994	5,5563096158206464E-005	0,10001357289848182	0,000277245621	0,023001760956287558	-0,00085822662747560998	0,023001760956287558
1	1	0	1	0	0	1	34403,52	0,100000001	2,77761745	5,5562961592856384E-005	0,10001333068085213	0,000277798768	0,023335139288405334	-0,00087066542127885901	0,023335139288405334
1	1	0	1	0	0	1	34415,52	0,100000001	2,78374696	5,556297531392839E-005	0,10001335537878171	0,00027841187	0,023668517327371741	-0,00088310420414423616	0,023668517327371741
1	1	0	1	0	0	1	34427,52	0,100000001	2,78970456	5,5562995891190234E-005	0,10001339241785296	0,000279007829	0,02400189528184153	-0,00089554298385693082	0,02400189528184153
1	1	0	1	0	0	1	34439,52	0,100000001	2,79587221	5,5563174157092966E-005	0,10001371329647728	0,000279625558	0,02433527345953609	-0,00090798177189844211	0,02433527345953609
1	1	0	1	0	0	1	34451,52	0,100000001	2,80230713	5,5562971487641338E-005	0,10001334849146504	0,000280268112	0,024668651760028224	-0,00092042056452169574	0,024668651760028224
1	1	0	1	0	0	1	34463,52	0,100000001	2,8088758	5,5562976498984627E-005	0,10001335751188291	0,000280925102	0,02500202967418871	-0,00093285934273039616	0,02500202967418871
1	1	0	1	0	0	1	34475,52	0,100000001	2,81574988	5,5562986247241498E-005	0,10001337505874525	0,000281612651	0,02533540775926304	-0,00094529812731612198	0,02533540775926304
1	1	0	1	0	0	1	34487,52	0,100000001	2,82283425	5,5562951466275584E-005	0,10001331245300674	0,000282321009	0,025668785599805587	-0,00095773690277803814	0,025668785599805587
1	1	0	1	0	0	1	34499,52	0,100000001	2,83005214	5,5563013501051405E-005	0,10001342411560301	0,000283043191	0,026002163470794515	-0,00097017567937594995	0,026002163470794515
1	1	0	1	0	0	1	34511,52	0,100000001	2,83759451	5,5563003561562963E-005	0,10001340622452384	0,000283797504	0,026335541813451965	-0,00098261447357244813	0,026335541813451965
1	1	0	1	0	0	1	34523,52	0,100000001	2,84534717	5,5563029835621517E-005	0,10001345351782915	0,000284573005	0,02666892015476335	-0,00099505326771872294	0,02666892015476335
1	1	0	1	0	0	1	34535,52	0,100000001	2,85325241	5,5563123303982944E-005	0,10001362176087941	0,000285364105	0,027002298739556397	-0,0010074920709496259	0,027002298739556397
1	1	0	1	0	0	1	34547,52	0,100000001	2,86157775	5,5562970382057958E-005	0,10001334650141494	0,00028619598	0,027335676865919357	-0,0010199308570758859	0,027335676865919357
1	1	0	1	0	0	1	34559,52	0,100000001	2,87015128	5,5562985536952813E-005	0,10001337378022563	0,000287053525	0,02766905474900513	-0,0010323696341251474	0,02766905474900513
1	1	0	1	0	0	1	34571,52	0,100000001	2,87912607	5,5563071625514163E-005	0,10001352873963578	0,000287951552	0,028002433193700768	-0,0010448084321288274	0,028002433193700768
1	1	0	1	0	0	1	34583,52	0,100000001	2,88836789	5,5562958000020845E-005	0,10001332421374819	0,000288875279	0,028335811223961587	-0,0010572472146693877	0,028335811223961587
1	1	0	1	0	0	1	34595,52	0,100000001	2,89801073	5,5562915312747162E-005	0,1000132473766557	0,00028983946	0,028669189187595587	-0,0010696859947240114	0,028669189187595587
1	1	0	1	0	0	1	34607,52	0,100000001	2,90788293	5,5562980175432237E-005	0,10001336412948861	0,000290827156	0,029002566890818138	-0,0010821247650623338	0,029002566890818138
1	1	0	1	0	0	1	34619,52	0,100000001	2,91825151	5,5562959394107264E-005	0,10001332672310374	0,000291864038	0,029335944968477062	-0,0010945635493713808	0,029335944968477062
1	1	0	1	0	0	1	34631,52	0,100000001	2,92902088	5,5562970554249152E-005	0,1000133468113591	0,000292941171	0,029669322687462144	-0,0011070023202978246	0,029669322687462144
1	1	0	1	0	0	1	34643,52	0,100000001	2,94034433	5,5562903988278573E-005	0,10001322699261227	0,000294073339	0,030002700679949344	-0,001119441101429	0,030002700679949344
1	1	0	1	0	0	1	34655,52	0,100000001	2,95199203	5,5563012914939059E-005	0,1000134230606008	0,000295238831	0,030336078791198797	-0,001131879886991355	0,030336078791198797
1	1	0	1	0	0	1	34667,52	0,100000001	2,96442294	5,5562963186452781E-005	0,10001333354932566	0,000296481827	0,030669456448925626	-0,0011443186556321707	0,030669456448925626
1	1	0	1	0	0	1	34679,52	0,100000001	2,97736931	5,5563039015564653E-005	0,10001347004172677	0,000297777035	0,03100283436292137	-0,0011567574338347246	0,03100283436292137
1	1	0	1	0	0	1	34691,52	0,100000001	2,99067831	5,5563011236074899E-005	0,1000134200386453	0,000299107953	0,031336212437357504	-0,0011691962180235251	0,031336212437357504
1	1	0	1	0	0	1	34703,52	0,100000001	3,00478959	5,5563128473858042E-005	0,10001363106665458	0,000300519925	0,031669590987341427	-0,0011816350199556528	0,031669590987341427
1	1	0	1	0	0	1	34715,52	0,100000001	3,01960731	5,5563204790569011E-005	0,10001376843673405	0,0003020023	0,032002969769672954	-0,0011940738305569822	0,032002969769672954
1	1	0	1	0	0	1	34727,52	0,100000001	3,03522682	5,5563149385568166E-005	0,10001366870773274	0,000303564157	0,032336348532281978	-0,0012065126404224381	0,032336348532281978
1	1	0	1	0	0	1	34739,52	0,100000001	3,05168653	5,5563042954438259E-005	0,10001347713169925	0,000305209775	0,032669727033027923	-0,001218951440517431	0,032669727033027923
1	1	0	1	0	0	1	34751,52	0,100000001	3,06908202	5,5563055918862426E-005	0,1000135004676627	0,000306949631	0,033003105359558598	-0,0012313902341122176	0,033003105359558598
1	1	0	1	0	0	1	34763,52	0,100000001	3,08718395	5,5563207439664339E-005	0,10001377320510563	0,000308760908	0,033336483903947968	-0,001243829035835605	0,033336483903947968
1	1	0	1	0	0	1	34775,52	0,100000001	3,10666084	5,5563137277960781E-005	0,10001364691403946	0,000310708478	0,033669862794201574	-0,0012562678504636523	0,033669862794201574
1	1	0	1	0	0	1	34787,52	0,100000001	3,12724519	5,556307750029696E-005	0,1000135393142448	0,000312766846	0,034003241398519706	-0,0012687066544230626	0,034003241398519706
1	1	0	1	0	0	1	34799,52	0,100000001	3,14901328	5,556305096050103E-005	0,10001349154261221	0,000314943813	0,034336619762532173	-0,0012811454494163453	0,034336619762532173
1	1	0	1	0	0	1	34811,52	0,100000001	3,17221379	5,5563080754545005E-005	0,10001354517189126	0,000317264348	0,03466999840745927	-0,0012935842548909304	0,03466999840745927
1	1	0	1	0	0	1	34823,52	0,100000001	3,19692254	5,556319200454487E-005	0,10001374542189066	0,000319736195	0,03500337727920935	-0,0013060230688285866	0,03500337727920935
1	1	0	1	0	0	1	34835,52	0,100000001	3,22317791	5,5563090390629235E-005	0,10001356251684285	0,000322361506	0,035336756125724326	-0,0013184618818246864	0,035336756125724326
1	1	0	1	0	0	1	34847,52	0,100000001	3,25126672	5,5563046544376346E-005	0,10001348359358779	0,00032517052	0,035670134622961453	-0,0013309006817887603	0,035670134622961453
1	1	0	1	0	0	1	34859,52	0,100000001	3,28118825	5,5563118005378381E-005	0,1000136122233912	0,0003281635	0,03600351331926816	-0,0013433394891803878	0,03600351331926816
1	1	0	1	0	0	1	34871,52	0,100000001	3,31311512	5,556312169176009E-005	0,10001361885887829	0,000331356627	0,036336892120164467	-0,0013557783004743941	0,036336892120164467
1	1	0	1	0	0	1	34883,52	0,100000001	3,34725666	5,5563109232733645E-005	0,10001359643263072	0,000334771175	0,036670270776535238	-0,0013682171063759581	0,036670270776535238
1	1	0	1	0	0	1	34895,52	0,100000001	3,38372803	5,5563143456147776E-005	0,10001365803477603	0,00033841902	0,037003649692418003	-0,0013806559219602637	0,037003649692418003
1	1	0	1	0	0	1	34907,52	0,100000001	3,4225862	5,5563061621040109E-005	0,10001351073158251	0,000342304847	0,037337027874288205	-0,0013930947101575736	0,037337027874288205
1	1	0	1	0	0	1	34919,52	0,100000001	3,46381211	5,5563074967513485E-005	0,10001353475523454	0,000346428104	0,03767040623001687	-0,0014055335048417766	0,03767040623001687
1	1	0	1	0	0	1	34931,52	0,100000001	3,50801682	5,5562999387168224E-005	0,10001339871061334	0,000350848684	0,038003784519493318	-0,0014179722970540202	0,038003784519493318
1	1	0	1	0	0	1	34943,52	0,100000001	3,55493283	5,5562992150998778E-005	0,10001338568550835	0,000355540862	0,038337162564048064	-0,0014304110801279061	0,038337162564048064
1	1	0	1	0	0	1	34955,52	0,100000001	3,6051333	5,5563037112769152E-005	0,10001346661669488	0,000360561884	0,038670540826647782	-0,0014428498713373424	0,038670540826647782
1	1	0	1	0	0	1	34967,52	0,100000001	3,65852284	5,5562975111520954E-005	0,10001335501444834	0,000365901156	0,039003918717572397	-0,0014552886486790816	0,039003918717572397
1	1	0	1	0	0	1	34979,52	0,100000001	3,71536827	5,5562975129733485E-005	0,10001335504723088	0,000371586444	0,039337296563017018	-0,0014677274243239005	0,039337296563017018
1	1	0	1	0	0	1	34991,52	0,100000001	3,7753644	5,5562917323990003E-005	0,10001325099689282	0,000377586461	0,039670674366471814	-0,001480166198402023	0,039670674366471814
1	1	0	1	0	0	1	35003,52	0,100000001	3,83854961	5,5563024563921824E-005	0,10001344402876973	0,000383906561	0,040004051997690298	-0,001492604966053777	0,040004051997690298
1	1	0	1	0	0	1	35015,52	0,100000001	3,90507627	5,5563004624512461E-005	0,10001340813783293	0,000390559988	0,040337430152413478	-0,0015050437532381952	0,040337430152413478
1	1	0	1	0	0	1	35027,52	0,100000001	3,9745245	5,5563053724666438E-005	0,10001349651810994	0,000397506083	0,040670808441822464	-0,0015174825454479216	0,040670808441822464
1	1	0	1	0	0	1	35039,52	0,100000001	4,04683685	5,5563097019576365E-005	0,10001357444894765	0,000404738617	0,041004187120576435	-0,001529921352184633	0,041004187120576435
1	1	0	1	0	0	1	35051,52	0,100000001	4,12029505	5,5563000680257875E-005	0,1000134010381747	0,000412084715	0,041337565394376858	-0,0015423601438119827	0,041337565394376858
1	1	0	1	0	0	1	35063,52	0,100000001	4,1919775	5,5563043841885197E-005	0,10001347872910371	0,00041925424	0,041670943492938803	-0,0015547989289009501	0,041670943492938803
1	1	0	1	0	0	1	35075,52	0,100000001	4,25954866	5,5563158130066259E-005	0,10001368444782928	0,000426013168	0,042004322157925754	-0,0015672377351239955	0,042004322157925754
1	1	0	1	0	0	1	35087,52	0,100000001	4,32286739	5,5563176763968333E-005	0,10001371798885293	0,000432346045	0,042337701011530362	-0,0015796765483846189	0,042337701011530362
1	1	0	1	0	0	1	35099,52	0,100000001	4,38116407	5,5563227731734515E-005	0,10001380973083189	0,00043817691	0,042671080110418854	-0,0015921153707971142	0,042671080110418854
1	1	0	1	0	0	1	35111,52	0,100000001	4,43373203	5,556321331237753E-005	0,10001378377598936	0,000443434314	0,043004459186903027	-0,0016045541923736746	0,043004459186903027
1	1	0	1	0	0	1	35123,52	0,100000001	4,47919703	5,556308122807079E-005	0,10001354602423766	0,00044798039	0,043337838041011379	-0,0016169930056530934	0,043337838041011379
1	0	0	0	0	0	2	35131,75	-0,100000001	4,39235353	-5,5544254681716365E-005	-0,099979658240862822	0,00043914601	0,043455278553642054	-0,0016213748690797926	5,5549738761865434E-005
1	0	0	0	0	0	2	35143,75	-0,100000001	3,96098042	-5,5544836590687437E-005	-0,099980705677008819	0,000396021613	0,043122010493474842	-0,0016089401896712813	0,00038881779892908205
1	0	0	0	0	0	2	35155,75	-0,100000001	3,58903074	-5,5544894744952525E-005	-0,099980810354685773	0,000358834193	0,042788741365559955	-0,0015965054704236691	0,00072208692684397107
1	0	0	0	0	0	2	35167,75	-0,100000001	3,23745537	-5,5544884406030176E-005	-0,099980791744625587	0,000323683344	0,042455472267429178	-0,0015840707522873414	0,0010553560249747502
1	0	0	0	0	0	2	35179,75	-0,100000001	2,91349101	-5,5545036256727245E-005	-0,099981065075879795	0,000291293924	0,04212220268796937	-0,0015716360161919808	0,00138862560443456
1	0	0	0	0	0	2	35191,75	-0,100000001	2,65683651	-5,5544977019230522E-005	-0,099980958448385894	0,000265633047	0,041788932726086982	-0,0015592012658279197	0,0017218955663169427
1	0	0	0	0	0	2	35203,75	-0,100000001	2,56405425	-5,5544857376565536E-005	-0,099980743091589325	0,000256356056	0,041455663354312525	-0,0015467665374815789	0,0020551649380914038
1	0	0	0	0	0	2	35215,75	-0,100000001	2,52040339	-5,5544969949871302E-005	-0,099980945723539328	0,000251992315	0,041122393805445626	-0,0015343318025276806	0,0023884344869583018
1	0	0	0	0	0	2	35227,75	-0,100000001	2,49074888	-5,5545017762730522E-005	-0,09998103178668576	0,000249027653	0,040789123953061523	-0,0015218970562491475	0,0027217043393423994
1	0	0	0	0	0	2	35239,75	-0,100000001	2,46798778	-5,5544933501217094E-005	-0,099980880115961869	0,000246751588	0,040455854168142016	-0,0015094623124878093	0,0030549741242619034
1	0	0	0	0	0	2	35251,75	-0,100000001	2,44986677	-5,5545051538695891E-005	-0,099981092583423309	0,000244940369	0,04012258445096567	-0,0014970275712540595	0,0033882438414382438
1	0	0	0	0	0	2	35263,75	-0,100000001	2,43623304	-5,5544885325349037E-005	-0,099980793399399526	0,000243576505	0,039789314664984038	-0,0014845928274530922	0,0037215136274198694
1	0	0	0	0	0	2	35275,75	-0,100000001	2,42765927	-5,5544980212632154E-005	-0,099980964196508813	0,000242719718	0,039456044868049645	-0,0014721580832434618	0,0040547834243542618
1	0	0	0	0	0	2	35287,75	-0,100000001	2,42235088	-5,5544979145543443E-005	-0,099980962275749133	0,000242188966	0,039122774903352602	-0,0014597233327743824	0,0043880533890513082
1	0	0	0	0	0	2	35299,75	-0,100000001	2,41836023	-5,5544828429404237E-005	-0,099980690986699085	0,000241789327	0,038789505490408301	-0,0014472886028919392	0,004721322801995609
1	0	0	0	0	0	2	35311,75	-0,100000001	2,41499949	-5,55448476759096E-005	-0,099980725630408666	0,000241453396	0,03845623678848905	-0,0014348538995387965	0,0050545915039148602
1	0	0	0	0	0	2	35323,75	-0,100000001	2,41177249	-5,554475678296553E-005	-0,099980562023109632	0,000241130372	0,038122968186014771	-0,0014224191998960797	0,0053878601063891424
1	0	0	0	0	0	2	35335,75	-0,100000001	2,4089272	-5,554483525786135E-005	-0,099980703277921856	0,000240846231	0,037789699457823117	-0,0014099844955626782	0,0057211288345807968
1	0	0	0	0	0	2	35347,75	-0,100000001	2,40591025	-5,5544854657931456E-005	-0,099980738198047974	0,000240544687	0,037456430239448243	-0,0013975497729398822	0,0060543980529556672
1	0	0	0	0	0	2	35359,75	-0,100000001	2,40316057	-5,5544815775834854E-005	-0,099980668210274227	0,000240269597	0,037123161192799738	-0,0013851150567244272	0,0063876670996041766
1	0	0	0	0	0	2	35371,75	-0,100000001	2,40023899	-5,5544820344282522E-005	-0,099980676433480026	0,000239977511	0,036789892107159021	-0,0013726803390541213	0,0067209361852448845
1	0	0	0	0	0	2	35383,75	-0,100000001	2,39737487	-5,5544846547560563E-005	-0,099980723599380403	0,000239691275	0,036456622882582368	-0,0013602456161999283	0,007054205409821536
1	0	0	0	0	0	2	35395,75	-0,100000001	2,39462519	-5,554482073212663E-005	-0,099980677131599411	0,000239416244	0,036123353721290125	-0,0013478108957069614	0,0073874745711137843
1	0	0	0	0	0	2	35407,75	-0,100000001	2,39166546	-5,5544944171690278E-005	-0,099980899322813568	0,000239120869	0,035790084186409203	-0,0013353761612748989	0,0077207441059946995
1	0	0	0	0	0	2	35419,75	-0,100000001	2,38880134	-5,5544939091636077E-005	-0,099980890178716019	0,000238834487	0,035456814313797606	-0,0013229414142416512	0,0080540139786062938
1	0	0	0	0	0	2	35431,75	-0,100000001	2,38561225	-5,5544857762753965E-005	-0,099980743786728486	0,000238515291	0,035123545216245491	-0,0013105066961269146	0,0083872830761584102
1	0	0	0	0	0	2	35443,75	-0,100000001	2,38253808	-5,554482244120704E-005	-0,099980680207944141	0,00023820778	0,034790276582007322	-0,0012980719952990438	0,008720551710396585
1	0	0	0	0	0	2	35455,75	-0,100000001	2,37950206	-5,5544803022510477E-005	-0,099980645254290394	0,000237904154	0,0344570074931016	-0,0012856372775069158	0,0090538207993023053
1	0	0	0	0	0	2	35467,75	-0,100000001	2,37619853	-5,5544753248492877E-005	-0,099980555661058893	0,000237573651	0,034123738733510285	-0,0012732025720019512	0,0093870895588936013
1	0	0	0	0	0	2	35479,75	-0,100000001	2,37283778	-5,5544674296759898E-005	-0,099980413547939776	0,000237237298	0,03379047057088103	-0,0012607678887704435	0,0097203577215228582
1	0	0	0	0	0	2	35491,75	-0,100000001	2,36926723	-5,5544948876731923E-005	-0,099980907791888512	0,000236881489	0,033457201454996346	-0,0012483331699716938	0,010053626837407542
1	0	0	0	0	0	2	35503,75	-0,100000001	2,36560082	-5,554489695529143E-005	-0,099980814333295795	0,000236514694	0,033123932153400557	-0,0012358984442438134	0,01038689613900333
1	0	0	0	0	0	2	35515,75	-0,100000001	2,36187744	-5,5544920841438906E-005	-0,099980857328361165	0,000236142529	0,032790662432342048	-0,0012234637028652147	0,010720165860061838
1	0	0	0	0	0	2	35527,75	-0,100000001	2,35807753	-5,5544963786999379E-005	-0,099980934630369894	0,000235762796	0,032457392523352166	-0,0012110289544746442	0,011053435769051723
1	0	0	0	0	0	2	35539,75	-0,100000001	2,35418224	-5,554484272665447E-005	-0,099980716721749453	0,000235372834	0,032124122873746803	-0,0011985942157620582	0,011386705418657096
1	0	0	0	0	0	2	35551,75	-0,100000001	2,35000038	-5,5544885447455776E-005	-0,099980793619191654	0,000234954903	0,031790853691674054	-0,001186159494493743	0,01171997460072984
1	0	0	0	0	0	2	35563,75	-0,100000001	2,34591413	-5,5544889387985069E-005	-0,099980800712144371	0,000234546373	0,031457584183599917	-0,0011737247610618781	0,012053244108803981
1	0	0	0	0	0	2	35575,75	-0,100000001	2,34165597	-5,5544882951925197E-005	-0,099980789127236634	0,000234120613	0,03112431487793984	-0,0011612900351823534	0,012386513414464061
1	0	0	0	0	0	2	35587,75	-0,100000001	2,33728313	-5,5544838957488538E-005	-0,099980709937250778	0,000233683226	0,030791045798939258	-0,0011488553177597994	0,012719782493464645
1	0	0	0	0	0	2	35599,75	-0,100000001	2,33275771	-5,5544833501593933E-005	-0,099980700116640525	0,000233230749	0,030457776696775642	-0,0011364205994730013	0,013053051595628258
1	0	0	0	0	0	2	35611,75	-0,100000001	2,32811761	-5,5544852069682547E-005	-0,099980733539199949	0,000232766906	0,030124507307465408	-0,001123985870472377	0,013386320984938488
1	0	0	0	0	0	2	35623,75	-0,100000001	2,32347751	-5,5544886695841952E-005	-0,099980795866286758	0,000232303137	0,029791238029234221	-0,0011115511456162614	0,013719590263169667
1	0	0	0	0	0	2	35635,75	-0,100000001	2,31862736	-5,5544826104823085E-005	-0,099980686802453005	0,000231817961	0,029457968664386317	-0,0010991164175283592	0,014052859628017571
1	0	0	0	0	0	2	35647,75	-0,100000001	2,31383467	-5,554474243066377E-005	-0,099980536188966528	0,000231338432	0,029124700120819629	-0,0010866817200835638	0,014386128171584251
1	0	0	0	0	0	2	35659,75	-0,100000001	2,30888915	-5,5544721730467341E-005	-0,09998049892861303	0,000230843885	0,02879143186807105	-0,0010742470334895829	0,014719396424332835
1	0	0	0	0	0	2	35671,75	-0,100000001	2,30384803	-5,5544751933051475E-005	-0,099980553293264358	0,000230339996	0,028458163284470742	-0,0010618123345510792	0,015052665007933142
1	0	0	0	0	0	2	35683,75	-0,100000001	2,29882598	-5,554480669978592E-005	-0,099980651873386176	0,000229838115	0,028124894716178899	-0,0010493776361837547	0,015385933576224989
1	0	0	0	0	0	2	35695,75	-0,100000001	2,29357481	-5,5544755016764E-005	-0,099980558843946906	0,000229312893	0,027791626025819222	-0,0010369429332619154	0,015719202266584662
1	0	0	0	0	0	2	35707,75	-0,100000001	2,28841925	-5,554470949081911E-005	-0,099980476897246259	0,000228797246	0,027458357681405322	-0,0010245082432477782	0,016052470610998563
1	0	0	0	0	0	2	35719,75	-0,100000001	2,28293896	-5,5544688356005485E-005	-0,099980438854581798	0,000228249235	0,027125089246564963	-0,0010120735498597082	0,016385739045838918
1	0	0	0	0	0	2	35731,75	-0,100000001	2,27757335	-5,5544662810448141E-005	-0,099980392872578662	0,000227712677	0,02679182095472112	-0,00099963886180703027	0,016719007337682765
1	0	0	0	0	0	2	35743,75	-0,100000001	2,27207398	-5,5544665457887782E-005	-0,09998039763797001	0,000227162862	0,026458552785048166	-0,0009872041783127127	0,017052275507355718
1	0	0	0	0	0	2	35755,75	-0,100000001	2,26644111	-5,5544743508514426E-005	-0,099980538129097702	0,000226600008	0,026125284425257094	-0,00097476948772483251	0,017385543867146787
1	0	0	0	0	0	2	35767,75	-0,100000001	2,2607317	-5,5544751983963782E-005	-0,099980553384906509	0,000226029209	0,025792015650868944	-0,00096233478166777779	0,017718812641534941
1	0	0	0	0	0	2	35779,75	-0,100000001	2,25479317	-5,5544851112696864E-005	-0,099980731816625728	0,00022543587	0,025458746622535619	-0,0009499000661356873	0,018052081669868266
1	0	0	0	0	0	2	35791,75	-0,100000001	2,24893093	-5,5544928197231552E-005	-0,099980870568787917	0,000224850068	0,025125477436511994	-0,00093746534471995955	0,018385350855891891
1	0	0	0	0	0	2	35803,75	-0,100000001	2,24301171	-5,5544854204687808E-005	-0,099980737382209421	0,000224257965	0,024792208004757466	-0,00092503061413568154	0,018718620287646419
1	0	0	0	0	0	2	35815,75	-0,100000001	2,23684406	-5,5544932756572966E-005	-0,099980878775602445	0,000223641633	0,024458938550656573	-0,00091259588271763059	0,019051889741747315
1	0	0	0	0	0	2	35827,75	-0,100000001	2,23069549	-5,5544929774271117E-005	-0,099980873407459123	0,000223026887	0,024125669185795005	-0,00090016115462921869	0,019385159106608883
1	0	0	0	0	0	2	35839,75	-0,100000001	2,2242794	-5,5544853048192134E-005	-0,09998073530051721	0,00022238509	0,02379240014619888	-0,00088772643867689818	0,019718428146205005
1	0	0	0	0	0	2	35851,75	-0,100000001	2,21780634	-5,554477802498473E-005	-0,099980600258744141	0,000221737602	0,023459131246554464	-0,00087529172794636378	0,020051697045849421
1	0	0	0	0	0	2	35863,75	-0,100000001	2,21123767	-5,554467147340377E-005	-0,099980408465898765	0,000221080452	0,023125862822319603	-0,0008628570349539991	0,020384965470084285
1	0	0	0	0	0	2	35875,75	-0,100000001	2,20434451	-5,5544784889452986E-005	-0,09998061261478697	0,00022039171	0,022792594199008528	-0,00085042233453383322	0,02071823409339536
1	0	0	0	0	0	2	35887,75	-0,100000001	2,19747019	-5,5544706911676461E-005	-0,099980472254789478	0,000219704103	0,022459325859332784	-0,00083798764469648294	0,021051502433071104
1	0	0	0	0	0	2	35899,75	-0,100000001	2,19048142	-5,5544731880641645E-005	-0,099980517198926733	0,000219005466	0,022126057366639082	-0,00082555294914982694	0,021384770925764806
1	0	0	0	0	0	2	35911,75	-0,100000001	2,18337822	-5,5544705454674029E-005	-0,099980469632185126	0,000218295187	0,021792788906544566	-0,0008131182548194903	0,021718039385859322
1	0	0	0	0	0	2	35923,75	-0,100000001	2,17591214	-5,5544626401944294E-005	-0,099980327337271859	0,000217548411	0,021459521174572938	-0,0008006835876563977	0,02205130711783095
1	0	0	0	0	0	2	35935,75	-0,100000001	2,16842699	-5,554451447559728E-005	-0,099980125869847616	0,000216799599	0,021126253435654058	-0,0007882489202340937	0,022384574856749827
1	0	0	0	0	0	2	35947,75	-0,100000001	2,16061711	-5,5544672266476678E-005	-0,099980409893430003	0,000216019384	0,020792985774964211	-0,00077581425573062003	0,022717842517439677
1	0	0	0	0	0	2	35959,75	-0,100000001	2,15261626	-5,5544528323329158E-005	-0,099980150795764941	0,000215218897	0,020459718511800083	-0,00076337960605936563	0,023051109780603805
1	0	0	0	0	0	2	35971,75	-0,100000001	2,14457726	-5,5544600829482074E-005	-0,099980281306839949	0,000214415442	0,020126451459149632	-0,00075094496424265933	0,023384376833254256
1	0	0	0	0	0	2	35983,75	-0,100000001	2,13608003	-5,554446877953079E-005	-0,099980043616928077	0,000213565378	0,019793184363029594	-0,00073851032080404442	0,023717643929374294
1	0	0	0	0	0	2	35995,75	-0,100000001	2,1276021	-5,5544666550225683E-005	-0,099980399604178214	0,000212718514	0,019459916738567776	-0,00072607565765228736	0,024050911553836109
1	0	0	0	0	0	2	36007,75	-0,100000001	2,11870384	-5,554454787323872E-005	-0,099980185985602099	0,000211828403	0,019126649033203834	-0,00071364099148196326	0,024384179259200051
1	0	0	0	0	0	2	36019,75	-0,100000001	2,10967183	-5,5544534403830765E-005	-0,099980161740667814	0,000210925326	0,01879338179878447	-0,00070120634288321446	0,024717446493619418
1	0	0	0	0	0	2	36031,75	-0,100000001	2,10020089	-5,5544475992934573E-005	-0,099980056601054861	0,0002099782	0,018460114694164147	-0,00068877169912744243	0,025050713598239741
1	0	0	0	0	0	2	36043,75	-0,100000001	2,09061527	-5,5544631641772058E-005	-0,099980336768961818	0,000209020422	0,018126847445732717	-0,00067633705000588467	0,025383980846671171
1	0	0	0	0	0	2	36055,75	-0,100000001	2,080724	-5,5544666490621037E-005	-0,099980399496889856	0,000208031619	0,01779357992668792	-0,00066390239078737843	0,025717248365715965
1	0	0	0	0	0	2	36067,75	-0,100000001	2,07048917	-5,5544638336118726E-005	-0,099980348818785805	0,000207008226	0,017460312286834035	-0,00065146772706132262	0,026050516005569853
1	0	0	0	0	0	2	36079,75	-0,100000001	2,05977678	-5,5544461150550182E-005	-0,099980029884763008	0,000205936551	0,017127045011621494	-0,0006390330769405257	0,02638378328078239
1	0	0	0	0	0	2	36091,75	-0,100000001	2,04906464	-5,5544507715437146E-005	-0,099980113701559386	0,000204865719	0,016793778247628886	-0,00062659844589403162	0,026717050044775002
1	0	0	0	0	0	2	36103,75	-0,100000001	2,03781772	-5,5544588630398118E-005	-0,09998025934848887	0,00020374154	0,016460510911003283	-0,00061416379348183078	0,027050317381400602
1	0	0	0	0	0	2	36115,75	-0,100000001	2,02616978	-5,5544627174735066E-005	-0,099980328728295232	0,000202577125	0,016127243427821446	-0,00060172913560141965	0,027383584864582438
1	0	0	0	0	0	2	36127,75	-0,100000001	2,0139873	-5,5544567967868512E-005	-0,099980222155935642	0,000201358896	0,015793975774755197	-0,0005892944713823927	0,027716852517648691
1	0	0	0	0	0	2	36139,75	-0,100000001	2,00151825	-5,5544497559467955E-005	-0,099980095420814874	0,000200111986	0,015460708594216771	-0,00057685982479401421	0,028050119698187117
1	0	0	0	0	0	2	36151,75	-0,100000001	1,98874378	-5,5544409299476282E-005	-0,099979936552830157	0,000198834474	0,01512744158608064	-0,00056442518463819712	0,028383386706323248
1	0	0	0	0	0	2	36163,75	-0,100000001	1,97524369	-5,5544547751131981E-005	-0,099980185765809971	0,000197485235	0,014794174486340032	-0,00055199054106449389	0,02871665380606385
1	0	0	0	0	0	2	36175,75	-0,100000001	1,96139991	-5,5544500995427373E-005	-0,099980101605541811	0,000196100969	0,014460907482724336	-0,00053955590107734042	0,029049920809679539
1	0	0	0	0	0	2	36187,75	-0,100000001	1,94704044	-5,5544549154738586E-005	-0,099980188292301837	0,000194665467	0,014127640236927518	-0,00052712125205408352	0,029383188055476358
1	0	0	0	0	0	2	36199,75	-0,100000001	1,93197465	-5,5544540792289709E-005	-0,099980173239893888	0,000193159154	0,013794373002956011	-0,00051468660347204499	0,029716455289447866
1	0	0	0	0	0	2	36211,75	-0,100000001	1,91646957	-5,5544487185776237E-005	-0,099980076748169818	0,000191608779	0,013461106029464253	-0,000502251964608856	0,030049722262939622
1	0	0	0	0	0	2	36223,75	-0,100000001	1,90048707	-5,5544429092771475E-005	-0,099979972180761446	0,000190010644	0,013127839096542149	-0,00048981732725937542	0,030382989195861728
1	0	0	0	0	0	2	36235,75	-0,100000001	1,8837409	-5,5544538658112282E-005	-0,099980169398374541	0,000188336737	0,012794572305462541	-0,00047738269520222906	0,030716255986941331
1	0	0	0	0	0	2	36247,75	-0,100000001	1,86655545	-5,5544586632400755E-005	-0,099980255752093619	0,000186618694	0,012461304953619123	-0,00046494804222223104	0,031049523338784749
1	0	0	0	0	0	2	36259,75	-0,100000001	1,8486445	-5,5544499630315437E-005	-0,099980099148340326	0,000184827659	0,012128037945118742	-0,00045251340205282336	0,031382790347285126
1	0	0	0	0	0	2	36271,75	-0,100000001	1,83017969	-5,5544568714582259E-005	-0,09998022350002039	0,000182981777	0,011794770463242	-0,00044007874422110707	0,031716057829161862
1	0	0	0	0	0	2	36283,75	-0,100000001	1,81091285	-5,5544622469279501E-005	-0,099980320258475238	0,000181055642	0,01146150304316865	-0,00042764408869535853	0,032049325249235219
1	0	0	0	0	0	2	36295,75	-0,100000001	1,79132724	-5,5544677767902618E-005	-0,099980419795996659	0,000179097653	0,011128235038228862	-0,00041520941134745683	0,032382593254175008
1	0	0	0	0	0	2	36307,75	-0,100000001	1,77068567	-5,5544762954529792E-005	-0,099980573131925299	0,000177034162	0,01079496708105185	-0,00040277473578164838	0,032715861211352026
1	0	0	0	0	0	2	36319,75	-0,100000001	1,74935663	-5,5544512432482509E-005	-0,099980122192241024	0,000174900895	0,010461699663794819	-0,00039034008036098054	0,033049128628609056
1	0	0	0	0	0	2	36331,75	-0,100000001	1,72751212	-5,5544575591882067E-005	-0,099980235879160026	0,000172717075	0,010128432493897475	-0,0003779054341696352	0,0333823957985064
1	0	0	0	0	0	2	36343,75	-0,100000001	1,70484638	-5,5544555991060205E-005	-0,099980200597680742	0,00017045089	0,0097951652522228966	-0,00036547078530018464	0,033715663040180979
1	0	0	0	0	0	2	36355,75	-0,100000001	1,68162704	-5,5544480700873664E-005	-0,099980065075345229	0,000168129176	0,0094618983088521792	-0,00035303614756085222	0,034048929983551693
1	0	0	0	0	0	2	36367,75	-0,100000001	1,65785384	-5,55444362854792E-005	-0,099979985127635341	0,000165752208	0,009128631604837161	-0,00034060151875220275	0,034382196687566707
1	0	0	0	0	0	2	36379,75	-0,100000001	1,63352692	-5,5544482710460826E-005	-0,099980068692602086	0,000163320132	0,0087953650163061414	-0,00032816689425241658	0,034715463276097728
1	0	0	0	0	0	2	36391,75	-0,100000001	1,60891366	-5,5544566853178874E-005	-0,099980220149494298	0,000160859548	0,0084620977850839002	-0,0003157322457729568	0,035048730507319981
1	0	0	0	0	0	2	36403,75	-0,100000001	1,58391833	-5,5544489687101709E-005	-0,099980081250555674	0,000158360286	0,0081288308497974784	-0,00030329760833526035	0,035381997442606394
1	0	0	0	0	0	2	36415,75	-0,100000001	1,55846488	-5,5544510135220154E-005	-0,099980118057168806	0,000155815505	0,007795563974921193	-0,00029086297315154726	0,035715264317482694
1	0	0	0	0	0	2	36427,75	-0,100000001	1,53282046	-5,5544632574750317E-005	-0,099980338448322675	0,000153251909	0,0074622962934198003	-0,00027842830787156694	0,036048531998984083
1	0	0	0	0	0	2	36439,75	-0,100000001	1,50685132	-5,5544599120815597E-005	-0,099980278231240294	0,000150655411	0,0071290284686002803	-0,00026599363724419459	0,036381799823803603
1	0	0	0	0	0	2	36451,75	-0,100000001	1,4807868	-5,5544594224542374E-005	-0,099980269417948506	0,000148049468	0,0067957608936227366	-0,00025355897593876227	0,036715067398781152
1	0	0	0	0	0	2	36463,75	-0,100000001	1,454283	-5,554460154804919E-005	-0,099980282600260762	0,000145399623	0,0064624932080582938	-0,0002411243105071841	0,037048335084345594
1	0	0	0	0	0	2	36475,75	-0,100000001	1,42802751	-5,5544573217630387E-005	-0,099980231605506995	0,000142774516	0,0061292254699237952	-0,00022868964311414646	0,03738160282248009
1	0	0	0	0	0	2	36487,75	-0,100000001	1,40163839	-5,5544601599375405E-005	-0,099980282692647962	0,000140136195	0,0057959575815868365	-0,00021625497011685306	0,03771487071081705
1	0	0	0	0	0	2	36499,75	-0,100000001	1,37559295	-5,5544575673838458E-005	-0,099980236026681523	0,000137532101	0,0054626903042165242	-0,00020382031991554672	0,03804813798818736
1	0	0	0	0	0	2	36511,75	-0,100000001	1,35044491	-5,5544481047325664E-005	-0,09998006569895881	0,000135017573	0,0051294233730908371	-0,00019138568263309283	0,038381404919313043
1	0	0	0	0	0	2	36523,75	-0,100000001	1,32680547	-5,5544555592040218E-005	-0,099980199879444762	0,00013265427	0,0047961558669131955	-0,00017895102389467738	0,038714672425490682
1	0	0	0	0	0	2	36535,75	-0,100000001	1,30562925	-5,5544578163988064E-005	-0,099980240508950797	0,000130537126	0,004462888540631479	-0,0001665163718684208	0,039047939751772397
1	0	0	0	0	0	2	36547,75	-0,100000001	1,28739357	-5,5544605283687514E-005	-0,099980289324409715	0,000128713975	0,0041296212570299987	-0,00015408172143462115	0,039381207035373869
1	0	0	0	0	0	2	36559,75	-0,100000001	1,27240407	-5,5544407406614886E-005	-0,099979933145679667	0,00012721488	0,00379635409207736	-0,00014164707542776938	0,039714474200326509
1	0	0	0	0	0	2	36571,75	-0,100000001	1,26027882	-5,554441050398681E-005	-0,099979938720949107	0,000126002604	0,0034630877808677107	-0,00012921246127521637	0,040047740511536166
1	0	0	0	0	0	2	36583,75	-0,100000001	1,2505213	-5,5544503127949101E-005	-0,099980105444080922	0,000125027247	0,0031298212479312666	-0,00011677783884973853	0,040381007044472608
1	0	0	0	0	0	2	36595,75	-0,100000001	1,24234867	-5,5544435135606259E-005	-0,099979983057864038	0,000124209997	0,002796554265491361	-0,00010434319965268218	0,040714274026912518
1	0	0	0	0	0	2	36607,75	-0,100000001	1,23518813	-5,5544568167378502E-005	-0,099980222515053632	0,000123494377	0,0024632868040023021	-9,1908542581657843E-005	0,041047541488401574
1	0	0	0	0	0	2	36619,75	-0,100000001	1,22915411	-5,554464084862007E-005	-0,099980353341288205	0,000122891259	0,0021300190270912589	-7,9473873741815168E-005	0,041380809265312621
1	0	0	0	0	0	2	36631,75	-0,100000001	1,22369301	-5,5544681991967891E-005	-0,09998042739931415	0,000122345344	0,0017967510327635811	-6,7039196789865549E-005	0,041714077259640307
1	0	0	0	0	0	2	36643,75	-0,100000001	1,21869016	-5,5544733627802797E-005	-0,099980520343816806	0,000121845274	0,0014634827647528986	-5,460450962643504E-005	0,042047345527650982
1	0	0	0	0	0	2	36655,75	-0,100000001	1,21393549	-5,5544711146089766E-005	-0,099980479876733414	0,000121369856	0,0011302142652307389	-4,2169813825000064E-005	0,042380614027173152
1	0	0	0	0	0	2	36667,75	-0,100000001	1,20971549	-5,5544784866273402E-005	-0,099980612573063718	0,000120948098	0,00079694528676663206	-2,9735100153597082E-005	0,042713883005637254
1	0	0	0	0	0	2	36679,75	-0,100000001	1,20561004	-5,554472728984224E-005	-0,099980508935487808	0,000120537508	0,00046367654950182675	-1,7300395481664342E-005	0,043047151742902061
1	0	0	0	0	0	2	36691,75	-0,100000001	1,20161927	-5,5544695211367475E-005	-0,099980451194233344	0,000120138437	0,00013040843579597974	-4,8657140755547181E-006	0,043380419856607904
1	0	0	0	0	0	2	36696,74	-0,100000001	1,19995797	-2,7644638264758717E-005	-0,099980608375636224	0,00011997253	-8,3257138351330624E-006	3,1064357723012013E-007	0,043519154006239021