File: Experimentelles/Rohdaten/Batterietests/AlteZelle/Studenten_Batterietests/S vs Li GCPL 200µm/ZView-Export/S vs Li GCPL 200µm_02_GCPL_C05_loop0.txt
EC-Lab ASCII FILE
Nb header lines : 3
mode	ox/red	error	control changes	Ns changes	counter inc.	Ns	time/s	control/V/mA	Ewe/V	dq/mA.h	<I>/mA	P/W	(Q-Qo)/mA.h	x	Capacity/mA.h
1	0	0	1	1	0	1	3600,00	-0,200000003	2,17947769	0	0	0	0	0	0
1	0	0	1	0	0	1	3760,00	-0,200000003	2,15452766	-0,00055481704762826362	-0,19973414219188374	0,00043033273	-0,0088744801455153126	0,00033111878609463328	0,0088744801455153126
1	0	0	1	0	0	1	3920,00	-0,200000003	2,1497283	-0,00055480562383433184	-0,19973002962596438	0,000429365289	-0,01775147899083592	0,00066233154826543002	0,01775147899083592
1	0	0	1	0	0	1	4080,00	-0,200000003	2,15069962	-0,0005548158488670985	-0,19973371063785338	0,000429567212	-0,026628543330138397	0,0009935467541047479	0,026628543330138397
1	0	0	1	0	0	1	4240,00	-0,200000003	2,16761231	-0,00055481639461798797	-0,1997339044806927	0,000432945671	-0,035505435753732557	0,0013247555455378453	0,035505435753732557
1	0	0	1	0	0	1	4400,00	-0,200000003	2,14271927	-0,00055480440933505696	-0,19972958977878528	0,000427964434	-0,044382314249398445	0,0016559638173012128	0,044382314249398445
1	0	0	1	0	0	1	4560,00	-0,200000003	2,16641235	-0,00055481649256166483	-0,19973393974041677	0,000432706089	-0,053259286876255891	0,0019871756012258979	0,053259286876255891
1	0	0	1	0	0	1	4720,00	-0,200000003	2,15471816	-0,0005548126483013232	-0,19973255580667702	0,000430367363	-0,062136305814044774	0,0023183891130737008	0,062136305814044774
1	0	0	1	0	0	1	4880,00	-0,200000003	2,15317559	-0,00055481650425824851	-0,19973394395118694	0,000430062239	-0,071013321354510502	0,0026496024981628086	0,071013321354510502
1	0	0	1	0	0	1	5040,00	-0,200000003	2,14123368	-0,00055479823777493504	-0,1997273680171145	0,000427662977	-0,079890184634224038	0,0029808102021985357	0,079890184634224038
1	0	0	1	0	0	1	5200,00	-0,200000003	2,15151858	-0,00055480774742861587	-0,19973079149248109	0,000429724518	-0,088767111194591168	0,0033120202673205299	0,088767111194591168
1	0	0	1	0	0	1	5360,00	-0,200000003	2,13671994	-0,00055480627526425651	-0,19973026151330525	0,000426767627	-0,09764407272018784	0,0036432316370422496	0,09764407272018784
1	0	0	1	0	0	1	5520,00	-0,200000003	2,14409065	-0,00055480364518033133	-0,19972931468308074	0,000428237749	-0,10652097575467288	0,0039744408243819526	0,10652097575467288
1	0	0	1	0	0	1	5680,00	-0,200000003	2,14195752	-0,00055480624238484429	-0,19973024967671674	0,000427813706	-0,11539778598898525	0,0043056465492224416	0,11539778598898525
1	0	0	1	0	0	1	5840,00	-0,200000003	2,14290977	-0,00055479957631147565	-0,19972784989027494	0,000427998748	-0,12427463643486672	0,0046368537744106387	0,12427463643486672
1	0	0	1	0	0	1	6000,00	-0,200000003	2,12963486	-0,00055480048158847629	-0,19972817578999914	0,000425348087	-0,13315147460303	0,0049680605415006637	0,13315147460303
1	0	0	1	0	0	1	6160,00	-0,200000003	2,12866354	-0,00055480012773805197	-0,19972804840384483	0,000425153819	-0,14202835015562466	0,0052992687034540851	0,14202835015562466
1	0	0	1	0	0	1	6320,00	-0,200000003	2,12942529	-0,00055481339061756922	-0,19973282304052886	0,000425316131	-0,15090520839371075	0,0056304762193799142	0,15090520839371075
1	0	0	1	0	0	1	6480,00	-0,200000003	2,12228322	-0,0005547989437646336	-0,19972762217340906	0,000423878577	-0,15978204245614963	0,0059616828332798413	0,15978204245614963
1	0	0	1	0	0	1	6640,00	-0,200000003	2,12611127	-0,00055479669999745158	-0,19972681441721376	0,000424641417	-0,16865887391318752	0,0062928893499687526	0,16865887391318752
1	0	0	1	0	0	1	6800,00	-0,200000003	2,11529326	-0,00055479739349914918	-0,1997270640778279	0,000422481302	-0,17753568671065363	0,0066240951704439539	0,17753568671065363
1	0	0	1	0	0	1	6960,00	-0,200000003	2,11165571	-0,00055479727361020109	-0,19972702091780608	0,000421754696	-0,18641238124207616	0,0069552965782540595	0,18641238124207616
1	0	0	1	0	0	1	7120,00	-0,200000003	2,10965586	-0,00055479845894624787	-0,1997274476387881	0,000421356177	-0,19528926458455658	0,0072865050308585946	0,19528926458455658
1	0	0	1	0	0	1	7280,00	-0,200000003	2,1051991	-0,00055480325019194016	-0,19972917248725821	0,000420469674	-0,20416615308569242	0,0076177136759394982	0,20416615308569242
1	0	0	1	0	0	1	7440,00	-0,200000003	2,09455252	-0,0005548043262743287	-0,19972955987692275	0,000418344047	-0,21304302291244883	0,0079489216242541978	0,21304302291244883
1	0	0	1	0	0	1	7600,00	-0,200000003	2,09001946	-0,00055480060782035194	-0,19972822123347491	0,000417435862	-0,22191989539366579	0,0082801296716103898	0,22191989539366579
1	0	0	1	0	0	1	7760,00	-0,200000003	2,08556271	-0,00055480385663774285	-0,19972939080774979	0,000416548166	-0,23079676743382666	0,0086113377025101837	0,23079676743382666
1	0	0	1	0	0	1	7920,00	-0,200000003	2,08019185	-0,00055481930998050502	-0,19973495401121155	0,000415487011	-0,23967374730336115	0,0089425497566688883	0,23967374730336115
1	0	0	1	0	0	1	8080,00	-0,200000003	2,06945014	-0,00055480066914111379	-0,19972824330894941	0,000413327652	-0,24855065308752851	0,009273759046602935	0,24855065308752851
1	0	0	1	0	0	1	8240,00	-0,200000003	2,06508851	-0,00055480559906694624	-0,19973001808227062	0,000412460155	-0,25742749422168106	0,0096049659243580045	0,25742749422168106
1	0	0	1	0	0	1	8400,00	-0,200000003	2,04349065	-0,0005548103822502825	-0,19973174002829251	0,000408149936	-0,26630446087236896	0,0099361774853037709	0,26630446087236896
1	0	0	1	0	0	1	8560,00	-0,200000003	2,02756834	-0,00055480677767760224	-0,1997304423821119	0,000404967112	-0,27518142644016051	0,010267389005845218	0,27518142644016051
1	0	0	1	0	0	1	8720,00	-0,200000003	2,01164603	-0,00055481936254600678	-0,19973497293479238	0,000401796075	-0,28405850258163222	0,010598604652039338	0,28405850258163222
1	0	0	1	0	0	1	8880,00	-0,200000003	2,00275159	-0,00055481568329532947	-0,19973364840453254	0,00040001687	-0,29293556530918957	0,010929819797742275	0,29293556530918957
1	0	0	1	0	0	1	9040,00	-0,200000003	1,99547601	-0,0005547832719095879	-0,19972198030552429	0,000398540433	-0,30181223417553504	0,011261020247953848	0,30181223417553504
1	0	0	1	0	0	1	9200,00	-0,200000003	1,98511505	-0,00055478330433368685	-0,19972199197820006	0,000396471121	-0,31068875648298726	0,011592215229856064	0,31068875648298726
1	0	0	1	0	0	1	9360,00	-0,200000003	1,96888804	-0,00055479156613184346	-0,19972496622557245	0,000393236085	-0,31956535028581594	0,011923412879346902	0,31956535028581594
1	0	0	1	0	0	1	9520,00	-0,200000003	1,9594413	-0,00055478313916756051	-0,19972193251839386	0,000391343405	-0,32844195831738112	0,012254611059731029	0,32844195831738112
1	0	0	1	0	0	1	9680,00	-0,200000003	1,9456712	-0,00055478872545560205	-0,19972394358211315	0,000388597138	-0,33731852522625395	0,012585807705772214	0,33731852522625395
1	0	0	1	0	0	1	9840,00	-0,200000003	1,9398241	-0,00055479067632224832	-0,1997246458941143	0,000387430686	-0,34619512284653581	0,012917005497697362	0,34619512284653581
1	0	0	1	0	0	1	10000,00	-0,200000003	1,92959654	-0,00055478695860919021	-0,19972330751739722	0,000385385414	-0,3550716434001328	0,01324820041416088	0,3550716434001328
1	0	0	1	0	0	1	10160,00	-0,200000003	1,91571212	-0,00055478565010842349	-0,19972283645711546	0,00038261147	-0,36394826396668813	0,013579399062242346	0,36394826396668813
1	0	0	1	0	0	1	10320,00	-0,200000003	1,90738904	-0,00055478545854820141	-0,19972276749543469	0,00038094903	-0,3728248033283703	0,01391059468046081	0,3728248033283703
1	0	0	1	0	0	1	10480,00	-0,200000003	1,91062689	-0,00055478211864911853	-0,1997215651317503	0,000381593389	-0,38170136245468282	0,014241791036124206	0,38170136245468282
1	0	0	1	0	0	1	10640,00	-0,200000003	1,91470265	-0,00055477903289761805	-0,19972045426119667	0,000382405298	-0,39057786011642413	0,014572985098461811	0,39057786011642413
1	0	0	1	0	0	1	10800,00	-0,200000003	1,9178642	-0,00055477998102290758	-0,19972079558630502	0,000383037375	-0,39945436971271226	0,014904179606093402	0,39945436971271226
1	0	0	1	0	0	1	10960,00	-0,200000003	1,92422557	-0,00055479133278959328	-0,19972488222236141	0,000384315732	-0,40833102795322093	0,015235379659840717	0,40833102795322093
1	0	0	1	0	0	1	11120,00	-0,200000003	1,92117822	-0,00055480065189219187	-0,19972823709933747	0,000383713545	-0,41720779402363142	0,01556658373686665	0,41720779402363142
1	0	0	1	0	0	1	11280,00	-0,200000003	1,92763472	-0,00055479039836343795	-0,19972454582894138	0,000384995976	-0,42608447310909549	0,015897784568367274	0,42608447310909549
1	0	0	1	0	0	1	11440,00	-0,200000003	1,9266063	-0,00055478772104862669	-0,19972358199559763	0,000384788698	-0,4349611052326791	0,016228983647657005	0,4349611052326791
1	0	0	1	0	0	1	11600,00	-0,200000003	1,92790139	-0,00055477622653792307	-0,19971944397169424	0,000385039399	-0,44383761271044691	0,016560178076243754	0,44383761271044691
1	0	0	1	0	0	1	11760,00	-0,200000003	1,92967272	-0,00055478528686612845	-0,19972270568988768	0,000385399442	-0,45271411473344013	0,01689137230130553	0,45271411473344013
1	0	0	1	0	0	1	11920,00	-0,200000003	1,93845284	-0,00055478822827090822	-0,19972376459562122	0,000387155102	-0,46159069126068224	0,017222569306221008	0,46159069126068224
1	0	0	1	0	0	1	12080,00	-0,200000003	1,92708242	-0,00055478378195150029	-0,19972216392061498	0,000384881074	-0,47046725102393997	0,017553765685649686	0,47046725102393997
1	0	0	1	0	0	1	12240,00	-0,200000003	1,9285109	-0,00055479036491198682	-0,19972453378641882	0,000385170948	-0,47934385907703072	0,01788496386683696	0,47934385907703072
1	0	0	1	0	0	1	12400,00	-0,200000003	1,94454741	-0,0005547812482482857	-0,19972125178744669	0,000388367451	-0,48822039381556141	0,01821615931255943	0,48822039381556141
1	0	0	1	0	0	1	12560,00	-0,200000003	1,9406811	-0,00055478982883691789	-0,19972434079939168	0,000387601263	-0,49709700155641811	0,018547357482096832	0,49709700155641811
1	0	0	1	0	0	1	12720,00	-0,200000003	1,93407226	-0,00055478712878293459	-0,19972336877994589	0,000386279426	-0,5059736870465735	0,018878558552565101	0,5059736870465735
1	0	0	1	0	0	1	12880,00	-0,200000003	1,93529117	-0,00055478447218901574	-0,19972241240612355	0,000386521016	-0,51485027151767936	0,019209755853876816	0,51485027151767936
1	0	0	1	0	0	1	13040,00	-0,200000003	1,93332946	-0,00055478132922285133	-0,19972128093829066	0,000386127038	-0,52372685691773677	0,01954095318984896	0,52372685691773677
1	0	0	1	0	0	1	13200,00	-0,200000003	1,93018687	-0,00055478105974114605	-0,19972118392487558	0,00038549921	-0,53260346262188307	0,019872151283393958	0,53260346262188307
1	0	0	1	0	0	1	13360,00	-0,200000003	1,92778718	-0,00055478965622848941	-0,19972427866035667	0,000385025895	-0,54148007665579731	0,020203349687733798	0,54148007665579731
1	0	0	1	0	0	1	13520,00	-0,200000003	1,9242065	-0,00055478891791734432	-0,19972401286834122	0,000384310231	-0,55035675464225018	0,020534550478228842	0,55035675464225018
1	0	0	1	0	0	1	13680,00	-0,200000003	1,92022598	-0,00055479213491413325	-0,19972517098719923	0,000383517472	-0,55923342658691552	0,020865751043296666	0,55923342658691552
1	0	0	1	0	0	1	13840,00	-0,200000003	1,92407322	-0,00055479544602168928	-0,19972636298593386	0,000384288142	-0,56811013128106246	0,021196952830291683	0,56811013128106246
1	0	0	1	0	0	1	14000,00	-0,200000003	1,9212544	-0,00055480861158586208	-0,19973110258909347	0,000383734267	-0,57698687835658291	0,02152815619859273	0,57698687835658291
1	0	0	1	0	0	1	14160,00	-0,200000003	1,91883564	-0,0005547794352413879	-0,19972059910495558	0,000383231003	-0,58586360555312	0,021859358825182176	0,58586360555312
1	0	0	1	0	0	1	14320,00	-0,200000003	1,91695011	-0,00055477774156050547	-0,19971998937983053	0,000382853264	-0,59474008218270758	0,022190552102781846	0,59474008218270758
1	0	0	1	0	0	1	14480,00	-0,200000003	1,91575015	-0,00055479132371478611	-0,19972487895543075	0,000382622966	-0,60361663496575642	0,022521748221769549	0,60361663496575642
1	0	0	1	0	0	1	14640,00	-0,200000003	1,91839755	-0,00055478239626106291	-0,19972166507205146	0,000383145554	-0,6124932084390569	0,022852945112738352	0,6124932084390569
1	0	0	1	0	0	1	14800,00	-0,200000003	1,94957554	-0,00055479461767607264	-0,19972606478150829	0,00038938105	-0,62136985901422426	0,023184144880481478	0,62136985901422426
1	0	0	1	0	0	1	14960,00	-0,200000003	1,96742153	-0,00055478505161984102	-0,19972262100122317	0,000392938586	-0,63024651196116262	0,02351534473671857	0,63024651196116262
1	0	0	1	0	0	1	15120,00	-0,200000003	1,95776522	-0,00055478096534146208	-0,19972114994098896	0,00039100711	-0,63912310651735437	0,023846542414318394	0,63912310651735437
1	0	0	1	0	0	1	15280,00	-0,200000003	1,91199815	-0,00055478125392066112	-0,19972125382950186	0,000381866674	-0,64799956152104653	0,024177734885026832	0,64799956152104653
1	0	0	1	0	0	1	15440,00	-0,200000003	1,91154099	-0,00055479155265622669	-0,19972496137435037	0,000381782447	-0,65687606518597555	0,02450892917135144	0,65687606518597555
1	0	0	1	0	0	1	15600,00	-0,200000003	1,91373134	-0,00055478570328487296	-0,1997228556006375	0,000382215891	-0,66575260166529395	0,02484012468202504	0,66575260166529395
1	0	0	1	0	0	1	15760,00	-0,200000003	1,91407418	-0,00055479249046246214	-0,1997252989845992	0,000382289028	-0,67462924268824525	0,025171324093362134	0,67462924268824525
1	0	0	1	0	0	1	15920,00	-0,200000003	1,91087449	-0,00055478946687860614	-0,19972421049439789	0,0003816479	-0,68350587482192256	0,025502523173028477	0,68350587482192256
1	0	0	1	0	0	1	16080,00	-0,200000003	1,91157913	-0,00055478304933756595	-0,19972190017959542	0,000381784223	-0,69238250380922752	0,025833722135299427	0,69238250380922752
1	0	0	1	0	0	1	16240,00	-0,200000003	1,9075985	-0,00055478248214390541	-0,19972169598987517	0,000380988815	-0,70125906269518912	0,026164918481995008	0,70125906269518912
1	0	0	1	0	0	1	16400,00	-0,200000003	1,90647483	-0,00055478276519642931	-0,19972179788878499	0,00038076457	-0,71013560865867942	0,026496114346535811	0,71013560865867942
1	0	0	1	0	0	1	16560,00	-0,200000003	1,90609396	-0,00055478905946678586	-0,1997240638261408	0,000380692829	-0,71901220805718131	0,026827312204808742	0,71901220805718131
1	0	0	1	0	0	1	16720,00	-0,200000003	1,90523684	-0,00055479285668747296	-0,19972543082560467	0,00038052426	-0,72788891489721331	0,027158514071869613	0,72788891489721331
1	0	0	1	0	0	1	16880,00	-0,200000003	1,9484899	-0,00055479467191629933	-0,19972608430799011	0,000389164255	-0,73676561403466534	0,02748971565153687	0,73676561403466534
1	0	0	1	0	0	1	17040,00	-0,200000003	1,91546452	-0,00055479368110332224	-0,19972572761531402	0,000382567552	-0,7456423497622935	0,027820918596432797	0,7456423497622935
1	0	0	1	0	0	1	17200,00	-0,200000003	1,9155407	-0,0005547901466389497	-0,19972445520812451	0,000382580329	-0,75451907585463206	0,028152121181823114	0,75451907585463206
1	0	0	1	0	0	1	17360,00	-0,200000003	1,91828322	-0,0005547876982895865	-0,19972357380234307	0,000383126375	-0,76339578805194317	0,028483323248771277	0,76339578805194317
1	0	0	1	0	0	1	17520,00	-0,200000003	1,9154073	-0,00055479322220550643	-0,19972556241209834	0,000382555794	-0,77227248083097178	0,028814524591197203	0,77227248083097178
1	0	0	1	0	0	1	17680,00	-0,200000003	1,9202069	-0,00055479241521159808	-0,19972527189428781	0,000383513834	-0,7811491688825673	0,029145725757236256	0,7811491688825673
1	0	0	1	0	0	1	17840,00	-0,200000003	1,91314089	-0,00055477998988661498	-0,19972079877723974	0,000382094033	-0,790025682852944	0,02947692042807097	0,790025682852944
1	0	0	1	0	0	1	18000,00	-0,200000003	1,91180766	-0,00055479349277499654	-0,19972565981711597	0,000381837046	-0,7989022094239968	0,029808115569053856	0,7989022094239968
1	0	0	1	0	0	1	18160,00	-0,200000003	1,91281712	-0,00055478793964038291	-0,19972366068863085	0,000382034836	-0,8077787882551488	0,030139312659931309	0,8077787882551488
1	0	0	1	0	0	1	18320,00	-0,200000003	1,91647387	-0,00055477571970803872	-0,19971926151293366	0,000382756756	-0,8166553025966688	0,030470507344613882	0,8166553025966688
1	0	0	1	0	0	1	18480,00	-0,200000003	1,91552162	-0,0005547683011566599	-0,19971659083440496	0,00038256144	-0,82553169753550426	0,030801697574221754	0,82553169753550426
1	0	0	1	0	0	1	18640,00	-0,200000003	1,91007447	-0,00055479074140058618	-0,19972466932231622	0,000381488993	-0,8344082817644032	0,031132894866496403	0,8344082817644032
1	0	0	1	0	0	1	18800,00	-0,200000003	1,92447317	-0,00055479085792435533	-0,19972471127087363	0,000384364859	-0,84328495826134003	0,031464095601415597	0,84328495826134003
1	0	0	1	0	0	1	18960,00	-0,200000003	1,90719855	-0,00055478518928670221	-0,19972267056129382	0,000380910787	-0,85216148892134656	0,031795290894962842	0,85216148892134656
1	0	0	1	0	0	1	19120,00	-0,200000003	1,89558065	-0,00055477761595696211	-0,19971994416255437	0,000378585275	-0,86103805306650432	0,032126487437886106	0,86103805306650432
1	0	0	1	0	0	1	19280,00	-0,200000003	1,89470458	-0,00055477874242183238	-0,19972034968991258	0,00037841106	-0,8699145153885696	0,032457680181652883	0,8699145153885696
1	0	0	1	0	0	1	19440,00	-0,200000003	1,88824797	-0,00055479068128350701	-0,19972464768016749	0,000377129647	-0,87879103167173965	0,03278887493878103	0,87879103167173965
1	0	0	1	0	0	1	19600,00	-0,200000003	1,88651478	-0,0005547910950117641	-0,19972479662234182	0,000376783777	-0,8876676835831831	0,033120074756382413	0,8876676835831831
1	0	0	1	0	0	1	19760,00	-0,200000003	1,88462925	-0,00055479361511849696	-0,19972570386077664	0,000376408891	-0,89654434055602445	0,033451274762831354	0,89654434055602445
1	0	0	1	0	0	1	19920,00	-0,200000003	1,88272476	-0,00055478632757150458	-0,19972308034382762	0,000376023585	-0,9054210275506903	0,033782475889434938	0,9054210275506903
1	0	0	1	0	0	1	20080,00	-0,200000003	1,88154387	-0,00055478754292262925	-0,19972351787023779	0,000375788572	-0,91429762035331418	0,03411367350160679	0,91429762035331418
1	0	0	1	0	0	1	20240,00	-0,200000003	1,89346659	-0,0005547887025218871	-0,19972393532597568	0,000378170604	-0,92317421044869683	0,034444871012767827	0,92317421044869683
1	0	0	1	0	0	1	20400,00	-0,200000003	1,87771571	-0,00055477355779872998	-0,19971848322557312	0,000375014526	-0,93205072442948621	0,034776065683991059	0,93205072442948621
1	0	0	1	0	0	1	20560,00	-0,200000003	1,87512541	-0,00055478926404482784	-0,1997241374742368	0,000374507799	-0,94092726347849139	0,035107261290543123	0,94092726347849139
1	0	0	1	0	0	1	20720,00	-0,200000003	1,87232566	-0,00055479259507026931	-0,19972533664341027	0,000373950868	-0,94980390228472128	0,035438460619171373	0,94980390228472128
1	0	0	1	0	0	1	20880,00	-0,200000003	1,86912596	-0,00055478988939689267	-0,19972436260098285	0,000373310002	-0,95868051722342323	0,035769659057270061	0,95868051722342323
1	0	0	1	0	0	1	21040,00	-0,200000003	1,86685956	-0,00055478567028211219	-0,19972284371964349	0,000372854498	-0,9675571187139872	0,036100856993600634	0,9675571187139872
1	0	0	1	0	0	1	21200,00	-0,200000003	1,8651644	-0,00055478167155716154	-0,19972140417864384	0,000372513256	-0,97643369465051738	0,036432053976475853	0,97643369465051738
1	0	0	1	0	0	1	21360,00	-0,200000003	1,8706497	-0,00055479244959933888	-0,19972528427387469	0,000373616029	-0,98531026880694733	0,036763250892933133	0,98531026880694733
1	0	0	1	0	0	1	21520,00	-0,200000003	1,86343133	-0,0005547878734966119	-0,19972363687687299	0,000372171286	-0,99418688511150362	0,03709444938199369	0,99418688511150362
1	0	0	1	0	0	1	21680,00	-0,200000003	1,85265136	-0,00055478700269179213	-0,19972332338713408	0,000370017689	-1,0030634582838787	0,03742564626173456	1,0030634582838787
1	0	0	1	0	0	1	21840,00	-0,200000003	1,84920406	-0,00055478960019598406	-0,1997242584886545	0,000369330897	-1,0119401994369214	0,03775684940906	1,0119401994369214
1	0	0	1	0	0	1	22000,00	-0,200000003	1,84659481	-0,0005547878603479929	-0,19972363214337011	0,000368808629	-1,0208168447781952	0,03808804898151952	1,0208168447781952
1	0	0	1	0	0	1	22160,00	-0,200000003	1,83834791	-0,00055478574925826656	-0,19972287215105942	0,00036716013	-1,0296934327720821	0,038419246414270925	1,0296934327720821
1	0	0	1	0	0	1	22320,00	-0,200000003	1,83381498	-0,00055478278695212474	-0,19972180572083546	0,000366252847	-1,0385700511117362	0,038750444979263706	1,0385700511117362
1	0	0	1	0	0	1	22480,00	-0,200000003	1,82585382	-0,00055478011061333952	-0,19972084223886112	0,000364661071	-1,0474466382232379	0,039081642379092147	1,0474466382232379
1	0	0	1	0	0	1	22640,00	-0,200000003	1,81724513	-0,00055479182547330854	-0,19972505958850102	0,000362949388	-1,0563232526679971	0,039412840798761158	1,0563232526679971
1	0	0	1	0	0	1	22800,00	-0,200000003	1,80694139	-0,00055479879486312467	-0,19972756856886518	0,000360895996	-1,0651999362075957	0,039744041796451539	1,0651999362075957
1	0	0	1	0	0	1	22960,00	-0,200000003	1,79576147	-0,00055478250318517286	-0,19972170356473155	0,000358652527	-1,0740765517870027	0,040075240258455795	1,0740765517870027
1	0	0	1	0	0	1	23120,00	-0,200000003	1,76633561	-0,00055479157871670195	-0,19972497075612157	0,000352781324	-1,082953201923681	0,040406440009838298	1,082953201923681
1	0	0	1	0	0	1	23280,00	-0,200000003	1,72331119	-0,00055478847091231085	-0,19972385194652723	0,000344186352	-1,0918298381520363	0,040737639242282579	1,0918298381520363
1	0	0	1	0	0	1	23440,00	-0,200000003	1,65886009	-0,00055478777363234099	-0,19972360092573501	0,000331313524	-1,1007064884262586	0,041068838998797037	1,1007064884262586
1	0	0	1	0	0	1	23600,00	-0,200000003	1,55875516	-0,00055479384367995789	-0,19972578614290355	0,000311323587	-1,1095831231681845	0,041400038175780634	1,1095831231681845
1	1	0	0	0	0	2	23740,21	0,200000003	2,12854934	0,00055611805871708531	0,20020250356204115	0,000426140905	-1,1084746676804558	0,041358680211199219	0,0044489331448641082
1	1	0	0	0	0	2	23900,21	0,200000003	2,10407543	0,00055611675137695334	0,20020203291958794	0,000421240169	-1,0995768118145122	0,041026689245546419	0,013346789010807872
1	1	0	0	0	0	2	24060,21	0,200000003	2,08742929	0,00055611724522709843	0,20020221070564234	0,000417907955	-1,090678975365327	0,040694699004358982	0,022244625459993056
1	1	0	0	0	0	2	24220,21	0,200000003	2,07805872	0,00055610711994353267	0,2001985656035145	0,000416024384	-1,081781186377564	0,040362710534021011	0,031142414447756282
1	1	0	0	0	0	2	24380,21	0,200000003	2,07295442	0,00055611256526824499	0,20020052592043472	0,000415006565	-1,0728834944670205	0,040030725685764627	0,040040106358299661
1	1	0	0	0	0	2	24540,21	0,200000003	2,06586933	0,00055610262074900998	0,20019694589346675	0,000413580739	-1,0639858362466357	0,039698742094533363	0,048937764578684346
1	1	0	0	0	0	2	24700,21	0,200000003	2,06367922	0,0005561077693560057	0,20019879939200765	0,000413146103	-1,0550880866281558	0,039366755093116282	0,057835514197164122
1	1	0	0	0	0	2	24860,21	0,200000003	2,06259346	0,00055611934977107584	0,20020296834148336	0,000412937341	-1,0461902884968578	0,039034766281620723	0,066733312328461965
1	1	0	0	0	0	2	25020,21	0,200000003	2,06703115	0,00055611451177050675	0,20020122666125741	0,000413822185	-1,0372924685950182	0,038702776657836998	0,075631132230301747
1	1	0	0	0	0	2	25180,21	0,200000003	2,06265068	0,00055611913253863642	0,20020289013780426	0,000412948633	-1,028394609968924	0,03837078558919927	0,084528990856395891
1	1	0	0	0	0	2	25340,21	0,200000003	2,05651784	0,00055611082552621766	0,20019989961329728	0,00041171466	-1,0194967688650386	0,038038795174338694	0,093426831960281638
1	1	0	0	0	0	2	25500,21	0,200000003	2,05607986	0,00055611756250676186	0,20020232492632253	0,000411631976	-1,0105988548203326	0,037706802037958048	0,10232474600498715
1	1	0	0	0	0	2	25660,21	0,200000003	2,05699396	0,00055610856815593107	0,20019908695998426	0,000411808316	-1,0017010086994475	0,037374811435906483	0,11122259212587197
1	1	0	0	0	0	2	25820,21	0,200000003	2,05644178	0,00055610548736568947	0,20019797787548384	0,000411695481	-0,992803299258592	0,037042825933570592	0,12012030156672747
1	1	0	0	0	0	2	25980,21	0,200000003	2,05901289	0,00055610972801844275	0,20019950451049354	0,000412213354	-0,98390556217485504	0,036710839399841619	0,1290180386504647
1	1	0	0	0	0	2	26140,21	0,200000003	2,0599463	0,00055612126354790387	0,20020365730114979	0,000412408786	-0,97500761617228954	0,036378845071070266	0,13791598465302998
1	1	0	0	0	0	2	26300,21	0,200000003	2,05954623	0,00055612067454556621	0,2002034452603057	0,000412328256	-0,9661096605042953	0,036046850381668762	0,14681394032102403
1	1	0	0	0	0	2	26460,21	0,200000003	2,05958438	0,00055611270837071872	0,20020057743732586	0,000412329973	-0,95721180325212378	0,035714859364293939	0,15571179757319552
1	1	0	0	0	0	2	26620,21	0,200000003	2,06223178	0,00055612323362131917	0,2002043665275879	0,000412867812	-0,94831392275119027	0,035382867479476538	0,16460967807412886
1	1	0	0	0	0	2	26780,21	0,200000003	2,06007957	0,00055611035559988685	0,20019973043981616	0,000412427384	-0,93941604015169088	0,035050875516358829	0,17350756067362838
1	1	0	0	0	0	2	26940,21	0,200000003	2,06291723	0,00055611907468073901	0,20020286930896093	0,000413001952	-0,93051819610826304	0,034718884991819981	0,18240540471705626
1	1	0	0	0	0	2	27100,21	0,200000003	2,06825018	0,00055611822849760461	0,20020256468302883	0,000414068985	-0,92162039076817741	0,034386895911354867	0,19130321005714189
1	1	0	0	0	0	2	27260,21	0,200000003	2,06305075	0,00055611976492322157	0,20020311779625763	0,000413029193	-0,91272255210624576	0,03405490558760688	0,20020104871907341
1	1	0	0	0	0	2	27420,21	0,200000003	2,06722164	0,00055611044633388518	0,20019976310405594	0,000413857284	-0,90382475612850355	0,033722916856463392	0,20909884469681574
1	1	0	0	0	0	2	27580,21	0,200000003	2,06960249	0,00055610739366710189	0,20019866414400064	0,000414331647	-0,89492699957022093	0,033390929596112941	0,21799660125509824
1	1	0	0	0	0	2	27740,21	0,200000003	2,07381153	0,00055611079309466816	0,2001998879379393	0,000415176823	-0,88602922337202982	0,033058941602971098	0,22689437745328918
1	1	0	0	0	0	2	27900,21	0,200000003	2,06739306	0,00055611301377912358	0,20020068738435296	0,000413893518	-0,87713146474833549	0,032726954265557363	0,23579213607698358
1	1	0	0	0	0	2	28060,21	0,200000003	2,06762171	0,00055611270325962035	0,20020057559733043	0,000413939066	-0,86823359642955341	0,032394962835272416	0,24469000439576566
1	1	0	0	0	0	2	28220,21	0,200000003	2,07064986	0,00055611443514376883	0,20020119907563142	0,000414546579	-0,85933575881120896	0,032062972550462067	0,25358784201411005
1	1	0	0	0	0	2	28380,21	0,200000003	2,07173562	0,00055610773957934643	0,20019878867241018	0,00041475895	-0,8504380073269888	0,031730985479431706	0,26248559349833024
1	1	0	0	0	0	2	28540,21	0,200000003	2,06893587	0,0005561159837701255	0,20020175658112656	0,000414204609	-0,84154027612610496	0,031398999165199898	0,27138332469921402
1	1	0	0	0	0	2	28700,21	0,200000003	2,06950712	0,00055612353166606694	0,2002044738236984	0,000414324575	-0,83264241639665101	0,03106700805539433	0,280281184428668
1	1	0	0	0	0	2	28860,21	0,200000003	2,07116413	0,00055612128014862534	0,2002036632774096	0,000414654642	-0,82374452311689587	0,030735015693781914	0,28917907770842342
1	1	0	0	0	0	2	29020,21	0,200000003	2,07325912	0,00055611439157111776	0,20020118338947686	0,000415068935	-0,81484662720778752	0,030403023234064794	0,29807697361753171
1	1	0	0	0	0	2	29180,21	0,200000003	2,07289743	0,00055611477565185894	0,20020132165854534	0,000414996815	-0,80594881425470861	0,030071033869548672	0,30697478657061062
1	1	0	0	0	0	2	29340,21	0,200000003	2,08651519	0,00055611484184198918	0,20020134548699251	0,000417723146	-0,79705089445944371	0,029739040518606938	0,31587270636587539
1	1	0	0	0	0	2	29500,21	0,200000003	2,07301164	0,00055612412881768416	0,20020468879828317	0,000415026647	-0,78815300483583578	0,029407048293410285	0,32477059598948352
1	1	0	0	0	0	2	29660,21	0,200000003	2,07272601	0,0005561161856609913	0,20020182926183917	0,00041496355	-0,77925510996700147	0,029075055872507194	0,33366849085831757
1	1	0	0	0	0	2	29820,21	0,200000003	2,07762074	0,00055610562826941414	0,20019802860082534	0,000415935589	-0,77035731314985344	0,028743067110044346	0,34256628767546541
1	1	0	0	0	0	2	29980,21	0,200000003	2,0778873	0,00055610414294236237	0,20019749388308026	0,00041598783	-0,76145962999067686	0,028411082588313229	0,35146397083464211
1	1	0	0	0	0	2	30140,21	0,200000003	2,07531619	0,0005561140085144176	0,2002010454890631	0,000415480463	-0,75256189619578176	0,02807909617729537	0,36036170462953741
1	1	0	0	0	0	2	30300,21	0,200000003	2,07489705	0,00055610941732592051	0,20019939266118416	0,000415393122	-0,74366417060149222	0,027747110072253133	0,36925943022382701
1	1	0	0	0	0	2	30460,21	0,200000003	2,07504964	0,00055611183507574931	0,20020026305113306	0,000415425486	-0,73476645954708032	0,027415124509713277	0,37815714127823904
1	1	0	0	0	0	2	30620,21	0,200000003	2,07851577	0,00055610470403730867	0,20019769587726336	0,000416114053	-0,72586867784278438	0,027083136311131264	0,38705492298253491
1	1	0	0	0	0	2	30780,21	0,200000003	2,07784915	0,00055610722525086669	0,20019860351415526	0,000415982504	-0,716970964749136	0,026751150672504752	0,3959526360761833
1	1	0	0	0	0	2	30940,21	0,200000003	2,07887769	0,00055610463155474925	0,20019766978354163	0,000416186464	-0,70807334996840781	0,026419168702065475	0,40485025085691162
1	1	0	0	0	0	2	31100,21	0,200000003	2,08344865	0,00055609740707609395	0,20019506897119424	0,000417096133	-0,6991757219106025	0,026087186236240605	0,4137478789147168
1	1	0	0	0	0	2	31260,21	0,200000003	2,08261061	0,00055610642573734125	0,20019831568928259	0,00041693513	-0,69027806128341133	0,025755202555208154	0,42264553954190797
1	1	0	0	0	0	2	31420,21	0,200000003	2,08331537	0,00055610799723201325	0,20019888142737136	0,000417077419	-0,68138028846784614	0,025423214688276637	0,43154331235747322
1	1	0	0	0	0	2	31580,21	0,200000003	2,08230591	0,00055610245527575424	0,20019688632309392	0,00041687116	-0,6724825906420823	0,025091229619315424	0,44044101018323686
1	1	0	0	0	0	2	31740,21	0,200000003	2,08247733	0,0005561128478969136	0,20020062766675664	0,000416913274	-0,66358478899578675	0,024759240676670592	0,44933881182953235
1	1	0	0	0	0	2	31900,21	0,200000003	2,08434391	0,00055611439939257178	0,20020118620520032	0,000417288131	-0,65468697356664742	0,024427251219769322	0,45823662725867187
1	1	0	0	0	0	2	32060,21	0,200000003	2,08539152	0,0005561082711691657	0,20019898004474746	0,000417493255	-0,64578919735565389	0,024095263226149802	0,46713440346966534
1	1	0	0	0	0	2	32220,21	0,200000003	2,08592463	0,00055611592414478458	0,20020173511600362	0,000417605741	-0,63689137420085094	0,023763273480993638	0,47603222662446829
1	1	0	0	0	0	2	32380,21	0,200000003	2,08699131	0,00055611013681193197	0,20019965167615142	0,000417814939	-0,62799358237082522	0,02343128490460703	0,48493001845449389
1	1	0	0	0	0	2	32540,21	0,200000003	2,08664846	0,00055611454135096742	0,20020123731022339	0,000417749601	-0,61909581352708826	0,023099297185869763	0,49382778729823078
1	1	0	0	0	0	2	32700,21	0,200000003	2,08897209	0,0005561221012481385	0,20020395887323795	0,000418220472	-0,61019788372923622	0,022767303461718048	0,50272571709608294
1	1	0	0	0	0	2	32860,21	0,200000003	2,09108615	0,00055611752233074771	0,20020230766616333	0,000418640266	-0,601299998334576	0,02243531139430913	0,5116236024907431
1	1	0	0	0	0	2	33020,21	0,200000003	2,08992434	0,0005561157447174192	0,20020166772536624	0,000418406329	-0,59240213009741926	0,022103319967069728	0,5205214707278999
1	1	0	0	0	0	2	33180,21	0,200000003	2,09106708	0,00055612044090198138	0,2002033583518055	0,000418638665	-0,58350422208603085	0,021771327055800269	0,52941937873928832
1	1	0	0	0	0	2	33340,21	0,200000003	2,09295249	0,00055611965304613107	0,2002030747236999	0,00041901553	-0,57460623979834234	0,021439331373182189	0,53831736102697683
1	1	0	0	0	0	2	33500,21	0,200000003	2,09291458	0,00055611824308749702	0,20020256713859261	0,000419006858	-0,5657083172489232	0,021107337919479258	0,5472152835763959
1	1	0	0	0	0	2	33660,21	0,200000003	2,09817123	0,00055611637338664794	0,20020189404628819	0,000420057855	-0,55681041267298925	0,020775345136391222	0,55611318815232992
1	1	0	0	0	0	2	33820,21	0,200000003	2,09780931	0,00055611776380489267	0,20020239459685536	0,000419986434	-0,54791245579655565	0,020443350401901226	0,56501114502876346
1	1	0	0	0	0	2	33980,21	0,200000003	2,09923768	0,00055611103747950669	0,20019997311972086	0,000420267315	-0,53901462468940019	0,020111360360032099	0,57390897613591898
1	1	0	0	0	0	2	34140,21	0,200000003	2,10100889	0,00055612197736899059	0,20020391147992778	0,000420630211	-0,53011676229215834	0,019779369150687776	0,58280683853316083
1	1	0	0	0	0	2	34300,21	0,200000003	2,10331345	0,00055611101066569485	0,20019996346674864	0,00042108327	-0,52121893095697312	0,01944737910031055	0,59170466986834598
1	1	0	0	0	0	2	34460,21	0,200000003	2,10504675	0,00055610704154107302	0,20019853458188746	0,000421427278	-0,51232113944376045	0,019115390535744659	0,60060246138155866
1	1	0	0	0	0	2	34620,21	0,200000003	2,10961771	0,00055610871613274016	0,2001991374348865	0,000422343641	-0,50342336126918016	0,018783402468861078	0,60950023955613901
1	1	0	0	0	0	2	34780,21	0,200000003	2,10855103	0,00055611390729910803	0,20020100625477542	0,000422134035	-0,4945255505630681	0,01845141318818231	0,61839805026225114
1	1	0	0	0	0	2	34940,21	0,200000003	2,10822725	0,00055612196443892186	0,20020390682510304	0,000422075333	-0,48562768442770195	0,018119421839363546	0,62729591639761754
1	1	0	0	0	0	2	35100,21	0,200000003	2,11199832	0,00055611518737756544	0,20020146708301926	0,000422825164	-0,47672980637346726	0,01778743004583577	0,63619379445185254
1	1	0	0	0	0	2	35260,21	0,200000003	2,1106081	0,00055612143077204621	0,20020371470502816	0,000422551588	-0,46783196634713421	0,017455439671180131	0,6450916344781856
1	1	0	0	0	0	2	35420,21	0,200000003	2,11209369	0,0005561082791437705	0,20019898011885773	0,000422838988	-0,45893411314178195	0,017123448804797568	0,65398948768353779
1	1	0	0	0	0	2	35580,21	0,200000003	2,11493158	0,00055611150954746528	0,2002001430641857	0,000423409598	-0,45003623452017229	0,016791456990100269	0,66288736630514778
1	1	0	0	0	0	2	35740,21	0,200000003	2,11477923	0,00055611017819080096	0,20019966377578739	0,000423378078	-0,44113847015834458	0,016459469438589059	0,67178513066697549
1	1	0	0	0	0	2	35900,21	0,200000003	2,11702657	0,00055610290193143821	0,20019704432242173	0,000423822465	-0,43224072242869293	0,016127482507646698	0,68068287839662694
1	1	0	0	0	0	2	36060,21	0,200000003	2,1213119	0,0005561153467728032	0,20020152446530477	0,000424689875	-0,42334295379776614	0,015795494796849664	0,68958064702755366
1	1	0	0	0	0	2	36220,21	0,200000003	2,12127376	0,00055611215568747776	0,20020037567458976	0,000424679805	-0,41444516730164934	0,015463506419478365	0,6984784335236704
1	1	0	0	0	0	2	36380,21	0,200000003	2,12512112	0,00055610893869731155	0,2001992175581321	0,000425447593	-0,40554734549902086	0,015131516724773648	0,70737625532629901
1	1	0	0	0	0	2	36540,21	0,200000003	2,12809205	0,00055611050387389126	0,20019978102169971	0,000426043553	-0,39664955095788378	0,014799528047231827	0,71627404986743616
1	1	0	0	0	0	2	36700,21	0,200000003	2,13064432	0,0005561094888928864	0,20019941562853862	0,000426553743	-0,3877518458498	0,014467542706557472	0,72517175497552
1	1	0	0	0	0	2	36860,21	0,200000003	2,14094806	0,0005561144724628992	0,2002012097137399	0,000428620377	-0,37885409803277779	0,014135555772355197	0,73406950279254208
1	1	0	0	0	0	2	37020,21	0,200000003	2,1416719	0,00055611412933468819	0,20020108618758416	0,000428765052	-0,36995628755524544	0,013803566500205046	0,74296731327007475
1	1	0	0	0	0	2	37180,21	0,200000003	2,1389482	0,00055610986436158419	0,2001995507972696	0,000428216474	-0,36105846550576595	0,013471576796289984	0,7518651353195543
1	1	0	0	0	0	2	37340,21	0,200000003	2,147995	0,00055612008437597082	0,20020323000244192	0,00043003555	-0,35216059732605069	0,013139585371193805	0,76076300349926976
1	1	0	0	0	0	2	37500,21	0,200000003	2,15077567	0,00055611765375071098	0,20020235497735005	0,000430590357	-0,34326281638308499	0,01280759720101804	0,76966078444223565
1	1	0	0	0	0	2	37660,21	0,200000003	2,14527154	0,0005561176023756464	0,20020233648232678	0,000429488369	-0,33436495079124339	0,012475605872478907	0,77855865003407693
1	1	0	0	0	0	2	37820,21	0,200000003	2,14826179	0,00055611309326854022	0,20020071320377158	0,000430083543	-0,32546704537039526	0,012143613057865992	0,78745655545492493
1	1	0	0	0	0	2	37980,21	0,200000003	2,14793801	0,00055611461223082413	0,20020126003019277	0,000430019893	-0,31656920700310278	0,011811622745111389	0,79635439382221734
1	1	0	0	0	0	2	38140,21	0,200000003	2,14873791	0,0005561075584780839	0,20019872067921101	0,000430174579	-0,30767137111447693	0,01147963252483917	0,80525222971084326
1	1	0	0	0	0	2	38300,21	0,200000003	2,1523757	0,00055611772012048294	0,20020237887046784	0,000430910732	-0,29877348436535091	0,011147640406893306	0,81415011645996915
1	1	0	0	0	0	2	38460,21	0,200000003	2,15528965	0,00055611133090158304	0,20020007875166819	0,00043148917	-0,28987574221714266	0,010815653684202102	0,82304785860817702
1	1	0	0	0	0	2	38620,21	0,200000003	2,15460396	0,00055611655577272173	0,20020195970527462	0,000431355933	-0,2809780000120775	0,010483666959389496	0,83194560081324237
1	1	0	0	0	0	2	38780,21	0,200000003	2,15877509	0,00055611109209060672	0,2001999927797169	0,00043218676	-0,2720802458905463	0,010151679789957514	0,8408433549347735
1	1	0	0	0	0	2	38940,21	0,200000003	2,1580894	0,0005561133482447929	0,2002008049952224	0,000432051223	-0,26318249288678342	0,0098196926622309747	0,84974110793853606
1	1	0	0	0	0	2	39100,21	0,200000003	2,15940356	0,00055610855540550419	0,20019907957308163	0,000432310597	-0,25428474945522845	0,0094877058916563802	0,85863885137009114
1	1	0	0	0	0	2	39260,21	0,200000003	2,1610415	0,00055610351298335526	0,20019726430111146	0,00043263461	-0,24538700428585133	0,0091557190562413069	0,86753659653946829
1	1	0	0	0	0	2	39420,21	0,200000003	2,16309834	0,00055611023991886112	0,20019968599788902	0,000433051609	-0,23648923677750349	0,0088237313873291994	0,87643436404781606
1	1	0	0	0	0	2	39580,21	0,200000003	2,1619556	0,00055611666176302573	0,20020199786178397	0,00043282783	-0,22759149569096669	0,0084917447042503859	0,88533210513435302
1	1	0	0	0	0	2	39740,21	0,200000003	2,16286993	0,00055611247688780237	0,20020049130670637	0,000433007634	-0,21869377027863098	0,0081597586059970906	0,8942298305466889
1	1	0	0	0	0	2	39900,21	0,200000003	2,16427922	0,00055611061714175674	0,2001998217981312	0,000433288311	-0,20979601243727824	0,0078277712977735667	0,90312758838804186
1	1	0	0	0	0	2	40060,21	0,200000003	2,16359353	0,0005561082102093431	0,2001989553024639	0,000433149165	-0,20089826585281395	0,007495784409559689	0,91202533497250598
1	1	0	0	0	0	2	40220,21	0,200000003	2,16639328	0,00055611129548235072	0,20020006600074454	0,000433712092	-0,1920004845980911	0,0071637962277518464	0,92092311622722918
1	1	0	0	0	0	2	40380,21	0,200000003	2,16389823	0,00055610970413436493	0,20019949311547078	0,000433211331	-0,18310275553067024	0,006831809993122409	0,92982084529464998
1	1	0	0	0	0	2	40540,21	0,200000003	2,16500306	0,00055611131355000864	0,20020007250510144	0,000433433772	-0,17420500047464326	0,0064998227888231373	0,93871860035067699
1	1	0	0	0	0	2	40700,21	0,200000003	2,1661458	0,00055611474845972326	0,20020130907259635	0,000433665235	-0,1653071913606465	0,006167833567548329	0,94761640946467379
1	1	0	0	0	0	2	40860,21	0,200000003	2,16707897	0,00055611495026201005	0,20020138172141949	0,000433852198	-0,15640937256657981	0,0058358439850970957	0,95651422825874061
1	1	0	0	0	0	2	41020,21	0,200000003	2,17098331	0,00055611051827917498	0,20019978620760182	0,000434630405	-0,14751158504643027	0,0055038555695177619	0,96541201577888998
1	1	0	0	0	0	2	41180,21	0,200000003	2,17311645	0,0005561078314218256	0,20019881893895786	0,00043505535	-0,13861379669732421	0,005171867123008944	0,97430980412799603
1	1	0	0	0	0	2	41340,21	0,200000003	2,17338324	0,00055610570431997376	0,20019805318229261	0,000435107097	-0,1297160691024461	0,004839880943322057	0,98320753172287411
1	1	0	0	0	0	2	41500,21	0,200000003	2,17717314	0,00055611637758380832	0,20020189555726592	0,000435874186	-0,12081830311933558	0,0045078933313186054	0,99210529770598451
1	1	0	0	0	0	2	41660,21	0,200000003	2,17833495	0,00055611399747348499	0,2002010387175511	0,000436104921	-0,1119204856884544	0,0041759037997296576	1,0010031151368659
1	1	0	0	0	0	2	41820,21	0,200000003	2,17719221	0,00055611414135081901	0,20020109051339123	0,000435876253	-0,10302264801801562	0,0038439135129756032	1,0099009528073051
1	1	0	0	0	0	2	41980,21	0,200000003	2,17751598	0,00055611213281005626	0,20020036743871798	0,000435939495	-0,094124857748443738	0,0035119249948116243	1,0187987430768768
1	1	0	0	0	0	2	42140,21	0,200000003	2,17782092	0,00055611560918721894	0,20020161893449424	0,000436003262	-0,08522705329101271	0,003179935947279545	1,027696547534308
1	1	0	0	0	0	2	42300,21	0,200000003	2,17797327	0,00055611131115920019	0,20020007164441037	0,000436030416	-0,076329243820191155	0,0028479467126911242	1,0365943570051298
1	1	0	0	0	0	2	42460,21	0,200000003	2,17983961	0,00055611837017784518	0,20020261289111786	0,00043640958	-0,067431451485518694	0,0025159581174754666	1,0454921493398024
1	1	0	0	0	0	2	42620,21	0,200000003	2,18223953	0,00055611337787161267	0,2002008156608775	0,000436886126	-0,058533595990693325	0,0021839671656695834	1,0543900048346275
1	1	0	0	0	0	2	42780,21	0,200000003	2,18231559	0,00055611268221007456	0,20020056522272422	0,000436900824	-0,049635777334166816	0,0018519775883501606	1,0632878234911542
1	1	0	0	0	0	2	42940,21	0,200000003	2,18376303	0,00055611027315010624	0,20019969796113725	0,00043718869	-0,040737990060609984	0,0015199891819715312	1,072185610764711
1	1	0	0	0	0	2	43100,21	0,200000003	2,18572474	0,00055610676934735642	0,2001984365921497	0,000437578681	-0,031840215554434304	0,0011880012519610586	1,0810833852708867
1	1	0	0	0	0	2	43260,21	0,200000003	2,18759131	0,00055611316503336038	0,20020073903910678	0,000437957409	-0,022942440115891306	0,00085601328716270771	1,0899811607094294
1	1	0	0	0	0	2	43420,21	0,200000003	2,18911505	0,00055611286856979136	0,20020063231222214	0,000438262214	-0,01404468047580776	0,00052402591182612026	1,0988789203495133
1	1	0	0	0	0	2	43580,21	0,200000003	2,18964815	0,00055610772444225011	0,20019878042631075	0,000438364892	-0,0051469059521008608	0,0001920379811615343	1,1077766948732203
1	1	0	0	0	0	2	43740,21	0,200000003	2,19174337	0,00055611330174903072	0,20020078825674806	0,00043878876	0,0037508513178072954	-0,00013994930574062259	1,1166744521431286
1	1	0	0	0	0	2	43900,21	0,200000003	2,19286704	0,00055610741005341216	0,20019866724632928	0,000439009047	0,012648582662947568	-0,00047193562535483347	1,1255721834882688
1	1	0	0	0	0	2	44060,21	0,200000003	2,19610476	0,00055611776804510086	0,2002023961233303	0,000439665426	0,021546392236607866	-0,00080392486378030605	1,1344699930619293
1	1	0	0	0	0	2	44220,21	0,200000003	2,19700003	0,00055610926185548301	0,20019933389507357	0,000439837953	0,030444130604585939	-0,0011359114454260374	1,1433677314299075
1	1	0	0	0	0	2	44380,21	0,200000003	2,19943786	0,00055610898297776781	0,20019923349909626	0,000440325763	0,039341870889249056	-0,0014678980985858653	1,1522654717145702
1	1	0	0	0	0	2	44540,21	0,200000003	2,20054245	0,00055610269362148314	0,20019696933083802	0,000440541917	0,048239618601287514	-0,0017998850288710525	1,1611632194266086
1	1	0	0	0	0	2	44700,21	0,200000003	2,20298028	0,00055611373024764992	0,20020094251625069	0,000441038719	0,057137341625820544	-0,0021318710380322202	1,1700609424511414
1	1	0	0	0	0	2	44860,21	0,200000003	2,20581818	0,00055612356422013715	0,20020448274633946	0,000441614684	0,066035215464260928	-0,0024638626742630429	1,1789588162895824
1	1	0	0	0	0	2	45020,21	0,200000003	2,20821786	0,00055610696085790803	0,2001985055359481	0,000442081917	0,074933050892204122	-0,0027958528773465715	1,1878566517175256
1	1	0	0	0	0	2	45180,21	0,200000003	2,21065593	0,00055611480746583802	0,20020133031479766	0,000442576245	0,083830930917141427	-0,0031278447444039117	1,1967545317424629
1	1	0	0	0	0	2	45340,21	0,200000003	2,21320796	0,00055610410881208038	0,2001974787994521	0,000443078665	0,092728739458945165	-0,0034598339443294285	1,2056523402842666
1	1	0	0	0	0	2	45500,21	0,200000003	2,21581721	0,00055611325703892442	0,20020077216110979	0,000443608325	0,10162649661409699	-0,0037918212269498726	1,2145500974394181
1	1	0	0	0	0	2	45660,21	0,200000003	2,21846461	0,00055611701115634694	0,20020212364337942	0,000444141333	0,11052434199234522	-0,0041238118012926605	1,2234479428176664
1	1	0	0	0	0	2	45820,21	0,200000003	2,22141671	0,00055611576415018899	0,20020167472116336	0,000444731355	0,11942214113451464	-0,0044558006505051827	1,232345741959836
1	1	0	0	0	0	2	45980,21	0,200000003	2,22354984	0,00055611593326677875	0,20020173560313555	0,000445158541	0,1283199798318545	-0,004787790975574297	1,241243580657176
1	1	0	0	0	0	2	46140,21	0,200000003	2,22539735	0,00055611955557598016	0,20020303963444563	0,000445531303	0,13721789708840598	-0,0051197842317932205	1,2501414979137274
1	1	0	0	0	0	2	46300,21	0,200000003	2,22954917	0,00055612879383481216	0,20020636540761898	0,00044636993	0,14611580351020979	-0,0054517770837531405	1,259039404335531
1	1	0	0	0	0	2	46460,21	0,200000003	2,23295856	0,00055611376420242918	0,20020095473997117	0,000447040424	0,15501371947488768	-0,0057837702917705242	1,267937320300209
1	1	0	0	0	0	2	46620,21	0,200000003	2,23711038	0,00055611117419269344	0,20020002233646806	0,000447869534	0,1639114987996113	-0,0061157584015674982	1,2768350996249323
1	1	0	0	0	0	2	46780,21	0,200000003	2,24358606	0,00055611235238942842	0,20020044648729181	0,000449166924	0,17280935345725542	-0,006447749322137024	1,2857329542825763
1	1	0	0	0	0	2	46940,21	0,200000003	2,24823332	0,00055611584541698298	0,20020170397720912	0,000450100139	0,18170711650996074	-0,0067797368248031181	1,2946307173352816
1	1	0	0	0	0	2	47100,21	0,200000003	2,25518489	0,00055611196745766541	0,20020030791185738	0,000451488711	0,19060491279092349	-0,0071117255672601715	1,3035285136162445
1	1	0	0	0	0	2	47260,21	0,200000003	2,26390791	0,00055611047435634669	0,20019977039538368	0,000453233835	0,19950268042505952	-0,0074437132408656077	1,31242628125038
1	1	0	0	0	0	2	47420,21	0,200000003	2,27358317	0,0005561048364953863	0,2001977407654417	0,000455166213	0,20840044929646704	-0,0077757009606353037	1,3213240501217875
1	1	0	0	0	0	2	47580,21	0,200000003	2,2875247	0,00055611824979301958	0,20020256955258074	0,00045796833	0,21729829372155498	-0,0081076914994143987	1,330221894546876
1	1	0	0	0	0	2	47740,21	0,200000003	2,30910373	0,00055611875931339136	0,20020275297991418	0,00046228891	0,22619617468080669	-0,0084396834013322662	1,3391197755061282
1	1	0	0	0	0	2	47900,21	0,200000003	2,34460521	0,00055611354101035341	0,200200874390824	0,00046939202	0,23509401674162678	-0,0087716738518973504	1,3480176175669483
1	1	0	0	0	0	2	48060,21	0,200000003	2,55222368	0,00055612105722145894	0,20020358022681699	0,00051096431	0,24399188593252253	-0,0091036653147220339	1,3569154867578438
1	1	0	0	0	0	2	48220,21	0,200000003	2,70586634	0,00055611171424720032	0,20020021675609011	0,00054171501	0,25288977330465696	-0,009435657455913175	1,3658133741299786
1	1	0	0	0	0	2	48380,21	0,200000003	2,87080312	0,00055611822794957293	0,20020256168893994	0,000574742153	0,26178763152335754	-0,0097676485093505062	1,3747112323486792
1	1	0	0	0	0	2	48540,21	0,200000003	3,19833422	0,00055612363552964397	0,20020450841776186	0,000640320941	0,2706855363185936	-0,010099641300620995	1,3836091371439154
1	1	0	0	0	0	2	48670,79	0,200000003	3,50007725	3,2343983830677139E-005	0,20020347588351571	0,000700727629	0,27794740244197603	-0,010370591289367238	1,3908710032672979