File: Experimentelles/Rohdaten/Batterietests/AlteZelle/Studenten_Batterietests/S vs Li GCPL 200µm/ZView-Export/S vs Li GCPL 200µm_01_OCV_C05_loop0.txt
EC-Lab ASCII FILE
Nb header lines : 3
mode	error	time/s	Ewe/V
3	1	0,00	2,18191576
3	0	5,00	2,18147755
3	0	10,00	2,18054438
3	0	15,00	2,18029666
3	0	20,00	2,18145847
3	0	25,00	2,1804111
3	0	30,00	2,18083
3	0	35,00	2,18263936
3	0	40,00	2,18220139
3	0	45,00	2,1813252
3	0	50,00	2,18134427
3	0	55,00	2,18025875
3	0	60,00	2,18048716
3	0	65,00	2,1804111
3	0	70,00	2,18014431
3	0	75,00	2,18460107
3	0	80,00	2,18528676
3	0	85,00	2,18418217
3	0	90,00	2,18191576
3	0	95,00	2,18161082
3	0	100,00	2,18056345
3	0	105,00	2,18046808
3	0	110,00	2,17953491
3	0	115,00	2,17928743
3	0	120,00	2,17959213
3	0	125,00	2,17909694
3	0	130,00	2,17892551
3	0	135,00	2,17949677
3	0	140,00	2,17896366
3	0	145,00	2,17905879
3	0	150,00	2,17905879
3	0	155,00	2,17903972
3	0	160,00	2,17919207
3	0	165,00	2,17888737
3	0	170,00	2,17865872
3	0	175,00	2,17869687
3	0	180,00	2,17844939
3	0	185,00	2,17865872
3	0	190,00	2,17810655
3	0	195,00	2,17877316
3	0	200,00	2,17822075
3	0	205,00	2,1781826
3	0	210,00	2,18003011
3	0	215,00	2,18109679
3	0	220,00	2,18037295
3	0	225,00	2,18001103
3	0	230,00	2,18029666
3	0	235,00	2,18050623
3	0	240,00	2,17961121
3	0	245,00	2,17934442
3	0	250,00	2,17919207
3	0	255,00	2,17892551
3	0	260,00	2,17903972
3	0	265,00	2,17919207
3	0	270,00	2,17883015
3	0	275,00	2,17907786
3	0	280,00	2,17886829
3	0	285,00	2,18043017
3	0	290,00	2,17833495
3	0	295,00	2,1782589
3	0	300,00	2,17820168
3	0	305,00	2,17803025
3	0	310,00	2,17747808
3	0	315,00	2,1780684
3	0	320,00	2,1779542
3	0	325,00	2,1776495
3	0	330,00	2,17726851
3	0	335,00	2,17694473
3	0	340,00	2,17688751
3	0	345,00	2,17702079
3	0	350,00	2,17728758
3	0	355,00	2,17724943
3	0	360,00	2,17703986
3	0	365,00	2,17683053
3	0	370,00	2,17721128
3	0	375,00	2,17719221
3	0	380,00	2,17709708
3	0	385,00	2,17723036
3	0	390,00	2,17677331
3	0	395,00	2,17650676
3	0	400,00	2,17660189
3	0	405,00	2,17637324
3	0	410,00	2,17654467
3	0	415,00	2,17641139
3	0	420,00	2,17660189
3	0	425,00	2,17662096
3	0	430,00	2,17677331
3	0	435,00	2,17665911
3	0	440,00	2,17408776
3	0	445,00	2,17446876
3	0	450,00	2,17412591
3	0	455,00	2,17425919
3	0	460,00	2,17387843
3	0	465,00	2,17635417
3	0	470,00	2,17675424
3	0	475,00	2,17616391
3	0	480,00	2,17524958
3	0	485,00	2,17544007
3	0	490,00	2,17574477
3	0	495,00	2,17574477
3	0	500,00	2,17643046
3	0	505,00	2,17629719
3	0	510,00	2,17850637
3	0	515,00	2,177459
3	0	520,00	2,17728758
3	0	525,00	2,17662096
3	0	530,00	2,17671609
3	0	535,00	2,17753506
3	0	540,00	2,17865872
3	0	545,00	2,17886829
3	0	550,00	2,17774463
3	0	555,00	2,1771543
3	0	560,00	2,17753506
3	0	565,00	2,17730665
3	0	570,00	2,1771543
3	0	575,00	2,18105865
3	0	580,00	2,18134427
3	0	585,00	2,18023968
3	0	590,00	2,17999196
3	0	595,00	2,18244886
3	0	600,00	2,18077302
3	0	605,00	2,18063951
3	0	610,00	2,18003011
3	0	615,00	2,18027782
3	0	620,00	2,1799159
3	0	625,00	2,18111563
3	0	630,00	2,17974448
3	0	635,00	2,18025875
3	0	640,00	2,17961121
3	0	645,00	2,17938256
3	0	650,00	2,17947769
3	0	655,00	2,17919207
3	0	660,00	2,17943978
3	0	665,00	2,17953491
3	0	670,00	2,17930627
3	0	675,00	2,17921114
3	0	680,00	2,18023968
3	0	685,00	2,17955399
3	0	690,00	2,17917299
3	0	695,00	2,17911601
3	0	700,00	2,1782589
3	0	705,00	2,17879224
3	0	710,00	2,17846847
3	0	715,00	2,17831588
3	0	720,00	2,1789825
3	0	725,00	2,17839217
3	0	730,00	2,17829704
3	0	735,00	2,1778779
3	0	740,00	2,17822075
3	0	745,00	2,17844939
3	0	750,00	2,17841125
3	0	755,00	2,1782589
3	0	760,00	2,17943978
3	0	765,00	2,17673516
3	0	770,00	2,17559242
3	0	775,00	2,17429733
3	0	780,00	2,17355442
3	0	785,00	2,17305946
3	0	790,00	2,1724689
3	0	795,00	2,17250705
3	0	800,00	2,1756115
3	0	805,00	2,17578292
3	0	810,00	2,1757257
3	0	815,00	2,17587805
3	0	820,00	2,17578292
3	0	825,00	2,17610669
3	0	830,00	2,17622089
3	0	835,00	2,17709708
3	0	840,00	2,17677331
3	0	845,00	2,17724943
3	0	850,00	2,17610669
3	0	855,00	2,17286897
3	0	860,00	2,17123103
3	0	865,00	2,1717453
3	0	870,00	2,1718595
3	0	875,00	2,17302132
3	0	880,00	2,17342114
3	0	885,00	2,17315459
3	0	890,00	2,17477345
3	0	895,00	2,17389727
3	0	900,00	2,17424011
3	0	905,00	2,17559242
3	0	910,00	2,17545915
3	0	915,00	2,17639232
3	0	920,00	2,17873502
3	0	925,00	2,17892551
3	0	930,00	2,17968726
3	0	935,00	2,17957306
3	0	940,00	2,18012524
3	0	945,00	2,18027782
3	0	950,00	2,18084908
3	0	955,00	2,19189572
3	0	960,00	2,19631433
3	0	965,00	2,19736171
3	0	970,00	2,20056152
3	0	975,00	2,20229459
3	0	980,00	2,20221853
3	0	985,00	2,20172334
3	0	990,00	2,20237088
3	0	995,00	2,20332313
3	0	1000,00	2,20309472
3	0	1005,00	2,20480871
3	0	1010,00	2,20435166
3	0	1015,00	2,20446587
3	0	1020,00	2,20391369
3	0	1025,00	2,20389462
3	0	1030,00	2,20341849
3	0	1035,00	2,20288515
3	0	1040,00	2,20269465
3	0	1045,00	2,20269465
3	0	1050,00	2,20202804
3	0	1055,00	2,20208526
3	0	1060,00	2,20200896
3	0	1065,00	2,20160913
3	0	1070,00	2,20229459
3	0	1075,00	2,20214224
3	0	1080,00	2,202847
3	0	1085,00	2,20398974
3	0	1090,00	2,20530391
3	0	1095,00	2,20444679
3	0	1100,00	2,20378017
3	0	1105,00	2,20638943
3	0	1110,00	2,20507526
3	0	1115,00	2,20553255
3	0	1120,00	2,20509434
3	0	1125,00	2,20429444
3	0	1130,00	2,20385647
3	0	1135,00	2,20435166
3	0	1140,00	2,20459914
3	0	1145,00	2,20435166
3	0	1150,00	2,20418024
3	0	1155,00	2,20499921
3	0	1160,00	2,20467544
3	0	1165,00	2,20515156
3	0	1170,00	2,2059896
3	0	1175,00	2,20600867
3	0	1180,00	2,20454216
3	0	1185,00	2,20326614
3	0	1190,00	2,20277095
3	0	1195,00	2,20250416
3	0	1200,00	2,20269465
3	0	1205,00	2,20286608
3	0	1210,00	2,20296121
3	0	1215,00	2,20269465
3	0	1220,00	2,20397067
3	0	1225,00	2,20231366
3	0	1230,00	2,20829415
3	0	1235,00	2,2030375
3	0	1240,00	2,20227575
3	0	1245,00	2,20244718
3	0	1250,00	2,20309472
3	0	1255,00	2,20299935
3	0	1260,00	2,20301843
3	0	1265,00	2,20298028
3	0	1270,00	2,2034564
3	0	1275,00	2,20347548
3	0	1280,00	2,2042563
3	0	1285,00	2,20412302
3	0	1290,00	2,20393252
3	0	1295,00	2,20499921
3	0	1300,00	2,2062943
3	0	1305,00	2,20753241
3	0	1310,00	2,20597053
3	0	1315,00	2,2051897
3	0	1320,00	2,20494199
3	0	1325,00	2,20589447
3	0	1330,00	2,20433259
3	0	1335,00	2,20848465
3	0	1340,00	2,21069384
3	0	1345,00	2,20294213
3	0	1350,00	2,20259953
3	0	1355,00	2,20379925
3	0	1360,00	2,20452309
3	0	1365,00	2,20383739
3	0	1370,00	2,2062943
3	0	1375,00	2,20404696
3	0	1380,00	2,20389462
3	0	1385,00	2,2036469
3	0	1390,00	2,20726562
3	0	1395,00	2,20452309
3	0	1400,00	2,20490408
3	0	1405,00	2,20557046
3	0	1410,00	2,20478964
3	0	1415,00	2,20509434
3	0	1420,00	2,20421839
3	0	1425,00	2,20402789
3	0	1430,00	2,20393252
3	0	1435,00	2,20397067
3	0	1440,00	2,20351362
3	0	1445,00	2,20296121
3	0	1450,00	2,20846558
3	0	1455,00	2,20459914
3	0	1460,00	2,20393252
3	0	1465,00	2,20341849
3	0	1470,00	2,20381832
3	0	1475,00	2,20250416
3	0	1480,00	2,20252323
3	0	1485,00	2,20166612
3	0	1490,00	2,20256138
3	0	1495,00	2,20265651
3	0	1500,00	2,20299935
3	0	1505,00	2,20402789
3	0	1510,00	2,20517063
3	0	1515,00	2,20842743
3	0	1520,00	2,20675135
3	0	1525,00	2,20625615
3	0	1530,00	2,20498013
3	0	1535,00	2,20545626
3	0	1540,00	2,20511341
3	0	1545,00	2,2054944
3	0	1550,00	2,20469451
3	0	1555,00	2,20416117
3	0	1560,00	2,20473266
3	0	1565,00	2,20488501
3	0	1570,00	2,20456123
3	0	1575,00	2,20543718
3	0	1580,00	2,20423746
3	0	1585,00	2,20515156
3	0	1590,00	2,20475149
3	0	1595,00	2,20498013
3	0	1600,00	2,20532298
3	0	1605,00	2,20555162
3	0	1610,00	2,20509434
3	0	1615,00	2,20772266
3	0	1620,00	2,20534205
3	0	1625,00	2,20480871
3	0	1630,00	2,20484686
3	0	1635,00	2,20665622
3	0	1640,00	2,20755124
3	0	1645,00	2,20798945
3	0	1650,00	2,20798945
3	0	1655,00	2,2078371
3	0	1660,00	2,2092464
3	0	1665,00	2,21202707
3	0	1670,00	2,20736098
3	0	1675,00	2,20772266
3	0	1680,00	2,20856071
3	0	1685,00	2,20701814
3	0	1690,00	2,206599
3	0	1695,00	2,20589447
3	0	1700,00	2,20438981
3	0	1705,00	2,20427537
3	0	1710,00	2,20398974
3	0	1715,00	2,20423746
3	0	1720,00	2,20341849
3	0	1725,00	2,20358992
3	0	1730,00	2,20330405
3	0	1735,00	2,20318985
3	0	1740,00	2,20317078
3	0	1745,00	2,20311356
3	0	1750,00	2,202847
3	0	1755,00	2,20307565
3	0	1760,00	2,20290422
3	0	1765,00	2,20271373
3	0	1770,00	2,20238996
3	0	1775,00	2,20269465
3	0	1780,00	2,20202804
3	0	1785,00	2,20216131
3	0	1790,00	2,20256138
3	0	1795,00	2,20339942
3	0	1800,00	2,20235181
3	0	1805,00	2,20122814
3	0	1810,00	2,20105672
3	0	1815,00	2,20092344
3	0	1820,00	2,2006948
3	0	1825,00	2,20090437
3	0	1830,00	2,20117092
3	0	1835,00	2,20117092
3	0	1840,00	2,20090437
3	0	1845,00	2,20139956
3	0	1850,00	2,20077109
3	0	1855,00	2,20063782
3	0	1860,00	2,20073295
3	0	1865,00	2,2005043
3	0	1870,00	2,20042825
3	0	1875,00	2,20096159
3	0	1880,00	2,20042825
3	0	1885,00	2,20044732
3	0	1890,00	2,20170426
3	0	1895,00	2,20244718
3	0	1900,00	2,20103765
3	0	1905,00	2,20193291
3	0	1910,00	2,20358992
3	0	1915,00	2,20341849
3	0	1920,00	2,20250416
3	0	1925,00	2,20200896
3	0	1930,00	2,20200896
3	0	1935,00	2,20216131
3	0	1940,00	2,20168519
3	0	1945,00	2,20073295
3	0	1950,00	2,20042825
3	0	1955,00	2,20105672
3	0	1960,00	2,20124722
3	0	1965,00	2,20092344
3	0	1970,00	2,20073295
3	0	1975,00	2,20061874
3	0	1980,00	2,20033288
3	0	1985,00	2,2006948
3	0	1990,00	2,20048523
3	0	1995,00	2,20033288
3	0	2000,00	2,20128536
3	0	2005,00	2,20174241
3	0	2010,00	2,20136142
3	0	2015,00	2,20138049
3	0	2020,00	2,20132327
3	0	2025,00	2,20143771
3	0	2030,00	2,20096159
3	0	2035,00	2,20328498
3	0	2040,00	2,2030375
3	0	2045,00	2,20294213
3	0	2050,00	2,202847
3	0	2055,00	2,2031517
3	0	2060,00	2,20301843
3	0	2065,00	2,20328498
3	0	2070,00	2,20343733
3	0	2075,00	2,20309472
3	0	2080,00	2,20320892
3	0	2085,00	2,20625615
3	0	2090,00	2,20806551
3	0	2095,00	2,21589351
3	0	2100,00	2,2118175
3	0	2105,00	2,2093606
3	0	2110,00	2,21016073
3	0	2115,00	2,2104845
3	0	2120,00	2,21225572
3	0	2125,00	2,21654105
3	0	2130,00	2,21716952
3	0	2135,00	2,21223664
3	0	2140,00	2,20903683
3	0	2145,00	2,20899892
3	0	2150,00	2,20705605
3	0	2155,00	2,20650387
3	0	2160,00	2,20471358
3	0	2165,00	2,20741796
3	0	2170,00	2,20427537
3	0	2175,00	2,20256138
3	0	2180,00	2,20416117
3	0	2185,00	2,20572305
3	0	2190,00	2,20625615
3	0	2195,00	2,20762753
3	0	2200,00	2,21014166
3	0	2205,00	2,21012259
3	0	2210,00	2,21204615
3	0	2215,00	2,21149373
3	0	2220,00	2,21223664
3	0	2225,00	2,2121985
3	0	2230,00	2,21286511
3	0	2235,00	2,21164608
3	0	2240,00	2,21002722
3	0	2245,00	2,20747519
3	0	2250,00	2,20743704
3	0	2255,00	2,2081418
3	0	2260,00	2,20741796
3	0	2265,00	2,20566583
3	0	2270,00	2,20534205
3	0	2275,00	2,20616102
3	0	2280,00	2,20591331
3	0	2285,00	2,20492291
3	0	2290,00	2,20560861
3	0	2295,00	2,20513248
3	0	2300,00	2,20452309
3	0	2305,00	2,20459914
3	0	2310,00	2,20440888
3	0	2315,00	2,20419931
3	0	2320,00	2,20389462
3	0	2325,00	2,20393252
3	0	2330,00	2,20358992
3	0	2335,00	2,20360875
3	0	2340,00	2,20827508
3	0	2345,00	2,20947504
3	0	2350,00	2,20808458
3	0	2355,00	2,20856071
3	0	2360,00	2,20920825
3	0	2365,00	2,20941782
3	0	2370,00	2,21044636
3	0	2375,00	2,2104845
3	0	2380,00	2,20873213
3	0	2385,00	2,20888448
3	0	2390,00	2,20871305
3	0	2395,00	2,20840836
3	0	2400,00	2,20823693
3	0	2405,00	2,20907497
3	0	2410,00	2,21276999
3	0	2415,00	2,20816088
3	0	2420,00	2,20816088
3	0	2425,00	2,20755124
3	0	2430,00	2,20736098
3	0	2435,00	2,20739889
3	0	2440,00	2,20819879
3	0	2445,00	2,20808458
3	0	2450,00	2,2078371
3	0	2455,00	2,2095511
3	0	2460,00	2,22132158
3	0	2465,00	2,22196913
3	0	2470,00	2,22254038
3	0	2475,00	2,22040725
3	0	2480,00	2,21918845
3	0	2485,00	2,21863604
3	0	2490,00	2,21880746
3	0	2495,00	2,21947408
3	0	2500,00	2,21846461
3	0	2505,00	2,21939778
3	0	2510,00	2,22063589
3	0	2515,00	2,2202549
3	0	2520,00	2,219455
3	0	2525,00	2,21901703
3	0	2530,00	2,22457838
3	0	2535,00	2,22495914
3	0	2540,00	2,23128247
3	0	2545,00	2,21429348
3	0	2550,00	2,21176052
3	0	2555,00	2,21042728
3	0	2560,00	2,21141768
3	0	2565,00	2,21122718
3	0	2570,00	2,20997024
3	0	2575,00	2,21183658
3	0	2580,00	2,21155095
3	0	2585,00	2,21088433
3	0	2590,00	2,21082711
3	0	2595,00	2,2104845
3	0	2600,00	2,21006536
3	0	2605,00	2,21042728
3	0	2610,00	2,21136045
3	0	2615,00	2,21250319
3	0	2620,00	2,21198893
3	0	2625,00	2,21214128
3	0	2630,00	2,21271276
3	0	2635,00	2,2123127
3	0	2640,00	2,21383643
3	0	2645,00	2,21433163
3	0	2650,00	2,21400785
3	0	2655,00	2,21358895
3	0	2660,00	2,21366501
3	0	2665,00	2,21362686
3	0	2670,00	2,21339846
3	0	2675,00	2,21410322
3	0	2680,00	2,21459818
3	0	2685,00	2,21713138
3	0	2690,00	2,21564579
3	0	2695,00	2,21549344
3	0	2700,00	2,21488404
3	0	2705,00	2,21419835
3	0	2710,00	2,2146554
3	0	2715,00	2,21197009
3	0	2720,00	2,21164608
3	0	2725,00	2,21195102
3	0	2730,00	2,21212244
3	0	2735,00	2,21545529
3	0	2740,00	2,21488404
3	0	2745,00	2,2118175
3	0	2750,00	2,2147696
3	0	2755,00	2,21469355
3	0	2760,00	2,21379828
3	0	2765,00	2,21494102
3	0	2770,00	2,21562672
3	0	2775,00	2,21490312
3	0	2780,00	2,21452212
3	0	2785,00	2,21459818
3	0	2790,00	2,21379828
3	0	2795,00	2,20317078
3	0	2800,00	2,18932438
3	0	2805,00	2,18978167
3	0	2810,00	2,18983865
3	0	2815,00	2,19073391
3	0	2820,00	2,19665718
3	0	2825,00	2,19776177
3	0	2830,00	2,1975143
3	0	2835,00	2,19800949
3	0	2840,00	2,19974256
3	0	2845,00	2,1947906
3	0	2850,00	2,19646668
3	0	2855,00	2,19599056
3	0	2860,00	2,19623804
3	0	2865,00	2,19355273
3	0	2870,00	2,19265747
3	0	2875,00	2,19444776
3	0	2880,00	2,19532394
3	0	2885,00	2,19839025
3	0	2890,00	2,19562864
3	0	2895,00	2,19604754
3	0	2900,00	2,19560957
3	0	2905,00	2,19631433
3	0	2910,00	2,19667625
3	0	2915,00	2,19541907
3	0	2920,00	2,19545722
3	0	2925,00	2,19604754
3	0	2930,00	2,19720936
3	0	2935,00	2,1970191
3	0	2940,00	2,19970441
3	0	2945,00	2,19919014
3	0	2950,00	2,20221853
3	0	2955,00	2,20096159
3	0	2960,00	2,200809
3	0	2965,00	2,19875216
3	0	2970,00	2,20029497
3	0	2975,00	2,20046639
3	0	2980,00	2,20183754
3	0	2985,00	2,20357084
3	0	2990,00	2,20414209
3	0	2995,00	2,20461822
3	0	3000,00	2,2061038
3	0	3005,00	2,20555162
3	0	3010,00	2,20541811
3	0	3015,00	2,20663714
3	0	3020,00	2,20456123
3	0	3025,00	2,20469451
3	0	3030,00	2,20389462
3	0	3035,00	2,20349455
3	0	3040,00	2,20341849
3	0	3045,00	2,20440888
3	0	3050,00	2,20499921
3	0	3055,00	2,20564675
3	0	3060,00	2,20509434
3	0	3065,00	2,20499921
3	0	3070,00	2,20515156
3	0	3075,00	2,20541811
3	0	3080,00	2,20532298
3	0	3085,00	2,20492291
3	0	3090,00	2,2080276
3	0	3095,00	2,20597053
3	0	3100,00	2,20747519
3	0	3105,00	2,20002818
3	0	3110,00	2,1999712
3	0	3115,00	2,20075202
3	0	3120,00	2,1999712
3	0	3125,00	2,19882846
3	0	3130,00	2,19810462
3	0	3135,00	2,19846654
3	0	3140,00	2,1980474
3	0	3145,00	2,19440961
3	0	3150,00	2,19303846
3	0	3155,00	2,19351459
3	0	3160,00	2,1958952
3	0	3165,00	2,19336224
3	0	3170,00	2,19227648
3	0	3175,00	2,19046712
3	0	3180,00	2,18812466
3	0	3185,00	2,18730569
3	0	3190,00	2,18275356
3	0	3195,00	2,18231559
3	0	3200,00	2,18157291
3	0	3205,00	2,18338227
3	0	3210,00	2,18328691
3	0	3215,00	2,18239188
3	0	3220,00	2,18454409
3	0	3225,00	2,18410587
3	0	3230,00	2,18465829
3	0	3235,00	2,18267751
3	0	3240,00	2,18296313
3	0	3245,00	2,18248701
3	0	3250,00	2,18271565
3	0	3255,00	2,18239188
3	0	3260,00	2,18229651
3	0	3265,00	2,18357253
3	0	3270,00	2,18313456
3	0	3275,00	2,18098235
3	0	3280,00	2,18119192
3	0	3285,00	2,18155384
3	0	3290,00	2,18170619
3	0	3295,00	2,18182039
3	0	3300,00	2,18187761
3	0	3305,00	2,1804111
3	0	3310,00	2,18003011
3	0	3315,00	2,18296313
3	0	3320,00	2,18176317
3	0	3325,00	2,18119192
3	0	3330,00	2,18098235
3	0	3335,00	2,1802206
3	0	3340,00	2,18284893
3	0	3345,00	2,18033481
3	0	3350,00	2,18058252
3	0	3355,00	2,17989683
3	0	3360,00	2,18050623
3	0	3365,00	2,18183947
3	0	3370,00	2,18044925
3	0	3375,00	2,18079185
3	0	3380,00	2,18035388
3	0	3385,00	2,17862082
3	0	3390,00	2,17873502
3	0	3395,00	2,17829704
3	0	3400,00	2,17911601
3	0	3405,00	2,17909694
3	0	3410,00	2,18309641
3	0	3415,00	2,18311548
3	0	3420,00	2,18111563
3	0	3425,00	2,18065858
3	0	3430,00	2,18033481
3	0	3435,00	2,17980146
3	0	3440,00	2,17951584
3	0	3445,00	2,18134427
3	0	3450,00	2,17875409
3	0	3455,00	2,1783731
3	0	3460,00	2,17871594
3	0	3465,00	2,17843032
3	0	3470,00	2,18079185
3	0	3475,00	2,18338227
3	0	3480,00	2,18315363
3	0	3485,00	2,1869247
3	0	3490,00	2,18761039
3	0	3495,00	2,18762946
3	0	3500,00	2,18810558
3	0	3505,00	2,18869591
3	0	3510,00	2,18778181
3	0	3515,00	2,18500113
3	0	3520,00	2,18383932
3	0	3525,00	2,18307734
3	0	3530,00	2,1806016
3	0	3535,00	2,18067765
3	0	3540,00	2,18296313
3	0	3545,00	2,18185854
3	0	3550,00	2,1799159
3	0	3555,00	2,17995405
3	0	3560,00	2,18566775
3	0	3565,00	2,18503928
3	0	3570,00	2,18382025
3	0	3575,00	2,18357253
3	0	3580,00	2,18265843
3	0	3585,00	2,18185854
3	0	3590,00	2,18235373
3	0	3595,00	2,18216324
3	0	3600,00	2,17934442