File: Experimentelles/Rohdaten/Batterietests/AlteZelle/Studenten_Batterietests/S vs Li GCPL 200µm/ZView-Export/S vs Li GCPL 200µm_02_GCPL_C05_loop9.txt
EC-Lab ASCII FILE
Nb header lines : 3
mode	ox/red	error	control changes	Ns changes	counter inc.	Ns	time/s	control/V/mA	Ewe/V	dq/mA.h	<I>/mA	P/W	(Q-Qo)/mA.h	x	Capacity/mA.h
1	0	0	1	1	0	1	138742,22	-0,200000003	3,05032945	0	0	0	0	0	0
1	0	0	1	0	0	1	138752,22	-0,200000003	1,64209974	-0,00055203197428449254	-0,19873147964845427	0,000326336914	-0,00055203197428449254	2,0597055175437667E-005	0,00055203197428449254
1	0	0	1	0	0	1	138762,22	-0,200000003	1,54767048	-0,00055477064544376397	-0,19971740111153258	0,000309096737	-0,0011068026197282566	4,1296293854010291E-005	0,0011068026197282566
1	0	0	1	0	0	1	138772,22	-0,200000003	1,5367763	-0,00055477289654148954	-0,19971821150658698	0,000306922215	-0,0016615755162697462	6,1995616524065677E-005	0,0016615755162697462
1	0	0	1	0	0	1	138782,22	-0,200000003	1,55643165	-0,00055477177904794605	-0,19971780920897424	0,000310847128	-0,0022163472953176922	8,269489749893449E-005	0,0022163472953176922
1	0	0	1	0	0	1	138792,22	-0,200000003	1,66200256	-0,00055477393985208531	-0,19971858709834266	0,000331932795	-0,0027711212351697773	0,00010339425909631094	0,0027711212351697773
1	0	0	1	0	0	1	138802,22	-0,200000003	1,66600227	-0,00055477218073854842	-0,19971795381756848	0,00033273056	-0,0033258934159083258	0,00012409355505879621	0,0033258934159083258
1	0	0	1	0	0	1	138812,22	-0,200000003	1,66021228	-0,00055477008264015123	-0,19971719850226368	0,000331572955	-0,0038806634985484774	0,00014479277273840934	0,0038806634985484774
1	0	0	1	0	0	1	138822,22	-0,200000003	1,64817536	-0,00055477586608214509	-0,19971928054105571	0,000329172384	-0,0044354393646306221	0,00016549220620601917	0,0044354393646306221
1	0	0	1	0	0	1	138832,22	-0,200000003	1,62806296	-0,00055477506170173485	-0,19971899096415331	0,000325155095	-0,0049902144263323565	0,0001861916096611144	0,0049902144263323565
1	0	0	1	0	0	1	138842,22	-0,200000003	1,60937905	-0,00055477062405894202	-0,19971739341299786	0,000321420986	-0,0055449850503912986	0,00020689084754179053	0,0055449850503912986
1	0	0	1	0	0	1	138852,22	-0,200000003	1,59374237	-0,00055477038631008736	-0,19971730782342355	0,000318297942	-0,0060997554367013862	0,00022759007655173728	0,0060997554367013862
1	0	0	1	0	0	1	138862,22	-0,200000003	1,57014465	-0,00055477029067277914	-0,19971727339516051	0,000313585013	-0,0066545257273741645	0,00024828930199332742	0,0066545257273741645
1	0	0	1	0	0	1	138872,22	-0,200000003	1,55637443	-0,00055476619257281222	-0,19971579807824077	0,000310832547	-0,0072092919199469773	0,00026898837452929792	0,0072092919199469773
1	0	0	1	0	0	1	138882,22	-0,200000003	1,53871894	-0,00055477296769618995	-0,1997182371222751	0,000307310227	-0,007764064887643168	0,00028968769985423091	0,007764064887643168
1	0	0	1	0	0	1	138892,22	-0,200000003	1,52372992	-0,00055477811496704819	-0,19972009013949411	0,000304319488	-0,0083188430026102157	0,00031038721723076006	0,0083188430026102157
1	0	0	1	0	0	1	138902,22	-0,200000003	1,50184631	-0,00055477569386528595	-0,19971921854299613	0,000299947569	-0,0088736186964755021	0,00033108664427272742	0,0088736186964755021
1	0	0	1	0	0	1	138903,40	-0,200000003	1,50001788	-6,547460385246409E-005	-0,19971914666044486	0,000299582287	-0,0089390933003279654	0,00033352958977400397	0,0089390933003279654
1	1	0	0	1	0	2	138903,40	0,200000003	2,32379127	9,8259664244121971E-009	0,058955807185154714	0,000137000985	-0,0089390834743615424	0,00033352922315398554	9,8259664244121971E-009
1	1	0	0	0	0	2	138913,40	0,200000003	2,71956038	0,0005561081988587975	0,20019892025628262	0,00054445304	-0,0083829752755027443	0,0003127800785591383	0,00055611802482522195
1	1	0	0	0	0	2	138923,40	0,200000003	2,41208458	0,00055611636242849958	0,20020185915023802	0,000482903823	-0,0078268589130742451	0,00029203062937052954	0,0011122343872537214
1	1	0	0	0	0	2	138933,40	0,200000003	2,4418149	0,00055613249291396806	0,20020766612409811	0,000488870079	-0,0072707264201602778	0,00027128057833182013	0,0016683668801676896
1	1	0	0	0	0	2	138943,40	0,200000003	2,4439671	0,00055613386636061792	0,20020816056481469	0,000489302154	-0,0067145925537996595	0,0002505304760479697	0,0022245007465283075
1	1	0	0	0	0	2	138953,40	0,200000003	2,42806387	0,00055613883967945971	0,20020995095931763	0,000486122561	-0,0061584537141201997	0,00022978018820290656	0,002780639586207767
1	1	0	0	0	0	2	138963,40	0,200000003	2,4743073	0,00055614181193129888	0,20021102096981229	0,000495383574	-0,0056023119021889005	0,00020902978945913107	0,0033367813981390656
1	1	0	0	0	0	2	138973,40	0,200000003	2,45053792	0,00055613698201295405	0,20020928219948019	0,000490620441	-0,0050461749201759462	0,00018827957092610291	0,0038929183801520198
1	1	0	0	0	0	2	138983,40	0,200000003	2,42132163	0,00055613061601089101	0,2002069904390961	0,000484765507	-0,0044900443041650554	0,00016752958991717091	0,0044490489961629107
1	1	0	0	0	0	2	138993,40	0,200000003	2,40539932	0,0005561341565325856	0,20020826502670672	0,000481580821	-0,0039339101476324704	0,00014677947680661421	0,0050051831526954957
1	1	0	0	0	0	2	139003,40	0,200000003	2,4019711	0,00055613099509974323	0,2002071269110615	0,000480891729	-0,003377779152532727	0,00012602948165336744	0,005561314147795239
1	1	0	0	0	0	2	139013,40	0,200000003	2,4025805	0,00055613110237154694	0,20020716552890483	0,00048101382	-0,0028216480501611798	0,00010527948249766544	0,0061174452501667853
1	1	0	0	0	0	2	139023,40	0,200000003	2,40330434	0,00055613185195542048	0,20020743537905709	0,000481159397	-0,0022655161982057594	8,4529455373981299E-005	0,0066735771021222067
1	1	0	0	0	0	2	139033,40	0,200000003	2,38069701	0,00055613164483755821	0,20020736081663834	0,000476633053	-0,0017093845533682013	6,3779435978143078E-005	0,0072297087469597645
1	1	0	0	0	0	2	139043,40	0,200000003	2,39092445	0,00055613312300542995	0,20020789295698886	0,000478681934	-0,0011532514303627715	4,3029361429874131E-005	0,0077858418699651942
1	1	0	0	0	0	2	139053,40	0,200000003	2,39246726	0,00055613447211020525	0,200208378634632	0,000478991977	-0,00059711695825256614	2,2279236544692134E-005	0,0083419763420753997
1	1	0	0	0	0	2	139063,40	0,200000003	2,40128541	0,00055613226175308218	0,20020758290619222	0,000480755552	-4,0984696499483942E-005	1,5291941309062534E-006	0,0088981086038284826
1	1	0	0	0	0	2	139073,40	0,200000003	2,40732312	0,0005561323268868857	0,20020760635435782	0,000481964409	0,00051514763038740179	-1,9220850713109408E-005	0,009454240930715369
1	1	0	0	0	0	2	139083,40	0,200000003	2,40557075	0,00055613487497468787	0,20020852366582307	0,000481615774	0,0010712825053620896	-3,9970990629706912E-005	0,010010375805690058
1	1	0	0	0	0	2	139093,40	0,200000003	2,40128541	0,00055613454982472794	0,20020840661185581	0,000480757531	0,0016274170551868179	-6,072111841452224E-005	0,010566510355514784
1	1	0	0	0	0	2	139103,40	0,200000003	2,41059899	0,00055613476849926835	0,20020848533467805	0,000482622359	0,0021835518236860861	-8,1471254358378688E-005	0,011122645124014053
1	1	0	0	0	0	2	139113,40	0,200000003	2,41004658	0,00055613768951098125	0,20020953689873014	0,000482514297	0,0027396895131970672	-0,00010222149928910947	0,011678782813525034
1	1	0	0	0	0	2	139123,40	0,200000003	2,43084455	0,00055614005706790419	0,20021038921908906	0,000486680336	0,0032958295702649715	-0,00012297183255657227	0,012234922870592939
1	1	0	0	0	0	2	139133,40	0,200000003	2,42492127	0,00055613879902329715	0,20020993632310134	0,000485493336	0,0038519683692882688	-0,00014372211888469933	0,012791061669616235
1	1	0	0	0	0	2	139143,40	0,200000003	2,39581943	0,00055613881454616787	0,20020994191133395	0,000479666865	0,0044081071838344371	-0,00016447240579200557	0,013347200484162403
1	1	0	0	0	0	2	139153,40	0,200000003	2,41812205	0,00055613715760906541	0,2002093454140704	0,000484130636	0,0049642443414435027	-0,00018522263087676074	0,013903337641771469
1	1	0	0	0	0	2	139163,40	0,200000003	2,36041307	0,00055614071802712147	0,20021062716437005	0,000472579792	0,005520385059470624	-0,00020597298880550061	0,014459478359798589
1	1	0	0	0	0	2	139173,40	0,200000003	2,3829062	0,00055613238495091597	0,20020762725740544	0,000477075984	0,0060765174444215398	-0,0002267230358159633	0,015015610744749507
1	1	0	0	0	0	2	139183,40	0,200000003	2,42198825	0,00055613257756829267	0,20020769659965018	0,000484900695	0,0066326500219898317	-0,00024747309001323933	0,015571743322317798
1	1	0	0	0	0	2	139193,40	0,200000003	2,32106447	0,00055612951411886342	0,20020659375802822	0,000464692421	0,0071887795361086963	-0,00026822302990909824	0,016127872836436662
1	1	0	0	0	0	2	139203,40	0,200000003	2,41227484	0,00055613622479389114	0,20020900960066019	0,000482959149	0,0077449157609025869	-0,00028897322018926509	0,01668400906123055
1	1	0	0	0	0	2	139213,40	0,200000003	2,38467741	0,00055613426654206381	0,20020830463011267	0,000477432215	0,0083010500274446515	-0,00030972333740442336	0,017240143327772614
1	1	0	0	0	0	2	139223,40	0,200000003	2,46501279	0,00055613605722453862	0,20020894927570272	0,000493517611	0,0088571860846691891	-0,00033047352143235232	0,017796279384997155
1	1	0	0	0	0	2	139233,40	0,200000003	2,44754791	0,00055613755114542112	0,20020948708713629	0,000490022299	0,0094133236358146099	-0,00035122376120047802	0,018352416936142576
1	1	0	0	0	0	2	139243,40	0,200000003	2,42050266	0,00055612961488465472	0,20020663003370739	0,000484600692	0,0099694532506992653	-0,00037197370485604416	0,018908546551027232
1	1	0	0	0	0	2	139253,40	0,200000003	2,44303393	0,00055613078238483936	0,20020705033370813	0,00048911263	0,010525584033084104	-0,00039272369207261184	0,01946467733341207
1	1	0	0	0	0	2	139263,40	0,200000003	2,45438528	0,00055613639569034176	0,2002090711233728	0,000491390179	0,011081720428774446	-0,00041347388872915501	0,020020813729102413
1	1	0	0	0	0	2	139273,40	0,200000003	2,46381283	0,00055614616552740326	0,20021258826416467	0,000493286352	0,01163786659430185	-0,00043422444991145466	0,020576959894629818
1	1	0	0	0	0	2	139283,40	0,200000003	2,4888773	0,00055613517593509619	0,20020863201155309	0,000498294714	0,012194001770236946	-0,0004549746010572896	0,021133095070564912
1	1	0	0	0	0	2	139293,40	0,200000003	2,49321961	0,00055613445415016678	0,20020837216901917	0,000499163463	0,012750136224387114	-0,0004757247252723584	0,021689229524715078
1	1	0	0	0	0	2	139303,40	0,200000003	2,49653363	0,00055613503945204954	0,20020858287766397	0,000499827438	0,013306271263839163	-0,00049647487132582746	0,022245364564167126
1	1	0	0	0	0	2	139313,40	0,200000003	2,52173138	0,00055613626652707661	0,20020902462460464	0,000504873402	0,013862407530366238	-0,00051722506316311552	0,022801500830694205
1	1	0	0	0	0	2	139323,40	0,200000003	2,54062486	0,00055614074943131878	0,2002106384698793	0,000508660101	0,014418548279797558	-0,00053797542226358822	0,023357641580125523
1	1	0	0	0	0	2	139333,40	0,200000003	2,57100296	0,00055613351460463475	0,20020803393268054	0,000514735468	0,014974681794402195	-0,00055872551142295002	0,023913775094730157
1	1	0	0	0	0	2	139343,40	0,200000003	2,60437107	0,00055613194820284845	0,2002074700281257	0,000521414564	0,015530813742605043	-0,00057947554213775514	0,024469907042933005
1	1	0	0	0	0	2	139353,40	0,200000003	2,60536146	0,00055613188961976109	0,20020744893821754	0,000521612761	0,016086945632224803	-0,00060022557066674637	0,025026038932552765
1	1	0	0	0	0	2	139363,40	0,200000003	2,62160754	0,00055612966220494771	0,20020664706901021	0,000524863251	0,016643075294429747	-0,00062097551608789619	0,025582168594757712
1	1	0	0	0	0	2	139373,40	0,200000003	2,61736035	0,00055612748444080346	0,20020586307404096	0,000524010917	0,01719920277887055	-0,00064172538025373773	0,026138296079198515
1	1	0	0	0	0	2	139383,40	0,200000003	2,6146369	0,00055613041076395245	0,20020691655020976	0,000523468363	0,017755333189634506	-0,00066247535360463066	0,026694426489962467
1	1	0	0	0	0	2	139393,40	0,200000003	2,61713195	0,00055612477690064243	0,20020488835973546	0,000523962604	0,018311457966535146	-0,00068322511674850842	0,02725055126686311
1	1	0	0	0	0	2	139403,40	0,200000003	2,61650324	0,00055613033611989683	0,20020688967835395	0,000523841998	0,018867588302655043	-0,00070397508731433114	0,027806681602983008
1	1	0	0	0	0	2	139413,40	0,200000003	2,63019729	0,00055613769700626528	0,20020953959703197	0,000526590564	0,019423725999661312	-0,00072472533252472115	0,028362819299989274
1	1	0	0	0	0	2	139423,40	0,200000003	2,67628813	0,00055612667346828506	0,20020557112398003	0,000535807805	0,019979852673129597	-0,00074547516643208768	0,028918945973457562
1	1	0	0	0	0	2	139433,40	0,200000003	2,70194292	0,0005561225085953872	0,20020407176997136	0,000540939975	0,020535975181724982	-0,00076622484494244672	0,029475068482052947
1	1	0	0	0	0	2	139443,40	0,200000003	2,74091077	0,00055612898533211821	0,2002064033948297	0,000548747892	0,021092104167057101	-0,00078697476510856115	0,030031197467385062
1	1	0	0	0	0	2	139453,40	0,200000003	2,75740433	0,00055612844203826451	0,20020620780907299	0,000552049489	0,021648232609095363	-0,00080772466500365158	0,030587325909423328
1	1	0	0	0	0	2	139463,40	0,200000003	2,76805091	0,0005561306812117497	0,20020701391140154	0,000554183207	0,022204363290307114	-0,00082847464844531533	0,031143456590635078
1	1	0	0	0	0	2	139473,40	0,200000003	2,78665876	0,00055612839555988717	0,20020619107685974	0,000557906344	0,022760491685866998	-0,00084922454660623488	0,031699584986194963
1	1	0	0	0	0	2	139483,40	0,200000003	2,74540544	0,0005561236625595225	0,2002044871969951	0,000549642486	0,023316615348426522	-0,0008699742681725472	0,032255708648754483
1	1	0	0	0	0	2	139493,40	0,200000003	2,78654456	0,00055612223605480467	0,20020397365537699	0,000557877298	0,023872737584481325	-0,00089072393651405069	0,032811830884809286
1	1	0	0	0	0	2	139503,40	0,200000003	2,77825952	0,00055612266227437382	0,20020412709439792	0,00055621902	0,024428860246755699	-0,00091147362075837926	0,033367953547083661
1	1	0	0	0	0	2	139513,40	0,200000003	2,8387301	0,00055612174908651245	0,20020379834681926	0,000568324525	0,024984981995842211	-0,00093222327093044096	0,033924075296170176
1	1	0	0	0	0	2	139523,40	0,200000003	2,86487985	0,00055612636972549888	0,20020546177659408	0,000573564612	0,025541108365567709	-0,00095297309350475571	0,034480201665895674
1	1	0	0	0	0	2	139533,40	0,200000003	2,90060997	0,0005561244848825865	0,20020478323325181	0,000580716005	0,026097232850450294	-0,0009737228457530473	0,035036326150778259
1	1	0	0	0	0	2	139543,40	0,200000003	2,94630098	0,00055613041086246566	0,2002069165856745	0,000589869858	0,026653363261312758	-0,00099447281910761562	0,035592456561640723
1	1	0	0	0	0	2	139553,40	0,200000003	2,94824362	0,00055612601974275373	0,20020533578282554	0,000590254087	0,027209489281055514	-0,0010152226286236038	0,036148582581383475
1	1	0	0	0	0	2	139563,40	0,200000003	2,94940543	0,00055612228597783379	0,20020399162766467	0,000590482727	0,027765611567033347	-0,0010359722988278026	0,036704704867361306
1	1	0	0	0	0	2	139573,40	0,200000003	2,96957493	0,0005561228563280569	0,20020419696303558	0,000594521349	0,028321734423361402	-0,0010567219903125349	0,037260827723689363
1	1	0	0	0	0	2	139583,40	0,200000003	2,96698475	0,00055612831825680211	0,20020616324775347	0,000594008656	0,028877862741618208	-0,0010774718855891725	0,037816956041946163
1	1	0	0	0	0	2	139593,40	0,200000003	3,00105762	0,0005561321754919159	0,20020755185217718	0,000600834377	0,029433994917110125	-0,0010982219247844384	0,038373088217438074
1	1	0	0	0	0	2	139603,40	0,200000003	2,97046995	0,00055613425276511245	0,20020829967041091	0,000594712736	0,029990129169875238	-0,0011189720414855602	0,038929222470203187
1	1	0	0	0	0	2	139613,40	0,200000003	2,94974828	0,00055612999475747347	0,20020676678790077	0,000590559561	0,03054625916463271	-0,0011397219993146917	0,039485352464960659
1	1	0	0	0	0	2	139623,40	0,200000003	2,96319461	0,0005561319199361735	0,20020745985212432	0,000593253644	0,031102391084568883	-0,0011604720289748293	0,040041484384896832
1	1	0	0	0	0	2	139633,40	0,200000003	2,9764123	0,00055612781155606106	0,20020598083551526	0,000595895515	0,031658518896124941	-0,0011812219053457808	0,040597612196452896
1	1	0	0	0	0	2	139643,40	0,200000003	2,98780179	0,00055612592469569702	0,2002053015658905	0,000598173763	0,03221464482082064	-0,0012019717113154355	0,041153738121148595
1	1	0	0	0	0	2	139653,40	0,200000003	3,00208616	0,00055612331390546426	0,20020436168155376	0,00060103077	0,032770768134726106	-0,0012227214198729962	0,041709861435054054
1	1	0	0	0	0	2	139663,40	0,200000003	3,0176084	0,00055612590493179027	0,20020529445088518	0,000604141154	0,033326894039657901	-0,001243471225105233	0,04226598733998585
1	1	0	0	0	0	2	139673,40	0,200000003	3,01995111	0,00055612174284540947	0,2002037961000225	0,000604605651	0,033883015782503309	-0,0012642208750444309	0,042822109082831258
1	1	0	0	0	0	2	139683,40	0,200000003	3,03476882	0,00055612310753183232	0,20020428738705786	0,000607573718	0,034439138890035136	-0,0012849705759019136	0,043378232190363091
1	1	0	0	0	0	2	139693,40	0,200000003	2,94245362	0,0005561211406894857	0,20020357932392384	0,000589089759	0,034995260030724627	-0,0013057202033738645	0,043934353331052576
1	1	0	0	0	0	2	139703,40	0,200000003	2,96532774	0,00055612220904479424	0,20020396393177475	0,000593670353	0,035551382239769421	-0,0013264698707075882	0,04449047554009737
1	1	0	0	0	0	2	139713,40	0,200000003	3,01637053	0,00055612183424582086	0,20020382900416547	0,000603888941	0,036107504074015238	-0,0013472195240570581	0,045046597374343187
1	1	0	0	0	0	2	139723,40	0,200000003	3,03174043	0,00055612801152633286	0,20020605282480186	0,000606972782	0,036663632085541568	-0,0013679694078891694	0,045602725385869523
1	1	0	0	0	0	2	139733,40	0,200000003	2,93666363	0,00055612570275614669	0,20020522166766486	0,000587935385	0,037219757788297715	-0,001388719205577961	0,04615885108862567
1	1	0	0	0	0	2	139743,40	0,200000003	3,09929609	0,00055612997496376429	0,20020675966216659	0,00062050001	0,037775887763261485	-0,0014094691626685629	0,046714981063589434
1	1	0	0	0	0	2	139753,40	0,200000003	3,10201955	0,00055613101414673856	0,20020713376797878	0,000621046463	0,038332018777408224	-0,0014302191585324787	0,047271112077736173
1	1	0	0	0	0	2	139763,40	0,200000003	3,1075809	0,00055613054824123782	0,20020696604202477	0,000622159336	0,038888149325649466	-0,0014509691370128339	0,047827242625977414
1	1	0	0	0	0	2	139773,40	0,200000003	3,1165514	0,00055613713684843642	0,20020933794024512	0,000623962667	0,039444286462497894	-0,0014717193613229818	0,04838337976282585
1	1	0	0	0	0	2	139783,40	0,200000003	3,11738944	0,0005561371204016937	0,20020933201941869	0,00062413048	0,04000042358289959	-0,00149246958501948	0,048939516883227539
1	1	0	0	0	0	2	139793,40	0,200000003	3,13106441	0,00055613368463185101	0,20020809514246883	0,000626864436	0,040556557267531443	-0,0015132196805227859	0,049495650567859392
1	1	0	0	0	0	2	139803,40	0,200000003	3,13190246	0,00055613736532545754	0,20020942019195987	0,000627036381	0,041112694632856896	-0,001533969913357719	0,050051787933184851
1	1	0	0	0	0	2	139813,40	0,200000003	3,13622594	0,00055613167859696691	0,20020737297002352	0,000627895584	0,041668826311453862	-0,0015547199340131661	0,050607919611781811
1	1	0	0	0	0	2	139823,40	0,200000003	3,14230156	0,00055613401426292134	0,20020821380963558	0,000629114569	0,042224960325716787	-0,0015754700418154502	0,051164053626044736
1	1	0	0	0	0	2	139833,40	0,200000003	3,14687252	0,00055613396116097773	0,20020819469293888	0,000630029652	0,042781094286877766	-0,0015962201476364298	0,051720187587205715
1	1	0	0	0	0	2	139843,40	0,200000003	3,16397572	0,0005561321672143207	0,20020754887224339	0,000633451797	0,043337226454092083	-0,0016169701865228474	0,052276319754420032
1	1	0	0	0	0	2	139853,40	0,200000003	3,16694689	0,00055613754132390029	0,20020948355138934	0,000634052791	0,043893363995415981	-0,001637720425924519	0,052832457295743936
1	1	0	0	0	0	2	139863,40	0,200000003	3,17883134	0,00055613352661993766	0,20020803825818893	0,000636427605	0,044449497522035917	-0,0016584705155321875	0,053388590822363872
1	1	0	0	0	0	2	139873,40	0,200000003	3,19416332	0,00055612962637344992	0,20020663416967302	0,000639492704	0,04500562714840937	-0,001679220459616416	0,053944720448737318
1	1	0	0	0	0	2	139883,40	0,200000003	3,21943712	0,00055612671991686029	0,20020558784546448	0,00064454932	0,045561753868326227	-0,0016999702952568416	0,054500847168654176
1	1	0	0	0	0	2	139893,40	0,200000003	3,28737354	0,00055612269581937126	0,2002041391705951	0,000658145815	0,0461178765641456	-0,0017207199807527789	0,055056969864473555
1	1	0	0	0	0	2	139903,40	0,200000003	3,34230161	0,00055612089303053082	0,20020349016671408	0,000669140427	0,046673997457176134	-0,0017414695989842413	0,055613090757504083
1	1	0	0	0	0	2	139913,40	0,200000003	3,35919523	0,00055612341358843776	0,20020439756741862	0,000672525668	0,04723012087076457	-0,0017622193112611078	0,056169214171092525
1	1	0	0	0	0	2	139923,40	0,200000003	3,28520226	0,00055612460371686349	0,20020482601358483	0,000657713332	0,04778624547448144	-0,0017829690679432659	0,056725338774809389
1	1	0	0	0	0	2	139933,40	0,200000003	3,2504437	0,0005561258133244183	0,20020526147223645	0,000650755945	0,048342371287805856	-0,0018037188697575085	0,057281464588133811
1	1	0	0	0	0	2	139943,40	0,200000003	3,3164947	0,00055613353400097952	0,20020804091536355	0,000663988933	0,048898504821806842	-0,0018244689596405741	0,057837598122134797
1	1	0	0	0	0	2	139953,40	0,200000003	3,39492536	0,00055613459915998912	0,20020842437254704	0,000679692661	0,049454639420966835	-0,0018452190892661546	0,058393732721294784
1	1	0	0	0	0	2	139963,40	0,200000003	3,33234072	0,00055612664220730458	0,2002055598700288	0,000667153159	0,050010766063174138	-0,0018659689220071318	0,058949859363502093
1	1	0	0	0	0	2	139973,40	0,200000003	3,40667653	0,00055612787347121376	0,20020600312496672	0,000682037091	0,05056689393664535	-0,0018867188006882211	0,059505987236973299
1	1	0	0	0	0	2	139983,40	0,200000003	3,41250467	0,00055612822489854374	0,20020612963878573	0,000683204329	0,051123022161543891	-0,0019074686924815366	0,060062115461871846
1	1	0	0	0	0	2	139993,40	0,200000003	3,46922302	0,00055612852284063898	0,20020623689792323	0,000694560062	0,051679150684384538	-0,001928218595391472	0,060618243984712486
1	1	0	0	0	0	2	139996,33	0,200000003	3,50108671	0,00016266759089214934	0,20020623439508275	0,000700939388	0,051841818275276678	-0,00193428794191656	0,060780911575604634