File: Experimentelles/Rohdaten/Batterietests/AlteZelle/Studenten_Batterietests/S vs Li GCPL 200µm/ZView-Export/S vs Li GCPL 200µm_02_GCPL_C05_loop6.txt
EC-Lab ASCII FILE
Nb header lines : 3
mode	ox/red	error	control changes	Ns changes	counter inc.	Ns	time/s	control/V/mA	Ewe/V	dq/mA.h	<I>/mA	P/W	(Q-Qo)/mA.h	x	Capacity/mA.h
1	0	0	1	1	0	1	134720,93	-0,200000003	3,27933645	0	0	0	0	0	0
1	0	0	1	0	0	1	134730,93	-0,200000003	2,07857323	-0,00055203252207463571	-0,19873167684362083	0,000413078349	-0,00055203252207463571	2,0597075614224422E-005	0,00055203252207463571
1	0	0	1	0	0	1	134740,93	-0,200000003	1,97498286	-0,00055478019325435162	-0,19972083832280634	0,000394445233	-0,0011068127153289874	4,1296670534447232E-005	0,0011068127153289874
1	0	0	1	0	0	1	134750,93	-0,200000003	1,95007098	-0,00055477176696144877	-0,19971780485783594	0,000389463909	-0,0016615844822904362	6,1995951058352576E-005	0,0016615844822904362
1	0	0	1	0	0	1	134760,93	-0,200000003	1,93759596	-0,00055477613486929075	-0,19971937730441302	0,000386975473	-0,0022163606171597267	8,2695394554772186E-005	0,0022163606171597267
1	0	0	1	0	0	1	134770,93	-0,200000003	1,93087268	-0,00055477848141805997	-0,19972022206183773	0,00038563431	-0,0027711390985777866	0,00010339492560408138	0,0027711390985777866
1	0	0	1	0	0	1	134780,93	-0,200000003	1,9220736	-0,00055477701565788851	-0,19971969439755875	0,000383875944	-0,0033259161142356749	0,00012409440196390782	0,0033259161142356749
1	0	0	1	0	0	1	134790,93	-0,200000003	1,91340768	-0,0005547786642875936	-0,19972028789485958	0,000382146332	-0,0038806947785232691	0,00014479393983632518	0,0038806947785232691
1	0	0	1	0	0	1	134800,93	-0,200000003	1,90455139	-0,00055477209363132723	-0,19971792245897376	0,000380373036	-0,0044354668721545958	0,00016549323254872288	0,0044354668721545958
1	0	0	1	0	0	1	134810,93	-0,200000003	1,89481902	-0,00055478002238025267	-0,19972077680814032	0,000378434721	-0,0049902468945348486	0,00018619282109340333	0,0049902468945348486
1	0	0	1	0	0	1	134820,93	-0,200000003	1,88805771	-0,00055477330821421408	-0,19971835970874464	0,000377079792	-0,0055450202027490624	0,00020689215912352157	0,0055450202027490624
1	0	0	1	0	0	1	134830,93	-0,200000003	1,877792	-0,00055477370758768589	-0,19971850348317197	0,000375029806	-0,0060997939103367488	0,00022759151205480102	0,0060997939103367488
1	0	0	1	0	0	1	134840,93	-0,200000003	1,86946905	-0,00055477141333785325	-0,19971767755336144	0,000373366027	-0,0066545653236746022	0,00024829077938453459	0,0066545653236746022
1	0	0	1	0	0	1	134850,93	-0,200000003	1,8581177	-0,00055477716965062752	-0,19971974982563597	0,000371102797	-0,0072093424933252301	0,00026899026149003718	0,0072093424933252301
1	0	0	1	0	0	1	134860,93	-0,200000003	1,85072792	-0,00055477793925835027	-0,1997200268843728	0,000369627436	-0,0077641204325835802	0,00028968977231063866	0,0077641204325835802
1	0	0	1	0	0	1	134870,93	-0,200000003	1,84017646	-0,00055477997881339661	-0,19972076112407459	0,000367521454	-0,0083189004113969766	0,00031038935922978106	0,0083189004113969766
1	0	0	1	0	0	1	134880,93	-0,200000003	1,83122492	-0,0005547830342004697	-0,19972186106324883	0,000365735643	-0,0088736834455974464	0,00033108906014952326	0,0088736834455974464
1	0	0	1	0	0	1	134890,93	-0,200000003	1,82130206	-0,0005547821437393625	-0,19972154049730038	0,000363753265	-0,009428465589336809	0,00035178872784496429	0,009428465589336809
1	0	0	1	0	0	1	134900,93	-0,200000003	1,81240773	-0,00055477348025805421	-0,19971842164451738	0,000361971208	-0,0099832390695948621	0,0003724880722942695	0,0099832390695948621
1	0	0	1	0	0	1	134910,93	-0,200000003	1,80065644	-0,0005547655331782169	-0,19971556069622355	0,000359619124	-0,01053800460277308	0,00039318712022734106	0,01053800460277308
1	0	0	1	0	0	1	134920,93	-0,200000003	1,78842878	-0,00055476871206611392	-0,19971670509568746	0,000357179117	-0,011092773314839194	0,00041388628676899411	0,011092773314839194
1	0	0	1	0	0	1	134930,93	-0,200000003	1,77930582	-0,00055476899623456928	-0,19971680739631539	0,000355357275	-0,011647542311073762	0,00043458546391335424	0,011647542311073762
1	0	0	1	0	0	1	134940,93	-0,200000003	1,76690698	-0,0005547703799489472	-0,1997173055334135	0,000352881907	-0,01220231269102271	0,00045528469268595834	0,01220231269102271
1	0	0	1	0	0	1	134950,93	-0,200000003	1,75506055	-0,00055476517958607936	-0,19971543340307395	0,000350512681	-0,012757077870608789	0,00047598372742603174	0,012757077870608789
1	0	0	1	0	0	1	134960,93	-0,200000003	1,74250937	-0,00055476237631506394	-0,19971442422566634	0,000348004251	-0,013311840246923853	0,00049668265757229459	0,013311840246923853
1	0	0	1	0	0	1	134970,93	-0,200000003	1,72961533	-0,00055476319948666624	-0,19971472056739677	0,000345429638	-0,013866603446410518	0,00051738161843219674	0,013866603446410518
1	0	0	1	0	0	1	134980,93	-0,200000003	1,71455002	-0,00055476284374545024	-0,19971459250057907	0,000342420652	-0,014421366290155971	0,00053808056601891578	0,014421366290155971
1	0	0	1	0	0	1	134990,93	-0,200000003	1,70319879	-0,00055476662771817709	-0,19971595473054755	0,000340155966	-0,014976132917874147	0,00055877965479074496	0,014976132917874147
1	0	0	1	0	0	1	135000,93	-0,200000003	1,68868577	-0,0005547707209934791	-0,19971742830942576	0,000337259989	-0,015530903638867629	0,00057947889628817894	0,015530903638867629
1	0	0	1	0	0	1	135010,93	-0,200000003	1,67348731	-0,0005547593557627664	-0,19971333682700934	0,000334217737	-0,016085662994630394	0,0006001777137335744	0,016085662994630394
1	0	0	1	0	0	1	135020,93	-0,200000003	1,65948856	-0,0005547590213161376	-0,19971321642624182	0,00033142179	-0,016640422015946531	0,00062087651870031654	0,016640422015946531
1	0	0	1	0	0	1	135030,93	-0,200000003	1,64305198	-0,00055476337045017216	-0,19971478211424928	0,000328141759	-0,017195185386396704	0,00064157548593909696	0,017195185386396704
1	0	0	1	0	0	1	135040,93	-0,200000003	1,62871051	-0,00055476318221373696	-0,1997147143491432	0,000325277448	-0,017749948568610442	0,00066227444615452288	0,017749948568610442
1	0	0	1	0	0	1	135050,93	-0,200000003	1,61503565	-0,00055476496920900211	-0,19971535766733802	0,000322547421	-0,018304713537819443	0,00068297347304514458	0,018304713537819443
1	0	0	1	0	0	1	135060,93	-0,200000003	1,60189402	-0,00055476863837987181	-0,19971667856864445	0,000319924962	-0,018859482176199312	0,00070367263683746483	0,018859482176199312
1	0	0	1	0	0	1	135070,93	-0,200000003	1,58381951	-0,00055476494828942746	-0,19971535013629232	0,00031631306	-0,019414247124488742	0,00072437166294754931	0,019414247124488742
1	0	0	1	0	0	1	135080,93	-0,200000003	1,56846857	-0,00055476682985656794	-0,19971602750035693	0,000313248311	-0,019969013954345309	0,0007450707592614336	0,019969013954345309
1	0	0	1	0	0	1	135090,93	-0,200000003	1,55582213	-0,00055475770711153741	-0,19971274331265974	0,0003107175	-0,020523771661456848	0,00076576951519343514	0,020523771661456848
1	0	0	1	0	0	1	135100,93	-0,200000003	1,53780472	-0,000554760245770216	-0,19971365722964109	0,000307120616	-0,021078531907227062	0,00078646836584620506	0,021078531907227062
1	0	0	1	0	0	1	135110,93	-0,200000003	1,52199674	-0,00055476128476444211	-0,19971403126750394	0,000303964101	-0,021633293191991504	0,00080716725526524659	0,021633293191991504
1	0	0	1	0	0	1	135120,93	-0,200000003	1,50706482	-0,00055475682999276454	-0,19971242754995094	0,000300979562	-0,022188050021984269	0,00082786597847076736	0,022188050021984269
1	0	0	1	0	0	1	135124,77	-0,200000003	1,49963689	-0,00021291922304034234	-0,19971575910437629	0,000299501116	-0,022400969245024611	0,00083581028095534259	0,022400969245024611
1	1	0	0	1	0	2	135124,77	0,200000003	2,36548042	9,7899494899643789E-009	0,058739705546802842	0,000138947624	-0,02240095945507512	0,00083580991567916442	9,7899494899643789E-009
1	1	0	0	0	0	2	135134,77	0,200000003	2,67066956	0,00055611632743643379	0,2002018465437737	0,000534672989	-0,021844843127638688	0,00081506046779615654	0,00055612611738592378
1	1	0	0	0	0	2	135144,77	0,200000003	2,65788984	0,00055611835631231469	0,20020257694829917	0,000532116392	-0,021288724771326371	0,00079431094421306176	0,0011122444736982384
1	1	0	0	0	0	2	135154,77	0,200000003	2,64789081	0,00055612008870227469	0,20020320060858717	0,000530116202	-0,020732604682624099	0,00077356135599216832	0,0016683645624005133
1	1	0	0	0	0	2	135164,77	0,200000003	2,6424818	0,00055612429792102842	0,20020471592710144	0,000529037323	-0,020176480384703069	0,00075281161071966387	0,0022244888603215414
1	1	0	0	0	0	2	135174,77	0,200000003	2,63387322	0,00055612262745532723	0,20020411455954307	0,000527312281	-0,019620357757247741	0,00073206192777448077	0,0027806114877768688
1	1	0	0	0	0	2	135184,77	0,200000003	2,62581682	0,00055612100010448026	0,20020352871332986	0,000525697775	-0,019064236757143264	0,0007113123055479456	0,0033367324878813491
1	1	0	0	0	0	2	135194,77	0,200000003	2,52325487	0,00055612588939236282	0,20020528885669213	0,00050516898	-0,018508110867750899	0,00069056250089550605	0,003892858377273712
1	1	0	0	0	0	2	135204,77	0,200000003	2,41608405	0,00055613088400165229	0,20020708691575507	0,000483717158	-0,017951979983749248	0,0006698125098874784	0,0044489892612753645
1	1	0	0	0	0	2	135214,77	0,200000003	2,4246738	0,0005561283834816681	0,20020618672870157	0,000485434692	-0,017395851600267578	0,00064906261217721331	0,0050051176447570323
1	1	0	0	0	0	2	135224,77	0,200000003	2,43455863	0,00055613435507400166	0,20020833650160531	0,000487418933	-0,016839717245193578	0,00062831249165880934	0,0055612519998310336
1	1	0	0	0	0	2	135234,77	0,200000003	2,42396903	0,00055613549627529261	0,20020874733400573	0,000485299795	-0,016283581748918288	0,00060756232856065114	0,0061173874961063258
1	1	0	0	0	0	2	135244,77	0,200000003	2,40907526	0,00055613279614680352	0,20020777528790176	0,000482315605	-0,015727448952771485	0,00058681226620791693	0,0066735202922531302
1	1	0	0	0	0	2	135254,77	0,200000003	2,4165411	0,00055613280276209114	0,20020777766940496	0,00048381032	-0,015171316150009395	0,00056606220360835757	0,0072296530950152218
1	1	0	0	0	0	2	135264,77	0,200000003	2,41431284	0,00055613074525362918	0,20020703696647456	0,000483362412	-0,014615185404755766	0,00054531221777720531	0,0077857838402688499
1	1	0	0	0	0	2	135274,77	0,200000003	2,40560889	0,0005561296685155895	0,2002066493408409	0,000481618888	-0,014059055736240176	0,00052456227212059693	0,008341913508784439
1	1	0	0	0	0	2	135284,77	0,200000003	2,41452241	0,00055612803400142323	0,20020606091583309	0,000483402022	-0,013502927702238754	0,0005038123874499097	0,0088980415427858624
1	1	0	0	0	0	2	135294,77	0,200000003	2,37641168	0,00055613093897783085	0,20020710670717626	0,000475774519	-0,01294679676326092	0,00048306239439064691	0,0094541724817636941
1	1	0	0	0	0	2	135304,77	0,200000003	2,37793541	0,00055612502482533459	0,20020497761261069	0,000476074492	-0,012390671738435587	0,0004623126219963655	0,010010297506589027
1	1	0	0	0	0	2	135314,77	0,200000003	2,39277196	0,00055612436421381101	0,20020473979249942	0,000479044276	-0,011834547374221776	0,0004415628742503881	0,010566421870802838
1	1	0	0	0	0	2	135324,77	0,200000003	2,38130641	0,0005561283165580697	0,20020616263620992	0,000476752204	-0,011278419057663707	0,00042081297903713254	0,011122550187360909
1	1	0	0	0	0	2	135334,77	0,200000003	2,4152081	0,00055612163632280294	0,20020375775189021	0,000483533746	-0,010722297421340904	0,00040006333307243642	0,011678671823683712
1	1	0	0	0	0	2	135344,77	0,200000003	2,3686409	0,00055612939172155322	0,20020654969500346	0,000474217435	-0,01016616802961935	0,00037931339774338566	0,012234801215405266
1	1	0	0	0	0	2	135354,77	0,200000003	2,37963033	0,00055612849357724179	0,20020622636310192	0,000476416812	-0,0096100395360421094	0,00035856349592530682	0,012790929708982506
1	1	0	0	0	0	2	135364,77	0,200000003	2,38599157	0,00055613282489693818	0,20020778563794867	0,000477694091	-0,0090539067111451712	0,0003378134324998665	0,013347062533879445
1	1	0	0	0	0	2	135374,77	0,200000003	2,40928483	0,00055613462829093133	0,20020843485968461	0,000482359144	-0,00849777208285424	0,00031706330178737165	0,013903197162170376
1	1	0	0	0	0	2	135384,77	0,200000003	2,3931911	0,00055613063979314438	0,20020699900070595	0,000479133596	-0,0079416414430610957	0,00029631331989109178	0,01445932780196352
1	1	0	0	0	0	2	135394,77	0,200000003	2,40555167	0,00055613307159973517	0,20020787445094166	0,00048161039	-0,0073855083714613606	0,00027556324726083846	0,015015460873563254
1	1	0	0	0	0	2	135404,77	0,200000003	2,4022758	0,00055612887711740198	0,20020636443753798	0,000480950897	-0,006829379494343959	0,00025481333113236051	0,015571589750680659
1	1	0	0	0	0	2	135414,77	0,200000003	2,40819907	0,00055612992838687373	0,20020674289448858	0,000482137693	-0,0062732495659570854	0,00023406337577960509	0,01612771967906753
1	1	0	0	0	0	2	135424,77	0,200000003	2,38854384	0,0005561300461813808	0,20020678530050451	0,000478202681	-0,0057171195197757037	0,00021331341603177824	0,016683849725248909
1	1	0	0	0	0	2	135434,77	0,200000003	2,45168066	0,00055613673929290643	0,20020919482027674	0,000490849023	-0,0051609827804827981	0,00019256320655496144	0,017239986464541818
1	1	0	0	0	0	2	135444,77	0,200000003	2,39833331	0,00055613400535451034	0,20020821060260816	0,000480166025	-0,004604848775128288	0,00017181309908506198	0,01779612046989633
1	1	0	0	0	0	2	135454,77	0,200000003	2,20922732	0,00055613462302833792	0,20020843296515126	0,000442305929	-0,0040487141520999501	0,00015106296856892154	0,018352255092924666
1	1	0	0	0	0	2	135464,77	0,200000003	2,3966763	0,00055613835909797082	0,2002097779500087	0,000479838025	-0,0034925757930019789	0,0001303126986549999	0,018908393452022637
1	1	0	0	0	0	2	135474,77	0,200000003	2,37517357	0,00055613734122945197	0,2002094115173992	0,000475532113	-0,0029364384517725267	0,00010956246671912122	0,01946453079325209
1	1	0	0	0	0	2	135484,77	0,200000003	2,38294435	0,00055613073938008813	0,2002070348520001	0,000477082212	-0,0023803077123924387	8,8812481107118592E-005	0,020020661532632176
1	1	0	0	0	0	2	135494,77	0,200000003	2,41776013	0,00055612975902027552	0,20020668192252278	0,000484051736	-0,0018241779533721632	6,8062532073658688E-005	0,020576791291652451
1	1	0	0	0	0	2	135504,77	0,200000003	2,38450623	0,0005561351466377575	0,20020862146451286	0,000477398717	-0,0012680428067344059	4,7312382020946816E-005	0,021132926438290208
1	1	0	0	0	0	2	135514,77	0,200000003	2,36669827	0,00055613455387453242	0,20020840806978518	0,000473832886	-0,00071190825285987354	2,6562254085027837E-005	0,021689060992164742
1	1	0	0	0	0	2	135524,77	0,200000003	2,37896371	0,00055613650908155571	0,20020911194420342	0,00047629021	-0,00015577174377831776	5,812053197706016E-006	0,022245197501246301
1	1	0	0	0	0	2	135534,77	0,200000003	2,39635253	0,00055612794216225542	0,20020602785373789	0,000479764218	0,00040035619838393766	-1,4937828046338365E-005	0,022801325443408554
1	1	0	0	0	0	2	135544,77	0,200000003	2,40313292	0,00055612167140758701	0,20020377038241043	0,000481116265	0,00095647786979152474	-3,568747532009495E-005	0,023357447114816138
1	1	0	0	0	0	2	135554,77	0,200000003	2,38665819	0,00055611957361549139	0,20020301517737418	0,000477816153	0,001512597443407016	-5,6437044322407936E-005	0,023913566688431632
1	1	0	0	0	0	2	135564,77	0,200000003	2,43227315	0,00055612424022621574	0,20020469515697213	0,000486952515	0,0020687216836332317	-7,718678744224137E-005	0,024469690928657846
1	1	0	0	0	0	2	135574,77	0,200000003	2,40358996	0,00055612346210579078	0,2002044150429857	0,00048120931	0,0026248451457390221	-9,7936501529355546E-005	0,025025814390763638
1	1	0	0	0	0	2	135584,77	0,200000003	2,39393377	0,00055612365699890586	0,20020448519517341	0,000479276292	0,0031809688027379277	-0,00011868622288819389	0,025581938047762544
1	1	0	0	0	0	2	135594,77	0,200000003	2,40189505	0,00055612588995777901	0,20020528906024195	0,000480872084	0,0037370946926957069	-0,00013943602756173005	0,02613806393772032
1	1	0	0	0	0	2	135604,77	0,200000003	2,39966655	0,00055612985513524877	0,20020671652390774	0,000480429357	0,0042932245478309562	-0,00016018598018136883	0,026694193792855571
1	1	0	0	0	0	2	135614,77	0,200000003	2,40751338	0,00055613230284717344	0,20020759770006275	0,000482002477	0,0048493568506781293	-0,00018093602412843053	0,027250326095702742
1	1	0	0	0	0	2	135624,77	0,200000003	2,39168644	0,00055612661465009056	0,20020554994943328	0,000478828908	0,0054054834653282202	-0,00020168585584121117	0,027806452710352835
1	1	0	0	0	0	2	135634,77	0,200000003	2,39191484	0,00055612749589979648	0,20020586719927779	0,000478875387	0,0059616109612280166	-0,0002224357204346032	0,02836258020625263
1	1	0	0	0	0	2	135644,77	0,200000003	2,37206912	0,00055613156526701318	0,20020733217124659	0,000474905624	0,0065177425264950298	-0,00024318573686155741	0,028918711771519642
1	1	0	0	0	0	2	135654,77	0,200000003	2,39532423	0,00055612854017068947	0,20020624313674045	0,000479558861	0,007073871066665719	-0,00026393564041810051	0,02947484031169033
1	1	0	0	0	0	2	135664,77	0,200000003	2,40014267	0,0005561279897209671	0,20020604497487139	0,000480523071	0,0076299990563866867	-0,00028468552343662435	0,030030968301411302
1	1	0	0	0	0	2	135674,77	0,200000003	2,39898086	0,00055612799544218515	0,2002060470345096	0,000480290473	0,008186127051828873	-0,00030543540666861459	0,030587096296853485
1	1	0	0	0	0	2	135684,77	0,200000003	2,39749527	0,00055613182811025126	0,20020742679479747	0,00047999635	0,0087422588799391245	-0,00032618543290260339	0,031143228124963738
1	1	0	0	0	0	2	135694,77	0,200000003	2,40579939	0,00055612653378480013	0,20020552083793328	0,000481654308	0,0092983854137239245	-0,00034693526159819136	0,031699354658748531
1	1	0	0	0	0	2	135704,77	0,200000003	2,41278911	0,00055612995343407002	0,20020675191147782	0,000483056676	0,0098545153671579942	-0,00036768521788549133	0,032255484612182605
1	1	0	0	0	0	2	135714,77	0,200000003	2,3968668	0,00055613142036563821	0,20020728000675974	0,000479870185	0,010410646787523632	-0,00038843522890598042	0,032811616032548243
1	1	0	0	0	0	2	135724,77	0,200000003	2,39161015	0,00055612983904199469	0,20020671073033715	0,000478816393	0,010966776626565627	-0,00040918518092515821	0,03336774587159024
1	1	0	0	0	0	2	135734,77	0,200000003	2,41103697	0,00055613270188205766	0,20020774135259862	0,000482708274	0,011522909328447683	-0,0004299352397607479	0,033923878573472301
1	1	0	0	0	0	2	135744,77	0,200000003	2,40288544	0,00055612735739184755	0,20020581733642397	0,000481071649	0,012079036685839531	-0,00045068509918622214	0,034480005930864154
1	1	0	0	0	0	2	135754,77	0,200000003	2,40477085	0,00055612696337037619	0,20020567548871648	0,000481448777	0,012635163649209907	-0,00047143494391022541	0,035036132894234522
1	1	0	0	0	0	2	135764,77	0,200000003	2,40440893	0,00055612892887410189	0,20020638306994704	0,000481378025	0,01319129257808401	-0,00049218486196981549	0,035592261823108621
1	1	0	0	0	0	2	135774,77	0,200000003	2,41054177	0,00055612969987591104	0,20020666063055488	0,000482606527	0,01374742227795992	-0,00051293480879651962	0,036148391522984531
1	1	0	0	0	0	2	135784,77	0,200000003	2,40861821	0,00055612802634470995	0,20020605815941674	0,00048221997	0,01430355030430463	-0,00053368469318152461	0,036704519549329242
1	1	0	0	0	0	2	135794,77	0,200000003	2,41875052	0,00055612669689539411	0,20020557955773792	0,000484247343	0,014859677001200026	-0,00055443452796298816	0,037260646246224634
1	1	0	0	0	0	2	135804,77	0,200000003	2,42055988	0,0005561266887270743	0,20020557661714326	0,000484609598	0,015415803689927098	-0,00057518436243968064	0,037816772934951706
1	1	0	0	0	0	2	135814,77	0,200000003	2,41831255	0,0005561257787802153	0,20020524903632528	0,000484158867	0,015971929468707315	-0,00059593416296503245	0,038372898713731923
1	1	0	0	0	0	2	135824,77	0,200000003	2,41867423	0,00055613028274724883	0,20020687046420365	0,000484235206	0,016528059751454563	-0,00061668413153944986	0,038929028996479174
1	1	0	0	0	0	2	135834,77	0,200000003	2,42050266	0,00055612893096440371	0,20020638382245552	0,000484600081	0,017084188682418966	-0,00063743404967703181	0,039485157927443578
1	1	0	0	0	0	2	135844,77	0,200000003	2,40574217	0,00055613172572933965	0,2002073899376751	0,000481647352	0,017640320408148304	-0,00065818407209105114	0,040041289653172922
1	1	0	0	0	0	2	135854,77	0,200000003	2,40090466	0,0005561272227308816	0,20020576885848381	0,000480674964	0,018196447630879187	-0,00067893392649214374	0,040597416875903795
1	1	0	0	0	0	2	135864,77	0,200000003	2,41692209	0,00055612618885934355	0,20020539666478835	0,000483880838	0,018752573819738528	-0,00069968374231809907	0,041153543064763142
1	1	0	0	0	0	2	135874,77	0,200000003	2,43288255	0,00055612866337183437	0,2002062874891457	0,000487078389	0,019308702483110362	-0,00072043365047144243	0,04170967172813497
1	1	0	0	0	0	2	135884,77	0,200000003	2,41779828	0,00055613213463044826	0,20020753714205117	0,000484061427	0,019864834617740806	-0,00074118368814211187	0,042265803862765421
1	1	0	0	0	0	2	135894,77	0,200000003	2,4160459	0,00055613147810184288	0,20020730079179021	0,000483710028	0,020420966095842653	-0,00076193370131681638	0,042821935340867264
1	1	0	0	0	0	2	135904,77	0,200000003	2,41313195	0,00055612741629862125	0,20020583854285917	0,00048312312	0,020977093512141274	-0,0007826835629401815	0,043378062757165888
1	1	0	0	0	0	2	135914,77	0,200000003	2,4278543	0,00055612505383955104	0,20020498805772701	0,000486068544	0,021533218565980826	-0,00080343333641702246	0,043934187811005434
1	1	0	0	0	0	2	135924,77	0,200000003	2,44225311	0,00055612799328648378	0,20020604625845718	0,00048895384	0,022089346559267309	-0,00082418321956858061	0,044490315804291923
1	1	0	0	0	0	2	135934,77	0,200000003	2,44459581	0,00055613257905426944	0,20020769713460176	0,000489426893	0,022645479138321581	-0,00084493327382130048	0,045046448383346189
1	1	0	0	0	0	2	135944,77	0,200000003	2,42695928	0,00055612751853714387	0,2002058753487216	0,000485891505	0,023201606656858723	-0,00086568313925932224	0,045602575901883341
1	1	0	0	0	0	2	135954,77	0,200000003	2,44764304	0,00055613227539757888	0,20020758781821024	0,000490036735	0,023757738932256301	-0,00088643318218220262	0,046158708177280922
1	1	0	0	0	0	2	135964,77	0,200000003	2,44084358	0,0005561310108304023	0,20020713257409792	0,000488674268	0,024313869943086704	-0,00090718317792238144	0,046714839188111322
1	1	0	0	0	0	2	135974,77	0,200000003	2,44928098	0,00055613399733023507	0,2002082077138695	0,000490366132	0,024870003940416941	-0,00092793328509288461	0,047270973185441549
1	1	0	0	0	0	2	135984,77	0,200000003	2,44408154	0,00055613664700670381	0,20020916159724896	0,000489327533	0,025426140587423645	-0,00094868349112637901	0,047827109832448256
1	1	0	0	0	0	2	135994,77	0,200000003	2,43490148	0,00055613601662798061	0,20020893466094413	0,000487489044	0,025982276604051622	-0,00096943367363959578	0,048383245849076237
1	1	0	0	0	0	2	136004,77	0,200000003	2,43747258	0,00055613218827959565	0,20020755645574122	0,000488000427	0,026538408792331216	-0,00099018371331198707	0,048939378037355834
1	1	0	0	0	0	2	136014,77	0,200000003	2,44863343	0,00055613154752883648	0,20020732578550397	0,00049023435	0,027094540339860054	-0,0010109337290771061	0,049495509584884666
1	1	0	0	0	0	2	136024,77	0,200000003	2,44690013	0,00055613033156428077	0,20020688803833238	0,000489886268	0,027650670671424336	-0,0010316836994729526	0,050051639916448947
1	1	0	0	0	0	2	136034,77	0,200000003	2,45478511	0,00055613180761701536	0,20020741941723373	0,000491466199	0,02820680247904135	-0,0010524337249423112	0,050607771724065965
1	1	0	0	0	0	2	136044,77	0,200000003	2,44391012	0,00055613051007522477	0,20020695230226221	0,000489287777	0,028762932989116576	-0,001073183701998641	0,05116390223414119
1	1	0	0	0	0	2	136054,77	0,200000003	2,45548987	0,00055613331515590342	0,20020796213114851	0,000491608633	0,02931906630427248	-0,0010939337837163026	0,051720035549297094
1	1	0	0	0	0	2	136064,77	0,200000003	2,46276546	0,00055612820441938106	0,20020612226628835	0,000493060739	0,029875194508691859	-0,001114683674745513	0,052276163753716474
1	1	0	0	0	0	2	136074,77	0,200000003	2,48243976	0,00055612815547734502	0,20020610464715811	0,000496999593	0,030431322664169203	-0,0011354335639486301	0,052832291909193811
1	1	0	0	0	0	2	136084,77	0,200000003	2,46552706	0,00055613001701484122	0,2002067748005519	0,000493615225	0,030987452681184051	-0,0011561835226082142	0,053388421926208659
1	1	0	0	0	0	2	136094,77	0,200000003	2,4917531	0,00055613334613376192	0,20020797328317584	0,000498868816	0,031543586027317811	-0,0011769336054817014	0,053944555272342419
1	1	0	0	0	0	2	136104,77	0,200000003	2,51917911	0,0005561308433752921	0,20020707229026765	0,000504357449	0,032099716870693107	-0,001197683594973905	0,054500686115717715
1	1	0	0	0	0	2	136114,77	0,200000003	2,50043797	0,00055612399723132448	0,20020460767882496	0,000500599213	0,032655840867924435	-0,0012184333290272725	0,055056810112949037
1	1	0	0	0	0	2	136124,77	0,200000003	2,60349512	0,00055612709038125146	0,20020572121262442	0,000521234644	0,03321196795830569	-0,0012391831784902221	0,055612937203330291
1	1	0	0	0	0	2	136134,77	0,200000003	2,52218843	0,00055613183684315942	0,20020742993864394	0,000504960888	0,033768099795148845	-0,0012599332050500477	0,056169069040173453
1	1	0	0	0	0	2	136144,77	0,200000003	2,55624223	0,00055613126460628378	0,20020722393340093	0,000511778169	0,03432423105975513	-0,0012806832102589458	0,056725200304779731
1	1	0	0	0	0	2	136154,77	0,200000003	2,54953814	0,0005561326721020871	0,20020773063181085	0,000510437239	0,034880363731857216	-0,0013014332679834048	0,057281332976881824
1	1	0	0	0	0	2	136164,77	0,200000003	2,54761457	0,00055612979188395859	0,20020669375344685	0,000510049518	0,035436493523741178	-0,0013221832182430528	0,057837462768765786
1	1	0	0	0	0	2	136174,77	0,200000003	2,55620432	0,000556132972743776	0,20020783886280195	0,000511772116	0,035992626496484947	-0,0013429332871848573	0,058393595741509555
1	1	0	0	0	0	2	136184,77	0,200000003	2,52734971	0,00055612972929494253	0,20020667122140458	0,00050599227	0,036548756225779891	-0,0013636832351092253	0,058949725470804493
1	1	0	0	0	0	2	136194,77	0,200000003	2,55791831	0,00055613256809529331	0,20020769318937094	0,000512114901	0,037104888793875181	-0,0013844332889530506	0,059505858038899789
1	1	0	0	0	0	2	136204,77	0,200000003	2,72740722	0,0005561253015332752	0,20020507722745373	0,00054604077	0,037661014095408461	-0,0014051830716716774	0,060061983340433062
1	1	0	0	0	0	2	136214,77	0,200000003	2,65472841	0,00055612710909131501	0,20020572794824624	0,000531491823	0,038217141204499776	-0,001425932921832725	0,060618110449524378
1	1	0	0	0	0	2	136224,77	0,200000003	2,84472942	0,00055612792013751136	0,20020601992483126	0,000569531927	0,038773269124637286	-0,0014466828022549965	0,061174238369661888
1	1	0	0	0	0	2	136234,77	0,200000003	2,82122684	0,00055612315860142304	0,20020430577210768	0,000564821763	0,039329392283238707	-0,0014674325050179549	0,061730361528263309
1	1	0	0	0	0	2	136244,77	0,200000003	2,81115174	0,00055611988257699539	0,20020312640349824	0,000562801375	0,039885512165815706	-0,0014881820855480368	0,062286481410840307
1	1	0	0	0	0	2	136254,77	0,200000003	2,85061455	0,00055612280223104691	0,20020417747879232	0,000570704928	0,040441634968046752	-0,0015089317750143373	0,06284260421307136
1	1	0	0	0	0	2	136264,77	0,200000003	2,91146612	0,00055612425734102733	0,20020470131830333	0,000582889188	0,040997759225387782	-0,0015296815187727472	0,06339872847041239
1	1	0	0	0	0	2	136274,77	0,200000003	2,90544748	0,00055612396586603584	0,20020459638732282	0,00058168394	0,041553883191253818	-0,0015504312516558336	0,063954852436278426
1	1	0	0	0	0	2	136284,77	0,200000003	2,97279358	0,00055611752242346598	0,20020227674836061	0,000595160061	0,042110000713677286	-0,0015711807441254141	0,064510969958701888
1	1	0	0	0	0	2	136294,77	0,200000003	2,98909688	0,00055611989467011565	0,20020313075702083	0,000598426559	0,042666120608347405	-0,0015919303251067069	0,065067089853371994
1	1	0	0	0	0	2	136304,77	0,200000003	2,85067177	0,00055612399652434726	0,20020460742431318	0,000570717617	0,04322224460487175	-0,0016126800591336963	0,065623213849896333
1	1	0	0	0	0	2	136314,77	0,200000003	2,97003198	0,00055611859009828826	0,20020266111123648	0,000594608311	0,043778363194970042	-0,0016334295914396602	0,066179332439994611
1	1	0	0	0	0	2	136324,77	0,200000003	2,99479151	0,00055611823779013421	0,20020253428032086	0,000599564868	0,044334481432760179	-0,0016541791106005328	0,066735450677784742
1	1	0	0	0	0	2	136334,77	0,200000003	3,01372313	0,00055611970929304755	0,20020306402128678	0,000603356631	0,044890601142053222	-0,0016749286846651578	0,067291570387077798
1	1	0	0	0	0	2	136344,77	0,200000003	2,98088813	0,0005561204807907344	0,20020334176041056	0,000596783764	0,045446721622843962	-0,001695678287515399	0,067847690867868531
1	1	0	0	0	0	2	136354,77	0,200000003	2,97862172	0,00055611703761418656	0,20020210221704733	0,00059632631	0,046002838660458144	-0,0017164277618960934	0,068403807905482714
1	1	0	0	0	0	2	136364,77	0,200000003	2,98963022	0,00055611806732416154	0,20020247291258032	0,000598531391	0,046558956727782304	-0,0017371772746966518	0,068959925972806886
1	1	0	0	0	0	2	136374,77	0,200000003	3,10394311	0,00055611666891227168	0,20020196948437872	0,0006214155	0,047115073396694573	-0,0017579267353205821	0,069516042641719155
1	1	0	0	0	0	2	136384,77	0,200000003	3,11498976	0,00055612543023294861	0,20020512355932893	0,000623636937	0,047671198826927526	-0,0017786765228411667	0,070072168071952102
1	1	0	0	0	0	2	136394,77	0,200000003	3,09234428	0,00055612821047587526	0,20020612444662592	0,000619106286	0,048227327037403398	-0,001799426414096353	0,070628296282427981
1	1	0	0	0	0	2	136404,77	0,200000003	3,08173585	0,00055612898158778752	0,20020640204687088	0,00061698322	0,048783456018991187	-0,0018201763341227616	0,07118442526401577
1	1	0	0	0	0	2	136414,77	0,200000003	3,12563634	0,00055612877535985574	0,20020632780482704	0,000625772169	0,04933958479435104	-0,0018409262464545286	0,071740554039375629
1	1	0	0	0	0	2	136424,77	0,200000003	3,1221509	0,00055612427112129011	0,20020470627919712	0,000625069311	0,049895709065472333	-0,0018616759907270989	0,072296678310496909
1	1	0	0	0	0	2	136434,77	0,200000003	3,15664291	0,00055612773429685165	0,20020595302220422	0,000631978677	0,050451836799769184	-0,0018824258642154054	0,072852806044793754
1	1	0	0	0	0	2	136444,77	0,200000003	3,17245102	0,00055613052186949389	0,20020695654819843	0,000635146745	0,051007967321638675	-0,0019031758417117952	0,073408936566663258
1	1	0	0	0	0	2	136454,77	0,200000003	3,1971724	0,00055612919438133638	0,20020647865253648	0,000640094629	0,051564096516020006	-0,001923925769677817	0,073965065761044582
1	1	0	0	0	0	2	136464,77	0,200000003	3,22692204	0,0005561285562697383	0,20020624893239712	0,000646049972	0,052120225072289747	-0,0019446756738350374	0,07452119431731433
1	1	0	0	0	0	2	136474,77	0,200000003	3,26425195	0,00055612860509836013	0,20020626651069824	0,000653523719	0,052676353677388115	-0,0019654255798141194	0,075077322922412685
1	1	0	0	0	0	2	136484,77	0,200000003	3,4175899	0,00055612520844572115	0,20020504371593952	0,000684218714	0,053232478885833837	-0,0019861753590595245	0,075633448130858419
1	1	0	0	0	0	2	136494,77	0,200000003	3,39444923	0,0005561235054731369	0,20020443064590509	0,000679583754	0,05378860239130697	-0,0020069250747647328	0,076189571636331558
1	1	0	0	0	0	2	136504,77	0,200000003	3,13908267	0,00055612812783320736	0,20020609469527011	0,000628463458	0,054344730519140179	-0,0020276749629364096	0,076745699764164762
1	1	0	0	0	0	2	136514,77	0,200000003	3,27019429	0,00055612783229847757	0,20020598830278403	0,000654712494	0,05490085835143865	-0,002048424840081289	0,077301827596463245
1	1	0	0	0	0	2	136524,77	0,200000003	3,3337121	0,00055611962584075002	0,20020303397846435	0,000667419285	0,055456977977279398	-0,0020691744110321962	0,077857947222303987
1	1	0	0	0	0	2	136534,77	0,200000003	3,2984581	0,00055612262786676493	0,20020411470766061	0,000660364865	0,056013100605146163	-0,0020899240939927306	0,078414069850170752
1	1	0	0	0	0	2	136544,77	0,200000003	3,36245227	0,00055612924447572896	0,20020649668651501	0,000673184812	0,056569229849621894	-0,0021106740238278419	0,07897019909464649
1	1	0	0	0	0	2	136554,77	0,200000003	3,35951924	0,00055613149552875091	0,20020730706547613	0,00067260029	0,057125361345150643	-0,0021314240376527674	0,079526330590175232
1	1	0	0	0	0	2	136564,77	0,200000003	3,40418148	0,00055613292732586464	0,20020782251235642	0,000681543781	0,057681494272476506	-0,0021521741048999686	0,080082463517501107
1	1	0	0	0	0	2	136574,77	0,200000003	3,2756412	0,00055612711955358592	0,2002057317146632	0,000655802141	0,058237621392030093	-0,0021729239554513779	0,080638590637054694
1	1	0	0	0	0	2	136584,77	0,200000003	3,23728299	0,00055612458020034758	0,20020481754764042	0,000648119661	0,058793745972230438	-0,0021936737112561034	0,081194715217255053
1	1	0	0	0	0	2	136594,77	0,200000003	3,23151207	0,00055613175238254989	0,20020739953282928	0,000646972621	0,059349877724612979	-0,0022144237346645891	0,081750846969637594
1	1	0	0	0	0	2	136604,77	0,200000003	3,22673154	0,00055612966288626195	0,2002066473142833	0,000646013126	0,059906007387499251	-0,00223517368011116	0,082306976632523853
1	1	0	0	0	0	2	136614,77	0,200000003	3,29409671	0,00055612903070201478	0,20020641972798995	0,000659499317	0,060462136418201254	-0,0022559236019700861	0,082863105663225869
1	1	0	0	0	0	2	136618,73	0,200000003	3,50019169	0,00022038445762793222	0,20020791440740019	0,000700766104	0,060682520875829197	-0,002264146442394239	0,083083490120853798