File: Experimentelles/Ausgewaehlte_Daten/LAGP/GCPL/LAGP_Korrosion_05_GCPL_C02.mpt
EC-Lab ASCII FILE
Nb header lines : 81

Galvanostatic Cycling with Potential Limitation

Run on channel : 2 (SN 6986)
Grouped channel(s) : 2
User :
CE vs. WE compliance from -10 V to 10 V
Electrode connection : standard
Ewe ctrl range : min = 0,00 V, max = 5,00 V
Acquisition started on : 08.27.2015 14:25:34
Saved on :
	File : LAGP_Korrosion_05_GCPL_C02.mpr
	Directory : C:\Gielisch\NeueZelle\LiS-Test\Paul\
	Host : 192.168.0.2
Device : VMP3 (SN 0324)
Address : 192.168.0.1
EC-Lab for windows v10.33 (software)
Internet server v10.33 (firmware)
Command interpretor v10.32 (firmware)
Electrode material :
Initial state :
Electrolyte :
Comments :
Mass of active material : 0,001 mg
 at x = 0,000
Molecular weight of active material (at x = 0) : 0,001 g/mol
Atomic weight of intercalated ion : 0,001 g/mol
Acquisition started at : xo = 0,000
Number of e- transfered per intercalated ion : 1
for DX = 1, DQ = 26,801 mA.h
Battery capacity : 0,000 A.h
Electrode surface area : 0,001 cm²
Characteristic mass : 0,001 g
Ns                  0                   1                   2
Set I/C             I                   I                   I
Is                  0,000               50,000              -50,000
unit Is             mA                  µA                  µA
vs.                 <None>              <None>              <None>
N                   1                   1                   1
I sign              > 0                 > 0                 > 0
t1 (h:m:s)          0:00:0,0000         6:00:0,0000         6:00:0,0000
I Range             100 µA              100 µA              100 µA
Bandwidth           5                   5                   5
dE1 (mV)            0,00                10,00               10,00
dt1 (s)             0,0000              10,0000             10,0000
EM (V)              0,000               4,000               1,500
tM (h:m:s)          0:00:0,0000         0:00:0,0000         0:00:0,0000
Im                  0,000               0,000               0,000
unit Im             mA                  mA                  mA
E range min (V)     0,000               0,000               0,000
E range max (V)     5,000               5,000               5,000
dq                  0,000               1,000               1,000
unit dq             mA.h                mA.h                mA.h
dtq (s)             0,0000              120,0000            120,0000
dQM                 0,000               0,000               0,000
unit dQM            mA.h                mA.h                mA.h
dxM                 0,000               0,000               0,000
tR (h:m:s)          0:00:0,0000         0:00:0,0000         0:00:0,0000
dER/dt (mV/h)       0,0                 0,1                 0,1
dER (mV)            0,00                5,00                5,00
dtR (s)             1,0000              120,0000            120,0000
EL (V)              pass                4,200               3,500
goto Ns'            0                   0                   0
nc cycles           0                   0                   0

Number of loops : 11
Loop 0 from point number 0 to 350
Loop 1 from point number 351 to 850
Loop 2 from point number 851 to 1350
Loop 3 from point number 1351 to 1850
Loop 4 from point number 1851 to 2350
Loop 5 from point number 2351 to 2850
Loop 6 from point number 2851 to 3350
Loop 7 from point number 3351 to 3850
Loop 8 from point number 3851 to 4350
Loop 9 from point number 4351 to 4850
Loop 10 from point number 4851 to 5350

mode	ox/red	error	control changes	Ns changes	counter inc.	Ns	time/s	control/V/mA	Ewe/V	dq/mA.h	<I>/mA	P/W	(Q-Qo)/mA.h	x	Capacity/mA.h
1	1	0	0	1	0	1	3945,2541	0,0500000007	2,99935222	0	0	0	0	0	0
1	1	0	0	0	0	1	3957,8701	0,0500000007	3,19991422	1,1293481479709347E-005	0,050008037335822995	0,000160021431	0,00017456590161657219	-6,5132884956652518E-006	0,00017456590161657219
1	1	0	0	0	0	1	3973,2137	0,0500000007	3,40071869	1,0048906784918574E-005	0,050008384489343584	0,00017006445	0,0003877069900342	-1,4465869075768147E-005	0,0003877069900342
1	1	0	0	0	0	1	3987,6823	0,0500000007	3,60146594	1,0101740361294813E-005	0,05000861691329824	0,000180104325	0,00058869363204160563	-2,1964950918478656E-005	0,00058869363204160563
1	1	0	0	0	0	1	4002,7369	0,0500000007	3,80194616	1,1118428686840667E-005	0,05000792639152537	0,000190127437	0,00079782011289189312	-2,9767741092546803E-005	0,00079782011289189312
1	1	0	0	0	0	1	4020,6973	0,0500000007	4,00006151	1,0935086580407288E-005	0,05000801916151289	0,000200035152	0,0010473105284335552	-3,9076563939837523E-005	0,0010473105284335552
1	0	0	1	0	0	2	4028,2135	-0,0500000007	3,80614233	-6,1766230112148646E-006	-0,04999065513061639	0,000190271545	0,00094294393200198054	-3,518250590459417E-005	0,00010436659643157488
1	0	0	1	0	0	2	4037,1327	-0,0500000007	3,60518527	-6,115516534696023E-006	-0,049990599639130528	0,000180225368	0,00081908912494280346	-3,0561316528657114E-005	0,00022822140349075197
1	0	0	1	0	0	2	4045,9451	-0,0500000007	3,40447617	-6,0849743824866086E-006	-0,049990662552125926	0,000170192026	0,00069671796560492838	-2,5995484043987408E-005	0,00035059256282862688
1	0	0	1	0	0	2	4054,4823	-0,0500000007	3,20378613	-5,9127848173181222E-006	-0,049990666698157542	0,000160159398	0,00057816776548841792	-2,157221668520113E-005	0,00046914276294513715
1	0	0	1	0	0	2	4063,2079	-0,0500000007	3,00298166	-6,073880541655753E-006	-0,04999078761394967	0,000150121414	0,0004570015034174592	-1,7051340537561677E-005	0,00059030902501609587
1	0	0	1	0	0	2	4072,0433	-0,0500000007	2,80234885	-6,221087305496137E-006	-0,049990881396326989	0,000140091885	0,00033431026655496038	-1,2473565530099451E-005	0,00071300026187859443
1	0	0	1	0	0	2	4081,2833	-0,0500000007	2,60183048	-6,5987799865090189E-006	-0,049990758736425965	0,000130067478	0,00020600042787792822	-7,6861529346465024E-006	0,0008413101005556265
1	0	0	1	0	0	2	4091,0609	-0,0500000007	2,40114021	-7,1042205596135718E-006	-0,049990607233566496	0,000120034456	7,022572647033513E-005	-2,6202162741016413E-006	0,00097708480196321958
1	0	0	1	0	0	2	4102,1761	-0,0500000007	2,20054555	-8,512301235149303E-006	-0,04999067670092064	0,00011000676	-8,4123096766794266E-005	3,1387458450756218E-006	0,0011314336252003488
1	0	0	1	0	0	2	4115,2535	-0,0500000007	1,99983644	-9,5621192728479706E-006	-0,049990749054107514	9,99733238E-005	-0,00026571994829013901	9,9143685349752461E-006	0,0013130304767236936
1	0	0	1	0	0	2	4130,5173	-0,0500000007	1,7990129	-1,1742201881690158E-005	-0,0499904532712704	8,993347E-005	-0,00047767750492879866	1,7822789953129443E-005	0,0015249880333623533
1	0	0	1	0	0	2	4149,3235	-0,0500000007	1,59838963	-1,458057190746897E-005	-0,049990532859562931	7,99043482E-005	-0,00073882578118540275	2,7566583257855075E-005	0,0017861363096189574
1	1	0	1	0	0	1	4163,2513	0,0500000007	1,5940218	4,7758363025883834E-006	0,050008757700198528	7,97150497E-005	-0,00085843134110866227	3,202922750997751E-005	3,6211882258571277E-005
1	1	0	1	0	0	1	4171,2027	0,0500000007	1,79457831	5,9121205403159066E-006	0,050008539009950381	8,97442369E-005	-0,00074797620725642368	2,7907997957443565E-005	0,00014666701611080976
1	1	0	1	0	0	1	4180,0741	0,0500000007	1,9955163	6,3955327994707558E-006	0,050008510766716902	9,97928E-005	-0,00062474146571724659	2,3309944059744669E-005	0,00026990175764998672
1	1	0	1	0	0	1	4189,3357	0,0500000007	2,19603491	6,4733009162462413E-006	0,050008333864427494	0,000109820045	-0,00049608660662681594	1,8509658288782938E-005	0,00039855661674041766
1	1	0	1	0	0	1	4198,7317	0,0500000007	2,39668679	6,5955854554971059E-006	0,050008651911170195	0,000119855074	-0,00036556405961089562	1,3639686570188075E-005	0,00052907916375633805
1	1	0	1	0	0	1	4208,3873	0,0500000007	2,59722424	6,8039190489798784E-006	0,050008388878566342	0,000129883003	-0,00023143555257024758	8,6351716348057984E-006	0,00066320767079698611
1	1	0	1	0	0	1	4218,8805	0,0500000007	2,79800963	7,7097125001665613E-006	0,050008946552127194	0,000139925512	-8,5671439266766694E-005	3,1965165855182253E-006	0,00080897178410046694
1	1	0	1	0	0	1	4231,1589	0,0500000007	2,99862337	9,3294206598980557E-006	0,050008807001721485	0,000149957574	8,4891789558340531E-005	-3,167426806646663E-006	0,00097953501292557414
1	1	0	1	0	0	1	4245,6681	0,0500000007	3,19929433	1,0137856349969904E-005	0,050008609621224211	0,000159992254	0,00028644325070445014	-1,0687582810829624E-005	0,0011810864740716842
1	1	0	1	0	0	1	4259,1623	0,0500000007	3,39996529	8,8598087655587328E-006	0,050008328539651654	0,000170026586	0,00047389457976724646	-1,7681643929154954E-005	0,0013685378031344806
1	1	0	1	0	0	1	4272,0293	0,0500000007	3,60040736	9,137674633206592E-006	0,050008557431272979	0,000180051182	0,00065263349053791091	-2,4350633007029869E-005	0,0015472767139051453
1	1	0	1	0	0	1	4285,6471	0,0500000007	3,80107832	1,000444501514236E-005	0,050008334477380525	0,0001900856	0,00084180108801078566	-3,1408730407282643E-005	0,0017364443113780202
1	1	0	1	0	0	1	4302,0925	0,0500000007	4,00001383	1,1071315813809634E-005	0,050008453466277331	0,000200034512	0,0010702480926361522	-3,9932395300119482E-005	0,0019648913160033866
1	0	0	0	0	0	2	4309,7371	-0,0500000007	3,8055892	-6,207146746830807E-006	-0,04999044420402457	0,000190243096	0,00096409924041924467	-3,5971838905256973E-005	0,00010614885221690768
1	0	0	0	0	0	2	4318,6841	-0,0500000007	3,60499454	-6,157160787946647E-006	-0,049990480615363686	0,000180215415	0,00083985921382169037	-3,1336276470409888E-005	0,00023038887881446214
1	0	0	0	0	0	2	4327,4995	-0,0500000007	3,40453339	-6,0321784619655872E-006	-0,049990429849220762	0,000170194093	0,00071744651532307354	-2,6768894103802909E-005	0,00035280157731307872
1	0	0	0	0	0	2	4336,0503	-0,0500000007	3,20384336	-5,8905214325835302E-006	-0,049990281504929805	0,000160161027	0,00059870803510076544	-2,2338601761124026E-005	0,00047154005753538662
1	0	0	0	0	0	2	4344,8087	-0,0500000007	3,00298166	-6,1432697814371853E-006	-0,049990441864562778	0,000150120381	0,00047708688225503706	-1,7800753027070765E-005	0,00059316121038111514
1	0	0	0	0	0	2	4353,6379	-0,0500000007	2,80242515	-6,2210493601030771E-006	-0,0499905758219704	0,000140094853	0,00035448245779703987	-1,3226217107141014E-005	0,00071576563483911206
1	0	0	0	0	0	2	4362,8267	-0,0500000007	2,60158253	-6,4931808631453248E-006	-0,049990272433968371	0,000130053813	0,00022688474925203546	-8,465375044383168E-006	0,0008433633433841161
1	0	0	0	0	0	2	4372,5107	-0,0500000007	2,40089226	-6,9847783895416397E-006	-0,04999046223971815	0,000120021716	9,2410626624086746E-005	-3,4479647267536058E-006	0,00097783746601206477
1	0	0	0	0	0	2	4383,5009	-0,0500000007	2,20003057	-8,3594498423238592E-006	-0,04999006610655129	0,000109979672	-6,0201402830066688E-005	2,2461952812367478E-006	0,0011304494954662179
1	0	0	0	0	0	2	4396,3709	-0,0500000007	1,99953127	-9,4425961673259738E-006	-0,049990215608432122	9,99569966E-005	-0,00023891650981508099	8,9142962078645222E-006	0,0013091646024512323
1	0	0	0	0	0	2	4411,3369	-0,0500000007	1,79882216	-1,1350731248242987E-005	-0,049990987262485133	8,99248989E-005	-0,0004467381899341351	1,6668402512327117E-005	0,0015169862825702867
1	0	0	0	0	0	2	4429,6741	-0,0500000007	1,59817982	-1,4008407913562325E-005	-0,04999035398429897	7,98935725E-005	-0,00070137340656906291	2,6169184805666214E-005	0,0017716214992052141
1	1	0	1	0	0	1	4443,2127	0,0500000007	1,59398365	4,7953126871337498E-006	0,050009055280225222	7,97136163E-005	-0,00081524610946209523	3,0417928454082624E-005	3,6375809564609907E-005
1	1	0	1	0	0	1	4451,1329	0,0500000007	1,79450202	5,8982395753264435E-006	0,050008626302726464	8,97405844E-005	-0,00070522448710565389	2,6312873798319277E-005	0,00014639743192105117
1	1	0	1	0	0	1	4459,9267	0,0500000007	1,99521112	6,3093109242618086E-006	0,050007749013751814	9,97760144E-005	-0,00058306816242662195	2,1755057083619277E-005	0,00026855375660008314
1	1	0	1	0	0	1	4469,0621	0,0500000007	2,19572973	6,381638226202793E-006	0,05000848474683511	0,000109805114	-0,00045616671001337939	1,7020193273263789E-005	0,00039545520901332589
1	1	0	1	0	0	1	4478,3283	0,0500000007	2,3965342	6,5371899002542093E-006	0,050008253136744218	0,000119846489	-0,0003274476165362329	1,2217510830969646E-005	0,00052417430249047232
1	1	0	1	0	0	1	4487,8255	0,0500000007	2,59709072	6,7566630217350195E-006	0,050008197311938835	0,000129875829	-0,0001955196486941855	7,2951009717435789E-006	0,00065610227033251942
1	1	0	1	0	0	1	4498,1265	0,0500000007	2,79770446	7,6068291306081754E-006	0,050008373268374771	0,000139908647	-5,2425983551952314E-005	1,9560839338078957E-006	0,00079919593547475251
1	1	0	1	0	0	1	4510,2119	0,0500000007	2,99828005	9,1737784190724288E-006	0,050008483810583392	0,000149939442	0,00011545535818336266	-4,3077946452013018E-006	0,00096707727721006746
1	1	0	1	0	0	1	4524,5795	0,0500000007	3,19904637	1,0151718718517158E-005	0,050008467198787482	0,000159979405	0,00031503979934042061	-1,1754558488906243E-005	0,0011666617183671254
1	1	0	1	0	0	1	4537,9131	0,0500000007	3,39948845	8,6459006766478221E-006	0,050008423541960966	0,000170003055	0,00050025983342915302	-1,8665366991741248E-005	0,0013518817524558582
1	1	0	1	0	0	1	4550,6009	0,0500000007	3,60008311	8,9988186814718771E-006	0,050008872561342086	0,000180036091	0,00067650995477820787	-2,5241495990082944E-005	0,0015281318738049133
1	1	0	1	0	0	1	4563,9483	0,0500000007	3,80069685	9,7794838818824947E-006	0,050008725001885363	0,000190068007	0,00086192280924189786	-3,215949888035737E-005	0,0017135447282686035
1	1	0	1	0	0	1	4579,9533	0,0500000007	4,00005198	1,1507455555308197E-005	0,050008257485886067	0,000200035633	0,001084252294602017	-4,0454910904315699E-005	0,0019358742136287226
1	0	0	0	0	0	2	4587,6421	-0,0500000007	3,80577993	-6,245993064302537E-006	-0,049990162970602016	0,000190251565	0,00097749031175066598	-3,6471477781119194E-005	0,0001067619828513513
1	0	0	0	0	0	2	4596,5987	-0,0500000007	3,6050899	-6,1543368388795187E-006	-0,049990101281489139	0,000180218805	0,00085311681214672397	-3,1830935288947411E-005	0,00023113548245529331
1	0	0	0	0	0	2	4605,4093	-0,0500000007	3,40447617	-6,0849325329893171E-006	-0,049990318083239136	0,000170190848	0,00073077100451284378	-2,7266048710439485E-005	0,00035348129008917338
1	0	0	0	0	0	2	4613,9655	-0,0500000007	3,20346189	-5,9238486180288922E-006	-0,049990284302790656	0,000160141964	0,00061195792840208026	-2,2832973094867091E-005	0,00047229436619993702
1	0	0	0	0	0	2	4622,7299	-0,0500000007	3,00275278	-6,101584033419689E-006	-0,049990220267830528	0,000150108273	0,00049025367889981709	-1,8292023912833875E-005	0,00059399861570220019
1	0	0	0	0	0	2	4631,5681	-0,0500000007	2,80206275	-6,215489404896896E-006	-0,049990532012947034	0,000140076605	0,00036752464548326611	-1,3712838665121958E-005	0,0007167276491187511
1	0	0	0	0	0	2	4640,7271	-0,0500000007	2,60129642	-6,5293708507799437E-006	-0,049990930130668896	0,000130041226	0,00024034049407138176	-8,9674269750343002E-006	0,00084391180053063539
1	0	0	0	0	0	2	4650,3737	-0,0500000007	2,40056801	-6,9736340490894182E-006	-0,049990208843873574	0,000120004894	0,00010638551150628678	-3,9693864711410483E-006	0,00097786678309573043
1	0	0	0	0	0	2	4661,2895	-0,0500000007	2,19999242	-8,3761959692670246E-006	-0,049990560102670496	0,00010997885	-4,519370898776167E-005	1,6862380459213731E-006	0,0011294460035897792
1	0	0	0	0	0	2	4674,0783	-0,0500000007	1,99947405	-9,2899550381633971E-006	-0,049990790049123712	9,99552867E-005	-0,00022278242713612403	8,3123118906077658E-006	0,0013070347217381411
1	0	0	0	0	0	2	4688,9289	-0,0500000007	1,79866958	-1,1222779225351082E-005	-0,049990108513814118	8,99156876E-005	-0,00042900159649267386	1,6006626363922688E-005	0,0015132538910946906
1	0	0	0	0	0	2	4707,0463	-0,0500000007	1,59808445	-1,3989064469312627E-005	-0,04999070150786736	7,98893598E-005	-0,00068058343202792538	2,5393482903118314E-005	0,0017648357266299424
1	1	0	1	0	0	1	4720,3331	0,0500000007	1,59396458	4,8007839396595955E-006	0,050008166642363117	7,97112443E-005	-0,00079062131014015347	2,9499144082986163E-005	3,6545059530704032E-005
1	1	0	1	0	0	1	4728,2597	0,0500000007	1,79486442	5,878787877038121E-006	0,050008593131518426	8,97586433E-005	-0,0006805108603641001	2,5390775156767354E-005	0,00014665550930675744
1	1	0	1	0	0	1	4737,0167	0,0500000007	1,99547815	6,2732334495004672E-006	0,050008061762191098	9,97899915E-005	-0,00055886571974208211	2,0852031406528819E-005	0,00026830064992877552
1	1	0	1	0	0	1	4746,1127	0,0500000007	2,19622564	6,3677476971513702E-006	0,050008490372704275	0,000109829925	-0,00043251159551433645	1,6137589146664794E-005	0,00039465477415652128
1	1	0	1	0	0	1	4755,3083	0,0500000007	2,39697289	6,395539538106985E-006	0,050008563458052083	0,000119869168	-0,00030477306071776742	1,1371492667118163E-005	0,00052239330895309024
1	1	0	1	0	0	1	4764,7351	0,0500000007	2,59773922	6,6872127972957158E-006	0,050008239222824698	0,000129908367	-0,00017382324457524797	6,4855789629404326E-006	0,00065334312509560947
1	1	0	1	0	0	1	4774,9563	0,0500000007	2,79842925	7,504061769280169E-006	0,050008557380096032	0,000139945405	-3,1838121623465594E-005	1,1879231245812958E-006	0,00079532824804739187
1	1	0	1	0	0	1	4786,9981	0,0500000007	2,9991765	9,1987707587993805E-006	0,050008419107629165	0,000149984073	0,00013543728886022917	-5,0533473447467187E-006	0,00096260365853108672
1	1	0	1	0	0	1	4801,2907	0,0500000007	3,19973302	1,0110041428564323E-005	0,050008449552300678	0,000160013689	0,00033397916176082944	-1,2461211565055296E-005	0,0011611455314316869
1	1	0	1	0	0	1	4814,5713	0,0500000007	3,40034676	8,5959354957772621E-006	0,050008675112713792	0,000170046842	0,00051846340770042362	-1,9344566822768266E-005	0,0013456297773712811
1	1	0	1	0	0	1	4827,1623	0,0500000007	3,60099864	8,8432279597553946E-006	0,050008829784658195	0,000180081726	0,00069336851573337869	-2,587051156589664E-005	0,0015205348854042362
1	1	0	1	0	0	1	4840,3823	0,0500000007	3,80176497	9,6516651165568166E-006	0,050008628152494554	0,000190121049	0,00087701143424539712	-3,2722475766110003E-005	0,0017041778039162541
1	1	0	1	0	0	1	4856,0565	0,0500000007	3,99993753	9,9489210701237133E-006	0,0500085399129768	0,000200031034	0,0010947456971983922	-4,0846433863716294E-005	0,0019219120668692486
1	0	0	0	0	0	2	4863,7883	-0,0500000007	3,80541754	-6,2459884290066035E-006	-0,049990125871745702	0,000190233302	0,00098738638676346803	-3,6840713645261203E-005	0,00010735931043492422
1	0	0	0	0	0	2	4872,7503	-0,0500000007	3,60457492	-6,154355608754688E-006	-0,049990253744375936	0,000180193616	0,00086293846143984768	-3,2197394229421773E-005	0,00023180723575854464
1	0	0	0	0	0	2	4881,5493	-0,0500000007	3,40388489	-6,040462237679296E-006	-0,049990032917469005	0,000170160318	0,00074075389208288461	-2,76385236678128E-005	0,00035399180511550771
1	0	0	0	0	0	2	4890,0823	-0,0500000007	3,20332837	-5,9071714706304998E-006	-0,049990168199689011	0,000160134921	0,00062226298354996352	-2,3217468557728621E-005	0,00047248271364842848
1	0	0	0	0	0	2	4898,8523	-0,0500000007	3,00265741	-6,1210419016165862E-006	-0,049990360964070598	0,000150103922	0,00050048094979731347	-1,8673617140731434E-005	0,00059426474740107853
1	0	0	0	0	0	2	4907,6949	-0,0500000007	2,80198646	-6,2071443088352678E-006	-0,049990424569160928	0,000140072487	0,00037769071783969562	-1,409214849317E-005	0,00071705497935869619
1	0	0	0	0	0	2	4916,8327	-0,0500000007	2,60122013	-6,4654216766357427E-006	-0,049990374395073734	0,000130035973	0,00025080114964474173	-9,3577280989773619E-006	0,0008439445475536503
1	0	0	0	0	0	2	4926,4447	-0,0500000007	2,40051079	-6,9292367618117069E-006	-0,04999048626174144	0,000120002704	0,00011732593539849518	-4,3775883961157101E-006	0,00097741976179989696
1	0	0	0	0	0	2	4937,3365	-0,0500000007	2,19989705	-8,2345463970883034E-006	-0,049990501498280544	0,00010997396	-3,39203453778416E-005	1,2656136924366774E-006	0,0011286660425762333
1	0	0	0	0	0	2	4950,0819	-0,0500000007	1,99941683	-9,2260411321702925E-006	-0,049990590724955072	9,99520271E-005	-0,00021090610053518816	7,8691901772359078E-006	0,0013056517977335795
1	0	0	0	0	0	2	4964,8531	-0,0500000007	1,79874587	-1,1222818066262538E-005	-0,049990281523657581	8,9919813E-005	-0,00041602219170812346	1,5522347320415779E-005	0,0015107678889065152
1	0	0	0	0	0	2	4982,8283	-0,0500000007	1,59819889	-1,370284947152767E-005	-0,049990128389541421	7,98941692E-005	-0,0006656293561088567	2,483552622460895E-005	0,0017603750533072486
1	1	0	1	0	0	1	4995,9693	0,0500000007	1,59383106	4,8341355737712653E-006	0,050008299643620064	7,97047833E-005	-0,00077355340643888154	2,886231764785111E-005	3,6589442876120128E-005
1	1	0	1	0	0	1	5003,8759	0,0500000007	1,79446387	5,8510262239724403E-006	0,050008771750123098	8,97389327E-005	-0,00066372086925389491	2,4764318014062461E-005	0,00014642198006110694
1	1	0	1	0	0	1	5012,6161	0,0500000007	1,99524927	6,2454608368376883E-006	0,050008138977804736	9,97786992E-005	-0,00054230839473877152	2,0234255349095075E-005	0,00026783445457623043
1	1	0	1	0	0	1	5021,6691	0,0500000007	2,19574881	6,3288330003205274E-006	0,050008338623576883	0,000109805747	-0,00041655092004147309	1,5542074885415859E-005	0,0003935919292735289
1	1	0	1	0	0	1	5030,8325	0,0500000007	2,39670587	6,367723272492489E-006	0,050008298557596685	0,000119855184	-0,00028926000920475002	1,0792679857647896E-005	0,00052088284011025203
1	1	0	1	0	0	1	5040,2079	0,0500000007	2,59741497	6,6761850958897011E-006	0,050008877727422419	0,0001298938	-0,00015902402944406362	5,9334003486395789E-006	0,00065111881987093875
1	1	0	1	0	0	1	5050,3791	0,0500000007	2,79795241	7,5818389351997107E-006	0,050008465550519654	0,000139921307	-1,7733128860581171E-005	6,6164688023361293E-007	0,00079240972045442099
1	1	0	1	0	0	1	5062,3457	0,0500000007	2,99864244	9,0682318999121587E-006	0,050008632406596621	0,00014995801	0,0001484974701259816	-5,5406402673724083E-006	0,00095864031944098368
1	1	0	1	0	0	1	5076,5987	0,0500000007	3,19914174	1,0082256420825918E-005	0,050008436972316282	0,000159984076	0,00034648964545814861	-1,2927994532326499E-005	0,0011566324947731512
1	1	0	1	0	0	1	5089,8623	0,0500000007	3,3997364	8,6209101927363213E-006	0,050008503173730522	0,00017001573	0,0005307375062898745	-1,9802529943841747E-005	0,0013408803556048773
1	1	0	1	0	0	1	5102,3691	0,0500000007	3,6002357	8,80417294200096E-006	0,050007925173412166	0,000180040312	0,00070447234966337997	-2,628481053908849E-005	0,0015146151989783834
1	1	0	1	0	0	1	5115,4711	0,0500000007	3,80088758	9,6293342753003046E-006	0,050008083973646285	0,000190075109	0,00088647435624691674	-3,3075550109020653E-005	0,00169661720556192
1	1	0	1	0	0	1	5130,9959	0,0500000007	4,00009012	1,0779579935181472E-005	0,05000836112903353	0,000200037946	0,0011021326662554627	-4,1122051611121126E-005	0,0019122755155704659
1	0	0	0	0	0	2	5138,7397	-0,0500000007	3,80570364	-6,2543585124529075E-006	-0,049990432763815258	0,000190248771	0,0009946063929332745	-3,7110101782858227E-005	0,00010752627332218818
1	0	0	0	0	0	2	5147,6965	-0,0500000007	3,60495639	-6,1099958800607258E-006	-0,049990875988820762	0,000180214935	0,00087023012554398362	-3,2469456020893747E-005	0,00023190254071147907
1	0	0	0	0	0	2	5156,4819	-0,0500000007	3,4043808	-6,0655570069534912E-006	-0,049990855056275738	0,000170187908	0,00074823334856477427	-2,7917592245388298E-005	0,00035389931769068877
1	0	0	0	0	0	2	5165,0101	-0,0500000007	3,20380521	-5,9183607391185229E-006	-0,049990846830105408	0,00016016094	0,00062980801553549402	-2,349898384551216E-005	0,00047232465071996877
1	0	0	0	0	0	2	5173,7921	-0,0500000007	3,00313425	-6,1794212394290509E-006	-0,049990824115694131	0,000150129155	0,00050785830975656224	-1,8948876359776966E-005	0,00059427435649890048
1	0	0	0	0	0	2	5182,6313	-0,0500000007	2,80255866	-6,2488250070148045E-006	-0,049990600661040992	0,000140101591	0,00038511436164028461	-1,4369134624565218E-005	0,00071701830461517811
1	0	0	0	0	0	2	5191,7485	-0,0500000007	2,60190678	-6,4654663540422912E-006	-0,04999071983581817	0,000130071188	0,0002585101763291609	-9,645362249469655E-006	0,00084362248992630221
1	0	0	0	0	0	2	5201,3365	-0,0500000007	2,40110207	-6,9348508485903347E-006	-0,049990915812559718	0,000120033292	0,00012536811110150819	-4,6776527844153581E-006	0,00097676455515395494
1	0	0	0	0	0	2	5212,2193	-0,0500000007	2,20029759	-8,253994452663593E-006	-0,049990545742921062	0,000109994078	-2,5753584271078243E-005	9,6090085521624704E-007	0,0011278862505265416
1	0	0	0	0	0	2	5224,9467	-0,0500000007	1,99974108	-9,3204896096140147E-006	-0,049990707688738458	9,99684707E-005	-0,00020249031051888723	7,5551857365777011E-006	0,001304622976774351
1	0	0	0	0	0	2	5239,6571	-0,0500000007	1,79922271	-1,120900101442304E-005	-0,049990589866533043	8,9944202E-005	-0,00040676334570367789	1,5176887327339066E-005	0,0015088960119591421
1	0	0	0	0	0	2	5257,5375	-0,0500000007	1,59865665	-1,3675243917024798E-005	-0,049990737913815597	7,9918027E-005	-0,00065505499206461491	2,4440982484734624E-005	0,0017571876583200794
1	1	0	1	0	0	1	5270,6177	0,0500000007	1,59398365	4,7980177327990528E-006	0,050008291972722394	7,97124012E-005	-0,0007619413173114752	2,8429054989887702E-005	3,668668130216201E-005
1	1	0	1	0	0	1	5278,5313	0,0500000007	1,79467368	5,8760024596833523E-006	0,050008532177910579	8,97489954E-005	-0,00065201214593492403	2,4327449804485725E-005	0,00014661585267871322
1	1	0	1	0	0	1	5287,2459	0,0500000007	1,99519205	6,1648748666048051E-006	0,050007998622399622	9,97755633E-005	-0,00053095658093058368	1,9810703913235594E-005	0,0002676714176830537
1	1	0	1	0	0	1	5296,2935	0,0500000007	2,19572973	6,3482870289848909E-006	0,050008388580163104	0,000109804903	-0,00040527518234017798	1,5121361951389962E-005	0,00039335281627345952
1	1	0	1	0	0	1	5305,4231	0,0500000007	2,39647698	6,342703999744521E-006	0,05000817931529287	0,000119843447	-0,00027845430640119616	1,0389504557625365E-005	0,00052017369221244128
1	1	0	1	0	0	1	5314,7615	0,0500000007	2,59705257	6,609439339488745E-006	0,050008368874164525	0,000129874359	-0,00014873259461969933	5,5494130783612614E-006	0,00064989540399393818
1	1	0	1	0	0	1	5324,8953	0,0500000007	2,79755187	7,4345092313985024E-006	0,050007910233452838	0,000139899726	-7,9625912079874138E-006	2,9709498378775123E-007	0,00079066540740565005
1	1	0	1	0	0	1	5336,8345	0,0500000007	2,9983182	9,0626417957246298E-006	0,050008447057284013	0,000149941232	0,00015788661211285357	-5,8909617787382643E-006	0,00095651461072649101
1	1	0	1	0	0	1	5351,0887	0,0500000007	3,1990273	1,0093368207207984E-005	0,050008431029129466	0,000159978343	0,00035589406762304435	-1,327888616767884E-005	0,0011545220662366814
1	1	0	1	0	0	1	5364,3331	0,0500000007	3,39948845	8,5958749351816051E-006	0,05000832278862361	0,000170002721	0,0005398745824139072	-2,0143446538958912E-005	0,0013385025810275438
1	1	0	1	0	0	1	5376,8039	0,0500000007	3,60014033	8,7181635836346278E-006	0,050008587127674682	0,000180037925	0,00071310886552982886	-2,6607050557984774E-005	0,0015117368641434656
1	1	0	1	0	0	1	5389,8263	0,0500000007	3,80081129	9,5488134076197939E-006	0,05000833384229737	0,000190072242	0,00089400526679525798	-3,3356538506996179E-005	0,0016926332654088941
1	1	0	1	0	0	1	5405,2067	0,0500000007	3,99997568	1,0668426068499683E-005	0,050008247800861984	0,000200031776	0,0011076569485266096	-4,1328170010134125E-005	0,0019062849471402458
1	0	0	0	0	0	2	5412,9585	-0,0500000007	3,80593252	-6,2766381531125965E-006	-0,049990923949602995	0,000190262086	0,0010000186415425526	-3,7312040055316038E-005	0,00010763830698405704
1	0	0	0	0	0	2	5421,9047	-0,0500000007	3,60535693	-6,157218005094263E-006	-0,04999094516595888	0,000180235205	0,00087578883078540416	-3,267685878720983E-005	0,00023186811774120563
1	0	0	0	0	0	2	5430,6851	-0,0500000007	3,40462875	-6,0600281604048282E-006	-0,049991067007234074	0,00017020102	0,00075386057844190182	-2,812755175799496E-005	0,0003537963700847081
1	0	0	0	0	0	2	5439,2091	-0,0500000007	3,20405316	-5,9183471947908403E-006	-0,049990732423001446	0,00016017296	0,00063549344657021299	-2,3711114921560848E-005	0,00047216350195639667
1	0	0	0	0	0	2	5447,9977	-0,0500000007	3,00334406	-6,1599686315490138E-006	-0,049990728904586758	0,000150139356	0,00051345199707306938	-1,9157584354348429E-005	0,00059420495145354022
1	0	0	0	0	0	2	5456,8497	-0,0500000007	2,80248237	-6,1682945651312666E-006	-0,049990681456552909	0,000140097996	0,00039053042496172928	-1,4571215229062899E-005	0,00071712652356488013
1	0	0	0	0	0	2	5465,9711	-0,0500000007	2,60162067	-6,443236533138487E-006	-0,049990628878743661	0,000130056651	0,00026386815059320816	-9,845275473134272E-006	0,00084378879793340173
1	0	0	0	0	0	2	5475,5417	-0,0500000007	2,40104485	-6,9153741693331136E-006	-0,04999065725130857	0,000120029807	0,00013096801857889547	-4,8865928615523571E-006	0,00097668892994771443
1	0	0	0	0	0	2	5486,3971	-0,0500000007	2,20037389	-8,2095977063808179E-006	-0,049990785014191034	0,000109998415	-1,9773360631623011E-005	7,3777067073197453E-007	0,001127430309158232
1	0	0	0	0	0	2	5499,1237	-0,0500000007	1,99962664	-9,2593775791012582E-006	-0,049990641404001203	9,99626209E-005	-0,00019649877653176563	7,331633547815072E-006	0,0013041557250583744
1	0	0	0	0	0	2	5513,8001	-0,0500000007	1,79905105	-1,1211824656774602E-005	-0,049990796696786829	8,99359948E-005	-0,00040029963003853101	1,4935717405314294E-005	0,0015079565785651395
1	0	0	0	0	0	2	5531,6121	-0,0500000007	1,59848499	-1,3530764474016098E-005	-0,049990509745592019	7,99090776E-005	-0,00064764238833603712	2,4164408273269674E-005	0,0017552993368626458
1	1	0	1	0	0	1	5544,5919	0,0500000007	1,59383106	4,848027685450183E-006	0,050008309107620422	7,97047978E-005	-0,00075309040560643802	2,8098815573995418E-005	3,670886010428967E-005
1	1	0	1	0	0	1	5552,5013	0,0500000007	1,79452109	5,931530461543136E-006	0,050008219953377485	8,97408027E-005	-0,0006432192331412608	2,3999374405957162E-005	0,00014658003256946672
1	1	0	1	0	0	1	5561,2165	0,0500000007	1,99511576	6,1593641249669926E-006	0,050008369686398752	9,97724856E-005	-0,00052215468426077805	1,9482293314209213E-005	0,00026764458144994938
1	1	0	1	0	0	1	5570,2567	0,0500000007	2,19584417	6,3204824845823974E-006	0,050008213670798675	0,000109810244	-0,00039657577579352672	1,4796775396657901E-005	0,00039322348991720064
1	1	0	1	0	0	1	5579,3783	0,0500000007	2,39662957	6,3538687531318925E-006	0,050008587205602221	0,000119852062	-0,00026986577848870806	1,0069055033811843E-005	0,0005199334872220192
1	1	0	1	0	0	1	5588,7067	0,0500000007	2,59733868	6,6705074515193702E-006	0,050007969838157299	0,00012988763	-0,00014028303835632158	5,234148773625417E-006	0,00064951622735440563
1	1	0	1	0	0	1	5598,8247	0,0500000007	2,79793334	7,4845816830380096E-006	0,050008341472185907	0,000139920012	2,6798345222986477E-007	-9,9988229102798272E-009	0,00079006724916295693
1	1	0	1	0	0	1	5610,7321	0,0500000007	2,99847078	9,1376073536359603E-006	0,050008189223329952	0,0001499481	0,00016567608386290486	-6,181597442788832E-006	0,00095547534957363187
1	1	0	1	0	0	1	5624,9757	0,0500000007	3,19927526	1,0018298699417046E-005	0,050008147191531181	0,000159989824	0,00036353682123571546	-1,356404758075912E-005	0,0011533360869464422
1	1	0	1	0	0	1	5638,2339	0,0500000007	3,4000988	8,5597732172658048E-006	0,050008412780387686	0,000170033542	0,00054770894539099514	-2,0435757155047114E-005	0,0013375082111017221
1	1	0	1	0	0	1	5650,6541	0,0500000007	3,60078883	8,6903279545820429E-006	0,050008281673494387	0,000180069255	0,00072023985108228096	-2,687311721665881E-005	0,001510039116793008
1	1	0	1	0	0	1	5663,6161	0,0500000007	3,80142164	9,4737509507685901E-006	0,050008070139802605	0,000190101753	0,0009002969840813833	-3,3591290938245376E-005	0,0016900962497921107
1	1	0	1	0	0	1	5678,8223	0,0500000007	3,99997568	9,8349553338355494E-006	0,050008248065673178	0,000200031776	0,0011115286770195173	-4,1472629405798835E-005	0,0019013279427302448
1	0	0	0	0	0	2	5686,5927	-0,0500000007	3,80581808	-6,3099085096683763E-006	-0,049990472952613101	0,00019025465	0,0010036325746546179	-3,7446880758711942E-005	0,00010789610236489938
1	0	0	0	0	0	2	5695,5319	-0,0500000007	3,60518527	-6,0516356029030349E-006	-0,049990565475424794	0,000180225252	0,0008795001557019424	-3,281533330977529E-005	0,00023202852131757478
1	0	0	0	0	0	2	5704,3047	-0,0500000007	3,40439987	-6,0460754502564672E-006	-0,049990518798540518	0,000170187719	0,00075767837786686797	-2,8269998987626368E-005	0,00035385029915264922
1	0	0	0	0	0	2	5712,8251	-0,0500000007	3,20372891	-5,9100257441815398E-006	-0,049990819869501696	0,00016015704	0,00063936150436943488	-2,3855437358708838E-005	0,0004721671726500825
1	0	0	0	0	0	2	5721,6271	-0,0500000007	3,0028863	-6,1794210595803136E-006	-0,049990822660738035	0,000150116757	0,00051713407524170042	-1,9294967641426803E-005	0,00059439460177781696
1	0	0	0	0	0	2	5730,4765	-0,0500000007	2,8021009	-6,2071799279914957E-006	-0,04999071143322471	0,000140079021	0,00039424829367601939	-1,4709933909520717E-005	0,00071728038334349811
1	0	0	0	0	0	2	5739,5787	-0,0500000007	2,60156345	-6,4210088840789261E-006	-0,049990554201030598	0,000130053595	0,00026785239689374877	-9,9939330594835674E-006	0,0008436762801257687
1	0	0	0	0	0	2	5749,1359	-0,0500000007	2,40098763	-6,8847990894897114E-006	-0,049990474026605331	0,000120026511	0,00013513861416768614	-5,0422033903955437E-006	0,00097639006285183117
1	0	0	0	0	0	2	5759,9725	-0,0500000007	2,20041203	-8,1928800205803571E-006	-0,049990454968551181	0,000109999601	-1,5341081179968992E-005	5,7239636512766054E-007	0,0011268697581994859
1	0	0	0	0	0	2	5772,6623	-0,0500000007	1,99974108	-9,2121728797339738E-006	-0,049990688527407648	9,99684344E-005	-0,0001915551598917287	7,1471805642120307E-006	0,0013030838369112458
1	0	0	0	0	0	2	5787,3011	-0,0500000007	1,79910827	-1,1261801683240467E-005	-0,04999073557413831	8,99387451E-005	-0,00039483373762427194	1,4731777610367776E-005	0,0015063624146437894
1	0	0	0	0	0	2	5805,0685	-0,0500000007	1,59831333	-1,340579646246301E-005	-0,049990540552069574	7,99005502E-005	-0,0006415567272374624	2,3937344075423482E-005	0,0017530854042569798
1	1	0	1	0	0	1	5817,9545	0,0500000007	1,59392643	4,850800473449959E-006	0,050008252908393882	7,97094763E-005	-0,00074551805454238362	2,7816280974661261E-005	3,6800617544950656E-005
1	1	0	1	0	0	1	5825,8605	0,0500000007	1,7944448	5,8370677474886182E-006	0,050008196442816666	8,97369464E-005	-0,00063569433561147853	2,3718610361788653E-005	0,00014662433647585571
1	1	0	1	0	0	1	5834,5721	0,0500000007	1,99513483	6,2037926798479424E-006	0,050008181633791674	9,97730676E-005	-0,00051468036265210086	1,9203416325657178E-005	0,00026763830943523347
1	1	0	1	0	0	1	5843,5983	0,0500000007	2,19572973	6,3510176278650765E-006	0,05000801342219177	0,000109804081	-0,00038929575943402899	1,4525148198198944E-005	0,00039302291265330541
1	1	0	1	0	0	1	5852,7041	0,0500000007	2,39643884	6,3427164618753728E-006	0,050008277572847245	0,000119841781	-0,00026280529569435395	9,8056189278344128E-006	0,00051951337639298054
1	1	0	1	0	0	1	5862,0143	0,0500000007	2,59714794	6,6039106777558733E-006	0,050008579570014778	0,000129879685	-0,00013347505231878765	4,9801336611304474E-006	0,00064884361976854669
1	1	0	1	0	0	1	5872,1123	0,0500000007	2,79774261	7,490118600842025E-006	0,050008210849059155	0,000139910102	6,7985174888295398E-006	-2,5366182821220979E-007	0,00078911718957616397
1	1	0	1	0	0	1	5883,9917	0,0500000007	2,99826097	9,0876039628767296E-006	0,050008215626316653	0,000149937681	0,00017181773666153411	-6,4107507662457011E-006	0,00095413640874886861
1	1	0	1	0	0	1	5898,2027	0,0500000007	3,1986649	1,0140551259120306E-005	0,050008198595561523	0,000159959469	0,00036922533158280832	-1,3776293550092659E-005	0,0011515440036701432
1	1	0	1	0	0	1	5911,4541	0,0500000007	3,39946938	8,5541701995664166E-006	0,050008140779112461	0,000170001149	0,0005533021878561383	-2,064444855161608E-005	0,0013356208599434731
1	1	0	1	0	0	1	5923,8333	0,0500000007	3,60000682	8,7264697518613606E-006	0,050008423252107443	0,000180030664	0,00072526350006880909	-2,706055631471407E-005	0,0015075821721561446
1	1	0	1	0	0	1	5936,7251	0,0500000007	3,80056334	9,3265007434205862E-006	0,050008047487009869	0,000190058752	0,00090434541842761203	-3,3742343466881037E-005	0,0016866640905149472
1	1	0	1	0	0	1	5951,8855	0,0500000007	3,99999475	1,0837834224518803E-005	0,050007951398184198	0,000200031543	0,001114940584987667	-4,1599932279449555E-005	0,0018972592570750022
1	0	0	0	0	0	2	5959,6585	-0,0500000007	3,8059516	-6,298797429642743E-006	-0,049990456396146797	0,000190261257	0,0010070085055801778	-3,7572841280531981E-005	0,00010793207940748995
1	0	0	0	0	0	2	5968,5937	-0,0500000007	3,60528064	-6,0821707494970829E-006	-0,04999044512157865	0,000180229588	0,00088293160334049101	-3,2943365234799955E-005	0,0002320089816471769
1	0	0	0	0	0	2	5977,3457	-0,0500000007	3,4046669	-5,9961020673314726E-006	-0,049990661658155085	0,000170201558	0,00076139872820515686	-2,8408810260812157E-005	0,00035354185678251085
1	0	0	0	0	0	2	5985,8665	-0,0500000007	3,2039578	-5,8905723877251149E-006	-0,049990713938951322	0,000160168143	0,00064307617470317504	-2,3994036703288067E-005	0,00047186441028449261
1	0	0	0	0	0	2	5994,6529	-0,0500000007	3,00340128	-6,1071824603196646E-006	-0,049990580088748755	0,000150141772	0,00052106576847725517	-1,944166440226313E-005	0,00059387481651041242
1	0	0	0	0	0	2	6003,5007	-0,0500000007	2,80282569	-6,1682907806502451E-006	-0,049990650787024806	0,00014011508	0,00039820267325935341	-1,4857477128494803E-005	0,00071673791172831437
1	0	0	0	0	0	2	6012,6005	-0,0500000007	2,60217381	-6,4210092034190899E-006	-0,049990556687242976	0,00013008411	0,00027184011591231725	-1,01427202176116E-005	0,00084310046907535027
1	0	0	0	0	0	2	6022,1527	-0,0500000007	2,40140724	-6,9293038108282624E-006	-0,049990969982107219	0,00012004868	0,00013919553160797454	-5,1935724346762144E-006	0,0009757450533796928
1	0	0	0	0	0	2	6032,9697	-0,0500000007	2,2008698	-8,1401474995331635E-006	-0,049990671020697466	0,000110022957	-1,1012785480609546E-005	4,1090183312909901E-007	0,0011259533704682768
1	0	0	0	0	0	2	6045,6363	-0,0500000007	2,00010347	-9,167726409931977E-006	-0,049990632346574272	9,99864351E-005	-0,00018690445935140816	6,9736566741192909E-006	0,0013018450443390758
1	0	0	0	0	0	2	6060,2293	-0,0500000007	1,79964232	-1,1031281048845914E-005	-0,049990700222499578	8,99653824E-005	-0,00038954707038748518	1,4534524947763568E-005	0,0015044876553751526
1	0	0	0	0	0	2	6077,9383	-0,0500000007	1,59896183	-1,3336404468450282E-005	-0,049990687909045005	7,99332047E-005	-0,00063545871971438234	2,3709819215879056E-005	0,0017503993047020499
1	1	0	1	0	0	1	6090,8377	0,0500000007	1,5939455	4,8424988672551181E-006	0,050008594759841901	7,97109751E-005	-0,00073946723358187674	2,759051670920944E-005	3,6870130071363162E-005
1	1	0	1	0	0	1	6098,7477	0,0500000007	1,79459739	5,8760211892012096E-006	0,05000869157634409	8,97454665E-005	-0,00062958733949168128	2,3490750125615411E-005	0,00014675002416155869
1	1	0	1	0	0	1	6107,4513	0,0500000007	1,99519205	6,2093736291345626E-006	0,050008378826822336	9,977632E-005	-0,00050868356249046285	1,8979667648842899E-005	0,00026765380116277731
1	1	0	1	0	0	1	6116,4757	0,0500000007	2,19590139	6,3593828535328307E-006	0,050008253712951757	0,000109813191	-0,00038332393440355322	1,4302331377107747E-005	0,00039301342924968691
1	1	0	1	0	0	1	6125,5717	0,0500000007	2,3966105	6,3427506970862554E-006	0,050008547494075782	0,000119851007	-0,00025696946963398291	9,5878764111703795E-006	0,00051936789401925722
1	1	0	1	0	0	1	6134,8641	0,0500000007	2,59714794	6,5899995420542029E-006	0,050008428833310592	0,000129879292	-0,00012788650479208562	4,7716174390271302E-006	0,00064845085886115469
1	1	0	1	0	0	1	6144,9525	0,0500000007	2,79785705	7,448439062883456E-006	0,050008170367077722	0,000139915719	1,2253451728577741E-005	-4,5719275893430381E-007	0,00078859081538181811
1	1	0	1	0	0	1	6156,8259	0,0500000007	2,99837542	9,0375706100215501E-006	0,050008076529498669	0,000149942993	0,00017718887648587123	-6,6111552146660173E-006	0,00095352624013911155
1	1	0	1	0	0	1	6171,0377	0,0500000007	3,19889379	1,014887839721309E-005	0,05000816133678016	0,00015997079	0,00037460721153393914	-1,3977098727083901E-005	0,0011509445751871794
1	1	0	1	0	0	1	6184,2745	0,0500000007	3,3995266	8,4708681721240282E-006	0,05000840568882505	0,000170004903	0,00055848177477428192	-2,0837705903560698E-005	0,0013348191384275221
1	1	0	1	0	0	1	6196,6175	0,0500000007	3,59996867	8,665315692623456E-006	0,050008234804533971	0,000180028073	0,00072994066105183347	-2,7235067479500538E-005	0,0015062780247050736
1	1	0	1	0	0	1	6209,4577	0,0500000007	3,80054426	9,3264713591585562E-006	0,050007889930643194	0,000190057195	0,00090830629124782694	-3,3890128957253408E-005	0,0016846436549010678
1	1	0	1	0	0	1	6224,5533	0,0500000007	4,00009012	1,067393140329255E-005	0,050008008220743654	0,000200036535	0,0011180015729502314	-4,1714141855874912E-005	0,0018943389366034723
1	0	0	0	0	0	2	6232,3419	-0,0500000007	3,80572271	-6,2293754681530918E-006	-0,049990530442544237	0,000190250095	0,0010098526050647157	-3,7678958456232518E-005	0,00010814896788551574
1	0	0	0	0	0	2	6241,2773	-0,0500000007	3,60503268	-6,1183324549347162E-006	-0,049990914897708819	0,000180218878	0,00088577269148206272	-3,3049370053245638E-005	0,00023222888146816854
1	0	0	0	0	0	2	6250,0281	-0,0500000007	3,40413284	-5,9711327712155059E-006	-0,049990879621294816	0,000170175597	0,00076425599255351296	-2,8515418635282093E-005	0,00035374558039671846
1	0	0	0	0	0	2	6258,5371	-0,0500000007	3,20357633	-5,9100379751374323E-006	-0,049990923328545901	0,000160149735	0,00064609708682924237	-2,410675099637119E-005	0,00047190448612098886
1	0	0	0	0	0	2	6267,3301	-0,0500000007	3,00290537	-6,137738986561696E-006	-0,049990634885869139	0,00015011715	0,00052399453078997357	-1,9550940461913462E-005	0,00059400704216025766
1	0	0	0	0	0	2	6276,1867	-0,0500000007	2,80221534	-6,1932818604012326E-006	-0,049990616519098739	0,000140084478	0,0004010091165171785	-1,4962189299747347E-005	0,00071699245643305293
1	0	0	0	0	0	2	6285,2779	-0,0500000007	2,60167789	-6,3960399720817805E-006	-0,049990760266065408	0,000130059852	0,00027476578857150064	-1,0251880998134458E-005	0,00084323578437873062
1	0	0	0	0	0	2	6294,8239	-0,0500000007	2,40079689	-6,9209181045492493E-006	-0,049990580814018822	0,000120017234	0,00014220698581905541	-5,3059338402348909E-006	0,00097579458713117555
1	0	0	0	0	0	2	6305,6497	-0,0500000007	2,19997334	-8,2317869381772134E-006	-0,049990609541411341	0,000109978006	-8,1232169264252493E-006	3,0308814530624224E-007	0,0011261247898766563
1	0	0	0	0	0	2	6318,2917	-0,0500000007	1,99932146	-9,1510085328999501E-006	-0,049990335535402336	9,9946752E-005	-0,00018367342760868653	6,8531025356299661E-006	0,0013016750005589171
1	0	0	0	0	0	2	6332,8893	-0,0500000007	1,79855514	-1,108127525428103E-005	-0,04999071603753977	8,99110601E-005	-0,00038637958848517254	1,4416341939263571E-005	0,0015043811614354038
1	0	0	0	0	0	2	6350,5697	-0,0500000007	1,59793186	-1,3341942287981509E-005	-0,049990625330907789	7,98816109E-005	-0,00063189461776737805	2,3576837780250291E-005	0,001749896190717609
1	1	0	1	0	0	1	6363,3023	0,0500000007	1,59385014	4,8424849779241619E-006	0,050008451324408608	7,97059765E-005	-0,00073355372000066739	2,7369875566690954E-005	3,6886781991193274E-005
1	1	0	1	0	0	1	6371,2113	0,0500000007	1,79448295	5,8731842425962291E-006	0,050008191886206541	8,97388454E-005	-0,00062368800397336461	2,3270637985686051E-005	0,00014675249801849616
1	1	0	1	0	0	1	6379,9115	0,0500000007	1,99505854	6,181567923062377E-006	0,050008190543662445	9,97692696E-005	-0,00050283196534439085	1,8761336691766912E-005	0,00026760853664747008
1	1	0	1	0	0	1	6388,9261	0,0500000007	2,19578695	6,2676797322928909E-006	0,050008083575693734	0,000109807101	-0,00037760865916886253	1,4089086773832158E-005	0,00039283184282299834
1	1	0	1	0	0	1	6398,0105	0,0500000007	2,39645791	6,3704851751940122E-006	0,050008170320060518	0,000119842472	-0,00025141586412277469	9,3806639226451789E-006	0,00051902463786908608
1	1	0	1	0	0	1	6407,2923	0,0500000007	2,59712887	6,5677613773279718E-006	0,050008335966458778	0,000129878099	-0,00012248046454782274	4,5699108090152704E-006	0,00064796003744403827
1	1	0	1	0	0	1	6417,3683	0,0500000007	2,79776168	7,501237621116969E-006	0,050008251413121658	0,000139911164	1,748755607241569E-005	-6,5248422933103347E-007	0,00078792805806427648
1	1	0	1	0	0	1	6429,2313	0,0500000007	2,99843264	9,1737382745163315E-006	0,050008264972903648	0,000149946412	0,00018227863671780474	-6,8010610121748698E-006	0,00095271913870966554
1	1	0	1	0	0	1	6443,4547	0,0500000007	3,19914174	1,0121058920191394E-005	0,050007977701856915	0,000159982606	0,00037985795625759514	-1,417301107242487E-005	0,0011502984582494562
1	1	0	1	0	0	1	6456,7099	0,0500000007	3,4000988	8,543077773311072E-006	0,050008260741867411	0,000170033032	0,00056398812451115104	-2,1043155215609245E-005	0,0013344286265030115
1	1	0	1	0	0	1	6469,0505	0,0500000007	3,6008842	8,6931486827217869E-006	0,050008526106141587	0,000180074916	0,00073541407113817011	-2,7439287768899882E-005	0,001505854573130031
1	1	0	1	0	0	1	6481,8451	0,0500000007	3,8013835	9,2404317913783923E-006	0,05000835064827872	0,000190100924	0,00091314598795962829	-3,4070704548612141E-005	0,0016835864899514896
1	1	0	1	0	0	1	6496,7815	0,0500000007	4,0000329	9,6599146632684608E-006	0,050008186956096358	0,000200034396	0,0011206299902261218	-4,1812211638383002E-005	0,001891070492217983
1	0	0	0	0	0	2	6504,5793	-0,0500000007	3,80577993	-6,2404840058750579E-006	-0,049990526687438125	0,000190252948	0,0010123536667035774	-3,7772276428691584E-005	0,00010827632352254458
1	0	0	0	0	0	2	6513,5063	-0,0500000007	3,60505176	-6,0322123892191386E-006	-0,049990711012634214	0,000180219096	0,00088839083827892186	-3,314705663037225E-005	0,00023223915194720035
1	0	0	0	0	0	2	6522,2467	-0,0500000007	3,40432358	-6,0266298283305434E-006	-0,049990478442817946	0,000170183761	0,00076701909831171315	-2,8618513826155747E-005	0,00035361089191440902
1	0	0	0	0	0	2	6530,7583	-0,0500000007	3,20353818	-5,9599688429799334E-006	-0,049990419605069952	0,000160146214	0,0006488245536851063	-2,4208516451881664E-005	0,00047180543654101587
1	0	0	0	0	0	2	6539,5651	-0,0500000007	3,00273371	-6,1405205031236006E-006	-0,049990669558349888	0,000150108666	0,00052653067395406528	-1,9645567373246474E-005	0,00059409931627205683
1	0	0	0	0	0	2	6548,4295	-0,0500000007	2,8021009	-6,1738054176999462E-006	-0,049990327873934534	0,000140077944	0,00040343736960785318	-1,5052790687381424E-005	0,00071719262061826906
1	0	0	0	0	0	2	6557,5273	-0,0500000007	2,6012392	-6,4181953950060736E-006	-0,049990271963738925	0,000130036657	0,00027710327358238474	-1,0339095706672566E-005	0,00084352671664373773
1	0	0	0	0	0	2	6567,0481	-0,0500000007	2,40058708	-6,8653079848736525E-006	-0,04999010729112128	0,000120005607	0,00014489549461591651	-5,4062457181843002E-006	0,00097573449561020582
1	0	0	0	0	0	2	6577,8543	-0,0500000007	2,1998589	-8,2512278637538355E-006	-0,0499906103488136	0,000109972287	-5,1614742545527827E-006	1,9258154411330646E-007	0,0011257914644806755
1	0	0	0	0	0	2	6590,4691	-0,0500000007	1,99916887	-9,1148981443709798E-006	-0,049990301213542944	9,99390541E-005	-0,00018033325291813174	6,7284761270127334E-006	0,0013009632431442538
1	0	0	0	0	0	2	6605,0395	-0,0500000007	1,79844069	-1,1081180072286064E-005	-0,049990286645076077	8,99045626E-005	-0,00038266101214532979	1,4277596856344976E-005	0,0015032910023714515
1	0	0	0	0	0	2	6622,6671	-0,0500000007	1,59785557	-1,3352876396228869E-005	-0,049989970474864154	7,98767505E-005	-0,00062744029801561536	2,3410641121415424E-005	0,0017480702882417366
1	1	0	1	0	0	1	6635,3433	0,0500000007	1,59396458	4,8452923577278854E-006	0,050008752004690874	7,97121756E-005	-0,00072814285135341299	2,7167988782471619E-005	3,6973041522890042E-005
1	1	0	1	0	0	1	6643,2557	0,0500000007	1,79463553	5,8620877756426726E-006	0,050008332339917978	8,97467326E-005	-0,00061822983929773286	2,3066986523057776E-005	0,00014688605357857021
1	1	0	1	0	0	1	6651,9571	0,0500000007	1,99540186	6,1815691662745344E-006	0,050008200602744538	9,97864554E-005	-0,00049735690620199789	1,8557054873868922E-005	0,00026775898667430512
1	1	0	1	0	0	1	6660,9635	0,0500000007	2,19601583	6,2982799735748109E-006	0,050008399160329773	0,000109819237	-0,00037224665598622746	1,388902322579809E-005	0,00039286923689007558
1	1	0	1	0	0	1	6670,0431	0,0500000007	2,39672494	6,3371897884127168E-006	0,050008512746147443	0,000119856646	-0,00024611933271824611	9,1830432146800051E-006	0,00051899656015805696
1	1	0	1	0	0	1	6679,3117	0,0500000007	2,59724331	6,6372387295381888E-006	0,050008496683920928	0,00012988424	-0,00011736651006330347	4,3791022914129242E-006	0,00064774938281299981
1	1	0	1	0	0	1	6689,3863	0,0500000007	2,79802871	7,5290648500538534E-006	0,050008549424966112	0,000139925352	2,2582429714193296E-005	-8,4258081503622182E-007	0,00078769832259049677
1	1	0	1	0	0	1	6701,2401	0,0500000007	2,99871874	9,018188918216361E-006	0,050008441926301754	0,000149961255	0,00018724640558856928	-6,9864151479793779E-006	0,00095236229846487258
1	1	0	1	0	0	1	6715,4523	0,0500000007	3,19925618	1,0079452421723139E-005	0,050008309202705837	0,000159989388	0,00038467195769616992	-1,4352627938591869E-005	0,0011497878505724736
1	1	0	1	0	0	1	6728,6673	0,0500000007	3,39977455	8,5459351150525939E-006	0,05000872364560151	0,000170018393	0,0005682441547242953	-2,1201953425155136E-005	0,001333360047600599
1	1	0	1	0	0	1	6740,9699	0,0500000007	3,60038829	8,6736934754169638E-006	0,050008483166491142	0,000180049959	0,00073914270886106509	-2,757840825554783E-005	0,001504258601737368
1	1	0	1	0	0	1	6753,7279	0,0500000007	3,80088758	9,279303062500224E-006	0,050008220702626362	0,000190075632	0,00091636691429828467	-3,4190881640888941E-005	0,0016814828071745878
1	1	0	1	0	0	1	6768,6167	0,0500000007	3,99997568	1,0237833639606834E-005	0,050008414584790016	0,000200032446	0,001123190618253316	-4,1907752112878611E-005	0,0018883065111296189
1	0	0	0	0	0	2	6776,4241	-0,0500000007	3,80577993	-6,3209918259332582E-006	-0,049990269879679558	0,000190251973	0,0010147812160293914	-3,7862851557912486E-005	0,00010840940222392477
1	0	0	0	0	0	2	6785,3367	-0,0500000007	3,60531878	-6,0738566101839155E-006	-0,049990589990156723	0,000180232018	0,00089101870689696653	-3,3245105941718438E-005	0,00023217191135634976
1	0	0	0	0	0	2	6794,0737	-0,0500000007	3,40457153	-5,9794398653838374E-006	-0,049990672957418694	0,000170196829	0,00076969442504924109	-2,8718333863747968E-005	0,00035349619320407507
1	0	0	0	0	0	2	6802,5909	-0,0500000007	3,20363355	-5,8877787242333094E-006	-0,049990574679432448	0,000160151481	0,00065142212900323059	-2,4305435479478042E-005	0,00047176848925008531
1	0	0	0	0	0	2	6811,3877	-0,0500000007	3,00305796	-6,0933256606674854E-006	-0,049990821888051949	0,000150125328	0,00052926730775843814	-1,9747674859930909E-005	0,00059392331049487782
1	0	0	0	0	0	2	6820,2663	-0,0500000007	2,80225348	-6,20996501772768E-006	-0,049990774449809082	0,00014008682	0,00040597635379796154	-1,5147523601214915E-005	0,0007172142644553545
1	0	0	0	0	0	2	6829,3547	-0,0500000007	2,60165882	-6,4376933796124326E-006	-0,049990717100935142	0,00013005879	0,00027977192087275213	-1,0438666525110616E-005	0,0008434186973805641
1	0	0	0	0	0	2	6838,8797	-0,0500000007	2,40098763	-6,9458877976155942E-006	-0,049990396589944851	0,000120026321	0,00014750523248491117	-5,5036185469063744E-006	0,00097568538576840499
1	0	0	0	0	0	2	6849,6761	-0,0500000007	2,20031667	-8,2234624885022643E-006	-0,049990654031220659	0,000109995271	-2,4157057318594701E-006	9,0133228806576896E-008	0,001125606323985176
1	0	0	0	0	0	2	6862,2777	-0,0500000007	1,99976015	-9,1621807002358976E-006	-0,049990680387689722	9,9969373E-005	-0,00017740514991028509	6,6192246669136102E-006	0,0013005957681636019
1	0	0	0	0	0	2	6876,7955	-0,0500000007	1,79922271	-1,1158931127852862E-005	-0,049990234626985357	8,99435618E-005	-0,00037900276963257203	1,4141102909634614E-005	0,0015021933878858886
1	0	0	0	0	0	2	6894,3627	-0,0500000007	1,59873295	-1,3172441553117499E-005	-0,049990291129050157	7,99211266E-005	-0,00062294447633696166	2,3242895969888317E-005	0,0017461350945902787
1	0	0	0	0	0	2	6904,3289	-0,0500000007	1,49995196	-1,2894798386635051E-005	-0,049990603870609626	7,49835017E-005	-0,00076133744836670733	2,8406523827647984E-005	0,0018845280666200243