File: Experimentelles/Ausgewaehlte_Daten/LATP/GCPL/LATP_Korrosion_05_GCPL_C02.txt
EC-Lab ASCII FILE
Nb header lines : 86

Galvanostatic Cycling with Potential Limitation

Run on channel : 2 (SN 6986)
Grouped channel(s) : 2
User :
CE vs. WE compliance from -10 V to 10 V
Electrode connection : standard
Ewe ctrl range : min = 0,00 V, max = 5,00 V
Acquisition started on : 09/02/2015 11:42:26
Saved on :
	File : LATP_Korrosion_05_GCPL_C02.mpr
	Directory : C:\Hupfer\Stabilitätstest Folie gegen Li\
	Host : 192.168.0.2
Device : VMP3 (SN 0324)
Address : 192.168.0.1
EC-Lab for windows v10.33 (software)
Internet server v10.33 (firmware)
Command interpretor v10.32 (firmware)
Electrode material : LATP
Initial state :
Electrolyte : LP-30
Comments :
Mass of active material : 0,001 mg
 at x = 0,000
Molecular weight of active material (at x = 0) : 0,001 g/mol
Atomic weight of intercalated ion : 0,001 g/mol
Acquisition started at : xo = 0,000
Number of e- transfered per intercalated ion : 1
for DX = 1, DQ = 26,801 mA.h
Battery capacity : 0,000 A.h
Reference electrode : Li+/Li (-3,020 V)
Electrode surface area : 0,001 cm²
Characteristic mass : 0,001 g
Ns                  0                   1                   2
Set I/C             I                   I                   I
Is                  0,000               50,000              -50,000
unit Is             mA                  µA                  µA
vs.                 <None>              <None>              <None>
N                   1                   1                   1
I sign              > 0                 > 0                 > 0
t1 (h:m:s)          0:00:0,0000         6:00:0,0000         6:00:0,0000
I Range             100 µA              100 µA              100 µA
Bandwidth           5                   5                   5
dE1 (mV)            0,00                10,00               10,00
dt1 (s)             0,0000              10,0000             10,0000
EM (V)              0,000               4,000               1,500
tM (h:m:s)          0:00:0,0000         0:00:0,0000         0:00:0,0000
Im                  0,000               0,000               0,000
unit Im             mA                  mA                  mA
E range min (V)     0,000               0,000               0,000
E range max (V)     5,000               5,000               5,000
dq                  0,000               1,000               1,000
unit dq             mA.h                mA.h                mA.h
dtq (s)             0,0000              120,0000            120,0000
dQM                 0,000               0,000               0,000
unit dQM            mA.h                mA.h                mA.h
dxM                 0,000               0,000               0,000
tR (h:m:s)          0:00:0,0000         0:00:0,0000         0:00:0,0000
dER/dt (mV/h)       0,0                 0,1                 0,1
dER (mV)            0,00                5,00                5,00
dtR (s)             1,0000              120,0000            120,0000
EL (V)              pass                4,200               3,500
goto Ns'            0                   0                   0
nc cycles           0                   0                   0

Modify on : 09/02/2015 11:45
Electrode material :
Electrolyte :

Number of loops : 11
Loop 0 from point number 0 to 782
Loop 1 from point number 783 to 1754
Loop 2 from point number 1755 to 2716
Loop 3 from point number 2717 to 3669
Loop 4 from point number 3670 to 4617
Loop 5 from point number 4618 to 5573
Loop 6 from point number 5574 to 6527
Loop 7 from point number 6528 to 7468
Loop 8 from point number 7469 to 8399
Loop 9 from point number 8400 to 9325
Loop 10 from point number 9326 to 10284

mode	ox/red	error	control changes	Ns changes	counter inc.	Ns	time/s	control/V/mA	Ewe/V	dq/mA.h	<I>/mA	P/W	Capacity/mA.h	(Q-Qo)/mA.h
1	1	0	0	1	0	1	4108,6895	0,0500000007	2,44394708	0	0	0	0	0
1	1	0	0	0	0	1	4419,8929	0,0500000007	2,50433683	0,00013890947332771288	0,050007411003426042	0,000125235398	0,0043222195151276794	0,0043222195151276794
1	1	0	0	0	0	1	4739,8929	0,0500000007	2,52226591	0,0001389098138962355	0,050007533608095661	0,00012613229	0,0087673194074057779	0,0087673194074057779
1	1	0	0	0	0	1	5059,8929	0,0500000007	2,54601216	0,00013890992861385974	0,050007574906440896	0,000127319887	0,013212424605937707	0,013212424605937707
1	1	0	0	0	0	1	5379,8929	0,0500000007	2,5964613	0,00013891009109819101	0,050007633400800858	0,000129842883	0,017657539509786941	0,017657539509786941
1	1	0	0	0	0	1	5699,8929	0,0500000007	2,72461534	0,00013890968034561312	0,050007485529871021	0,000136251168	0,022102659425432723	0,022102659425432723
1	1	0	0	0	0	1	5995,1805	0,0500000007	2,9976697	9,4639794561598029E-005	0,05000781807525001	0,000149906919	0,026204511114616186	0,026204511114616186
1	1	0	0	0	0	1	6146,5669	0,0500000007	3,31863642	4,5820909729227424E-005	0,050007662954682733	0,000165957244	0,028307424331254662	0,028307424331254662
1	1	0	0	0	0	1	6231,7079	0,0500000007	3,63964128	3,1746629209361146E-005	0,050007817685047085	0,000182010524	0,02949012145510505	0,02949012145510505
1	1	0	0	0	0	1	6306,3429	0,0500000007	3,96062732	3,7239349236711866E-005	0,050008079258008045	0,000198063368	0,030526881725798899	0,030526881725798899
1	0	0	1	0	0	2	6332,6517	-0,0500000007	3,72292519	-8,4985569653411712E-006	-0,049991512166382118	0,000186114659	0,00021078523257064326	0,030470693729942278
1	0	0	1	0	0	2	6352,4051	-0,0500000007	3,40205383	-8,5513513934695066E-006	-0,049991661885316794	0,000170074331	0,00048509172638464314	0,030196387236128269
1	0	0	1	0	0	2	6372,3109	-0,0500000007	3,0809536	-8,8873638746639091E-006	-0,049991422399740173	0,000154021254	0,00076151397948318925	0,029919964983029722
1	0	0	1	0	0	2	6393,5719	-0,0500000007	2,75979614	-1,0628714698884224E-005	-0,049991342277486586	0,000137965908	0,001056755212615555	0,02962472374989735
1	0	0	1	0	0	2	6590,7327	-0,0500000007	2,4663713	-0,00013886500875796709	-0,04999140375812375	0,000123297359	0,0037946346205727507	0,02688684434194015
1	0	0	1	0	0	2	6910,7327	-0,0500000007	2,42784309	-0,0001388654007162485	-0,049991544863106765	0,000121371624	0,0082383336832620634	0,022443145279250838
1	0	0	1	0	0	2	7230,7327	-0,0500000007	2,41786766	-0,000138866023177488	-0,049991768949155699	0,000120873483	0,01268203246057489	0,017999446501938019
1	0	0	1	0	0	2	7550,7327	-0,0500000007	2,40442085	-0,00013886619215355154	-0,049991829780539309	0,000120201395	0,017125749092374413	0,013555729870138499
1	0	0	1	0	0	2	7870,7327	-0,0500000007	2,3838408	-0,00013886599726395475	-0,049991759620283616	0,000119172393	0,021569473203496592	0,009112005759016311
1	0	0	1	0	0	2	8190,7326	-0,0500000007	2,35105371	-0,00013886678552731043	-0,049992043395095098	0,000117533978	0,026013210775096794	0,004668268187416105
1	0	0	1	0	0	2	8510,7326	-0,0500000007	2,3006618	-0,00013886717832212646	-0,049992184801230586	0,000115015107	0,030456956432904634	0,00022452252960826739
1	0	0	1	0	0	2	8830,7326	-0,0500000007	2,22900319	-0,00013886618362160192	-0,049991826709037408	0,000111431938	0,034900692826147482	-0,0042192138636345997
1	0	0	1	0	0	2	9150,7326	-0,0500000007	2,12268806	-0,00013886697109767962	-0,049992110200428813	0,000106117652	0,039344416992620013	-0,0086629380301071462
1	0	0	1	0	0	2	9470,7326	-0,0500000007	1,94273078	-0,00013886675390249325	-0,049992032010160774	9,71210611E-005	0,043788157691367354	-0,013106678728854482
1	0	0	1	0	0	2	9753,7894	-0,0500000007	1,63657451	-9,8320346176210381E-005	-0,049991984763259469	8,18156113E-005	0,047718871889168154	-0,01703739292665529
1	1	0	1	0	0	1	9855,6382	0,0500000007	1,67601824	6,3342539670152794E-006	0,05000726876645209	8,38130945E-005	9,2580103568205158E-005	-0,018265212943984512
1	1	0	1	0	0	1	9872,3036	0,0500000007	1,99715662	8,1956575291438246E-006	0,050007402477401901	9,98726173E-005	0,00032407767217491469	-0,018033715375377798
1	1	0	1	0	0	1	9894,7190	0,0500000007	2,31812358	1,3224105161097314E-005	0,050007120961472544	0,000115922689	0,00063544751510136909	-0,017722345532451341
1	1	0	1	0	0	1	10131,5624	0,0500000007	2,48780012	0,00013890981885977091	0,050007535394968429	0,000124408747	0,0039254228599496704	-0,014432370187603037
1	1	0	1	0	0	1	10451,5624	0,0500000007	2,50935316	0,00013890937884938386	0,050007376991227174	0,000125486171	0,0083705286825925222	-0,0099872643649601869
1	1	0	1	0	0	1	10771,5624	0,0500000007	2,52518415	0,0001389086203140517	0,050007103918504288	0,00012627714	0,01281560835851697	-0,0055421846890357414
1	1	0	1	0	0	1	11091,5624	0,0500000007	2,54278874	0,00013890914737619461	0,050007293660878035	0,000127157982	0,017260701102890176	-0,0010970919446625432
1	1	0	1	0	0	1	11411,5624	0,0500000007	2,56623006	0,00013890876524543595	0,050007156093803264	0,000128329862	0,021705797125955526	0,0033480040784028058
1	1	0	1	0	0	1	11731,5624	0,0500000007	2,60058117	0,00013891004678689771	0,050007617448735072	0,000130048866	0,026150904467507466	0,007793111419954752
1	1	0	1	0	0	1	12051,5624	0,0500000007	2,65217447	0,0001389104307324936	0,050007755669151277	0,000132629299	0,030596028072184666	0,012238235024631958
1	1	0	1	0	0	1	12371,5624	0,0500000007	2,72896409	0,00013891004743447736	0,05000761768186375	0,000136468996	0,035041142289281626	0,016683349241728902
1	1	0	1	0	0	1	12691,5624	0,0500000007	2,85515356	0,0001389093389612519	0,050007362631499501	0,000142778707	0,03948624834669104	0,021128455299138298
1	1	0	1	0	0	1	12997,8128	0,0500000007	3,12040687	0,00010410503479859069	0,050007756433025274	0,000156044553	0,043740379188225395	0,025382586140672672
1	1	0	1	0	0	1	13162,4124	0,0500000007	3,44148803	5,0318863558065568E-005	0,050007705113177414	0,000172100918	0,04602684181388128	0,027669048766328528
1	1	0	1	0	0	1	13258,2368	0,0500000007	3,76228309	3,6927955254084531E-005	0,05000776426559417	0,000188143371	0,047357942173645229	0,02900014912609248
1	0	0	0	0	0	2	13328,1618	-0,0500000007	3,92374873	-7,2654268048289754E-006	-0,049991469445784922	0,000196153967	4,4114695590817274E-005	0,02988323335329639
1	0	0	0	0	0	2	13346,5296	-0,0500000007	3,60259128	-8,165388614353207E-006	-0,049992175793391053	0,000180101371	0,00029918212580577363	0,029628165923081427
1	0	0	0	0	0	2	13365,3196	-0,0500000007	3,28147197	-8,2014579785366848E-006	-0,049991955775239488	0,000164047204	0,00056011285532493542	0,029367235193562253
1	0	0	0	0	0	2	13384,7820	-0,0500000007	2,96050525	-8,626387701887223E-006	-0,049991944789429702	0,000148001418	0,00083038062932259469	0,029096967419564602
1	0	0	0	0	0	2	13417,2362	-0,0500000007	2,63923335	-4,8078386407552493E-005	-0,049991968448559878	0,000131940469	0,0012810609941608784	0,028646287054726314
1	0	0	0	0	0	2	13706,0526	-0,0500000007	2,43400383	-0,00013886708203682469	-0,04999215013852153	0,000121681085	0,0052917701237928102	0,024635577925094374
1	0	0	0	0	0	2	14026,0526	-0,0500000007	2,42364693	-0,00013886673523175221	-0,04999202528869392	0,000121163015	0,0097355110000187699	0,020191837048868406
1	0	0	0	0	0	2	14346,0526	-0,0500000007	2,41166878	-0,00013886668856441974	-0,049992008488454022	0,000120564167	0,014179255174071419	0,015748092874815757
1	0	0	0	0	0	2	14666,0526	-0,0500000007	2,39414048	-0,0001388666237240864	-0,049991985145933741	0,000119687837	0,018622991230930298	0,011304356817956874
1	0	0	0	0	0	2	14986,0526	-0,0500000007	2,36717057	-0,00013886678077197736	-0,049992041683175168	0,000118339689	0,023066722643123936	0,0068606254057632371
1	0	0	0	0	0	2	15306,0526	-0,0500000007	2,32501841	-0,00013886661925104757	-0,049991983535639744	0,000116232281	0,027510457974011075	0,0024168900748761008
1	0	0	0	0	0	2	15626,0526	-0,0500000007	2,26186657	-0,00013886682316081392	-0,049992056943156518	0,000113075359	0,031954197575106176	-0,0020268495262190032
1	0	0	0	0	0	2	15946,0526	-0,0500000007	2,17124891	-0,00013886700408843658	-0,049992122077101466	0,00010854534	0,036397935115945408	-0,0064705870670582413
1	0	0	0	0	0	2	16266,0526	-0,0500000007	2,02552843	-0,00013886696249515646	-0,049992107103520442	0,000101260433	0,040841676068750298	-0,010914328019863133
1	0	0	0	0	0	2	16576,4965	-0,0500000007	1,75486755	-0,0001137433086151464	-0,049992176096299846	8,77296479E-005	0,045152718557087066	-0,015225370508199904
1	1	0	1	0	0	1	16761,4043	0,0500000007	1,55549359	5,3174551611559258E-006	0,050007415914223213	7,77862151E-005	2,156995903084137E-005	-0,01774861196559967
1	1	0	1	0	0	1	16776,3833	0,0500000007	1,87657475	7,434437412561641E-006	0,05000742714710039	9,38426747E-005	0,00022964333485133408	-0,017540538589779174
1	1	0	1	0	0	1	16795,8479	0,0500000007	2,19759893	9,668186879613335E-006	0,050007863775015501	0,000109897228	0,00050002598508700205	-0,017270155939543514
1	1	0	1	0	0	1	16921,8495	0,0500000007	2,47021461	0,00013890944080427288	0,050007399294987501	0,000123529011	0,0022503167267775402	-0,015519865197852976
1	1	0	1	0	0	1	17241,8495	0,0500000007	2,50412703	0,0001389103970217208	0,050007743533272915	0,000125225735	0,0066954372584797478	-0,011074744666150768
1	1	0	1	0	0	1	17561,8495	0,0500000007	2,52108335	0,0001389099968827019	0,050007599483224371	0,000126073326	0,011140558720172328	-0,0066296232044581914
1	1	0	1	0	0	1	17881,8495	0,0500000007	2,53832555	0,00013890972272141114	0,050007500785158496	0,000126935323	0,01558567823473121	-0,002184503689899313
1	1	0	1	0	0	1	18201,8495	0,0500000007	2,56073689	0,00013891050920573374	0,050007783919518061	0,000128056781	0,020030795984166211	0,0022606140595356864
1	1	0	1	0	0	1	18521,8495	0,0500000007	2,59207439	0,0001389097496221463	0,05000751046942327	0,000129623193	0,024475917750931706	0,006705735826301184
1	1	0	1	0	0	1	18841,8495	0,0500000007	2,6397388	0,00013891003448661003	0,050007613020631462	0,00013200703	0,028921027408512986	0,011150845483882458
1	1	0	1	0	0	1	19161,8495	0,0500000007	2,71072984	0,00013891059428701798	0,050007814548780762	0,000135557668	0,033366160287215955	0,015595978362585421
1	1	0	1	0	0	1	19481,8495	0,0500000007	2,82080221	0,00013891060126096838	0,050007817059402931	0,000141062163	0,037811284212833542	0,020041102288203005
1	1	0	1	0	0	1	19799,6343	0,0500000007	3,05466104	0,0001256029263790697	0,050007801419945133	0,000152756882	0,042225639477702739	0,024455457553072218
1	1	0	1	0	0	1	19990,5835	0,0500000007	3,37543702	5,5941870591499744E-005	0,050007632242775162	0,000168797618	0,0448781200452224	0,027107938120591875
1	1	0	1	0	0	1	20092,7161	0,0500000007	3,69648004	3,7286256836106381E-005	0,050007647059176557	0,000184852266	0,046296847766098733	0,028526665841468211
1	0	0	0	1	0	2	20175,0975	-0,0500000007	3,99408269	-2,7485396713018416E-009	-0,016491238444414774	6,58673671E-005	2,7485396713018416E-009	0,029671017376766362
1	0	0	0	0	0	2	20192,5159	-0,0500000007	3,6730864	-8,1542493922428954E-006	-0,049991992793064774	0,000183624914	0,00024188672320606816	0,029429133402099962
1	0	0	0	0	0	2	20211,2907	-0,0500000007	3,35238671	-8,0654161311686029E-006	-0,049992249353485325	0,000167593345	0,00050260678795973466	0,029168413337346285
1	0	0	0	0	0	2	20230,4001	-0,0500000007	3,03151536	-8,656948714827497E-006	-0,049992004731548986	0,000151551532	0,0007679733581985865	0,028903046767107437
1	0	0	0	0	0	2	20252,3341	-0,0500000007	2,71037698	-1,4100541681879096E-005	-0,049992072749674957	0,000135497365	0,0010725644916805128	0,028598455633625507
1	0	0	0	0	0	2	20481,7503	-0,0500000007	2,44077468	-0,00013886676907353104	-0,049992037471734445	0,000122019301	0,0042583959832942714	0,025412624142011741
1	0	0	0	0	0	2	20801,7503	-0,0500000007	2,42477226	-0,00013886665624400808	-0,04999199685310569	0,000121219207	0,0087021399081953651	0,02096888021711065
1	0	0	0	0	0	2	21121,7503	-0,0500000007	2,41262245	-0,00013886690172718629	-0,049992085227050912	0,000120612029	0,01314587514673504	0,016525144978570976
1	0	0	0	0	0	2	21441,7503	-0,0500000007	2,39507508	-0,00013886662245603899	-0,049991984689436666	0,000119734555	1,1458327366881483E090	0,01208139837402697
1	0	0	0	0	0	2	21761,7503	-0,0500000007	2,36896348	-0,00013886678159236909	-0,049992041978516192	0,000118429321	1,1458327366881483E090	0,0076376507720236557
1	0	0	0	0	0	2	22081,7503	-0,0500000007	2,32768869	-0,00013886707633775142	-0,04999214808685513	0,000116366158	1,1458327366881483E090	0,0031939069592322726
1	0	0	0	0	0	2	22401,7503	-0,0500000007	2,26661587	-0,00013886701822715501	-0,049992127167040166	0,000113312948	1,1458327366881483E090	-0,0012498470577836464
1	0	0	0	0	0	2	22721,7503	-0,0500000007	2,1789546	-0,00013886670572041637	-0,04999201466461289	0,000108930333	1,1458327366881483E090	-0,0056935732691793824
1	0	0	0	0	0	2	23041,7503	-0,0500000007	2,03983331	-0,00013886685527033277	-0,049992068502583443	0,000101975485	1,1458327366881483E090	-0,010137304171478048
1	0	0	0	0	0	2	23356,3337	-0,0500000007	1,78031147	-0,00011954151659293307	-0,049991806252599629	8,90009833E-005	1,1458327366881483E090	-0,014505809449192221
1	1	0	1	0	0	1	23562,5475	0,0500000007	1,53546655	4,9007694089992179E-006	0,050007851715487072	7,67853853E-005	1,1110046871976669E-005	-0,01734582041957969
1	1	0	1	0	0	1	23577,1761	0,0500000007	1,85673845	7,2316508409049779E-006	0,050007574607617581	9,28509835E-005	1,1458327366881483E090	-0,017142613848043347
1	1	0	1	0	0	1	23596,2069	0,0500000007	2,1778388	9,3124888390302656E-006	0,050007398904690797	0,000108908054	1,1458327366881483E090	-0,016878257763073216
1	1	0	1	0	0	1	23704,5533	0,0500000007	2,46451163	0,00013891030521608061	0,050007710483242048	0,000123244579	1,1458327366881483E090	-0,015373214725161546
1	1	0	1	0	0	1	24024,5533	0,0500000007	2,50246763	0,00013891019204383096	0,05000766974123168	0,000125142571	1,1458327366881483E090	-0,010928085152009458
1	1	0	1	0	0	1	24344,5533	0,0500000007	2,51936674	0,00013890973718091846	0,050007505990581197	0,000125987252	1,1458327366881483E090	-0,0064829524090283405
1	1	0	1	0	0	1	24664,5532	0,0500000007	2,53750539	0,00013891023185373178	0,050007684072796147	0,000126894767	1,1458327366881483E090	-0,0020378266905605741
1	1	0	1	0	0	1	24984,5532	0,0500000007	2,55934453	0,00013890967386960982	0,050007483198509811	0,000127986379	1,1458327366881483E090	0,0024072951358192963
1	1	0	1	0	0	1	25304,5532	0,0500000007	2,59180737	0,00013890973441758091	0,050007504995779667	0,00012960982	1,1458327366881483E090	0,0068524184345030182
1	1	0	1	0	0	1	25624,5532	0,0500000007	2,64059711	0,00013891008200786178	0,050007630128282298	0,000132050001	1,1458327366881483E090	0,011297536063914966
1	1	0	1	0	0	1	25944,5532	0,0500000007	2,71265626	0,00013891022143368091	0,050007680321577792	0,000135653652	1,1458327366881483E090	0,015742663467296138
1	1	0	1	0	0	1	26264,5532	0,0500000007	2,82686758	0,00013890997238622771	0,050007590664493549	0,000141364842	1,1458327366881483E090	0,020187782775669302
1	1	0	1	0	0	1	26579,6680	0,0500000007	3,07278061	0,00011784294757764373	0,050007616806274355	0,000153662433	1,1458327366881483E090	0,02456504687338761
1	1	0	1	0	0	1	26760,6008	0,0500000007	3,39363289	5,328585581543545E-005	0,050007581662641587	0,000169707375	1,1458327366881483E090	0,027078380735122736
1	1	0	1	0	0	1	26859,7556	0,0500000007	3,71439004	3,6716942132761082E-005	0,050007942371804947	0,000185748999	1,1458327366881483E090	0,02845574277720935
1	0	0	0	0	0	2	26937,1424	-0,0500000007	3,973454	-5,9851298021773491E-006	-0,04999180406006295	0,000198640133	9,573408605116937E-006	0,02951156637486944
1	0	0	0	0	0	2	26955,0872	-0,0500000007	3,65244913	-8,1736946853084698E-006	-0,049992017030520659	0,0001825933	1,1458327366881483E090	0,029262373150519642
1	0	0	0	0	0	2	26973,9336	-0,0500000007	3,33117723	-8,0792230974055014E-006	-0,04999175576398944	0,000166531405	1,1458327366881483E090	0,029000659540368486
1	0	0	0	0	0	2	26993,0556	-0,0500000007	3,01021051	-8,6014257520437248E-006	-0,04999214252742233	0,000150486871	1,1458327366881483E090	0,028735118713080294
1	0	0	0	0	0	2	27015,7210	-0,0500000007	2,68924356	-1,685560687403712E-005	-0,049991914219760774	0,00013444043	1,1458327366881483E090	0,028420372198497082
1	0	0	0	0	0	2	27257,0180	-0,0500000007	2,43205833	-0,00013886669627990986	-0,049992011266030496	0,000121583485	1,1458327366881483E090	0,025069570209847171
1	0	0	0	0	0	2	27577,0180	-0,0500000007	2,41380501	-0,00013886692314181062	-0,049992092936315763	0,000120671168	1,1458327366881483E090	0,020625825774835034
1	0	0	0	0	0	2	27897,0180	-0,0500000007	2,39639115	-0,00013886634985957709	-0,049991886554709203	0,000119800112	1,1458327366881483E090	0,016182092004101328
1	0	0	0	0	0	2	28217,0180	-0,0500000007	2,37191987	-0,00013886739104655054	-0,049992261382024179	0,000118577635	1,1458327366881483E090	0,011738351838407235
1	0	0	0	0	0	2	28536,9756	-0,0500000007	2,35107279	-0,00013886578245543771	-0,04999168228921655	0,00011753408	1,1458327366881483E090	0,007295209906511031
1	0	0	0	0	0	2	28856,9756	-0,0500000007	2,30300784	-0,00013886729883982077	-0,04999222818760105	0,00011513249	1,1458327366881483E090	0,0028514750119892893
1	0	0	0	0	0	2	29176,9756	-0,0500000007	2,22841191	-0,00013886736283596192	-0,049992251226212147	0,000111403329	1,1458327366881483E090	-0,0015922778150323142
1	0	0	0	0	0	2	29496,9756	-0,0500000007	2,1375463	-0,00013886709774140683	-0,049992155792171162	0,000106860549	1,1458327366881483E090	-0,0060360195128236582
1	0	0	0	0	0	2	29816,9756	-0,0500000007	1,98543608	-0,00013886690241450238	-0,049992085474484704	9,9256089E-005	1,1458327366881483E090	-0,010479767017490934
1	0	0	0	0	0	2	30121,3184	-0,0500000007	1,70451391	-0,00010646307308268216	-0,049991791372662976	8,52117009E-005	1,1458327366881483E090	-0,01470606546078889
1	1	0	1	0	0	1	30272,9686	0,0500000007	1,60624778	5,7702769916504614E-006	0,05000721575000393	8,03239818E-005	1,1458327366881483E090	-0,016713188781019901
1	1	0	1	0	0	1	30288,3362	0,0500000007	1,92717648	7,7455731433712768E-006	0,050007287756560038	9,63728671E-005	1,1458327366881483E090	-0,016499718672370723
1	1	0	1	0	0	1	30308,3984	0,0500000007	2,24831486	1,0498782182940179E-005	0,05000743095479328	0,000112432448	1,1458327366881483E090	-0,016221035886542854
1	1	0	1	0	0	1	30500,1454	0,0500000007	2,46189857	0,00013890939556786584	0,050007383009880762	0,000123113103	1,1458327366881483E090	-0,013557486145718626
1	1	0	1	0	0	1	30820,1454	0,0500000007	2,49144316	0,00013890951071058712	0,050007424461260928	0,000124590661	1,1458327366881483E090	-0,0091123825698471974
1	1	0	1	0	0	1	31140,1454	0,0500000007	2,50288725	0,00013890823706611992	0,050006965949247181	0,000125161794	1,1458327366881483E090	-0,004667293816952432
1	1	0	1	0	0	1	31460,1454	0,0500000007	2,52045393	0,00013890899961669411	0,050007240467457216	0,000126040948	1,1458327366881483E090	-0,00022220293984229398
1	1	0	1	0	0	1	31780,1454	0,0500000007	2,55293584	0,00013890906693289677	0,050007264701290464	0,000127665335	1,1458327366881483E090	0,0042228963230765702
1	1	0	1	0	0	1	32100,1454	0,0500000007	2,59514523	0,00013890925044814746	0,050007330766781517	0,000129776279	1,1458327366881483E090	0,0086679967280328448
1	1	0	1	0	0	1	32420,1454	0,0500000007	2,65108728	0,00013890911031162571	0,050007280317633082	0,000132573667	1,1458327366881483E090	0,013113082548993557
1	1	0	1	0	0	1	32740,1454	0,0500000007	2,73634529	0,00013890916535258294	0,05000730013237792	0,000136837247	1,1458327366881483E090	0,01755815981457073
1	1	0	1	0	0	1	33060,1454	0,0500000007	2,88021588	0,00013890916789716318	0,05000730034983289	0,000144031816	1,1458327366881483E090	0,022003248586371763
1	1	0	1	0	0	1	33333,0636	0,0500000007	3,17921019	8,0889767332623398E-005	0,050007412050246182	0,000158984069	1,1458327366881483E090	0,025794331537605581
1	1	0	1	0	0	1	33465,4088	0,0500000007	3,50036764	4,5653731511077946E-005	0,050007129902497658	0,000175043344	1,1458327366881483E090	0,027632722930904067
1	1	0	1	0	0	1	33552,2176	0,0500000007	3,82123899	3,525515937308471E-005	0,050007318168794342	0,000191089915	1,1458327366881483E090	0,028838573476119386
1	0	0	0	0	0	2	33608,5764	-0,0500000007	3,86227536	-7,8654143994467123E-006	-0,04999204058103609	0,000193083033	1,1458327366881483E090	0,029442356427973958
1	0	0	0	0	0	2	33627,6572	-0,0500000007	3,54104161	-8,32365430208544E-006	-0,049991917632612742	0,000177023467	1,1458327366881483E090	0,029177386845946515
1	0	0	0	0	0	2	33646,5840	-0,0500000007	3,21971226	-8,1986742791616256E-006	-0,049991916238928461	0,000160959578	1,1458327366881483E090	0,028914556127704269
1	0	0	0	0	0	2	33666,0644	-0,0500000007	2,8986311	-8,5486430794828467E-006	-0,049992064696199987	0,000144908554	1,1458327366881483E090	0,028644038139929376
1	0	0	0	0	0	2	33705,9086	-0,0500000007	2,57753086	-6,6497774424238349E-005	-0,049992061873284883	0,000128856089	1,1458327366881483E090	0,028090734216484973
1	0	0	0	0	0	2	33993,1696	-0,0500000007	2,38410783	-0,00013886613747477531	-0,049991809397802118	0,000119185861	1,1458327366881483E090	0,02410163186030193
1	0	0	0	0	0	2	34313,1696	-0,0500000007	2,37081361	-0,00013886606356522274	-0,049991782790363232	0,000118521202	1,1458327366881483E090	0,019657915349462586
1	0	0	0	0	0	2	34633,1696	-0,0500000007	2,35580301	-0,0001388663300431023	-0,049991878722399699	0,000117771022	1,1458327366881483E090	0,01521418907861143
1	0	0	0	0	0	2	34953,1696	-0,0500000007	2,33499384	-0,00013886685496651466	-0,049992067694827795	0,000116731171	1,1458327366881483E090	0,010770465475534614
1	0	0	0	0	0	2	35273,1696	-0,0500000007	2,3023212	-0,00013886693392238685	-0,049992096118941734	0,000115097864	1,1458327366881483E090	0,0063267295959774067
1	0	0	0	0	0	2	35593,1696	-0,0500000007	2,25297832	-0,00013886630959829523	-0,049991871362269165	0,000112630602	1,1458327366881483E090	0,0018829943916276176
1	0	0	0	0	0	2	35913,1696	-0,0500000007	2,17695189	-0,00013886658179490931	-0,049991969353050054	0,000108830114	1,1458327366881483E090	-0,0025607384416127706
1	0	0	0	0	0	2	36233,1696	-0,0500000007	2,06522012	-0,00013886693176709942	-0,049992095343038259	0,000103244682	1,1458327366881483E090	-0,0070044699820917427
1	0	0	0	0	0	2	36553,1696	-0,0500000007	1,89024079	-0,00013886535761070749	-0,049991528646738221	9,44960266E-005	1,1458327366881483E090	-0,011448197644202442
1	0	0	0	0	0	2	36831,4486	-0,0500000007	1,58404648	-9,8533894614419994E-005	-0,049991828731668243	7,91893835E-005	1,1458327366881483E090	-0,015312547461437462
1	1	0	1	0	0	1	36900,1936	0,0500000007	1,72805047	6,403706139367488E-006	0,050007249588848992	8,64150497E-005	1,1458327366881483E090	-0,016025424175815907
1	1	0	1	0	0	1	36916,9564	0,0500000007	2,04937959	8,1567167648010778E-006	0,050007119035297978	0,000102483566	1,1458327366881483E090	-0,015792573288232342
1	1	0	1	0	0	1	36952,7002	0,0500000007	2,37091851	7,0890714261473882E-005	0,05000716598067088	0,000118562915	1,1458327366881483E090	-0,015296058110227651
1	1	0	1	0	0	1	37270,2932	0,0500000007	2,45211387	0,00013890938813301426	0,050007379634739123	0,000122623795	1,1458327366881483E090	-0,010884393584840672
1	1	0	1	0	0	1	37590,2932	0,0500000007	2,47357154	0,00013890903525737424	0,05000725259950896	0,000123696518	1,1458327366881483E090	-0,0064392965795002995
1	1	0	1	0	0	1	37910,2932	0,0500000007	2,50237226	0,00013890914084886512	0,050007290612445613	0,000125136852	1,1458327366881483E090	-0,0019942075623156419
1	1	0	1	0	0	1	38230,2932	0,0500000007	2,51568556	0,00013891023705175354	0,050007685245484698	0,000125803606	1,1458327366881483E090	0,0024509023573015171
1	1	0	1	0	0	1	38550,2932	0,0500000007	2,5433991	0,00013890940131226347	0,050007384379268838	0,00012718873	1,1458327366881483E090	0,0068960147625708211
1	1	0	1	0	0	1	38870,2932	0,0500000007	2,58578014	0,00013890998809350035	0,050007595620513722	0,000129308653	1,1458327366881483E090	0,011341122694387979
1	1	0	1	0	0	1	39190,2932	0,0500000007	2,65204096	0,00013891011071039573	0,050007639762595974	0,000132622314	1,1458327366881483E090	0,015786242600537376
1	1	0	1	0	0	1	39504,4722	0,0500000007	2,76217079	0,00013890990874543786	0,050007567055211283	0,000138129442	1,1458327366881483E090	0,020150497146077821
1	1	0	1	0	0	1	39806,8686	0,0500000007	3,00583315	0,00010442149270636341	0,050007632235869677	0,000150314605	1,1458327366881483E090	0,02435107574825087
1	1	0	1	0	0	1	39971,7382	0,0500000007	3,28958774	5,1574576240032915E-005	0,050007669175980557	0,000164504614	1,1458327366881483E090	0,026641280100902701
1	1	0	1	0	0	1	40077,1828	0,0500000007	3,61080241	3,2960479882649254E-005	0,050007471070346861	0,000180567091	1,1458327366881483E090	0,028106006552667414
1	1	0	1	0	0	1	40160,0074	0,0500000007	3,93209338	3,8186345545781978E-005	0,050007582287423418	0,000196634486	1,1458327366881483E090	0,029256520130118106
1	0	0	0	0	0	2	40193,3136	-0,0500000007	3,75128722	-8,2153402939438822E-006	-0,04999192867418848	0,000187534082	1,1458327366881483E090	0,029365028850709978
1	0	0	0	0	0	2	40212,3738	-0,0500000007	3,43007255	-8,4624902456998822E-006	-0,049991737493345254	0,000171475287	1,1458327366881483E090	0,029100347595814989
1	0	0	0	0	0	2	40231,4614	-0,0500000007	3,10864806	-8,2375568809608627E-006	-0,049991916244136512	0,000155407281	1,1458327366881483E090	0,028835286325021907
1	0	0	0	0	0	2	40251,2380	-0,0500000007	2,78726172	-8,8457035656190579E-006	-0,049991417225771475	0,000139339158	1,1458327366881483E090	0,028560657400457974
1	0	0	0	0	0	2	40349,2368	-0,0500000007	2,46921325	-0,00013886600689652066	-0,049991762389630515	0,000123440317	1,1458327366881483E090	0,02719978863486312
1	0	0	0	0	0	2	40666,7706	-0,0500000007	2,36892533	-0,00013886753950619866	-0,049992314129113574	0,000118428063	1,1458327366881483E090	0,022790308530227958
1	0	0	0	0	0	2	40986,7706	-0,0500000007	2,35732865	-0,00013886646743035979	-0,049991928181812307	0,000117847405	1,1458327366881483E090	0,018346581034790893
1	0	0	0	0	0	2	41306,7706	-0,0500000007	2,3392663	-0,00013886655586316355	-0,049991960017621594	0,00011694451	1,1458327366881483E090	0,013902856596529029
1	0	0	0	0	0	2	41626,7706	-0,0500000007	2,31925821	-0,00013886704770454931	-0,049992137080520141	0,000115944677	1,1458327366881483E090	0,009459128645479433
1	0	0	0	0	0	2	41946,7706	-0,0500000007	2,28282809	-0,0001388665064324935	-0,049991942222580416	0,00011412301	1,1458327366881483E090	0,005015395864831248
1	0	0	0	0	0	2	42260,8086	-0,0500000007	2,21200871	-0,00013886565311004717	-0,049991635026500307	0,000110581932	1,1458327366881483E090	0,00065446741878920666
1	0	0	0	0	0	2	42580,8086	-0,0500000007	2,13722205	-0,00013886588597525323	-0,04999171885797433	0,000106843407	1,1458327366881483E090	-0,003789242906398279
1	0	0	0	0	0	2	42900,8086	-0,0500000007	2,01150942	-0,00013886554365087714	-0,049991595621199168	0,000100558565	1,1458327366881483E090	-0,0082329456070326669
1	0	0	0	0	0	2	43206,3940	-0,0500000007	1,80664217	-0,00013886537096214792	-0,049991533453256762	9,03168111E-005	1,1458327366881483E090	-0,012476468247799662
1	0	0	0	0	0	2	43452,8148	-0,0500000007	1,54696774	-0,00010057972743113835	-0,049991304443184922	7,73349384E-005	1,1458327366881483E090	-0,01589840555755985
1	1	0	1	0	0	1	43498,1110	0,0500000007	1,76638794	6,7121704765078093E-006	0,050007892536897107	8,83333414E-005	1,1458327366881483E090	-0,01622627076443961
1	1	0	1	0	0	1	43515,6354	0,0500000007	2,06730866	1,1854601309117346E-005	0,050007692328497997	0,000103381339	1,1458327366881483E090	-0,01598283928111479
1	1	0	1	0	0	1	43572,3710	0,0500000007	2,36887765	0,00011796859132746854	0,05000788092747072	0,000118462551	1,1458327366881483E090	-0,015194723472690352
1	1	0	1	0	0	1	43829,9092	0,0500000007	2,40797806	0,00013890959577448666	0,05000745438566905	0,000120416851	1,1458327366881483E090	-0,011617266433246574
1	1	0	1	0	0	1	44113,6836	0,0500000007	2,4396019	0,00013890969189277126	0,050007488988251443	0,000121998368	1,1458327366881483E090	-0,0076753551171659302
1	1	0	1	0	0	1	44429,6172	0,0500000007	2,4790647	0,00013890991158038376	0,050007568075791802	0,000123972	1,1458327366881483E090	-0,0032867261416700275
1	1	0	1	0	0	1	44749,6172	0,0500000007	2,47778678	0,000138908497368296	0,050007058959441152	0,000123906822	1,1458327366881483E090	0,001158383162474744
1	1	0	1	0	0	1	45069,6172	0,0500000007	2,5120616	0,00013890896682668891	0,050007227964462291	0,000125621242	1,1458327366881483E090	0,0056034788267464166
1	1	0	1	0	0	1	45389,6172	0,0500000007	2,5515244	0,00013890870317444208	0,050007133049653594	0,000127594423	1,1458327366881483E090	0,010048574149328458
1	1	0	1	0	0	1	45709,6172	0,0500000007	2,616431	0,0001389093286593755	0,050007358224229222	0,000130840795	1,1458327366881483E090	0,014493667927258406
1	1	0	1	0	0	1	46029,6172	0,0500000007	2,71429658	0,00013890942427184846	0,05000739264471943	0,000135734896	1,1458327366881483E090	0,018938764173404285
1	1	0	1	0	0	1	46348,1736	0,0500000007	2,92343616	0,00011885646208396387	0,050007393612171763	0,00014619343	1,1458327366881483E090	0,023363811381435926
1	1	0	1	0	0	1	46571,3494	0,0500000007	3,24308681	5,9336527239945203E-005	0,050007373740289837	0,000162178258	1,1458327366881483E090	0,026463926638380589
1	1	0	1	0	0	1	46679,9836	0,0500000007	3,56453037	3,8277784899498022E-005	0,05000726715792711	0,00017825242	1,1458327366881483E090	0,027972952992514259
1	1	0	1	0	0	1	46763,9128	0,0500000007	3,88631725	3,8252741881128813E-005	0,050007215670240704	0,000194343898	1,1458327366881483E090	0,029138802338658387
1	0	0	0	0	0	2	46808,1216	-0,0500000007	3,80061102	-8,6874941508803098E-006	-0,04999197391987465	0,00019000005	1,1458327366881483E090	0,029474533264583661
1	0	0	0	0	0	2	46827,8720	-0,0500000007	3,47865248	-8,9874645486060109E-006	-0,049992077113285254	0,000173905064	1,1458327366881483E090	0,029200266526823725
1	0	0	0	0	0	2	46847,2724	-0,0500000007	3,15642691	-8,7457736086928192E-006	-0,049991719487675814	0,000157795206	1,1458327366881483E090	0,028930860059467936
1	0	0	0	0	0	2	46866,9270	-0,0500000007	2,83462095	-9,2040346444894874E-006	-0,049991739075898944	0,000141707627	1,1458327366881483E090	0,028657923380468307
1	0	0	0	0	0	2	46909,1522	-0,0500000007	2,51292944	-6,5414621938226944E-005	-0,049992068640961133	0,000125626539	1,1458327366881483E090	0,028071555444015885
1	0	0	0	0	0	2	47207,4776	-0,0500000007	2,34186029	-0,00013886642983059088	-0,049991914645895514	0,00011707408	1,1458327366881483E090	0,023928811082447651
1	0	0	0	0	0	2	47527,4776	-0,0500000007	2,32520914	-0,00013886608874301115	-0,04999179185436704	0,000116241368	1,1458327366881483E090	0,019485088440825418
1	0	0	0	0	0	2	47847,4776	-0,0500000007	2,30378985	-0,00013886655641264384	-0,049991960215434502	0,000115170973	1,1458327366881483E090	0,015041370169134067
1	0	0	0	0	0	2	48167,4776	-0,0500000007	2,27821231	-0,00013886607425349454	-0,049991786638141075	0,000113891903	1,1458327366881483E090	0,010597651996591312
1	0	0	0	0	0	2	48487,4776	-0,0500000007	2,2381773	-0,00013886608332995741	-0,049991789905667693	0,000111890491	1,1458327366881483E090	0,0061539375328722432
1	0	0	0	0	0	2	48807,4776	-0,0500000007	2,18725157	-0,00013886619162414637	-0,049991828891575654	0,000109344706	1,1458327366881483E090	0,0017102276327788765
1	0	0	0	0	0	2	49127,4776	-0,0500000007	2,10945129	-0,00013886585155708923	-0,049991706467435315	0,000105455067	1,1458327366881483E090	-0,0027334819613386016
1	0	0	0	0	0	2	49447,4776	-0,0500000007	1,99983644	-0,00013886575111353563	-0,04999167030775609	9,99751646E-005	1,1458327366881483E090	-0,0071771780274633805
1	0	0	0	0	0	2	49767,0502	-0,0500000007	1,79968047	-0,00013886556842985254	-0,049991604541630291	8,99689112E-005	1,1458327366881483E090	-0,011614941945361314
1	1	0	1	1	0	1	50023,8924	0,0500000007	1,50769567	0	0	0	0	-0,015180885861561043
1	1	0	1	0	0	1	50037,0380	0,0500000007	1,82915843	6,6009998896883597E-006	0,050007574834512685	9,14717748E-005	1,1458327366881483E090	-0,014998966731962794
1	1	0	1	0	0	1	50054,7034	0,0500000007	2,15035415	8,7096971975018586E-006	0,05000783070094871	0,000107534543	1,1458327366881483E090	-0,01475357690661519
1	1	0	1	0	0	1	50213,0668	0,0500000007	2,40711975	0,00013891060266726547	0,050007816867068749	0,000120374803	1,1458327366881483E090	-0,012553747117573547
1	1	0	1	0	0	1	50533,0668	0,0500000007	2,44431305	0,00013890978538990022	0,050007522647217805	0,000122234036	1,1458327366881483E090	-0,0081086311353645248
1	1	0	1	0	0	1	50853,0668	0,0500000007	2,47921729	0,00013890953868358498	0,050007433832944486	0,000123979291	1,1458327366881483E090	-0,0036635162821637126
1	1	0	1	0	0	1	51173,0668	0,0500000007	2,49460936	0,00013890999277039538	0,050007597304195917	0,000124749422	1,1458327366881483E090	0,00078159175486619802
1	1	0	1	0	0	1	51493,0668	0,0500000007	2,51003981	0,00013890991117577589	0,05000756793013296	0,000125520979	1,1458327366881483E090	0,0052267083618817363
1	1	0	1	0	0	1	51813,0668	0,0500000007	2,55099034	0,00013891068661730323	0,050007847089082285	0,000127569539	1,1458327366881483E090	0,0096718291609966618
1	1	0	1	0	0	1	52133,0668	0,0500000007	2,61961627	0,00013890963805094362	0,050007469605193536	0,000131000386	1,1458327366881483E090	0,014116945652387054
1	1	0	1	0	0	1	52452,4840	0,0500000007	2,7099669	0,00013890958496224549	0,05000745049326224	0,000135518538	1,1458327366881483E090	0,018553958414203437
1	1	0	1	0	0	1	52765,5958	0,0500000007	2,88963819	0,00013890906874876883	0,050007264656410989	0,000144502905	1,1458327366881483E090	0,022903375193165875
1	1	0	1	0	0	1	53005,7542	0,0500000007	3,2019074	6,6960156973658342E-005	0,05000758539788505	0,000160119656	1,1458327366881483E090	0,026239406747956707
1	1	0	1	0	0	1	53119,6284	0,0500000007	3,52295041	3,9306027594746816E-005	0,050007668602042022	0,000176174537	1,1458327366881483E090	0,027821235863586726
1	1	0	1	0	0	1	53199,2364	0,0500000007	3,84454656	3,7797354774963526E-005	0,050007525519232768	0,000192256266	1,1458327366881483E090	0,028927068593257056
1	0	0	0	0	0	2	53249,4848	-0,0500000007	3,8409512	-8,8485561859690483E-006	-0,049991842770877594	0,000192016232	1,1458327366881483E090	0,029413153729330176
1	0	0	0	0	0	2	53268,8842	-0,0500000007	3,51939321	-9,0512212817039757E-006	-0,049991403124146112	0,000175939407	1,1458327366881483E090	0,029143762822862554
1	0	0	0	0	0	2	53287,7898	-0,0500000007	3,19760633	-7,8791796221501299E-006	-0,049991269981260794	0,000159852396	1,1458327366881483E090	0,028881230080862682
1	0	0	0	0	0	2	53307,1086	-0,0500000007	2,87589574	-8,1624915767461069E-006	-0,049991442029502624	0,000143770172	1,1458327366881483E090	0,028612959486499888
1	0	0	0	0	0	2	53339,1058	-0,0500000007	2,55410886	-4,7053203921144211E-005	-0,049991598924202208	0,00012768399	1,1458327366881483E090	0,028168629640281862
1	0	0	0	0	0	2	53618,9614	-0,0500000007	2,35486841	-0,0001388653518398189	-0,04999152656921833	0,000117723466	1,1458327366881483E090	0,024282409038793754
1	0	0	0	0	0	2	53928,1524	-0,0500000007	2,34092569	-0,00013886595646561019	-0,04999174423450279	0,000117026961	1,1458327366881483E090	0,019988812097523824
1	0	0	0	0	0	2	54242,7154	-0,0500000007	2,35956025	-0,00013886540967681342	-0,049991547390536314	0,000117958065	1,1458327366881483E090	0,015620617312110813
1	0	0	0	0	0	2	54562,7154	-0,0500000007	2,33280039	-0,00013886545257166858	-0,049991562832684147	0,000116620336	1,1458327366881483E090	0,01117691996348945
1	0	0	0	0	0	2	54823,7498	-0,0500000007	2,29341388	-0,00013886550283618272	-0,049991580927909203	0,000114651382	1,1458327366881483E090	0,0075520586691880166
1	0	0	0	0	0	2	55129,6416	-0,0500000007	2,24416637	-0,00013886532336970171	-0,049991516319976154	0,000112189278	1,1458327366881483E090	0,0033042849765259123
1	0	0	0	0	0	2	55449,6416	-0,0500000007	2,17224073	-0,0001388658655308601	-0,049991711497992813	0,000108594031	1,1458327366881483E090	-0,0011394155246124317
1	0	0	0	0	0	2	55769,6416	-0,0500000007	2,07263947	-0,00013886488213679858	-0,049991357476131328	0,00010361406	1,1458327366881483E090	-0,0055831147677734285
1	0	0	0	0	0	2	56088,5380	-0,0500000007	1,90578568	-0,0001388649668616967	-0,049991387977094598	9,52728733E-005	1,1458327366881483E090	-0,010011474380072144
1	0	0	0	0	0	2	56382,4236	-0,0500000007	1,61189353	-0,00010933137527377242	-0,049991483799566035	8,05809468E-005	1,1458327366881483E090	-0,01409253110679585
1	1	0	1	0	0	1	56469,9718	0,0500000007	1,69844854	5,9509190469980237E-006	0,050007722984988909	8,4935542E-005	1,1458327366881483E090	-0,015108470043344762
1	1	0	1	0	0	1	56485,9178	0,0500000007	2,02002573	7,5817071098006438E-006	0,050007595361582381	0,000101016631	1,1458327366881483E090	-0,014886963942152266
1	1	0	1	0	0	1	56512,8770	0,0500000007	2,34186983	3,3430039998764794E-005	0,050007539171085024	0,000117111151	1,1458327366881483E090	-0,014512473805839533
1	1	0	1	0	0	1	56818,2662	0,0500000007	2,43780899	0,00013890915486464896	0,050007295658127782	0,000121908233	1,1458327366881483E090	-0,010270345007514506
1	1	0	1	0	0	1	57138,2662	0,0500000007	2,46348166	0,00013890954610229365	0,05000743650367961	0,000123192396	1,1458327366881483E090	-0,0058252429759156032
1	1	0	1	0	0	1	57458,2662	0,0500000007	2,48253608	0,00013890927673441669	0,050007339531244077	0,000124145023	1,1458327366881483E090	-0,0013801490584673213
1	1	0	1	0	0	1	57778,2662	0,0500000007	2,50420332	0,0001389084398932755	0,050007038268433811	0,000125227787	1,1458327366881483E090	0,0030649450563015149
1	1	0	1	0	0	1	58098,2662	0,0500000007	2,54528737	0,00013890837216687699	0,0500070138869304	0,000127282226	1,1458327366881483E090	0,0075100248468887437
1	1	0	1	0	0	1	58418,2662	0,0500000007	2,57485104	0,00013890932324673566	0,05000735627567888	0,000128761487	1,1458327366881483E090	0,01195510692473281
1	1	0	1	0	0	1	58738,2662	0,0500000007	2,65247965	0,00013890936490893366	0,050007371274070125	0,00013264353	1,1458327366881483E090	0,016400205725049677
1	1	0	1	0	0	1	59058,2662	0,0500000007	2,77752471	0,00013890973905370467	0,050007505966187443	0,000138897085	1,1458327366881483E090	0,020845306811870256
1	1	0	1	0	0	1	59359,1738	0,0500000007	3,04670739	0,00010322842225535875	0,050007040318684845	0,000152356821	1,1458327366881483E090	0,025025189356552301
1	1	0	1	0	0	1	59513,1498	0,0500000007	3,3681128	4,8668296637841395E-005	0,05000738314114352	0,000168430503	1,1458327366881483E090	0,027164048620728026
1	1	0	1	0	0	1	59606,2384	0,0500000007	3,6893084	3,7794453662095795E-005	0,050007362881632557	0,000184492586	1,1458327366881483E090	0,028457136795587078
1	0	0	0	1	0	2	59686,5872	-0,0500000007	3,99119854	-2,7484339144494797E-009	-0,016490604303234378	6,58172794E-005	2,7484339144494797E-009	0,029573242769034234
1	0	0	0	0	0	2	59704,5240	-0,0500000007	3,66974854	-8,6541443785859469E-006	-0,049991848052110733	0,000183457509	1,1458327366881483E090	0,029324161690265216
1	0	0	0	0	0	2	59724,5616	-0,0500000007	3,34805703	-8,5929947669307392E-006	-0,049991566095693594	0,000167374616	1,1458327366881483E090	0,02904590781772041
1	0	0	0	0	0	2	59743,4754	-0,0500000007	3,02646089	-8,2874690863407309E-006	-0,049991435424583091	0,000151297121	1,1458327366881483E090	0,028783260370842973
1	0	0	0	0	0	2	59763,3492	-0,0500000007	2,70463586	-8,956832276450263E-006	-0,049991621916421504	0,000135209135	1,1458327366881483E090	0,028507281600386384
1	0	0	0	0	0	2	59901,1736	-0,0500000007	2,38723588	-0,00013886610073451366	-0,049991796171307942	0,000119342207	1,1458327366881483E090	0,026593375917676493
1	0	0	0	0	0	2	60221,1736	-0,0500000007	2,32461786	-0,00013886524857704838	-0,049991489394621011	0,000116211108	1,1458327366881483E090	0,022149673143087024
1	0	0	0	0	0	2	60541,1736	-0,0500000007	2,30758548	-0,00013886553017939957	-0,049991590771467251	0,000115359871	1,1458327366881483E090	0,017705985617892464
1	0	0	0	0	0	2	60861,1736	-0,0500000007	2,29156375	-0,00013886563737090264	-0,049991629360408282	0,000114559007	1,1458327366881483E090	0,01326227815378691
1	0	0	0	0	0	2	61181,1736	-0,0500000007	2,25549603	-0,00013886546516687506	-0,04999156736695847	0,000112755784	1,1458327366881483E090	0,0088185721306515866
1	0	0	0	0	0	2	61501,1736	-0,0500000007	2,21897054	-0,00013886650678101512	-0,049991942348048192	0,000110930647	1,1458327366881483E090	0,0043748553957362374
1	0	0	0	0	0	2	61821,1736	-0,0500000007	2,16550779	-0,00013886561426706611	-0,049991621043027149	0,000108257242	1,1458327366881483E090	-6,8845047940952691E-005
1	0	0	0	0	0	2	62141,1736	-0,0500000007	2,06497216	-0,00013886564286073877	-0,049991631336749293	0,00010323133	1,1458327366881483E090	-0,0045125452583323936
1	0	0	0	0	0	2	62461,1736	-0,0500000007	1,92182636	-0,00013886460936131576	-0,049991259276957702	9,60745165E-005	1,1458327366881483E090	-0,0089562359671428557
1	0	0	0	0	0	2	62769,8682	-0,0500000007	1,64878142	-0,00011748562771040533	-0,049991520374060512	8,24250892E-005	1,1458327366881483E090	-0,013242923493513774
1	1	0	1	0	0	1	62894,7360	0,0500000007	1,6683507	5,7730252670331123E-006	0,050006956033368403	8,34291423E-005	1,1458327366881483E090	-0,01481366217281665
1	1	0	1	0	0	1	62910,2226	0,0500000007	1,98992789	7,5955292870187098E-006	0,050007142245054349	9,95106093E-005	1,1458327366881483E090	-0,014598539232422864
1	1	0	1	0	0	1	62933,3266	0,0500000007	2,31150508	1,9833601764920688E-005	0,050007680501169242	0,000115593008	1,1458327366881483E090	-0,014277603207975165
1	1	0	1	0	0	1	63217,8362	0,0500000007	2,43769455	0,00013890974925375646	0,050007509638206086	0,000121903031	1,1458327366881483E090	-0,01032550397732145
1	1	0	1	0	0	1	63537,8362	0,0500000007	2,45123649	0,00013890866618437899	0,050007119733230918	0,00012257928	1,1458327366881483E090	-0,0058804079418306035
1	1	0	1	0	0	1	63857,8362	0,0500000007	2,49535322	0,0001389088221250309	0,050007175871865498	0,000124785569	1,1458327366881483E090	-0,0014353218512000611
1	1	0	1	0	0	1	64177,8362	0,0500000007	2,52878881	0,00013890911034432549	0,050007279630811354	0,000126457846	1,1458327366881483E090	0,0030097584829471699
1	1	0	1	0	0	1	64497,8362	0,0500000007	2,56653523	0,00013890889289354283	0,050007201348529747	0,000128345244	1,1458327366881483E090	0,007454844417789591
1	1	0	1	0	0	1	64815,6500	0,0500000007	2,62253451	0,00013890876733863518	0,050007156148763085	0,000131145498	1,1458327366881483E090	0,01186957048689931
1	1	0	1	0	0	1	65135,6500	0,0500000007	2,69718766	0,0001389088821142084	0,050007197467969363	0,000134878792	1,1458327366881483E090	0,016314664171158282
1	1	0	1	0	0	1	65455,6500	0,0500000007	2,82093573	0,00013890849271582234	0,050007057284550643	0,000141066688	1,1458327366881483E090	0,020759742787554493
1	1	0	1	0	0	1	65757,2208	0,0500000007	3,0858078	8,659604650384023E-005	0,050007353312177702	0,000154313078	1,1458327366881483E090	0,024948824563987386
1	1	0	1	0	0	1	65914,0631	0,0500000007	3,40690804	4,4692637373175885E-005	0,050007314063018374	0,000170370316	1,1458327366881483E090	0,027127496722610093
1	1	0	1	0	0	1	66005,9429	0,0500000007	3,72804642	3,2554635938256979E-005	0,050007132981123648	0,000186428908	1,1458327366881483E090	0,028403788458457891
1	0	0	0	0	0	2	66074,7041	-0,0500000007	3,98220873	-2,9717095136228531E-006	-0,049991386640164058	0,000199076138	2,9744587602714701E-006	0,029352987618273997
1	0	0	0	0	0	2	66092,5871	-0,0500000007	3,66080332	-8,3485897446258202E-006	-0,049991567348104493	0,000183009295	1,1458327366881483E090	0,029104654116351616
1	0	0	0	0	0	2	66111,7787	-0,0500000007	3,33945513	-8,1125605060822438E-006	-0,049991825784322701	0,000166945465	1,1458327366881483E090	0,028838147449174733
1	0	0	0	0	0	2	66130,5569	-0,0500000007	3,01833558	-9,0151914952115891E-006	-0,049991831720503098	0,000150892127	1,1458327366881483E090	0,028577381634215354
1	0	0	0	0	0	2	66150,8099	-0,0500000007	2,69708276	-1,0417757217047944E-005	-0,049991915390520653	0,000134832328	1,1458327366881483E090	0,028296136022833114
1	0	0	0	0	0	2	66340,5724	-0,0500000007	2,40861702	-0,00013886805396423573	-0,049991511338834451	0,000120410405	1,1458327366881483E090	0,02566097989221272
1	0	0	0	0	0	2	66660,5787	-0,0500000007	2,38298249	-0,00013886756426675453	-0,049991335107094131	0,000119128475	1,1458327366881483E090	0,021217212142439171
1	0	0	0	0	0	2	66980,5851	-0,0500000007	2,35833955	-0,00013886826854902837	-0,049991588697242797	0,000117897143	1,1458327366881483E090	0,016773447032182397
1	0	0	0	0	0	2	67300,5914	-0,0500000007	2,33613825	-0,00013886788306302494	-0,049991449979146906	0,000116786941	1,1458327366881483E090	0,012329681300227448
1	0	0	0	0	0	2	67620,5977	-0,0500000007	2,30293155	-0,00013886843508502677	-0,049991648717107635	0,000115127346	1,1458327366881483E090	0,0078859079541021978
1	0	0	0	0	0	2	67940,6040	-0,0500000007	2,2470274	-0,00013886771116964522	-0,049991388112720237	0,000112332018	1,1458327366881483E090	0,0034421353437662758
1	0	0	0	0	0	2	68260,6104	-0,0500000007	2,17979383	-0,00013886716224108304	-0,049991190502051962	0,000108970489	1,1458327366881483E090	-0,001001623043705169
1	0	0	0	0	0	2	68580,6167	-0,0500000007	2,07818985	-0,00013886745854632722	-0,04999129716954096	0,000103891405	1,1458327366881483E090	-0,00544538477672448
1	0	0	0	0	0	2	68894,2144	-0,0500000007	1,91722965	-0,00013886790216569272	-0,049991456869938586	9,58451055E-005	1,1458327366881483E090	-0,0098001631580435776
1	0	0	0	0	0	2	69187,5643	-0,0500000007	1,61885536	-0,00010347638683248725	-0,049991287769625101	8,09286648E-005	1,1458327366881483E090	-0,01387375849659284
1	1	0	1	0	0	1	69288,9217	0,0500000007	1,68679476	5,5508373611503174E-006	0,050007555406672179	8,43524831E-005	1,1458327366881483E090	-0,015092597735949014
1	1	0	1	0	0	1	69304,9873	0,0500000007	2,00785685	7,6344746285014694E-006	0,050007487748548934	0,000100407873	1,1458327366881483E090	-0,014869431294270432
1	1	0	1	0	0	1	69327,2835	0,0500000007	2,32918596	1,5893996042095952E-005	0,050007340603876211	0,000116476396	1,1458327366881483E090	-0,014559716029548762
1	1	0	1	0	0	1	69588,3771	0,0500000007	2,47730994	0,0001389127043835405	0,050007585349057536	0,000123884281	1,1458327366881483E090	-0,010932876616129605
1	1	0	1	0	0	1	69908,3834	0,0500000007	2,49768019	0,00013891203311561712	0,050007343671765907	0,000124902348	1,1458327366881483E090	-0,0064876815632401203
1	1	0	1	0	0	1	70228,3897	0,0500000007	2,52537489	0,00013891211817185912	0,050007374235521427	0,00012628737	1,1458327366881483E090	-0,0020425000213119283
1	1	0	1	0	0	1	70548,3960	0,0500000007	2,54961705	0,0001389122694530007	0,050007428642680307	0,000127499792	1,1458327366881483E090	0,0024026838974928301
1	1	0	1	0	0	1	70868,4024	0,0500000007	2,59104443	0,00013891220766450795	0,050007406346868922	0,000129571417	1,1458327366881483E090	0,0068478726018651085
1	1	0	1	0	0	1	71188,4087	0,0500000007	2,65129709	0,00013891196907332373	0,050007320456904563	0,00013258426	1,1458327366881483E090	0,011293055733126325
1	1	0	1	0	0	1	71508,4150	0,0500000007	2,72350907	0,00013891189642850725	0,05000729430470537	0,000136195318	1,1458327366881483E090	0,015738250161650531
1	1	0	1	0	0	1	71801,7365	0,0500000007	2,8290801	0,00013891200643653674	0,050007334093683539	0,000141474753	1,1458327366881483E090	0,019812771286777987
1	1	0	1	0	0	1	72089,9207	0,0500000007	3,03039956	8,6440188016742464E-005	0,050007191279304186	0,000151541768	1,1458327366881483E090	0,023815926161572992
1	1	0	1	0	0	1	72222,6316	0,0500000007	3,06318665	5,6397549870113542E-007	0,050007691221443149	0,000153182889	1,1458327366881483E090	0,025659402797531178
1	1	0	1	0	0	1	72315,3034	0,0500000007	3,36820817	9,1635978745296602E-005	0,050007519046714918	0,000168435741	1,1458327366881483E090	0,026946700497860765
1	1	0	1	0	0	1	72416,5982	0,0500000007	3,68946099	3,4896752796032365E-005	0,050007300200031648	0,000184499979	1,1458327366881483E090	0,028353775967294813
1	0	0	0	1	0	2	72497,3942	-0,0500000007	3,99151921	-2,7484688907861709E-009	-0,016490815761084682	6,58234057E-005	2,7484688907861709E-009	0,029476096406657696
1	0	0	0	0	0	2	72513,3552	-0,0500000007	3,66953874	-8,0847231017218688E-006	-0,049991429014426195	0,000183445489	1,1458327366881483E090	0,029254454153745574
1	0	0	0	0	0	2	72532,3980	-0,0500000007	3,34820962	-7,5681740124192499E-006	-0,049991620143557728	0,00016738243	1,1458327366881483E090	0,028990016060134234
1	0	0	0	0	0	2	72551,1716	-0,0500000007	3,02621293	-8,3374987416383283E-006	-0,049991676475208403	0,000151285451	1,1458327366881483E090	0,028729315409885763
1	0	0	0	0	0	2	72570,8237	-0,0500000007	2,70413995	-9,2095909884406464E-006	-0,049991760095478502	0,000135184717	1,1458327366881483E090	0,02845641456788825
1	0	0	0	0	0	2	72700,0787	-0,0500000007	2,38876176	-0,00013886868903309934	-0,049991740136025203	0,000119418357	1,1458327366881483E090	0,026661504882044723
1	0	0	0	0	0	2	73020,0850	-0,0500000007	2,31801844	-0,00013886848624485235	-0,049991667133698925	0,000115881609	1,1458327366881483E090	0,02221771715628857
1	0	0	0	0	0	2	73340,0914	-0,0500000007	2,30022311	-0,00013886859293199246	-0,049991705540892358	0,000114992079	1,1458327366881483E090	0,017773930630069683
1	0	0	0	0	0	2	73660,0977	-0,0500000007	2,27970004	-0,00013886923183128238	-0,049991935515648794	0,00011396662	1,1458327366881483E090	0,01333013152724488
1	0	0	0	0	0	2	73980,1040	-0,0500000007	2,24056149	-0,0001388682718668133	-0,049991589882892256	0,000112009227	1,1458327366881483E090	0,0088863419578158643
1	0	0	0	0	0	2	74285,4315	-0,0500000007	2,23466778	-0,00013886800263780688	-0,04999149303860295	0,000111714377	1,1458327366881483E090	0,0046463915860554016
1	0	0	0	0	0	2	74605,4379	-0,0500000007	2,15457869	-0,00013886837653650176	-0,049991627639545933	0,000107710897	1,1458327366881483E090	0,00020260141388434784
1	0	0	0	0	0	2	74925,4442	-0,0500000007	2,04862618	-0,00013886879473158883	-0,049991778186729472	0,000102414466	1,1458327366881483E090	-0,0042411891011640826
1	0	0	0	0	0	2	75245,4505	-0,0500000007	1,89235795	-0,00013886812119724022	-0,049991535698786701	9,46018772E-005	1,1458327366881483E090	-0,0086849840028198656
1	0	0	0	0	0	2	75549,9982	-0,0500000007	1,6139344	-0,00010762413095289634	-0,049991866506944691	8,0683596E-005	1,1458327366881483E090	-0,01291410576967063
1	0	0	0	0	0	2	75637,9160	-0,0500000007	1,49999011	-3,2261295769156678E-005	-0,0499916890673736	7,49870378E-005	1,1458327366881483E090	-0,01413498067640799