File: Experimentelles/Rohdaten/Batteriemessungen/AlteZelle/Studenten_Batterietests/LiCoO2 vs Li 300µm GCPL/ZView-Export/LiCoO2 vs Li 300µm GCPL_02_GCPL_C04_loop3.txt
EC-Lab ASCII FILE
Nb header lines : 3
mode	ox/red	error	control changes	Ns changes	counter inc.	Ns	time/s	control/V/mA	Ewe/V	dq/mA.h	<I>/mA	P/W	(Q-Qo)/mA.h	x	Capacity/mA.h
1	0	0	1	1	0	1	38272,22	-0,300000012	4,18656063	0	0	0	0	0	0
1	0	0	1	0	0	1	38322,22	-0,300000012	4,13314486	-0,00083290082924233536	-0,29984429796873722	0,00123929989	-0,0041604132317221952	0,00015523061141063731	0,0041604132317221952
1	0	0	1	0	0	1	38372,22	-0,300000012	4,12320614	-0,00083289040037658483	-0,29984054357707398	0,00123630441	-0,0083249001354343488	0,00031061321700033018	0,0083249001354343488
1	0	0	1	0	0	1	38422,22	-0,300000012	4,11366749	-0,00083289167956345613	-0,29984100408434682	0,00123344618	-0,012489353225560662	0,00046599456095967258	0,012489353225560662
1	0	0	1	0	0	1	38472,22	-0,300000012	4,10502577	-0,00083288852707710528	-0,29983986918926266	0,00123085035	-0,016653793980861715	0,00062137544469009997	0,016653793980861715
1	0	0	1	0	0	1	38522,22	-0,300000012	4,09714699	-0,00083289034412470131	-0,29984052332639597	0,00122849073	-0,020818249491113763	0,00077675687894758758	0,020818249491113763
1	0	0	1	0	0	1	38572,22	-0,300000012	4,09104204	-0,00083288971583048499	-0,29984029714047853	0,00122665928	-0,02498270564149321	0,0009321383370890889	0,02498270564149321
1	0	0	1	0	0	1	38622,22	-0,300000012	4,08226681	-0,00083289027587076019	-0,29984049875497728	0,00122402888	-0,029147155897388858	0,0010875195752994744	0,029147155897388858
1	0	0	1	0	0	1	38672,22	-0,300000012	4,07631493	-0,00083290434027711552	-0,29984556194125568	0,00122226495	-0,033311663400424858	0,0012429029494776362	0,033311663400424858
1	0	0	1	0	0	1	38722,22	-0,300000012	4,0645442	-0,0008328997442937559	-0,29984390738724928	0,00121872884	-0,037476136422986797	0,0013982850371429509	0,037476136422986797
1	0	0	1	0	0	1	38772,22	-0,300000012	4,05746651	-0,00083288804656763866	-0,29983969620585498	0,00121658947	-0,041640625987326118	0,0015536677420042208	0,041640625987326118
1	0	0	1	0	0	1	38822,22	-0,300000012	4,05267859	-0,00083289140835238822	-0,29984090644836256	0,00121515885	-0,04580509618853696	0,0017090497244011331	0,04580509618853696
1	0	0	1	0	0	1	38872,22	-0,300000012	4,04628754	-0,00083288825999034778	-0,29983977303803008	0,00121323799	-0,0499695255566256	0,0018644301832593552	0,0499695255566256
1	0	0	1	0	0	1	38922,22	-0,300000012	4,03989697	-0,00083289984268777894	-0,29984394280909754	0,00121133868	-0,054134005493915757	0,0020198125289224768	0,054134005493915757
1	0	0	1	0	0	1	38972,22	-0,300000012	4,03259039	-0,00083289503833154842	-0,29984221324085773	0,00120914087	-0,058298487850358093	0,0021751949648474192	0,058298487850358093
1	0	0	1	0	0	1	39022,22	-0,300000012	4,02516937	-0,00083289733573959923	-0,29984304030775456	0,00120691897	-0,062462977154196966	0,0023305776599890672	0,062462977154196966
1	0	0	1	0	0	1	39072,22	-0,300000012	4,01774836	-0,00083289767210847795	-0,29984316140055066	0,00120469439	-0,066627450924704486	0,0024859597755612371	0,066627450924704486
1	0	0	1	0	0	1	39122,22	-0,300000012	4,0146389	-0,00083289837637874816	-0,29984341493784742	0,00120376307	-0,070791952976764928	0,0026413429463561715	0,070791952976764928
1	0	0	1	0	0	1	39172,22	-0,300000012	4,00807667	-0,00083289954826898048	-0,2998438368183303	0,00120179704	-0,074956449425670848	0,0027967259080898781	0,074956449425670848
1	0	0	1	0	0	1	39222,22	-0,300000012	4,00277328	-0,00083292411317759091	-0,29985268018541363	0,00120024232	-0,079120978564896538	0,002952110089543367	0,079120978564896538
1	0	0	1	0	0	1	39272,22	-0,300000012	3,99561906	-0,00083291310921808077	-0,29984871875999738	0,0011980813	-0,08328551818000777	0,003107494661866231	0,08328551818000777
1	0	0	1	0	0	1	39322,22	-0,300000012	3,99025846	-0,00083291262925002304	-0,29984854597149683	0,00119647314	-0,087450081361850138	0,0032628801134955187	0,087450081361850138
1	0	0	1	0	0	1	39372,22	-0,300000012	3,98800755	-0,00083290949581894605	-0,29984741793631123	0,00119579374	-0,091614654886606694	0,0034182659510328416	0,091614654886606694
1	0	0	1	0	0	1	39422,22	-0,300000012	3,98852253	-0,00083292286596364442	-0,29985223118839373	0,00119596743	-0,095779233418564032	0,0035736519753955578	0,095779233418564032
1	0	0	1	0	0	1	39472,22	-0,300000012	3,98577547	-0,00083290827743212378	-0,29984697931705606	0,00119512272	-0,099943803183411571	0,0037290376726456205	0,099943803183411571
1	0	0	1	0	0	1	39522,22	-0,300000012	3,98127317	-0,00083290588216980288	-0,29984611702262214	0,00119376928	-0,10410832119773994	0,0038844214390142317	0,10410832119773994
1	0	0	1	0	0	1	39572,22	-0,300000012	3,97787762	-0,0008329049552165801	-0,29984578331946246	0,00119274983	-0,10827286460645994	0,0040398061528817402	0,10827286460645994
1	0	0	1	0	0	1	39622,22	-0,300000012	3,9756074	-0,000832890516658624	-0,299840585438608	0,00119204842	-0,11243734128166736	0,0041951883768321696	0,11243734128166736
1	0	0	1	0	0	1	39672,22	-0,300000012	3,97043753	-0,00083289869103829056	-0,29984352821528256	0,00119051	-0,11660183102792504	0,0043505710884810579	0,11660183102792504
1	0	0	1	0	0	1	39722,22	-0,300000012	3,96959829	-0,00083291225546598438	-0,2998484114092432	0,00119027775	-0,12076635911256739	0,004505955230586624	0,12076635911256739
1	0	0	1	0	0	1	39772,22	-0,300000012	3,97095275	-0,00083289634510378035	-0,29984268367886042	0,0011906611	-0,12493086369051704	0,0046613384956258816	0,12493086369051704
1	0	0	1	0	0	1	39822,22	-0,300000012	3,96936917	-0,00083291036042074368	-0,29984772919295782	0,00119020639	-0,12909538974092405	0,0048167225618313926	0,12909538974092405
1	0	0	1	0	0	1	39872,22	-0,300000012	3,96463823	-0,000832917505024208	-0,29985030125020013	0,00118879799	-0,13325993799311256	0,0049721074564152224	0,13325993799311256
1	0	0	1	0	0	1	39922,22	-0,300000012	3,95519519	-0,00083291280183527206	-0,29984860810218637	0,00118595979	-0,13742450167489221	0,0051274929266978426	0,13742450167489221
1	0	0	1	0	0	1	39972,22	-0,300000012	3,94756436	-0,0008329170840846167	-0,29985014971194765	0,00118367781	-0,14158905321766107	0,0052828779440576499	0,14158905321766107
1	0	0	1	0	0	1	40022,22	-0,300000012	3,94548488	-0,00083292133614917594	-0,29985168045518605	0,00118306023	-0,14575364443696374	0,005438264441802279	0,14575364443696374
1	0	0	1	0	0	1	40072,22	-0,300000012	3,95157051	-0,0008329263118207456	-0,29985347169694778	0,00118489214	-0,14991822012062704	0,0055936503598913139	0,14991822012062704
1	0	0	1	0	0	1	40122,22	-0,300000012	3,95298219	-0,00083292128485606784	-0,2998516619896672	0,00118530833	-0,15408283282389242	0,0057490376592314778	0,15408283282389242
1	0	0	1	0	0	1	40172,22	-0,300000012	3,94954824	-0,0008329116852266921	-0,2998482061230983	0,00118426501	-0,1582473890657127	0,0059044228519192102	0,1582473890657127
1	0	0	1	0	0	1	40222,22	-0,300000012	3,92640805	-0,00083290380274752768	-0,29984536843060442	0,00117731525	-0,16241192679770125	0,0060598073539802355	0,16241192679770125
1	0	0	1	0	0	1	40272,22	-0,300000012	3,92295504	-0,00083291935118867302	-0,29985096586940627	0,00117630186	-0,16657654464404618	0,0062151948452156109	0,16657654464404618
1	0	0	1	0	0	1	40322,22	-0,300000012	3,91971183	-0,00083291774379379213	-0,2998503872072503	0,00117532711	-0,17074116343480682	0,0063705823716884083	0,17074116343480682
1	0	0	1	0	0	1	40372,22	-0,300000012	3,91515255	-0,00083292879541549414	-0,29985436579105562	0,00117397553	-0,17490575532384883	0,006525968894421911	0,17490575532384883
1	0	0	1	0	0	1	40422,22	-0,300000012	3,91112733	-0,00083291666984558106	-0,29985000058589504	0,00117275154	-0,17907035618913011	0,0066813557520709709	0,17907035618913011
1	0	0	1	0	0	1	40472,22	-0,300000012	3,91074586	-0,00083291686475939226	-0,29985007075486694	0,00117263745	-0,18323492029082611	0,0068367412380212352	0,18323492029082611
1	0	0	1	0	0	1	40522,22	-0,300000012	3,90443134	-0,00083292686862581299	-0,29985367214677171	0,00117075804	-0,18739951622090573	0,0069921279115312858	0,18739951622090573
1	0	0	1	0	0	1	40572,22	-0,300000012	3,90200853	-0,00083291819201575386	-0,29985054856715622	0,00117001939	-0,19156412333914803	0,0071475150024867302	0,19156412333914803
1	0	0	1	0	0	1	40622,22	-0,300000012	3,89691496	-0,00083290462788773901	-0,29984566548108	0,00116847304	-0,19572866564863094	0,0073028996753402227	0,19572866564863094
1	0	0	1	0	0	1	40672,22	-0,300000012	3,89699125	-0,00083290148698455757	-0,29984453475593677	0,00116849155	-0,19989319007183779	0,0074582836808327078	0,19989319007183779
1	0	0	1	0	0	1	40722,22	-0,300000012	3,89363384	-0,00083290745413137805	-0,29984668292878816	0,00116749317	-0,20405773922144371	0,0076136686089003878	0,20405773922144371
1	0	0	1	0	0	1	40772,22	-0,300000012	3,88993287	-0,00083292349492344589	-0,29985245761392179	0,00116640597	-0,20822233171127568	0,0077690551540501734	0,20822233171127568
1	0	0	1	0	0	1	40822,22	-0,300000012	3,88632727	-0,00083291717418366016	-0,2998501821476032	0,00116531597	-0,21238692305884925	0,0079244416565807616	0,21238692305884925
1	0	0	1	0	0	1	40872,22	-0,300000012	3,88377094	-0,00083293063982658918	-0,29985502977904851	0,00116456824	-0,21655151691907149	0,0080798282528616512	0,21655151691907149
1	0	0	1	0	0	1	40922,22	-0,300000012	3,88071871	-0,00083291554614404838	-0,29984959605334406	0,00116363191	-0,22071610054644941	0,0082352144673413594	0,22071610054644941
1	0	0	1	0	0	1	40972,22	-0,300000012	3,87789536	-0,00083290913097063693	-0,29984728659092026	0,00116277637	-0,22488065642610192	0,0083905996465161254	0,22488065642610192
1	0	0	1	0	0	1	41022,22	-0,300000012	3,87602568	-0,00083292022278739354	-0,29985127964494515	0,0011622312	-0,22904524040840896	0,0085459858742387174	0,22904524040840896
1	0	0	1	0	0	1	41072,22	-0,300000012	3,87270641	-0,00083291235948271232	-0,29984844885526515	0,00116122502	-0,2332098086792247	0,0087013715157444454	0,2332098086792247
1	0	0	1	0	0	1	41122,22	-0,300000012	3,87186694	-0,00083292731348176794	-0,2998538322949152	0,00116099417	-0,23737441451380646	0,0088567585588047885	0,23737441451380646
1	0	0	1	0	0	1	41172,22	-0,300000012	3,87085581	-0,00083292550892134515	-0,29985318265316416	0,00116068847	-0,24153902491747171	0,0090121457723437773	0,24153902491747171
1	0	0	1	0	0	1	41222,22	-0,300000012	3,86782265	-0,00083292787790298458	-0,29985403548655283	0,00115978217	-0,24570368077415555	0,0091675346817960026	0,24570368077415555
1	0	0	1	0	0	1	41272,22	-0,300000012	3,86875749	-0,00083292742253508838	-0,29985387155411046	0,00116006192	-0,24986831356140141	0,0093229227304964813	0,24986831356140141
1	0	0	1	0	0	1	41322,22	-0,300000012	3,86389279	-0,00083292625553078118	-0,29985345143256064	0,0011586016	-0,25403293405493427	0,0094783103205019981	0,25403293405493427
1	0	0	1	0	0	1	41372,22	-0,300000012	3,8620615	-0,00083293170018328563	-0,29985541150745856	0,00115806004	-0,25819756901915037	0,0096336984504281626	0,25819756901915037
1	0	0	1	0	0	1	41422,22	-0,300000012	3,85572791	-0,00083291723394725069	-0,29985020366249568	0,00115614082	-0,26236215811847312	0,0097890848690734899	0,26236215811847312
1	0	0	1	0	0	1	41472,22	-0,300000012	3,85738754	-0,00083291602385871936	-0,29984976803062528	0,00115663675	-0,26652672919768416	0,0099444706153642214	0,26652672919768416
1	0	0	1	0	0	1	41522,22	-0,300000012	3,85246563	-0,00083292462735374771	-0,29985286528882963	0,00115517282	-0,27069134828280566	0,010099858152820018	0,27069134828280566
1	0	0	1	0	0	1	41572,22	-0,300000012	3,85526991	-0,0008329169299668736	-0,29985009422956019	0,0011560031	-0,27485595534985264	0,010255245241865293	0,27485595534985264
1	0	0	1	0	0	1	41622,22	-0,300000012	3,85437346	-0,00083290331944657702	-0,29984519444226253	0,00115571532	-0,27902049420543344	0,010410629785849058	0,27902049420543344
1	0	0	1	0	0	1	41672,22	-0,300000012	3,85055804	-0,00083291069027615923	-0,2998478479409072	0,00115458155	-0,2831850449829647	0,010566014774656821	0,2831850449829647
1	0	0	1	0	0	1	41722,22	-0,300000012	3,84828782	-0,00083291695475743872	-0,29985010315416358	0,00115390948	-0,28734960089095264	0,010721399954888819	0,28734960089095264
1	0	0	1	0	0	1	41772,22	-0,300000012	3,85299993	-0,00083292147780126989	-0,29985173144993984	0,0011553287	-0,2915141712387849	0,010876785673890824	0,2915141712387849
1	0	0	1	0	0	1	41822,22	-0,300000012	3,85456419	-0,00083292187958955763	-0,29985187609372307	0,00115579832	-0,29567877078918605	0,011032172482479938	0,29567877078918605
1	0	0	1	0	0	1	41872,22	-0,300000012	3,84981394	-0,00083291854475438592	-0,29985067555306355	0,00115436933	-0,29984339019161613	0,011187560031774942	0,29984339019161613
1	0	0	1	0	0	1	41922,22	-0,300000012	3,8516264	-0,00083291150055825702	-0,29984813964246189	0,00115490297	-0,30400795419109683	0,011342945513911419	0,30400795419109683
1	0	0	1	0	0	1	41972,22	-0,300000012	3,84947062	-0,00083290518776906867	-0,29984586703835827	0,0011542479	-0,30817250463192979	0,011498330490156515	0,30817250463192979
1	0	0	1	0	0	1	42022,22	-0,300000012	3,84861207	-0,0008329023152705696	-0,29984483293890054	0,00115398644	-0,31233702005160006	0,011653714159714944	0,31233702005160006
1	0	0	1	0	0	1	42072,22	-0,300000012	3,84582686	-0,00083291064660085568	-0,29984783221779795	0,0011531628	-0,31650160251368902	0,011809100330716157	0,31650160251368902
1	0	0	1	0	0	1	42122,22	-0,300000012	3,84618926	-0,00083292987453937536	-0,2998547542756521	0,00115329819	-0,3206661970227145	0,011964486951204766	0,3206661970227145
1	0	0	1	0	0	1	42172,22	-0,300000012	3,84620833	-0,0008329220484925641	-0,29985193689880531	0,00115329307	-0,32483080867792986	0,012119874211440773	0,32483080867792986
1	0	0	1	0	0	1	42222,22	-0,300000012	3,84458685	-0,00083291646712521715	-0,29984992760656416	0,00115279912	-0,32899539745622861	0,012275260618108266	0,32899539745622861
1	0	0	1	0	0	1	42272,22	-0,300000012	3,84361386	-0,0008329189882377783	-0,29985083520708448	0,00115251087	-0,33315994672240806	0,012430645550525458	0,33315994672240806
1	0	0	1	0	0	1	42322,22	-0,300000012	3,84271741	-0,0008329171530703703	-0,29985017454681888	0,00115223951	-0,33732453846242688	0,012586032067698709	0,33732453846242688
1	0	0	1	0	0	1	42372,22	-0,300000012	3,84208775	-0,00083290729894902976	-0,29984662706314285	0,00115203706	-0,34148910079928237	0,0127414174878004	0,34148910079928237
1	0	0	1	0	0	1	42422,22	-0,300000012	3,8416872	-0,00083291139385932019	-0,29984810123084467	0,00115192262	-0,34565365141348704	0,012896802470514227	0,34565365141348704
1	0	0	1	0	0	1	42472,22	-0,300000012	3,83766198	-0,00083291369204885427	-0,29984892857907539	0,00115071889	-0,34981823824756838	0,01305218880464035	0,34981823824756838
1	0	0	1	0	0	1	42522,22	-0,300000012	3,83691788	-0,0008329229745848311	-0,2998522702920208	0,00115050853	-0,35398285833219853	0,013207576379389158	0,35398285833219853
1	0	0	1	0	0	1	42572,22	-0,300000012	3,83966494	-0,00083292709723611674	-0,2998537544464809	0,00115133799	-0,35814746853188998	0,013362963585317614	0,35814746853188998
1	0	0	1	0	0	1	42622,22	-0,300000012	3,83520103	-0,00083292046502563686	-0,29985136685071258	0,00114999025	-0,36231211205674701	0,013518352034652803	0,36231211205674701
1	0	0	1	0	0	1	42672,22	-0,300000012	3,82734132	-0,00083291185571584435	-0,29984826749919302	0,00114762166	-0,36647669555037875	0,013673738244142262	0,36647669555037875
1	0	0	1	0	0	1	42722,22	-0,300000012	3,82264853	-0,00083293054617775808	-0,29985499606546944	0,00114624028	-0,37064132297883264	0,013829126092899005	0,37064132297883264
1	0	0	1	0	0	1	42772,22	-0,300000012	3,82137036	-0,00083293218231366746	-0,29985558507439578	0,00114585925	-0,37480597796236467	0,013984514969772766	0,37480597796236467
1	0	0	1	0	0	1	42822,22	-0,300000012	3,82135129	-0,00083291570440928141	-0,29984965302882784	0,00114583084	-0,37897059515707027	0,0141399024366946	0,37897059515707027
1	0	0	1	0	0	1	42872,22	-0,300000012	3,81543732	-0,00083291257887747558	-0,29984852783737978	0,0011440533	-0,38313516179124838	0,014295288017135176	0,38313516179124838
1	0	0	1	0	0	1	42922,22	-0,300000012	3,81293821	-0,00083291488133702016	-0,29984935672281434	0,00114330708	-0,38729972109973254	0,014450673324244262	0,38729972109973254
1	0	0	1	0	0	1	42972,22	-0,300000012	3,81196523	-0,00083290903884834714	-0,29984725342689594	0,00114300731	-0,39146427272455718	0,014606058344665683	0,39146427272455718
1	0	0	1	0	0	1	43022,22	-0,300000012	3,80794001	-0,00083292120301723482	-0,2998516325276873	0,00114181708	-0,39562884392474259	0,014761444095470125	0,39562884392474259
1	0	0	1	0	0	1	43072,22	-0,300000012	3,80488777	-0,00083291216481063104	-0,29984837877331603	0,00114088948	-0,3997934256004409	0,014916830237130048	0,3997934256004409
1	0	0	1	0	0	1	43122,22	-0,300000012	3,80185461	-0,00083291007468766643	-0,29984762632905018	0,00113997713	-0,40395797351080346	0,015072215118959891	0,40395797351080346
1	0	0	1	0	0	1	43172,22	-0,300000012	3,7990694	-0,00083291182244155136	-0,29984825552044755	0,0011391443	-0,40812253340678413	0,015227600447989261	0,40812253340678413
1	0	0	1	0	0	1	43222,22	-0,300000012	3,79571176	-0,0008329174762037065	-0,29985029087481971	0,00113814522	-0,41228714804929331	0,015382987819685216	0,41228714804929331
1	0	0	1	0	0	1	43272,22	-0,300000012	3,79311728	-0,00083291066465112896	-0,29984783871589632	0,00113735802	-0,4164517283482121	0,015538373909975642	0,4164517283482121
1	0	0	1	0	0	1	43322,22	-0,300000012	3,79044652	-0,00083291278910968038	-0,29984860352097344	0,00113656011	-0,42061632571686637	0,015693760637160845	0,42061632571686637
1	0	0	1	0	0	1	43372,22	-0,300000012	3,78842425	-0,00083290890025926963	-0,29984720353482816	0,00113594846	-0,42478087365192333	0,015849145519912074	0,42478087365192333
1	0	0	1	0	0	1	43422,22	-0,300000012	3,78573442	-0,00083290533267458278	-0,29984591920434323	0,00113513705	-0,4289454080198937	0,016004529896457053	0,4289454080198937
1	0	0	1	0	0	1	43472,22	-0,300000012	3,78390312	-0,00083292057046625344	-0,29985140480933446	0,00113460864	-0,43310999185342918	0,016159916118628781	0,43310999185342918
1	0	0	1	0	0	1	43522,22	-0,300000012	3,78088903	-0,00083291143379443226	-0,29984811560748499	0,00113369245	-0,43727461133883392	0,01631530367101968	0,43727461133883392
1	0	0	1	0	0	1	43572,22	-0,300000012	3,77674937	-0,00083291260000069926	-0,29984853544174035	0,00113245274	-0,44143917173963456	0,016470689018884563	0,44143917173963456
1	0	0	1	0	0	1	43622,22	-0,300000012	3,77266669	-0,00083290693391031693	-0,29984649564920646	0,00113122084	-0,44560372736514778	0,01662607418857705	0,44560372736514778
1	0	0	1	0	0	1	43672,22	-0,300000012	3,76572275	-0,00083292480037113037	-0,2998529275750873	0,00112916296	-0,44976833096566957	0,016781461148281613	0,44976833096566957
1	0	0	1	0	0	1	43722,22	-0,300000012	3,7597518	-0,00083292721663912154	-0,2998537974315625	0,00112737587	-0,45393294508046899	0,01693684850028801	0,45393294508046899
1	0	0	1	0	0	1	43772,22	-0,300000012	3,7538569	-0,0008329142812738816	-0,29984914070008486	0,00112559076	-0,45809755699400928	0,017092235770162467	0,45809755699400928
1	0	0	1	0	0	1	43822,22	-0,300000012	3,74380326	-0,00083291682189040717	-0,29985005532203232	0,00112257956	-0,46226214259991386	0,017247622058463664	0,46226214259991386
1	0	0	1	0	0	1	43872,22	-0,300000012	3,73329186	-0,00083290526485939814	-0,29984589479087686	0,00111941225	-0,46642672112760282	0,01740300808266712	0,46642672112760282
1	0	0	1	0	0	1	43922,22	-0,300000012	3,71841192	-0,00083290657105710758	-0,29984636502205139	0,00111495226	-0,47059128342891738	0,017558393501442733	0,47059128342891738
1	0	0	1	0	0	1	43972,22	-0,300000012	3,7035892	-0,00083291771526800269	-0,29985037693796614	0,00111052266	-0,47475583834423622	0,017713778644636915	0,47475583834423622
1	0	0	1	0	0	1	44022,22	-0,300000012	3,68678236	-0,00083292358875109094	-0,29985249139187398	0,00110549084	-0,47892041812890598	0,017869164715740019	0,47892041812890598
1	0	0	1	0	0	1	44072,22	-0,300000012	3,66722846	-0,00083291401918066867	-0,29984904634652838	0,00109961501	-0,48308500013311866	0,018024550869657248	0,48308500013311866
1	0	0	1	0	0	1	44122,22	-0,300000012	3,64298177	-0,00083291838007834227	-0,29985061626968787	0,00109235034	-0,48724958261549466	0,018179937041415395	0,48724958261549466
1	0	0	1	0	0	1	44172,22	-0,300000012	3,61810541	-0,00083291270445618355	-0,29984857304571462	0,0010848837	-0,49141417912666989	0,018335323736606906	0,49141417912666989
1	0	0	1	0	0	1	44222,22	-0,300000012	3,58853602	-0,00083290398278170163	-0,29984543324290688	0,0010760061	-0,49557872569335494	0,018490708568302333	0,49557872569335494
1	0	0	1	0	0	1	44272,22	-0,300000012	3,55467439	-0,00083290210153659187	-0,29984475599466867	0,00106585049	-0,49974326132712915	0,01864609299207616	0,49974326132712915
1	0	0	1	0	0	1	44322,22	-0,300000012	3,51095009	-0,00083290545373658342	-0,29984596278666342	0,00105274422	-0,50390778650962144	0,018801477025898608	0,50390778650962144
1	0	0	1	0	0	1	44372,22	-0,300000012	3,45427251	-0,00083290247205065357	-0,29984488937973062	0,00103574595	-0,50807230517951149	0,018956860816727107	0,50807230517951149
1	0	0	1	0	0	1	44422,22	-0,300000012	3,3766675	-0,00083290746787356006	-0,29984668787597363	0,00101248256	-0,51223684975158515	0,019112245574000902	0,51223684975158515
1	0	0	1	0	0	1	44472,22	-0,300000012	3,26661253	-0,00083291843477388224	-0,29985063596008224	0,000979495817	-0,51640144571178323	0,019267632248634717	0,51640144571178323
1	0	0	1	0	0	1	44522,22	-0,300000012	3,1124897	-0,00083290392269359693	-0,29984541161118931	0,000933265779	-0,52056599706477933	0,019423017258913846	0,52056599706477933
1	0	0	1	0	0	1	44572,22	-0,300000012	2,91632152	-0,00083291143501963878	-0,2998481160485593	0,000874453515	-0,52473058084703181	0,019578403479172134	0,52473058084703181
1	0	0	1	0	0	1	44622,22	-0,300000012	2,6865778	-0,0008329110668847959	-0,29984798352001613	0,000805564923	-0,52889512717959974	0,019733788302132336	0,52889512717959974
1	0	0	1	0	0	1	44672,22	-0,300000012	2,42663503	-0,00083291084340711424	-0,29984790306805094	0,000727621431	-0,53305966946890624	0,019889172974233021	0,53305966946890624
1	0	0	1	0	0	1	44722,22	-0,300000012	2,16718864	-0,00083289744881623322	-0,29984308101534266	0,000649816531	-0,53722420034794349	0,020044557220601219	0,53722420034794349
1	1	0	0	1	0	2	44757,78	0,300000012	2,02890897	1,6146404875649347E-008	0,09687842935163991	0,000196557521	-0,5401858031938672	0,02015505860470001	1,6146404875649347E-008
1	1	0	0	0	0	2	44807,78	0,300000012	3,7071805	0,00083383578761087514	0,30018088298078458	0,00111282477	-0,53601664763107891	0,019999501805163107	0,0041691717091931238
1	1	0	0	0	0	2	44857,78	0,300000012	3,88657999	0,00083383835096326131	0,30018180578764192	0,00116668059	-0,53184746448360211	0,019843943976404387	0,0083383548566699046
1	1	0	0	0	0	2	44907,78	0,300000012	3,89226508	0,00083381505752934349	0,3001734201514471	0,00116835453	-0,52767834601390016	0,019688388560860406	0,012507473326371776
1	1	0	0	0	0	2	44957,78	0,300000012	3,90063977	0,00083383075376020531	0,30017907079454682	0,00117089041	-0,52350920221013651	0,019532832200068528	0,016676617130135498
1	1	0	0	0	0	2	45007,78	0,300000012	3,90622926	0,00083381358474161882	0,3001728899478672	0,00117254409	-0,51934008040696864	0,019377276660148451	0,020845738933303286
1	1	0	0	0	0	2	45057,78	0,300000012	3,90960598	0,00083382553748620877	0,30017719293591155	0,00117357459	-0,51517094173420608	0,019221720490801117	0,025014877606065734
1	1	0	0	0	0	2	45107,78	0,300000012	3,91218138	0,0008338359105702903	0,30018092724617395	0,00117436226	-0,5110018030170729	0,019066164319798256	0,029184016323198867
1	1	0	0	0	0	2	45157,78	0,300000012	3,91492844	0,00083383002617789632	0,3001788088649161	0,00117517856	-0,50683263528844013	0,018910607066337341	0,033353184051831552
1	1	0	0	0	0	2	45207,78	0,300000012	3,91675973	0,00083382461872531315	0,30017686218198976	0,00117572059	-0,50266350861470202	0,018755051344689741	0,037522310725569709
1	1	0	0	0	0	2	45257,78	0,300000012	3,9156723	0,00083381517021358016	0,30017346071777216	0,00117538089	-0,4984944294646793	0,018599497396215862	0,041691389875592442
1	1	0	0	0	0	2	45307,78	0,300000012	3,90970135	0,00083382864514324403	0,30017831169244218	0,00117360754	-0,49432531330162586	0,018443942066736038	0,045860506038645888
1	1	0	0	0	0	2	45357,78	0,300000012	3,90985394	0,00083383266795012685	0,30017975990291731	0,00117365899	-0,4901561604145911	0,018288385367035098	0,050029658925680634
1	1	0	0	0	0	2	45407,78	0,300000012	3,91034985	0,00083382853532499738	0,30017827215787347	0,00117380207	-0,48598700593005914	0,018132828607729389	0,05419881341021257
1	1	0	0	0	0	2	45457,78	0,300000012	3,91212416	0,00083383097086184563	0,30017914895113715	0,00117433805	-0,48181785523496698	0,017977271989812774	0,058367964105304717
1	1	0	0	0	0	2	45507,78	0,300000012	3,91347861	0,00083383872130678758	0,3001819391113111	0,00117475563	-0,47764865626023674	0,017821713570517949	0,062537163080034957
1	1	0	0	0	0	2	45557,78	0,300000012	3,91605401	0,00083382714710798528	0,30017777239975002	0,00117551233	-0,47347949924394118	0,017666156716748736	0,066706320096330496
1	1	0	0	0	0	2	45607,78	0,300000012	3,91546249	0,00083382646107673638	0,30017752542850093	0,00117533386	-0,46931039770391546	0,017510601932873741	0,070875421636356237
1	1	0	0	0	0	2	45657,78	0,300000012	3,91843867	0,00083383677238557069	0,30018123749967437	0,00117624179	-0,46514121907074054	0,01735504427254969	0,0750446002695312
1	1	0	0	0	0	2	45707,78	0,300000012	3,91897273	0,00083382175826198515	0,30017583241519366	0,0011763809	-0,46097208746715021	0,017199488366962682	0,079213731873121523
1	1	0	0	0	0	2	45757,78	0,300000012	3,92042255	0,00083381576521529088	0,30017367491838765	0,00117680768	-0,45680297818682394	0,017043933294286662	0,083382841153447834
1	1	0	0	0	0	2	45807,78	0,300000012	3,92143369	0,00083383656237191616	0,30018116189475885	0,00117714051	-0,45263380189269082	0,016888375721235411	0,08755201744758089
1	1	0	0	0	0	2	45857,78	0,300000012	3,92391372	0,00083383073165681626	0,30017906283732678	0,00117787672	-0,44846463095244058	0,01673281834794473	0,091721188387831027
1	1	0	0	0	0	2	45907,78	0,300000012	3,92900729	0,00083383569401005901	0,30018084928449082	0,00117941271	-0,44429547158967571	0,01657726140662559	0,095890347750595866
1	1	0	0	0	0	2	45957,78	0,300000012	3,93204045	0,00083383105254835546	0,3001791783582807	0,00118031667	-0,44012629851115526	0,016421703953553171	0,1000595208291163
1	1	0	0	0	0	2	46007,78	0,300000012	3,93339491	0,00083382974274787648	0,30017870683010912	0,00118072145	-0,43595715447533248	0,016266147584102851	0,10422866486493912
1	1	0	0	0	0	2	46057,78	0,300000012	3,93461585	0,00083381136678655936	0,3001720914840473	0,00118106185	-0,43178805436533139	0,016110592853583994	0,10839776497494014
1	1	0	0	0	0	2	46107,78	0,300000012	3,93555069	0,00083381529512670298	0,30017350568649638	0,00118134799	-0,42761899695604326	0,015955039716286154	0,11256682238422832
1	1	0	0	0	0	2	46157,78	0,300000012	3,93747735	0,00083382606286472755	0,30017738207217792	0,0011819416	-0,4234498972645728	0,015799485001383235	0,11673592207569877
1	1	0	0	0	0	2	46207,78	0,300000012	3,93873644	0,00083383315702279411	0,30017993596907725	0,00118232961	-0,41928073705725818	0,015643928028552813	0,12090508228301341
1	1	0	0	0	0	2	46257,78	0,300000012	3,94026256	0,00083382701392306214	0,30017772445317779	0,00118277909	-0,41511160348101901	0,015488372049363619	0,12507421585925254
1	1	0	0	0	0	2	46307,78	0,300000012	3,94182682	0,00083383632645176512	0,30018107696350458	0,00118326186	-0,41094244299538048	0,015332815066148557	0,12924337634489102
1	1	0	0	0	0	2	46357,78	0,300000012	3,94281888	0,00083381971509092378	0,30017509687361286	0,00118353602	-0,40677329236546426	0,015177258450663744	0,13341252697480712
1	1	0	0	0	0	2	46407,78	0,300000012	3,94381094	0,00083383333077364493	0,30017999851938336	0,00118385314	-0,40260413144414234	0,015021701451192746	0,13758168789612909
1	1	0	0	0	0	2	46457,78	0,300000012	3,94514632	0,00083381435266137126	0,30017316639897754	0,00118422706	-0,39843502631529274	0,014866146533413907	0,14175079302497864
1	1	0	0	0	0	2	46507,78	0,300000012	3,94629097	0,0008338269004788663	0,30017768361326739	0,00118458853	-0,39426593037967322	0,014710591958646842	0,14591988896059814
1	1	0	0	0	0	2	46557,78	0,300000012	3,94814134	0,00083382532218429773	0,30017711542722374	0,00118514162	-0,39009679346291667	0,014555035854818451	0,15008902587735478
1	1	0	0	0	0	2	46607,78	0,300000012	3,94901896	0,00083382182281050419	0,30017585565266042	0,00118540018	-0,38592767995395046	0,014399480624366192	0,15425813938632102
1	1	0	0	0	0	2	46657,78	0,300000012	3,94911432	0,00083381731655531456	0,3001742334007952	0,00118542241	-0,38175855678298349	0,014243925033411694	0,15842726255728794
1	1	0	0	0	0	2	46707,78	0,300000012	3,95010638	0,00083382457365923469	0,30017684595820147	0,00118573045	-0,37758941500702778	0,014088368748280051	0,16259640433324371
1	1	0	0	0	0	2	46757,78	0,300000012	3,95153713	0,00083382768542402317	0,30017796619352333	0,00118616433	-0,37342030775530586	0,01393281375129399	0,16676551158496566
1	1	0	0	0	0	2	46807,78	0,300000012	3,95262456	0,00083383228305810035	0,30017962134178797	0,00118649739	-0,36925114261993875	0,013777256594591304	0,1709346767203327
1	1	0	0	0	0	2	46857,78	0,300000012	3,95426512	0,00083383150821593075	0,30017934239860749	0,00118698867	-0,36508196335862362	0,013621698910830499	0,1751038559816479
1	1	0	0	0	0	2	46907,78	0,300000012	3,95600104	0,00083383205509682496	0,30017953927572896	0,00118751056	-0,36091279610291238	0,013466141675014922	0,17927302323735914
1	1	0	0	0	0	2	46957,78	0,300000012	3,9573555	0,00083384587301148301	0,30018451372499667	0,00118793687	-0,35674358069097779	0,013310582642425902	0,18344223864929373
1	1	0	0	0	0	2	47007,78	0,300000012	3,95909166	0,00083384392419954138	0,30018381215269894	0,00118845527	-0,35257436357647955	0,013155023546311946	0,18761145576379197
1	1	0	0	0	0	2	47057,78	0,300000012	3,95996904	0,00083385049791634074	0,3001861786907424	0,00118872803	-0,34840513813974573	0,012999464139684189	0,19178068120052576
1	1	0	0	0	0	2	47107,78	0,300000012	3,96237278	0,00083383757267726797	0,3001815256046848	0,00118943106	-0,34423594362103718	0,012843905886649526	0,1959498757192343
1	1	0	0	0	0	2	47157,78	0,300000012	3,96338391	0,00083384787519110579	0,30018523450965952	0,00118974934	-0,3400667172925815	0,012688346446750426	0,20011910204769005
1	1	0	0	0	0	2	47207,78	0,300000012	3,96565413	0,00083383423886199782	0,30018032543118982	0,00119041139	-0,33589753033316243	0,012532788475763018	0,20428828900710902
1	1	0	0	0	0	2	47257,78	0,300000012	3,96695137	0,00083384156932764582	0,30018296439881818	0,00119081128	-0,33172831773475411	0,012377229548150446	0,20845750160551728
1	1	0	0	0	0	2	47307,78	0,300000012	3,96803856	0,00083383837854199949	0,30018181571598758	0,00119113305	-0,32755910803300083	0,01222167072861597	0,21262671130727059
1	1	0	0	0	0	2	47357,78	0,300000012	3,96863008	0,00083382352831131891	0,30017646963295251	0,0011912894	-0,32338992385681242	0,012066112861474637	0,21679589548345898
1	1	0	0	0	0	2	47407,78	0,300000012	3,96687484	0,0008338273964424928	0,30017786216017261	0,00119076797	-0,3192208059487088	0,011910557466884646	0,22096501339156256
1	1	0	0	0	0	2	47457,78	0,300000012	3,96746635	0,00083383388023906291	0,30018019632693344	0,00119095482	-0,31505167512068755	0,011755001590235158	0,22513414421958387
1	1	0	0	0	0	2	47507,78	0,300000012	3,97015619	0,0008338313922716512	0,30017930065866688	0,00119175867	-0,31088251427625722	0,011599444593633091	0,22930330506401421
1	1	0	0	0	0	2	47557,78	0,300000012	3,9722929	0,00083383368227713638	0,30018012506064006	0,00119240338	-0,30671333971633958	0,011443887085287749	0,2334724796239319
1	1	0	0	0	0	2	47607,78	0,300000012	3,9751544	0,00083382093964185984	0,30017553771194906	0,00119324413	-0,30254419325753165	0,011288330625432595	0,23764162608273978
1	1	0	0	0	0	2	47657,78	0,300000012	3,97729087	0,0008338263309150935	0,3001774785703095	0,00119389314	-0,29837505591932051	0,011132774505879171	0,24181076342095091
1	1	0	0	0	0	2	47707,78	0,300000012	3,97530699	0,00083382200501362483	0,30017592124578368	0,00119329139	-0,29420594623468102	0,01097721941811768	0,2459798731055904
1	1	0	0	0	0	2	47757,78	0,300000012	3,97526884	0,00083382319261795942	0,30017634878334336	0,00119328173	-0,29003682053031802	0,010821663732638773	0,25014899880995341
1	1	0	0	0	0	2	47807,78	0,300000012	3,97532606	0,000833818891507056	0,30017480038342106	0,00119329267	-0,28586770103758678	0,010666108278924197	0,25431811830268464
1	1	0	0	0	0	2	47857,78	0,300000012	3,97627997	0,00083383123138712512	0,30017924274023763	0,00119359675	-0,28169857503841923	0,010510552582445731	0,25848724430185222
1	1	0	0	0	0	2	47907,78	0,300000012	3,97896981	0,00083384048616720576	0,30018257446106042	0,00119441736	-0,27752939863487354	0,010354995005312149	0,26265642070539792
1	1	0	0	0	0	2	47957,78	0,300000012	3,97999978	0,0008338252889315287	0,30017710345622688	0,00119470479	-0,27336026763204006	0,010199439122140182	0,26682555170823136
1	1	0	0	0	0	2	48007,78	0,300000012	3,98343372	0,00083382929400934106	0,30017854528423667	0,00119574135	-0,26919108948670928	0,010043881480018256	0,27099472985356214
1	1	0	0	0	0	2	48057,78	0,300000012	3,98612356	0,00083383157696492147	0,30017936714824403	0,00119655207	-0,26502193761188224	0,0098883248180841472	0,27516388172838918
1	1	0	0	0	0	2	48107,78	0,300000012	3,98974824	0,00083382638439370522	0,30017749782260973	0,00119763264	-0,26085279778620861	0,0097327686057201523	0,27933302155406282
1	1	0	0	0	0	2	48157,78	0,300000012	3,99192309	0,0008338384157402647	0,30018182910736307	0,00119830272	-0,25668361924990112	0,0095772109490103603	0,2835022000903703
1	1	0	0	0	0	2	48207,78	0,300000012	3,99335384	0,00083382534234722458	0,30017712268587738	0,00119871343	-0,25251449377023437	0,0094216552719151706	0,28767132557003706
1	1	0	0	0	0	2	48257,78	0,300000012	3,99407864	0,00083382729627357581	0,30017782609936256	0,00119893381	-0,24834536052168506	0,0092660993049525248	0,29184045881858637
1	1	0	0	0	0	2	48307,78	0,300000012	3,99329662	0,00083383378241293965	0,30018016110952915	0,00119870843	-0,24417622640705536	0,0091105433056752563	0,29600959293321606
1	1	0	0	0	0	2	48357,78	0,300000012	3,99520421	0,00083383766377800051	0,30018155840094848	0,00119928666	-0,24000706369703936	0,0089549862394656794	0,300178755643232
1	1	0	0	0	0	2	48407,78	0,300000012	3,99894333	0,00083383734008504282	0,3001814418714839	0,00120040856	-0,23583786757043923	0,0087994279264384179	0,30434795176983206
1	1	0	0	0	0	2	48457,78	0,300000012	4,00226259	0,00083384096746643392	0,30018274772878227	0,0012014102	-0,23166869421921098	0,0086438704631909043	0,30851712512106029
1	1	0	0	0	0	2	48507,78	0,300000012	4,00533438	0,00083383119826184384	0,30017923081513638	0,00120231824	-0,22749953666210928	0,0084883135892434867	0,31268628267816198
1	1	0	0	0	0	2	48557,78	0,300000012	4,0075469	0,00083383248432146163	0,30017969379659795	0,00120298425	-0,22333035873438349	0,0083327559552406963	0,31685546060588787
1	1	0	0	0	0	2	48607,78	0,300000012	4,00974083	0,00083383742409944525	0,30018147211666874	0,00120364991	-0,21916117785183846	0,0081771982109896269	0,32102464148843283
1	1	0	0	0	0	2	48657,78	0,300000012	4,00321674	0,0008338324062791136	0,3001796657013527	0,00120168424	-0,21499200441413552	0,0080216407445156262	0,32519381492613587
1	1	0	0	0	0	2	48707,78	0,300000012	4,00436115	0,00083383652415043776	0,30018114813502662	0,00120203372	-0,21082285926282998	0,007866084333445143	0,32936296007744134
1	1	0	0	0	0	2	48757,78	0,300000012	4,00693655	0,00083383316667709094	0,300179939444624	0,00120280194	-0,20665370728653933	0,007710527667725289	0,33353211205373203
1	1	0	0	0	0	2	48807,78	0,300000012	4,00844383	0,00083383354744811866	0,30018007652219366	0,00120325503	-0,20248455660342605	0,0075549710502556224	0,33770126273684518
1	1	0	0	0	0	2	48857,78	0,300000012	4,00884438	0,00083382783581647616	0,30017802033480627	0,00120336702	-0,19831541728985242	0,0073994148569987661	0,34187040205041882
1	1	0	0	0	0	2	48907,78	0,300000012	4,01079035	0,00083384012408554547	0,30018244411166298	0,00120396889	-0,19414625014316138	0,0072438576252508787	0,34603956919710982
1	1	0	0	0	0	2	48957,78	0,300000012	4,01180124	0,00083383397356669107	0,30018022992487955	0,00120426342	-0,18997707610421478	0,0070883001363436672	0,35020874323605645
1	1	0	0	0	0	2	49007,78	0,300000012	4,01378536	0,00083382441426648038	0,30017678857681005	0,00120484515	-0,18580795054224064	0,0069327444561774784	0,35437786879803053
1	1	0	0	0	0	2	49057,78	0,300000012	4,01670408	0,0008338275812980201	0,3001779287081623	0,00120572594	-0,18163882661029459	0,0067771888368298278	0,35854699272997658
1	1	0	0	0	0	2	49107,78	0,300000012	4,01794386	0,00083383352992932006	0,30018007021542624	0,00120610662	-0,17746967043841146	0,0066216320145667776	0,36271614890185971
1	1	0	0	0	0	2	49157,78	0,300000012	4,01968002	0,00083382684454984141	0,30017766347881843	0,00120661815	-0,17330052071280374	0,0064660754328229299	0,36688529862746739
1	1	0	0	0	0	2	49207,78	0,300000012	4,02216005	0,00083382440452443226	0,30017678506967277	0,00120735902	-0,16913138282226122	0,0063105192926612774	0,37105443651800998
1	1	0	0	0	0	2	49257,78	0,300000012	4,02492619	0,00083383249421583283	0,30017969735857158	0,00120820117	-0,1649622436155769	0,0061549631033926054	0,37522357572469427
1	1	0	0	0	0	2	49307,78	0,300000012	4,02702475	0,00083382612101402547	0,30017740300592518	0,00120882178	-0,16079307738987862	0,0059994059060081946	0,37939274195039251
1	1	0	0	0	0	2	49357,78	0,300000012	4,03101158	0,00083382642799284723	0,3001775135183008	0,00121001899	-0,15662395622505005	0,0058438503899054182	0,38356186311522106
1	1	0	0	0	0	2	49407,78	0,300000012	4,03272867	0,00083381734810603994	0,30017424475905632	0,00121052132	-0,15245483799597875	0,0056882949833396928	0,38773098134429235
1	1	0	0	0	0	2	49457,78	0,300000012	4,03665876	0,00083383542406393421	0,30018075210388614	0,00121172727	-0,14828568007849082	0,0055327380959457811	0,39190013926178035
1	1	0	0	0	0	2	49507,78	0,300000012	4,03805113	0,00083383151391479706	0,30017934445019936	0,0012121395	-0,14411650426656592	0,0053771805408863654	0,39606931507370522
1	1	0	0	0	0	2	49557,78	0,300000012	4,04081726	0,00083384486252897318	0,30018414995129376	0,00121298933	-0,13994729997354832	0,0052216219231590899	0,40023851936672275
1	1	0	0	0	0	2	49607,78	0,300000012	4,04278231	0,00083382683368689472	0,3001776595681577	0,0012135529	-0,13577813444788675	0,0050660647518939904	0,40440768489238432
1	1	0	0	0	0	2	49657,78	0,300000012	4,04587269	0,00083383899234400858	0,30018203668471046	0,0012144983	-0,1316089559885388	0,0049105070980556621	0,40857686335173229
1	1	0	0	0	0	2	49707,78	0,300000012	4,04839087	0,00083382779286470682	0,30017800487216934	0,00121523789	-0,12743978260984939	0,0047549496337835347	0,41274603673042176
1	1	0	0	0	0	2	49757,78	0,300000012	4,0536561	0,00083382425452106534	0,30017673106846074	0,00121681322	-0,12327064455427981	0,0045993934874645011	0,4169151747859913
1	1	0	0	0	0	2	49807,78	0,300000012	4,05550671	0,00083381448143720627	0,30017321275827808	0,00121735444	-0,11910154630614243	0,0044438388264142854	0,4210842730341287
1	1	0	0	0	0	2	49857,78	0,300000012	4,05874968	0,00083383457111815616	0,30018044504340653	0,00121835724	-0,11493240835779331	0,0042882826840957914	0,42525341098247782
1	1	0	0	0	0	2	49907,78	0,300000012	4,06245041	0,00083383407317433088	0,30018026578362976	0,00121946749	-0,11076324327802083	0,0041327255294674131	0,42942257606225024
1	1	0	0	0	0	2	49957,78	0,300000012	4,0666666	0,00083384361718926157	0,30018370162899846	0,00122074701	-0,10659406211815035	0,0039771677748689574	0,43359175722212077
1	1	0	0	0	0	2	50007,78	0,300000012	4,07118797	0,00083383718546893862	0,30018138620968646	0,00122209487	-0,10242485906746907	0,0038216092034949197	0,43776096027280205
1	1	0	0	0	0	2	50057,78	0,300000012	4,07590008	0,00083382843003504819	0,30017823425349178	0,00122349651	-0,098255693259274854	0,0036660520216881466	0,44193012608099616
1	1	0	0	0	0	2	50107,78	0,300000012	4,0813942	0,0008338315707494816	0,30017936491068576	0,00122515031	-0,094086513959349094	0,0035104943364867309	0,44609930538092192
1	1	0	0	0	0	2	50157,78	0,300000012	4,08395052	0,00083384290120336742	0,30018344387407706	0,00122593436	-0,089917325155163059	0,0033549362966685843	0,45026849418510797
1	1	0	0	0	0	2	50207,78	0,300000012	4,08650684	0,00083383414969841626	0,30018029333230048	0,00122668885	-0,085748144844051136	0,0031993785737384525	0,45443767449621984
1	1	0	0	0	0	2	50257,78	0,300000012	4,09034109	0,00083383149153656435	0,30017933639403558	0,00122783589	-0,081579003575234867	0,0030438223075288653	0,45860681576503616
1	1	0	0	0	0	2	50307,78	0,300000012	4,09621668	0,0008338210180666711	0,30017556594488102	0,00122958422	-0,077409863387522688	0,0028882660816567245	0,46277595595274835
1	1	0	0	0	0	2	50357,78	0,300000012	4,09993696	0,00083382403775056192	0,30017665303107968	0,00123070541	-0,073240706712266726	0,0027327092406121571	0,46694511262800435
1	1	0	0	0	0	2	50407,78	0,300000012	4,108922	0,00083383180101878106	0,30017944780763341	0,00123341393	-0,06907154086518048	0,002577152057354271	0,47111427847509056
1	1	0	0	0	0	2	50457,78	0,300000012	4,11338615	0,00083382474888695603	0,30017690904018112	0,00123474351	-0,06490240435848727	0,002421595968825897	0,47528341498178381
1	1	0	0	0	0	2	50507,78	0,300000012	4,11855602	0,00083382743036415846	0,30017787437197216	0,0012362994	-0,060733238178427955	0,0022660387731443379	0,47945258116184307
1	1	0	0	0	0	2	50557,78	0,300000012	4,12317276	0,00083382262997329242	0,30017614623126368	0,00123767811	-0,056564090526162854	0,0021104822687596912	0,48362172881410822
1	1	0	0	0	0	2	50607,78	0,300000012	4,14276457	0,00083382805771629018	0,3001781002187392	0,00124356721	-0,052394976888753581	0,0019549270335150493	0,4877908424515175
1	1	0	0	0	0	2	50657,78	0,300000012	4,14921236	0,00083381966302129946	0,30017507812854822	0,00124549016	-0,048225864123539072	0,0017993718308131664	0,49195995521673203
1	1	0	0	0	0	2	50707,78	0,300000012	4,15587044	0,00083382811324960653	0,30017812021073306	0,00124750135	-0,044056740303714355	0,0016438162156489139	0,4961290790365568
1	1	0	0	0	0	2	50757,78	0,300000012	4,16102123	0,00083382344496415718	0,3001764396279744	0,00124904059	-0,03988762718813216	0,0014882609998743414	0,50029819215213901
1	1	0	0	0	0	2	50807,78	0,300000012	4,1662674	0,00083381776472760576	0,30017439474281965	0,00125060685	-0,035718511222787315	0,0013327056777712934	0,50446730811748384
1	1	0	0	0	0	2	50857,78	0,300000012	4,17149448	0,00083382066188255949	0,30017543771860109	0,0012521802	-0,031549401465021184	0,0011771505872813534	0,50863641787524992
1	1	0	0	0	0	2	50907,78	0,300000012	4,17603493	0,00083381993764804467	0,30017517699417626	0,00125354202	-0,027380285479135923	0,0010215952644119146	0,51280553386113536
1	1	0	0	0	0	2	50957,78	0,300000012	4,18118572	0,00083382227982083955	0,30017602017638086	0,00125509175	-0,023211177381665456	0,00086604023586983782	0,51697464195860576
1	1	0	0	0	0	2	51007,78	0,300000012	4,18702316	0,00083382480231755302	0,30017692827519597	0,00125684775	-0,019042039254808704	0,00071048408689098406	0,52114378008546234
1	1	0	0	0	0	2	51057,78	0,300000012	4,19297504	0,00083383446630504397	0,30018040731068621	0,00125864893	-0,014872926991852736	0,00055492890292904275	0,52531289234841837
1	1	0	0	0	0	2	51107,78	0,300000012	4,19857883	0,00083383684307171238	0,30018126294668531	0,00126033474	-0,010703731730765053	0,00039937062219521504	0,52948208760950598
1	1	0	0	0	0	2	51118,43	0,300000012	4,19978094	5,4449608706765702E-005	0,30018160949089587	0,00126069703	-0,0098154442370808282	0,00036622742149061914	0,53037037510319027