File: Experimentelles/Rohdaten/Batteriemessungen/AlteZelle/Studenten_Batterietests/LiCoO2 vs Li 300µm GCPL/ZView-Export/LiCoO2 vs Li 300µm GCPL_02_GCPL_C04_loop0.txt
EC-Lab ASCII FILE
Nb header lines : 3
mode	ox/red	error	control changes	Ns changes	counter inc.	Ns	time/s	control/V/mA	Ewe/V	dq/mA.h	<I>/mA	P/W	(Q-Qo)/mA.h	x	Capacity/mA.h
1	0	0	1	1	0	1	3600,00	-0,300000012	2,81476045	0	0	0	0	0	0
1	0	0	1	0	0	1	3630,00	-0,300000012	2,04195309	-0,0008328951030274231	-0,29984224466452461	0,000612263801	-0,0024945762669917568	9,3075994514924813E-005	0,0024945762669917568
1	1	0	0	0	0	2	3643,63	0,300000012	2,48167682	0,00083386431703633728	0,30019116171654803	0,000744977442	-0,0019630222323960685	7,3242998802159155E-005	0,00083388045148551462
1	1	0	0	0	0	2	3673,63	0,300000012	3,40620327	0,00083385782832403981	0,30018882578006189	0,00102250418	0,00053855237645805306	-2,0094113257021181E-005	0,0033354550603396365
1	1	0	0	0	0	2	3703,63	0,300000012	3,83100891	0,00083384719704091546	0,30018499851804051	0,00115001143	0,0030401035583241158	-0,00011343035122377912	0,0058370062422056986
1	1	0	0	0	0	2	3733,63	0,300000012	3,84039474	0,00083385121484431962	0,30018644492730246	0,00115283439	0,0055416406923390138	-0,00020676606504632256	0,0083385433762205965
1	1	0	0	0	0	2	3763,63	0,300000012	3,8449924	0,00083385203920470349	0,30018674169704819	0,00115421577	0,008043195491534807	-0,00030010243798051635	0,010840098175416389
1	1	0	0	0	0	2	3793,63	0,300000012	3,84979963	0,00083383923649787891	0,30018213272247494	0,00115564105	0,010544726767515811	-0,00039343793323193894	0,013341629451397392
1	1	0	0	0	0	2	3823,63	0,300000012	3,85123038	0,0008338357570187913	0,30018088010997171	0,00115606573	0,013046244741826261	-0,00048677293218014893	0,015843147425707843
1	1	0	0	0	0	2	3853,63	0,300000012	3,854321	0,00083383093793359066	0,30017914523925568	0,00115698681	0,015547743035351904	-0,0005801071968118167	0,018344645719233485
1	1	0	0	0	0	2	3883,63	0,300000012	3,85994864	0,00083381458683146368	0,30017325884234125	0,00115865341	0,018049206682820125	-0,00067344016875249997	0,020846109366701706
1	1	0	0	0	0	2	3913,63	0,300000012	3,86567163	0,0008338254439135392	0,3001771673919872	0,00116038637	0,020550674146139622	-0,0007667732830677248	0,023347576830021203
1	1	0	0	0	0	2	3943,63	0,300000012	3,86843777	0,00083383320819669299	0,30017996253399315	0,00116122747	0,023052169202740656	-0,00086010742692538317	0,025849071886622237
1	1	0	0	0	0	2	3973,63	0,300000012	3,87103224	0,00083383404065171878	0,30018026221781005	0,00116200745	0,025553671683923075	-0,00095344184780415565	0,028350574367804656
1	1	0	0	0	0	2	4003,63	0,300000012	3,87171912	0,00083383445524010394	0,30018041146963245	0,0011622142	0,02805517900685536	-0,0010467764493351254	0,030852081690736941
1	1	0	0	0	0	2	4033,63	0,300000012	3,87108946	0,00083383273126350515	0,30017979083804122	0,00116202282	0,030556668913010758	-0,0011401104010227325	0,033353571596892339
1	1	0	0	0	0	2	4063,63	0,300000012	3,87500024	0,00083383158203628326	0,30017937711623091	0,00116319512	0,033058163518729146	-0,001233444528057353	0,035855066202610726
1	1	0	0	0	0	2	4093,63	0,300000012	3,87372208	0,00083382419476409754	0,30017671769817683	0,00116280117	0,035559625558545856	-0,0013267774400143966	0,03835652824242743
1	1	0	0	0	0	2	4123,63	0,300000012	3,87211967	0,00083382519508732685	0,30017707386573958	0,00116232154	0,038061102044685677	-0,0014201108909831795	0,040858004728567258
1	1	0	0	0	0	2	4153,63	0,300000012	3,86611056	0,00083382354280187021	0,30017647904296794	0,00116051547	0,04056258186178969	-0,0015134444662347142	0,04335948454567127
1	1	0	0	0	0	2	4183,63	0,300000012	3,86321068	0,00083383165277540685	0,30017939863347654	0,00115965621	0,0430640531129496	-0,0016067777218793578	0,045860955796831181
1	1	0	0	0	0	2	4213,63	0,300000012	3,86555719	0,00083382453053692979	0,30017683462759373	0,00116035074	0,045565533820649651	-0,0017001113303602285	0,048362436504531232
1	1	0	0	0	0	2	4243,63	0,300000012	3,87181449	0,00083382346747815616	0,30017645192643059	0,00116222759	0,048067013827847776	-0,0017934449127044301	0,050863916511729357
1	1	0	0	0	0	2	4273,63	0,300000012	3,87385583	0,00083382637790673306	0,30017749968073101	0,00116284436	0,050568494006644358	-0,001886778501451201	0,053365396690525939
1	1	0	0	0	0	2	4303,63	0,300000012	3,8734169	0,00083382571137613709	0,30017725972971354	0,00116271165	0,053069966778317094	-0,0019801118138282224	0,055866869462198675
1	1	0	0	0	0	2	4333,63	0,300000012	3,87410378	0,00083382047214772966	0,300175373607464	0,0011629106	0,055571438730046816	-0,0020734450956120675	0,058368341413928397
1	1	0	0	0	0	2	4363,63	0,300000012	3,87656474	0,00083381612154013581	0,30017380738871123	0,0011636432	0,058072895398145574	-0,0021667778071430922	0,060869798082027162
1	1	0	0	0	0	2	4393,63	0,300000012	3,87551546	0,00083381977809800051	0,30017512374955846	0,00116333331	0,060574370642820006	-0,0022601112117911315	0,063371273326701568
1	1	0	0	0	0	2	4423,63	0,300000012	3,87461877	0,00083382385980255066	0,30017659316321434	0,00116306986	0,063075854550193421	-0,0023534449396561174	0,065872757234074982
1	1	0	0	0	0	2	4453,63	0,300000012	3,87179542	0,00083383028361532429	0,30017890573584083	0,00116223132	0,065577340733535424	-0,0024467787524405514	0,068374243417416986
1	1	0	0	0	0	2	4483,63	0,300000012	3,87314987	0,0008338165964898135	0,30017397837059731	0,00116261875	0,068078812498015501	-0,0025401120272378605	0,070875715181897075
1	1	0	0	0	0	2	4513,63	0,300000012	3,87717509	0,00083381956082085773	0,30017504552978611	0,00116383121	0,070580275062839859	-0,0026334449587836454	0,073377177746721421
1	1	0	0	0	0	2	4543,63	0,300000012	3,87473321	0,00083382510141034931	0,3001770401420272	0,00116310595	0,07308175246938633	-0,0027267784440940374	0,075878655153267904
1	1	0	0	0	0	2	4573,63	0,300000012	3,87389398	0,00083382448212967974	0,30017681720098355	0,00116285321	0,075583226397933901	-0,0028201117996356141	0,078380129081815462
1	1	0	0	0	0	2	4603,63	0,300000012	3,87503839	0,00083383411858644749	0,30018028632546189	0,00116321014	0,078084723411163366	-0,0029134460164977101	0,080881626095044928
1	1	0	0	0	0	2	4633,63	0,300000012	3,87408471	0,00083383509682450035	0,30018063849116518	0,00116292527	0,080586224395338688	-0,0030067803815211354	0,083383127079220262
1	1	0	0	0	0	2	4663,63	0,300000012	3,87135673	0,00083384144753052134	0,30018292474536038	0,00116211514	0,083087739123816934	-0,0031001152593629818	0,085884641807698509
1	1	0	0	0	0	2	4693,63	0,300000012	3,87206244	0,00083383678047358989	0,30018124460484474	0,00116232049	0,085589257277045619	-0,0031934502649868717	0,088386159960927194
1	1	0	0	0	0	2	4723,63	0,300000012	3,87211967	0,00083383900269038144	0,30018204460289939	0,00116234075	0,088090778602658675	-0,0032867853889766874	0,09088768128654025
1	1	0	0	0	0	2	4753,63	0,300000012	3,87160468	0,00083384452104402918	0,30018403121023661	0,00116219395	0,090592302857831744	-0,0033801206222723264	0,093389205541713318
1	1	0	0	0	0	2	4783,63	0,300000012	3,87515306	0,00083382521567742016	0,30017708127817325	0,00116323214	0,093093814125879565	-0,0034734553710008614	0,095890716809761139
1	1	0	0	0	0	2	4813,63	0,300000012	3,87406564	0,00083383314475251558	0,30017993574524224	0,00116291677	0,095595303206555354	-0,0035667892918887136	0,098392205890436915
1	1	0	0	0	0	2	4843,63	0,300000012	3,87223411	0,00083383931063777882	0,30018215546396378	0,00116237556	0,098096818304461542	-0,0036601241835144134	0,1008937209883431
1	1	0	0	0	0	2	4873,63	0,300000012	3,87082243	0,00083384647262593114	0,30018473377972979	0,00116196182	0,1005983555813521	-0,0037534599026678394	0,10339525826523366
1	1	0	0	0	0	2	4903,63	0,300000012	3,87259674	0,00083384659091134874	0,3001847763624807	0,00116249453	0,10309989167790179	-0,0038467955777811616	0,10589679436178336
1	1	0	0	0	0	2	4933,63	0,300000012	3,87322617	0,00083383940507471565	0,30018218946126144	0,00116267346	0,10560142087073026	-0,0039401309953073626	0,10839832355461181
1	1	0	0	0	0	2	4963,63	0,300000012	3,8753438	0,00083382877487606464	0,3001783625897008	0,00116329431	0,10810291347426074	-0,0040334650476376602	0,1108998161581423
1	1	0	0	0	0	2	4993,63	0,300000012	3,87833881	0,00083383780834741069	0,3001816146394247	0,00116420595	0,11060442146781646	-0,0041267996741904922	0,11340132415169802
1	1	0	0	0	0	2	5023,63	0,300000012	3,87795734	0,00083383335333400307	0,30018001083457856	0,00116408523	0,11310595624035659	-0,0042201352999032365	0,11590285892423818
1	1	0	0	0	0	2	5053,63	0,300000012	3,87391305	0,00083383744960692198	0,30018148549284723	0,00116287696	0,11560746643092795	-0,0043134700084296762	0,11840436911480952
1	1	0	0	0	0	2	5083,63	0,300000012	3,87814808	0,0008338227557440599	0,3001761957021529	0,00116412772	0,11810894857230349	-0,0044068036704029069	0,12090585125618506
1	1	0	0	0	0	2	5113,63	0,300000012	3,87969327	0,00083384882581399539	0,30018558092744333	0,00116462796	0,12061047476600174	-0,004500138976027527	0,12340737744988331
1	1	0	0	0	0	2	5143,63	0,300000012	3,88406181	0,00083384469347033242	0,30018409328370656	0,00116593356	0,12311201381268667	-0,0045934747612143597	0,12590891649656824
1	1	0	0	0	0	2	5173,63	0,300000012	3,88425255	0,00083384604443278579	0,30018457963019571	0,0011659927	0,12561354674364858	-0,0046868103182153459	0,12841044942753016
1	1	0	0	0	0	2	5203,63	0,300000012	3,88316536	0,00083384672728015322	0,30018482545525094	0,00116566732	0,12811509176650709	-0,0047801463263812518	0,13091199445038867
1	1	0	0	0	0	2	5233,63	0,300000012	3,88076162	0,00083383219540947008	0,30017959398174163	0,0011649254	0,13061659592645763	-0,0048734808098971194	0,13341349861033922
1	1	0	0	0	0	2	5263,63	0,300000012	3,87763286	0,00083383675635357696	0,30018123592164	0,00116399257	0,13311811775468189	-0,0049668159526400346	0,13591502043856346
1	1	0	0	0	0	2	5293,63	0,300000012	3,87652659	0,00083382207182049754	0,30017594948966739	0,00116364006	0,13561958580896158	-0,0050601490890047789	0,13841648849284315
1	1	0	0	0	0	2	5323,63	0,300000012	3,87664104	0,0008338275663786464	0,30017792753062496	0,00116368209	0,13812105509247283	-0,0051534822712338061	0,1409179577763544
1	1	0	0	0	0	2	5353,63	0,300000012	3,87923551	0,00083384742614958029	0,30018507704824768	0,00116448861	0,14062256085648373	-0,0052468168145993222	0,14341946354036531
1	1	0	0	0	0	2	5383,63	0,300000012	3,87864399	0,0008338501863645184	0,30018607072563744	0,00116431492	0,14312410437049038	-0,0053401527664679366	0,14592100705437197
1	1	0	0	0	0	2	5413,63	0,300000012	3,87914014	0,00083384232168561882	0,30018323944119936	0,00116445287	0,14562564061982003	-0,0054334884472816838	0,1484225433037016
1	1	0	0	0	0	2	5443,63	0,300000012	3,87744212	0,0008338162462032503	0,30017385226743302	0,00116390677	0,14812711395927005	-0,0055268217808432397	0,15092401664315165
1	1	0	0	0	0	2	5473,63	0,300000012	3,87803364	0,00083382782178454925	0,3001780194767511	0,00116410048	0,15062858120447958	-0,0056201548870204877	0,15342548388836115
1	1	0	0	0	0	2	5503,63	0,300000012	3,87873936	0,00083383516422079667	0,30018066275383213	0,0011643226	0,15313006239761645	-0,0057134885136136589	0,15592696508149802
1	1	0	0	0	0	2	5533,63	0,300000012	3,8793118	0,00083384507092502387	0,30018422916739712	0,00116450817	0,15563159679800336	-0,0058068241254408666	0,15842849948188496
1	1	0	0	0	0	2	5563,63	0,300000012	3,88192534	0,000833839112866256	0,30018208426621472	0,00116528443	0,15813311604881846	-0,0059001591720171814	0,16093001873270003
1	1	0	0	0	0	2	5593,63	0,300000012	3,88167739	0,00083385079396267725	0,30018628946097728	0,00116522633	0,16063465252862438	-0,0059934948614303078	0,16343155521250595
1	1	0	0	0	0	2	5623,63	0,300000012	3,8807044	0,0008338408543384736	0,30018271119622067	0,0011649204	0,16313618325552739	-0,0060868303361948928	0,16593308593940896
1	1	0	0	0	0	2	5653,63	0,300000012	3,87973142	0,00083385101066695309	0,30018636747451757	0,00116464251	0,16563772411682272	-0,0061801661890872806	0,16843462680070432
1	1	0	0	0	0	2	5683,63	0,300000012	3,8839283	0,00083385565025773312	0,30018803772721856	0,00116590876	0,16813928443268666	-0,0062735027678557798	0,17093618711656826
1	1	0	0	0	0	2	5713,63	0,300000012	3,88043737	0,00083385631099674445	0,30018827559326547	0,00116486184	0,1706408542921831	-0,006366839702710039	0,17343775697606467
1	1	0	0	0	0	2	5743,63	0,300000012	3,88060904	0,00083385710712770611	0,30018856220041523	0,00116491446	0,17314242586718397	-0,0064601767015720768	0,17593932855106557
1	1	0	0	0	0	2	5773,63	0,300000012	3,88703799	0,00083384886331690688	0,30018559442849152	0,00116683287	0,17564397137311661	-0,0065535127277621261	0,17844087405699818
1	1	0	0	0	0	2	5803,63	0,300000012	3,88806796	0,00083384739424122714	0,30018506556124045	0,00116713997	0,17814552208147674	-0,0066468489480617408	0,18094242476535834
1	1	0	0	0	0	2	5833,63	0,300000012	3,88606501	0,00083384610889189773	0,30018460283547629	0,00116653694	0,18064706690413981	-0,0067401849487580851	0,18344396958802141
1	1	0	0	0	0	2	5863,63	0,300000012	3,88719058	0,00083384839850332992	0,30018542709560179	0,00116687792	0,18314859466735917	-0,006833520312943648	0,18594549735124074
1	1	0	0	0	0	2	5893,63	0,300000012	3,88896465	0,00083383676884240563	0,30018124041761843	0,00116739422	0,1856501161895583	-0,0069268554442683546	0,18844701887343987
1	1	0	0	0	0	2	5923,63	0,300000012	3,89396286	0,00083385044080681267	0,30018616232486451	0,00116891379	0,18815164615806835	-0,007020190890736279	0,19094854884194992
1	1	0	0	0	0	2	5953,63	0,300000012	3,89609957	0,00083383769318130291	0,30018157317962541	0,00116953731	0,19065316983266733	-0,0071135261023699187	0,19345007251654893
1	1	0	0	0	0	2	5983,63	0,300000012	3,88657999	0,00083384444214072486	0,30018400280504678	0,00116668909	0,19315468544248138	-0,0072068610130955878	0,19595158812636294
1	1	0	0	0	0	2	6013,63	0,300000012	3,88394737	0,00083384491479893517	0,30018417296200454	0,00116589956	0,19565622394940979	-0,0073001967781433805	0,19845312663329136
1	1	0	0	0	0	2	6043,63	0,300000012	3,88244033	0,00083384852202898931	0,30018547156483974	0,00116545218	0,19815777485034262	-0,0073935330056281421	0,20095467753422419
1	1	0	0	0	0	2	6073,63	0,300000012	3,89192152	0,00083384808257884442	0,30018531336278573	0,00116829772	0,20065933274015181	-0,0074868694938772774	0,20345623542403338
1	1	0	0	0	0	2	6103,63	0,300000012	3,89312339	0,0008338535818441047	0,30018729309830336	0,00116866617	0,2031608808500673	-0,0075802056172254298	0,2059577835339489
1	1	0	0	0	0	2	6133,63	0,300000012	3,88707614	0,00083385475325253274	0,30018771480534253	0,00116685254	0,20566244693352835	-0,0076735424111907315	0,20845934961740995
1	1	0	0	0	0	2	6163,63	0,300000012	3,88554978	0,00083384984252684634	0,30018594694407405	0,00116638746	0,20816401005943341	-0,0077668790948056435	0,21096091274331501
1	1	0	0	0	0	2	6193,63	0,300000012	3,88108587	0,00083384946989681984	0,30018581279726285	0,00116504694	0,21066556278913277	-0,0078602153905241434	0,21346246547301434
1	1	0	0	0	0	2	6223,63	0,300000012	3,88339424	0,00083384968258606054	0,30018588936539046	0,00116574019	0,21316711195633862	-0,0079535515533212198	0,21596401464022022
1	1	0	0	0	0	2	6253,63	0,300000012	3,88131475	0,00083384565313657126	0,30018443876355674	0,00116511027	0,21566865974002637	-0,0080468876644973747	0,21846556242390794
1	1	0	0	0	0	2	6283,63	0,300000012	3,88568354	0,00083384135506219328	0,30018289145676198	0,00116641575	0,21817019457684515	-0,0081402232926084429	0,22096709726072672
1	1	0	0	0	0	2	6313,63	0,300000012	3,88448167	0,00083383507916828006	0,30018063213492582	0,00116604613	0,22067170909969235	-0,0082335581627779174	0,22346861178357395
1	1	0	0	0	0	2	6343,63	0,300000012	3,88862133	0,00083382099025117018	0,3001755601247049	0,00116726907	0,22317319080137766	-0,0083268918083457165	0,22597009348525926
1	1	0	0	0	0	2	6373,63	0,300000012	3,88894558	0,0008338347035265632	0,30018049690390605	0,00116738561	0,22567468416690886	-0,0084202258891072845	0,22847158685079043
1	1	0	0	0	0	2	6403,63	0,300000012	3,89037633	0,00083383317376673216	0,30017994619036032	0,00116781297	0,22817618337183587	-0,0085135601877445632	0,23097308605571744
1	1	0	0	0	0	2	6433,63	0,300000012	3,88898373	0,00083383817357818291	0,30018174612250432	0,0011674019	0,23067767999909712	-0,0086068943902056653	0,23347458268297869
1	1	0	0	0	0	2	6463,63	0,300000012	3,8893652	0,0008338471335073312	0,3001849716970368	0,00116752903	0,23317921251554016	-0,0087002299317403955	0,23597611519942173
1	1	0	0	0	0	2	6493,63	0,300000012	3,89016652	0,00083384491443468467	0,30018417283087437	0,0011677664	0,23568075469033312	-0,0087935658336411456	0,23847765737421469
1	1	0	0	0	0	2	6523,63	0,300000012	3,89274192	0,00083384614245096845	0,30018461491674182	0,00116854126	0,23818229777174582	-0,008886901769369097	0,24097920045562739
1	1	0	0	0	0	2	6553,63	0,300000012	3,89468765	0,00083384621410237414	0,30018464071124826	0,00116912543	0,24068384108136317	-0,0089802377136116723	0,24348074376524477
1	1	0	0	0	0	2	6583,63	0,300000012	3,89701509	0,00083384176859094029	0,3001830403271127	0,00116981787	0,24318537958611936	-0,0090735734785784141	0,24598228227000093
1	1	0	0	0	0	2	6613,63	0,300000012	3,89783549	0,00083385473399195405	0,30018770787153408	0,00117008225	0,24568691566117827	-0,009166909152889888	0,24848381834505984
1	1	0	0	0	0	2	6643,63	0,300000012	3,89695787	0,00083383963461054707	0,30018227209416179	0,00116979762	0,24818845333673779	-0,0092602448869181875	0,25098535602061933
1	1	0	0	0	0	2	6673,63	0,300000012	3,89678621	0,00083383271925979187	0,30017978256785978	0,00116973638	0,2506899537863919	-0,0093535792319979098	0,25348685647027347
1	1	0	0	0	0	2	6703,63	0,300000012	3,89838862	0,00083383678667578432	0,30018124683763475	0,00117022311	0,25319146740739261	-0,0094469140685182784	0,25598837009127418
1	1	0	0	0	0	2	6733,63	0,300000012	3,89503121	0,00083383945636616806	0,30018220792618458	0,00116921903	0,2556929853907232	-0,0095402490678030438	0,25848988807460477
1	1	0	0	0	0	2	6763,63	0,300000012	3,8929708	0,00083384798737201434	0,3001852790883264	0,00116861251	0,25819452193942218	-0,0096335847597866611	0,26099142462330371
1	1	0	0	0	0	2	6793,63	0,300000012	3,89142561	0,00083383982130553997	0,30018233930436	0,0011681373	0,26069605232828237	-0,0097269202219384141	0,2634929550121639
1	1	0	0	0	0	2	6823,63	0,300000012	3,89098692	0,00083383452140953818	0,30018043134177632	0,00116799818	0,2631975647711129	-0,009820255014499671	0,26599446745499443
1	1	0	0	0	0	2	6853,63	0,300000012	3,8912158	0,00083385113580524915	0,30018641252430464	0,00116809015	0,26569910361119152	-0,0099135907919777472	0,26849600629507309
1	1	0	0	0	0	2	6883,63	0,300000012	3,89136839	0,00083384159289797146	0,30018297707764307	0,00116812252	0,26820064232943331	-0,010006926564909923	0,27099754501331485
1	1	0	0	0	0	2	6913,63	0,300000012	3,89131117	0,00083383916357821901	0,3001821025225216	0,00116810203	0,27070215278406813	-0,010100261283288926	0,27349905546794966
1	1	0	0	0	0	2	6943,63	0,300000012	3,88921261	0,00083385220653646515	0,30018679798754714	0,00116749026	0,27320370242731312	-0,010193597463847664	0,27600060511119469
1	1	0	0	0	0	2	6973,63	0,300000012	3,89676714	0,0008338435846120119	0,30018369409470637	0,00116974593	0,27570523035691552	-0,0102869328342412	0,27850213304079709
1	1	0	0	0	0	2	7003,63	0,300000012	3,89077687	0,00083384181585411226	0,30018305734185478	0,00116794533	0,27820675806484656	-0,010380268196363883	0,28100366074872813
1	1	0	0	0	0	2	7033,63	0,300000012	3,88940334	0,00083384231892062554	0,30018323844580173	0,00116753369	0,28070827958680394	-0,010473603327679568	0,2835051822706855
1	1	0	0	0	0	2	7063,63	0,300000012	3,89245582	0,00083383345265852083	0,30018004659140538	0,00116843753	0,28320979055925248	-0,010566938065378898	0,28600669324313405
1	1	0	0	0	0	2	7093,63	0,300000012	3,89144468	0,00083385076731443405	0,3001862798676096	0,00116815825	0,28571133407090976	-0,010660274017159853	0,2885082367547913
1	1	0	0	0	0	2	7123,63	0,300000012	3,89556527	0,00083384987565875046	0,30018595887155968	0,001169394	0,28821288108012954	-0,010753610099439568	0,29100978376401107
1	1	0	0	0	0	2	7153,63	0,300000012	3,89705324	0,00083384864328801626	0,30018551521808998	0,00116983894	0,29071442953789114	-0,010846946235766325	0,29351133222177267
1	1	0	0	0	0	2	7183,63	0,300000012	3,89854121	0,0008338481427729129	0,30018533503265062	0,00117028493	0,2932159765506441	-0,010940282318177866	0,29601287923452563
1	1	0	0	0	0	2	7213,63	0,300000012	3,89888477	0,0008338468335916599	0,30018486372739379	0,00117038621	0,29571752300185011	-0,011033618379637339	0,29851442568573165
1	1	0	0	0	0	2	7243,63	0,300000012	3,89073873	0,00083384468338721331	0,30018408965378362	0,00116793788	0,29821905278476454	-0,01112695381918044	0,30101595546864608
1	1	0	0	0	0	2	7273,63	0,300000012	3,89045262	0,00083384253041446208	0,30018331458358381	0,00116784894	0,30072058862268966	-0,011220289484644133	0,30351749130657126
1	1	0	0	0	0	2	7303,63	0,300000012	3,89463043	0,00083384228585494886	0,30018322654215802	0,00116910273	0,30322210138186682	-0,011313624289008707	0,30601900406574842
1	1	0	0	0	0	2	7333,63	0,300000012	3,89495492	0,00083384153512120256	0,30018295627800602	0,00116919912	0,30572363171271526	-0,011406959748995965	0,3085205343965968
1	1	0	0	0	0	2	7363,63	0,300000012	3,89609957	0,00083383917079865933	0,30018210512188019	0,00116953941	0,30822515391427821	-0,011500294905668648	0,31102205659815974
1	1	0	0	0	0	2	7393,63	0,300000012	3,89913273	0,00083383391637769011	0,30018021353030835	0,00117044244	0,31072667144564998	-0,011593629888090219	0,31352357412953152
1	1	0	0	0	0	2	7423,63	0,300000012	3,89859843	0,00083384713139136627	0,30018497093528941	0,00117030065	0,31322822122945926	-0,011686966073893598	0,3160251239133408
1	1	0	0	0	0	2	7453,63	0,300000012	3,89856029	0,00083384665742019814	0,30018480030566675	0,00117028854	0,31572976657565805	-0,011780302094123766	0,31852666925953958
1	1	0	0	0	0	2	7483,63	0,300000012	3,9005444	0,0008338409372882711	0,30018274105814816	0,00117087609	0,31823129045864154	-0,01187363731353251	0,32102819314252307
1	1	0	0	0	0	2	7513,63	0,300000012	3,90294814	0,00083384451005525069	0,30018402725427635	0,00117160263	0,32073281810563174	-0,011966972673381406	0,32352972078951328
1	1	0	0	0	0	2	7543,63	0,300000012	3,9052372	0,00083383754665321779	0,30018152042951411	0,00117228006	0,32323432741152448	-0,012060307348899298	0,32603123009540602
1	1	0	0	0	0	2	7573,63	0,300000012	3,90769815	0,00083385162032147251	0,30018658695014714	0,00117303862	0,32573585854834355	-0,0121536428389584	0,32853276123222509
1	1	0	0	0	0	2	7603,63	0,300000012	3,9079082	0,00083384872795144717	0,30018554569692544	0,00117309752	0,32823738894641267	-0,012246978301453752	0,33103429163029427
1	1	0	0	0	0	2	7633,63	0,300000012	3,90962505	0,00083384639469285811	0,30018470572382323	0,00117360963	0,33073893805135162	-0,012340314461927568	0,33353584073523315
1	1	0	0	0	0	2	7663,63	0,300000012	3,90758371	0,00083383899332417382	0,30018204123106464	0,00117298646	0,33324045705549619	-0,012433649499300272	0,33603735973937779
1	1	0	0	0	0	2	7693,63	0,300000012	3,91634011	0,00083383851435946086	0,30018186880376589	0,00117561431	0,33574197395299085	-0,012526984458071035	0,33853887663687238
1	1	0	0	0	0	2	7723,63	0,300000012	3,91441321	0,00083384775278800064	0,30018519463808045	0,00117504888	0,33824350106972326	-0,012620319798135304	0,34104040375360486
1	1	0	0	0	0	2	7753,63	0,300000012	3,91578698	0,00083383175043265037	0,30017943379008461	0,00117543875	0,3407450106792487	-0,012713654484982139	0,3435419133631303
1	1	0	0	0	0	2	7783,63	0,300000012	3,91597772	0,00083382400666342848	0,30017664603313094	0,00117548509	0,34324649332875558	-0,012806988165914432	0,34604339601263712
1	1	0	0	0	0	2	7813,63	0,300000012	3,91815233	0,00083384023930297958	0,30018248978344013	0,00117616076	0,3457479820296935	-0,012900322072633754	0,34854488471357504
1	1	0	0	0	0	2	7843,63	0,300000012	3,91872478	0,00083382798341578906	0,30017807766399814	0,00117631524	0,34824947109841024	-0,0129936559930754	0,35104637378229184
1	1	0	0	0	0	2	7873,63	0,300000012	3,91681695	0,00083383614684641357	0,30018101649905856	0,00117575412	0,3507509739080921	-0,013086990426210926	0,35354787659197363
1	1	0	0	0	0	2	7903,63	0,300000012	3,91557693	0,000833828846813904	0,30017838848732326	0,00117537158	0,35325247309521056	-0,013180324724183744	0,3560493757790921
1	1	0	0	0	0	2	7933,63	0,300000012	3,91462326	0,00083382997003363238	0,3001787928464304	0,00117508683	0,35575394845132909	-0,01327365813298991	0,35855085113521062
1	1	0	0	0	0	2	7963,63	0,300000012	3,91517639	0,00083383980061444966	0,30018233185556749	0,00117526681	0,35825545395838432	-0,013366992666768067	0,36105235664226586
1	1	0	0	0	0	2	7993,63	0,300000012	3,91548157	0,00083383826097846029	0,30018177758660461	0,00117535621	0,36075697705903194	-0,013460327856986808	0,36355387974291347
1	1	0	0	0	0	2	8023,63	0,300000012	3,91799974	0,00083384120724432998	0,3001828382423305	0,00117611629	0,36325849993727475	-0,013553663038907331	0,36605540262115635
1	1	0	0	0	0	2	8053,63	0,300000012	3,92044163	0,00083384318358202778	0,30018354972391034	0,00117685203	0,36576003067068794	-0,013646998513914819	0,36855693335456954
1	1	0	0	0	0	2	8083,63	0,300000012	3,92227292	0,00083383555696904666	0,30018080414320384	0,00117739104	0,36826154616512397	-0,013740333420335581	0,3710584488490055
1	1	0	0	0	0	2	8113,63	0,300000012	3,9238565	0,00083383890434271757	0,30018200919773997	0,00117787113	0,3707630617622919	-0,013833668330589405	0,37355996444617344
1	1	0	0	0	0	2	8143,63	0,300000012	3,92593575	0,00083384181785914624	0,30018305806366701	0,00117849943	0,37326457461198867	-0,013927003138331389	0,37606147729587027
1	1	0	0	0	0	2	8173,63	0,300000012	3,92927432	0,00083384728326565683	0,30018502561003469	0,00117950933	0,37576609462510912	-0,014020338213350341	0,37856299730899066
1	1	0	0	0	0	2	8203,63	0,300000012	3,93501639	0,0008338157648990551	0,3001736789979207	0,00118118839	0,37826757533277939	-0,014113671821830101	0,38106447801666093
1	1	0	0	0	0	2	8233,63	0,300000012	3,92812967	0,00083383283995588621	0,30017982601845427	0,0011791453	0,38076906022163104	-0,014207005586315358	0,38356596290551258
1	1	0	0	0	0	2	8263,63	0,300000012	3,92944598	0,00083383195207019648	0,30017950637960205	0,00117953913	0,38327055826183693	-0,014300339841495325	0,38606746094571846
1	1	0	0	0	0	2	8293,63	0,300000012	3,93223119	0,00083383561093939674	0,30018082357253018	0,00118038035	0,38577205818167699	-0,014393674166806971	0,38856896086555853
1	1	0	0	0	0	2	8323,63	0,300000012	3,93135357	0,00083382949692507584	0,30017862252734803	0,00118010829	0,3882735544005769	-0,014487008354031562	0,39107045708445843
1	1	0	0	0	0	2	8353,63	0,300000012	3,93041897	0,00083383291533920499	0,30017985315644934	0,00117983262	0,39077502830741677	-0,014580341708763197	0,3935719309912983
1	1	0	0	0	0	2	8383,63	0,300000012	3,93896532	0,00083383697054783501	0,30018131303157389	0,00118240376	0,39327653277423853	-0,014673676203728842	0,39607343545812006
1	1	0	0	0	0	2	8413,63	0,300000012	3,93726754	0,00083383678370548621	0,30018124576832742	0,00118189387	0,39577805028547878	-0,014767011185399283	0,39857495296936038
1	1	0	0	0	0	2	8443,63	0,300000012	3,92963672	0,00083383937099907136	0,30018217719402938	0,00117960689	0,39827954402286022	-0,014860345280035082	0,40107644670674176
1	1	0	0	0	0	2	8473,63	0,300000012	3,94644356	0,00083383877780371238	0,3001819636436976	0,00118465116	0,40078106777720691	-0,014953680494644218	0,40357797046108845
1	1	0	0	0	0	2	8503,63	0,300000012	3,94383001	0,00083383546400070195	0,30018077067459936	0,00118386198	0,40328257541922938	-0,01504701510808087	0,40607947810311091
1	1	0	0	0	0	2	8533,63	0,300000012	3,93783975	0,00083383383210665651	0,30018018319273594	0,0011820615	0,40578407226992851	-0,015140349318878742	0,40858097495381005
1	1	0	0	0	0	2	8563,63	0,300000012	3,94339132	0,00083383546502722624	0,30018077104414816	0,0011837302	0,40828558311431149	-0,015233684051799773	0,41108248579819309
1	1	0	0	0	0	2	8593,63	0,300000012	3,93616104	0,00083383532192971981	0,30018071952904512	0,00118155964	0,41078708483949504	-0,01532701844447121	0,41358398752337658
1	1	0	0	0	0	2	8623,63	0,300000012	3,93721032	0,00083384754505422374	0,30018511985391987	0,001181892	0,4132886248521991	-0,015420354265701514	0,41608552753608064
1	1	0	0	0	0	2	8653,63	0,300000012	3,93722939	0,00083383783383501914	0,30018162381496384	0,00118188397	0,41579015674458317	-0,015513689783951763	0,4185870594284647
1	1	0	0	0	0	2	8683,63	0,300000012	3,94764543	0,00083383762620058317	0,30018154906656608	0,0011850103	0,41829166430736128	-0,015607024394431706	0,42108856699124282
1	1	0	0	0	0	2	8713,63	0,300000012	3,93793511	0,00083383621951606541	0,30018104266013344	0,00118209352	0,42079317985459539	-0,015700359302822435	0,42359008253847699
1	1	0	0	0	0	2	8743,63	0,300000012	3,93858385	0,00083384548095696499	0,30018437677889773	0,00118230132	0,42329470889451309	-0,015793694714643328	0,42609161157839462
1	1	0	0	0	0	2	8773,63	0,300000012	3,94321942	0,00083382780841324058	0,30017801466307994	0,0011836678	0,4257962105356359	-0,015887029104178346	0,4285931132195175
1	1	0	0	0	0	2	8803,63	0,300000012	3,94501281	0,00083384689217805862	0,3001848848184976	0,00118423323	0,42829775009436282	-0,015980364908470157	0,43109465277824435
1	1	0	0	0	0	2	8833,63	0,300000012	3,94959116	0,0008338310752395127	0,30017919072055213	0,00118558505	0,43079925147282944	-0,01607369928820512	0,43359615415671098
1	1	0	0	0	0	2	8863,63	0,300000012	3,95292974	0,00083384249602092634	0,30018330220191078	0,00118660345	0,4333007659112135	-0,016167034155223162	0,4360976685950951
1	1	0	0	0	0	2	8893,63	0,300000012	3,95249104	0,00083384129689137152	0,30018287051526579	0,00118647015	0,43580228682624659	-0,01626036926389369	0,43859918951012819
1	1	0	0	0	0	2	8923,63	0,300000012	3,95867181	0,00083385238187346189	0,30018686110886675	0,0011883413	0,43830383200109856	-0,016353705277730672	0,4411007346849801
1	1	0	0	0	0	2	8953,63	0,300000012	3,95832849	0,00083384882753590746	0,30018558154733158	0,00118823315	0,44080537037259366	-0,016447041037725267	0,4436022730564752
1	1	0	0	0	0	2	8983,63	0,300000012	3,97126269	0,00083383945452504691	0,30018220726338099	0,00119210244	0,44330690067308339	-0,016540376496579798	0,44610380335696493
1	1	0	0	0	0	2	9013,63	0,300000012	3,97689033	0,00083384597388075456	0,30018455423146413	0,00119380106	0,44580841120216275	-0,016633711217736426	0,44860531388604429
1	1	0	0	0	0	2	9043,63	0,300000012	3,98129702	0,00083383861869076877	0,30018190636303718	0,00119511329	0,44830992842292147	-0,016727046188568608	0,45110683110680307
1	1	0	0	0	0	2	9073,63	0,300000012	3,9870584	0,00083384627768728474	0,30018466360181626	0,00119685382	0,45081145984281798	-0,016820381689189712	0,45360836252669952
1	1	0	0	0	0	2	9103,63	0,300000012	3,98579931	0,00083384690691199565	0,30018489012271501	0,00119647675	0,45331299698895584	-0,016913717403464579	0,45610989967283738
1	1	0	0	0	0	2	9133,63	0,300000012	3,9871347	0,00083383720130225024	0,30018139610316429	0,00119686371	0,45581451060617171	-0,017007052239843734	0,45861141329005331
1	1	0	0	0	0	2	9163,63	0,300000012	3,98185039	0,00083384610938198029	0,30018460301190598	0,00119529013	0,45831605202490125	-0,017100388113534742	0,46111295470878285
1	1	0	0	0	0	2	9193,63	0,300000012	3,98026705	0,00083384053185416589	0,30018259510186848	0,00119480689	0,46081758913933107	-0,017193723826626538	0,46361449182321261
1	1	0	0	0	0	2	9223,63	0,300000012	3,98364353	0,0008338450665275255	0,30018422758429773	0,00119582692	0,46331911514728134	-0,01728705912532065	0,46611601783116288
1	1	0	0	0	0	2	9253,63	0,300000012	3,98848915	0,00083385268926289344	0,30018697176906342	0,00119729247	0,46582065381240544	-0,017380394896270938	0,46861755649628698
1	1	0	0	0	0	2	9283,63	0,300000012	3,99755073	0,00083384585028224512	0,30018450973600019	0,00120000285	0,46832218971756461	-0,017473730564243222	0,47111909240144614
1	1	0	0	0	0	2	9313,63	0,300000012	4,00275898	0,0008338370693061088	0,30018134858455283	0,00120155362	0,4708237123452064	-0,017567065736813478	0,47362061502908794
1	1	0	0	0	0	2	9343,63	0,300000012	4,00548697	0,00083383549652331405	0,3001807823827399	0,00120237016	0,47332521271276006	-0,01766040007882992	0,4761221153966416
1	1	0	0	0	0	2	9373,63	0,300000012	4,00800514	0,00083382585654159373	0,30017731198927853	0,00120311219	0,47582669496068883	-0,017753733744778797	0,47862359764457043
1	1	0	0	0	0	2	9403,63	0,300000012	3,99926758	0,00083383738693263795	0,3001814629301047	0,001200506	0,47832819767669702	-0,017847068174419232	0,48112510036057862
1	1	0	0	0	0	2	9433,63	0,300000012	3,99715018	0,00083383086605038899	0,30017911541246669	0,00119986106	0,48082970710158547	-0,017940402854377014	0,48362660978546701
1	1	0	0	0	0	2	9463,63	0,300000012	3,99722648	0,00083384460251033306	0,30018406053810643	0,00119990367	0,48333122158149414	-0,018033737722944397	0,48612812426537574
1	1	0	0	0	0	2	9493,63	0,300000012	4,00201464	0,00083384606317679091	0,30018458637803757	0,00120134314	0,48583275639844467	-0,018127073350314154	0,48862965908232627
1	1	0	0	0	0	2	9523,63	0,300000012	4,00356007	0,00083384121144480179	0,30018283975450035	0,00120180007	0,48833427287535898	-0,018220408293392499	0,49113117555924051
1	1	0	0	0	0	2	9553,63	0,300000012	4,00630713	0,00083384638925227853	0,30018470376521453	0,00120263209	0,49083581627062989	-0,018313744240830922	0,49363271895451142
1	1	0	0	0	0	2	9583,63	0,300000012	4,00764275	0,00083384450089600358	0,30018402395694733	0,00120303035	0,49333735607512333	-0,018407080054292608	0,49613425875900486
1	1	0	0	0	0	2	9613,63	0,300000012	4,0138998	0,00083382960839569574	0,30017866265677158	0,00120488706	0,49583887015293242	-0,018500414907857117	0,49863577283681402
1	1	0	0	0	0	2	9643,63	0,300000012	4,02252245	0,00083383620650900723	0,30018103797759258	0,00120748498	0,49834037464785779	-0,018593749403871347	0,50113727733173939
1	1	0	0	0	0	2	9673,63	0,300000012	4,03028679	0,000833830707050032	0,30017905817233747	0,0012098077	0,50084187420620717	-0,018687083715695286	0,50363877689008883
1	1	0	0	0	0	2	9703,63	0,300000012	4,02515507	0,00083382920119994214	0,30017851606629856	0,00120826508	0,50334338456782566	-0,018780418430603725	0,50614028725170733
1	1	0	0	0	0	2	9733,63	0,300000012	4,02694845	0,0008338349945611424	0,3001806016763559	0,00120881177	0,50584488902903789	-0,018873752925360074	0,50864179171291955
1	1	0	0	0	0	2	9763,63	0,300000012	4,03885221	0,00083383554266062042	0,30018079899217037	0,00121238583	0,50834639157213792	-0,018967087348549072	0,51114329425601958
1	1	0	0	0	0	2	9793,63	0,300000012	4,04741812	0,00083383523377445005	0,30018068779314771	0,00121495675	0,51084788946237024	-0,019060421598133325	0,5136447921462519
1	1	0	0	0	0	2	9823,63	0,300000012	4,0441556	0,0008338383357955351	0,30018180452075174	0,00121398189	0,51334940949238861	-0,019153756673782762	0,51614631217627027
1	1	0	0	0	0	2	9853,63	0,300000012	4,05132866	0,00083383773430022925	0,3001815879824391	0,00121613429	0,51585093230493882	-0,019247091853252202	0,51864783498882048
1	1	0	0	0	0	2	9883,63	0,300000012	4,05523968	0,00083384141406085747	0,30018291269628134	0,00121731369	0,51835243735471878	-0,019340426369968803	0,52114934003860045
1	1	0	0	0	0	2	9913,63	0,300000012	4,05876875	0,00083384095932377702	0,30018274899093037	0,00121837237	0,52085395340141837	-0,019433761296995258	0,52365085608530003
1	1	0	0	0	0	2	9943,63	0,300000012	4,06269884	0,00083384484585126234	0,30018414814084198	0,00121955783	0,52335548402188902	-0,019527096767788707	0,52615238670577069
1	1	0	0	0	0	2	9973,63	0,300000012	4,06630421	0,00083385286774403507	0,30018703602227514	0,00122065179	0,52585703101247072	-0,019620432849373014	0,52865393369635238
1	1	0	0	0	0	2	10003,63	0,300000012	4,067945	0,00083384714027245837	0,30018497413248256	0,00122113596	0,5283585695401465	-0,019713768615194915	0,53115547222402816
1	1	0	0	0	0	2	10033,63	0,300000012	4,06977606	0,00083384465839465459	0,3001840806564624	0,00122168195	0,53086010876920006	-0,019807104407186173	0,53365701145308173
1	1	0	0	0	0	2	10063,63	0,300000012	4,07032919	0,00083384165789352525	0,30018300047604275	0,00122184365	0,53336164102832992	-0,019900439939120202	0,53615854371221158
1	1	0	0	0	0	2	10093,63	0,300000012	4,07380152	0,0008338276641766231	0,30017796273789696	0,00122286542	0,53586314960199622	-0,019993774587317734	0,53866005228587789
1	1	0	0	0	0	2	10123,63	0,300000012	4,07591915	0,00083383056697580557	0,3001790077456153	0,00122350536	0,53836463816533018	-0,02008710848890287	0,54116154084921184
1	1	0	0	0	0	2	10153,63	0,300000012	4,07574701	0,00083383087974952333	0,30017912034415507	0,00122345414	0,5408661440766688	-0,020180443037765379	0,54366304676055046
1	1	0	0	0	0	2	10183,63	0,300000012	4,08005857	0,00083383034380773709	0,3001789274051097	0,00122474763	0,5433676340211632	-0,020273776990883466	0,54616453670504486
1	1	0	0	0	0	2	10213,63	0,300000012	4,08412218	0,00083383538904454976	0,30018074369038419	0,00122597488	0,54586913411521107	-0,02036711132269504	0,54866603679909274
1	1	0	0	0	0	2	10243,63	0,300000012	4,0871172	0,0008338349940660928	0,30018060149813805	0,00122687325	0,54837063985162662	-0,020460445865030938	0,55116754253550829
1	1	0	0	0	0	2	10273,63	0,300000012	4,08566713	0,00083383631828261734	0,30018107821609267	0,00122643996	0,55087215096878362	-0,020553780608129533	0,55366905365266528
1	1	0	0	0	0	2	10303,63	0,300000012	4,08530474	0,00083384126568171712	0,30018285927979008	0,00122633844	0,55337367342992973	-0,020647115774487613	0,55617057611381139
1	1	0	0	0	0	2	10333,63	0,300000012	4,08679295	0,00083384884884125645	0,30018558921725734	0,0012267963	0,55587521019921562	-0,020740451474701629	0,55867211288309728
1	1	0	0	0	0	2	10363,63	0,300000012	4,08782291	0,00083384321077499123	0,30018355951337728	0,00122709724	0,55837674873936691	-0,020833787240989014	0,56117365142324858
1	1	0	0	0	0	2	10393,63	0,300000012	4,09207726	0,00083383249903553062	0,30017970328712474	0,00122835848	0,56087825853969018	-0,020927121934954771	0,56367516122357184
1	1	0	0	0	0	2	10423,63	0,300000012	4,09478617	0,00083384671671026278	0,3001848216500903	0,00122919271	0,5633797830494777	-0,021020457177750416	0,56617668573335936
1	1	0	0	0	0	2	10453,63	0,300000012	4,0982008	0,00083384240651461811	0,30018326997963942	0,00123021135	0,56588130575964211	-0,021113792353399706	0,56867820844352378
1	1	0	0	0	0	2	10483,63	0,300000012	4,10152006	0,00083384073940912883	0,30018266982165606	0,0012312053	0,56838283093344531	-0,021207127620970669	0,57117973361732698
1	1	0	0	0	0	2	10513,63	0,300000012	4,1049161	0,00083383275017804557	0,3001797936984313	0,00123221288	0,57088434098530835	-0,021300462324321715	0,57368124366919002
1	1	0	0	0	0	2	10543,63	0,300000012	4,10972309	0,00083384905549387136	0,30018566361219955	0,00123367994	0,5733858727618327	-0,021393797838249085	0,57618277544571437
1	1	0	0	0	0	2	10573,63	0,300000012	4,11403465	0,00083385372825794752	0,30018734580728736	0,00123498111	0,57588740509426963	-0,021487133372918294	0,5786843077781513
1	1	0	0	0	0	2	10603,63	0,300000012	4,11989117	0,00083385408994224333	0,30018747601363546	0,00123673968	0,57838894249899392	-0,021580469096841373	0,58118584518287565
1	1	0	0	0	0	2	10633,63	0,300000012	4,12620592	0,00083384425876869094	0,30018393679111373	0,00123862072	0,58089047683663373	-0,021673804706327402	0,58368737952051546
1	1	0	0	0	0	2	10663,63	0,300000012	4,13194799	0,00083383754877249395	0,30018152119245357	0,00124033447	0,58339200365701197	-0,021767140035334291	0,58618890634089357
1	1	0	0	0	0	2	10693,63	0,300000012	4,13553429	0,00083383976197739443	0,30018231794622739	0,00124141423	0,5858935201208247	-0,021860474977923802	0,58869042280470643
1	1	0	0	0	0	2	10723,63	0,300000012	4,13976955	0,00083384170042475059	0,3001830157872841	0,00124268851	0,58839504220399309	-0,021953810130179024	0,59119194488787469
1	1	0	0	0	0	2	10753,63	0,300000012	4,14099026	0,00083383364819818061	0,30018011698568384	0,00124304299	0,5908965574923808	-0,022047145028911846	0,5936934601762624
1	1	0	0	0	0	2	10783,63	0,300000012	4,14366102	0,00083384119438959488	0,30018283361462586	0,00124385592	0,59339807740684224	-0,022140480100249702	0,59619498009072397
1	1	0	0	0	0	2	10813,63	0,300000012	4,14478683	0,00083382307903303053	0,30017631208531002	0,00124416687	0,59589956136640282	-0,022233813830061859	0,59869646405028442
1	1	0	0	0	0	2	10843,63	0,300000012	4,14522552	0,00083382594408094886	0,30017734350344678	0,00124430284	0,59840102506428493	-0,022327146803883552	0,60119792774816666
1	1	0	0	0	0	2	10873,63	0,300000012	4,14961338	0,00083381757961875853	0,30017433229702176	0,00124560739	0,60090249074617395	-0,02242047985173121	0,60369939343005568
1	1	0	0	0	0	2	10903,63	0,300000012	4,15329504	0,00083383131289813261	0,30017927627765626	0,00124673313	0,60340396361653043	-0,022513813167790259	0,60620086630041216
1	1	0	0	0	0	2	10933,63	0,300000012	4,15714884	0,00083383098973996109	0,30017915994071315	0,00124788948	0,60590544910483264	-0,022607146954641821	0,60870235178871437
1	1	0	0	0	0	2	10963,63	0,300000012	4,15598488	0,00083381905462675635	0,30017486329990739	0,00124752219	0,60840693086958144	-0,022700480602562598	0,61120383355346304
1	1	0	0	0	0	2	10993,63	0,300000012	4,1576829	0,00083383278491761946	0,30017980620467802	0,00124805246	0,61090841853309722	-0,022793814470574307	0,61370532121697882
1	1	0	0	0	0	2	11023,63	0,300000012	4,16289091	0,00083382788373364326	0,30017804177842522	0,00124960847	0,61340990684202202	-0,022887148362667094	0,61620680952590362
1	1	0	0	0	0	2	11053,63	0,300000012	4,16996813	0,00083382313686774822	0,3001763329066823	0,00125172571	0,61591137677250534	-0,022980481569035517	0,61870827945638694
1	1	0	0	0	0	2	11083,63	0,300000012	4,17555809	0,000833829874040352	0,30017875828884896	0,00125341385	0,61841286553374336	-0,023073815478004717	0,62120976821762496
1	1	0	0	0	0	2	11113,63	0,300000012	4,17988825	0,00083382215196225382	0,30017597834069997	0,00125470199	0,6209143376742144	-0,023167148766830758	0,62371124035809613
1	1	0	0	0	0	2	11143,63	0,300000012	4,18355131	0,00083382873884174554	0,30017834961734579	0,00125581154	0,62341581493437862	-0,02326048224667943	0,62621271761826022
1	1	0	0	0	0	2	11173,63	0,300000012	4,18862534	0,00083381953318913779	0,30017503558236678	0,00125732075	0,6259172827481303	-0,02335381537406975	0,6287141854320119
1	1	0	0	0	0	2	11203,63	0,300000012	4,19270802	0,0008338429652518697	0,30018347112505242	0,00125858164	0,62841878037731584	-0,023447149613913994	0,63121568306119744
1	1	0	0	0	0	2	11233,63	0,300000012	4,19537878	0,00083382168423798349	0,30017580995996064	0,00125935127	0,63092027281030579	-0,0235404836598812	0,63371717549418752
1	1	0	0	0	0	2	11263,63	0,300000012	4,19754887	0,00083383425216707917	0,30018033441448986	0,00126002159	0,63342177698992602	-0,023633818144130966	0,63621867967380762
1	1	0	0	0	0	2	11285,35	0,300000012	4,19997168	0,00014367032441331282	0,30018176097069766	0,00126075489	0,63523308956091507	-0,023701400651490221	0,63802999224479667