File: Experimentelles/Rohdaten/Batteriemessungen/AlteZelle/Studenten_Batterietests/LiCoO2 vs Li 300µm GCPL/ZView-Export/LiCoO2 vs Li 300µm GCPL_02_GCPL_C04_loop1.txt
EC-Lab ASCII FILE
Nb header lines : 3
mode	ox/red	error	control changes	Ns changes	counter inc.	Ns	time/s	control/V/mA	Ewe/V	dq/mA.h	<I>/mA	P/W	(Q-Qo)/mA.h	x	Capacity/mA.h
1	0	0	1	1	0	1	11285,40	-0,300000012	4,18844891	0	0	0	0	0	0
1	0	0	1	0	0	1	11335,40	-0,300000012	4,11282825	-0,00083291447840465446	-0,29984921585600806	0,00123322837	-0,0041604364036016954	0,00015523147598461638	0,0041604364036016954
1	0	0	1	0	0	1	11385,40	-0,300000012	4,09823418	-0,00083291017212470362	-0,29984766559520704	0,00122884591	-0,008324990911751319	0,0003106166039867664	0,008324990911751319
1	0	0	1	0	0	1	11435,40	-0,300000012	4,09031725	-0,00083290880792505216	-0,29984717448332653	0,00122647011	-0,012489527245986125	0,00046600105389571955	0,012489527245986125
1	0	0	1	0	0	1	11485,40	-0,300000012	4,09417057	-0,00083290947134130534	-0,29984741331318054	0,00122762646	-0,016654072561180586	0,00062138583889635251	0,016654072561180586
1	0	0	1	0	0	1	11535,40	-0,300000012	4,08779907	-0,00083289871864020826	-0,29984354234073875	0,00122570014	-0,020818592588594547	0,00077676968037589504	0,020818592588594547
1	0	0	1	0	0	1	11585,40	-0,300000012	4,083354	-0,00083291741966042253	-0,29985027470809741	0,00122439477	-0,024983138599641786	0,00093215449133973069	0,024983138599641786
1	0	0	1	0	0	1	11635,40	-0,300000012	4,07740211	-0,00083290750159157645	-0,29984670420326957	0,00122259557	-0,029147724317064883	0,0010875407838018352	0,029147724317064883
1	0	0	1	0	0	1	11685,40	-0,300000012	4,07368231	-0,00083290403246548442	-0,29984545531786131	0,00122147507	-0,033312265083029203	0,001242925399064575	0,033312265083029203
1	0	0	1	0	0	1	11735,40	-0,300000012	4,07166004	-0,00083291041063931251	-0,29984775146046726	0,0012208781	-0,03747682412003577	0,0013983106960444669	0,03747682412003577
1	0	0	1	0	0	1	11785,40	-0,300000012	4,06921816	-0,00083290118158029184	-0,29984442899917958	0,00122013234	-0,041641348417970214	0,0015536946968628704	0,041641348417970214
1	0	0	1	0	0	1	11835,40	-0,300000012	4,06633759	-0,00083289700227644698	-0,29984292444977722	0,0012192626	-0,045805875226336403	0,0017090787913488576	0,045805875226336403
1	0	0	1	0	0	1	11885,40	-0,300000012	4,06612778	-0,0008328998593704567	-0,29984395300363322	0,00121920381	-0,04997036727798583	0,0018644615890150115	0,04997036727798583
1	0	0	1	0	0	1	11935,40	-0,300000012	4,0636096	-0,00083289775385955968	-0,29984319501970106	0,00121844572	-0,054134862384091834	0,0020198445006470474	0,054134862384091834
1	0	0	1	0	0	1	11985,40	-0,300000012	4,05830622	-0,00083289629186689856	-0,29984266870233664	0,00121685339	-0,058299363517161242	0,002175227637153191	0,058299363517161242
1	0	0	1	0	0	1	12035,40	-0,300000012	4,04899645	-0,00083289096252123507	-0,29984075013787462	0,00121405418	-0,062463855304220672	0,0023306104249471363	0,062463855304220672
1	0	0	1	0	0	1	12085,40	-0,300000012	4,04384565	-0,00083289482979476467	-0,29984214235636211	0,00121251529	-0,066628325097686067	0,0024859923921305181	0,066628325097686067
1	0	0	1	0	0	1	12135,40	-0,300000012	4,0363102	-0,00083291106407344346	-0,29984798669675725	0,00121027953	-0,070792850894182272	0,0026413764488622758	0,070792850894182272
1	0	0	1	0	0	1	12185,40	-0,300000012	4,03325796	-0,00083290806959735014	-0,29984690868535066	0,00120935997	-0,074957370697337075	0,0027967602819744074	0,074957370697337075
1	0	0	1	0	0	1	12235,40	-0,300000012	4,02978611	-0,00083290517631504269	-0,29984586710370726	0,00120831467	-0,079121887304548762	0,0029521439958416051	0,079121887304548762
1	0	0	1	0	0	1	12285,40	-0,300000012	4,02526474	-0,00083290214643544614	-0,2998447763470393	0,00120695459	-0,083286400187196992	0,0031075275707403322	0,083286400187196992
1	0	0	1	0	0	1	12335,40	-0,300000012	4,01376152	-0,00083292188894748698	-0,29985188365146003	0,00120353396	-0,087450956287613504	0,0032629127581521005	0,087450956287613504
1	0	0	1	0	0	1	12385,40	-0,300000012	4,00809574	-0,00083290236658851302	-0,29984485560214438	0,00120180694	-0,091615479756993702	0,0034182967280560314	0,091615479756993702
1	0	0	1	0	0	1	12435,40	-0,300000012	3,99968243	-0,00083292416237956954	-0,29985270208701971	0,00119931553	-0,095780069654959091	0,0035736831764997894	0,095780069654959091
1	0	0	1	0	0	1	12485,40	-0,300000012	4,0013423	-0,00083292431017590899	-0,29985275529370253	0,00119981356	-0,099944690013376538	0,0037290707614639686	0,099944690013376538
1	0	0	1	0	0	1	12535,40	-0,300000012	4,00212431	-0,00083294079910218726	-0,29985869130723456	0,00120007177	-0,10410935111834043	0,0038844598667365792	0,10410935111834043
1	0	0	1	0	0	1	12585,40	-0,300000012	3,99613428	-0,00083291630106502118	-0,29984987201374803	0,00119824032	-0,10827393932935197	0,0040398462522378221	0,10827393932935197
1	0	0	1	0	0	1	12635,40	-0,300000012	3,98812199	-0,00083292006108164787	-0,29985122561975002	0,00119584322	-0,11243854298566547	0,0041952332140240461	0,11243854298566547
1	0	0	1	0	0	1	12685,40	-0,300000012	3,97797298	-0,00083291179910136589	-0,29984825130681254	0,00119278824	-0,11660312417475811	0,0043506193375280544	0,11660312417475811
1	0	0	1	0	0	1	12735,40	-0,300000012	3,95864797	-0,00083290778632462029	-0,29984680670716659	0,00118698797	-0,12076769080225725	0,0045060049177194291	0,12076769080225725
1	0	0	1	0	0	1	12785,40	-0,300000012	3,93796849	-0,00083291337381303309	-0,29984881820301958	0,00118079525	-0,12493225999348958	0,004661390593567136	0,12493225999348958
1	0	0	1	0	0	1	12835,40	-0,300000012	3,93091011	-0,0008329109095119767	-0,29984793105462854	0,00117867521	-0,12909682814462418	0,0048167762306073984	0,12909682814462418
1	0	0	1	0	0	1	12885,40	-0,300000012	3,92385173	-0,00083291256695157939	-0,2998485277328928	0,00117656111	-0,1332613831220428	0,0049721613761186061	0,1332613831220428
1	0	0	1	0	0	1	12935,40	-0,300000012	3,92282152	-0,00083291160972747546	-0,29984818313221114	0,00117625087	-0,13742594455938142	0,0051275467626581139	0,13742594455938142
1	0	0	1	0	0	1	12985,40	-0,300000012	3,91912055	-0,00083291585966116851	-0,29984971310835917	0,00117514713	-0,14159053175054592	0,0052829331101074918	0,14159053175054592
1	0	0	1	0	0	1	13035,40	-0,300000012	3,91929221	-0,00083291283770402266	-0,2998486252037735	0,0011751944	-0,14575511615111702	0,0054383193534360781	0,14575511615111702
1	0	0	1	0	0	1	13085,40	-0,300000012	3,90817046	-0,00083290470844838349	-0,29984569867170797	0,00117184815	-0,14991965187561786	0,0055937037805950362	0,14991965187561786
1	0	0	1	0	0	1	13135,40	-0,300000012	3,90353465	-0,00083290690935154752	-0,29984649099685664	0,00117046118	-0,1540841951564081	0,0057490884896893126	0,1540841951564081
1	0	0	1	0	0	1	13185,40	-0,300000012	3,90591931	-0,00083293544448249869	-0,29985676364412339	0,00117121637	-0,15824885708665286	0,005904477625754263	0,15824885708665286
1	0	0	1	0	0	1	13235,40	-0,300000012	3,89035249	-0,00083291240802572838	-0,2998484705195856	0,00116651622	-0,16241346788220707	0,0060598648539151578	0,16241346788220707
1	0	0	1	0	0	1	13285,40	-0,300000012	3,89061952	-0,00083291083074278298	-0,29984790269771846	0,0011665941	-0,16657802840974531	0,0062152502065087898	0,16657802840974531
1	0	0	1	0	0	1	13335,40	-0,300000012	3,90050149	-0,00083292563001480371	-0,2998532304357104	0,00116957794	-0,1707425988390969	0,0063706359285523917	0,1707425988390969
1	0	0	1	0	0	1	13385,40	-0,300000012	3,89147806	-0,00083292468679779098	-0,29985289087758176	0,00116687093	-0,17490723264555072	0,0065260240152808883	0,17490723264555072
1	0	0	1	0	0	1	13435,40	-0,300000012	3,88216853	-0,00083291697129607206	-0,29985011329692928	0,0011640687	-0,1790718253473633	0,0066814105683399552	0,1790718253473633
1	0	0	1	0	0	1	13485,40	-0,300000012	3,87892532	-0,00083291197518507648	-0,29984831469694906	0,00116308918	-0,18323639520310957	0,0068367962689815718	0,18323639520310957
1	0	0	1	0	0	1	13535,40	-0,300000012	3,87856293	-0,00083291098478436467	-0,29984795815268858	0,00116297917	-0,18740096511126819	0,0069921819715787622	0,18740096511126819
1	0	0	1	0	0	1	13585,40	-0,300000012	3,90231371	-0,0008329155731681321	-0,29984960997086477	0,00117010728	-0,1915655312345584	0,0071475675329574246	0,1915655312345584
1	0	0	1	0	0	1	13635,40	-0,300000012	3,90053964	-0,00083291609256300659	-0,29984979695302189	0,00116957596	-0,19573009852291574	0,0073029531378063078	0,19573009852291574
1	0	0	1	0	0	1	13685,40	-0,300000012	3,87104654	-0,00083292284109857357	-0,29985222642585542	0,0011607419	-0,19989470922194515	0,0074583403623657331	0,19989470922194515
1	0	0	1	0	0	1	13735,40	-0,300000012	3,86599135	-0,00083292383007208512	-0,29985258245632384	0,00115922745	-0,20405934652636378	0,0076137285796080013	0,20405934652636378
1	0	0	1	0	0	1	13785,40	-0,300000012	3,8632822	-0,00083291925426820928	-0,29985093516690861	0,00115840882	-0,20822393162275286	0,0077691148488984909	0,20822393162275286
1	0	0	1	0	0	1	13835,40	-0,300000012	3,86480856	-0,00083293403725491635	-0,29985625704218758	0,00115888705	-0,21238858588609034	0,0079245036989008218	0,21238858588609034
1	0	0	1	0	0	1	13885,40	-0,300000012	3,85687256	-0,00083293558072050419	-0,29985681268980589	0,0011565095	-0,21655324983154832	0,008079892910156087	0,21655324983154832
1	0	0	1	0	0	1	13935,40	-0,300000012	3,86433148	-0,0008329312772783968	-0,29985526345062854	0,00115874014	-0,22071789415764742	0,0082352813893866931	0,22071789415764742
1	0	0	1	0	0	1	13985,40	-0,300000012	3,85961962	-0,00083291641592151578	-0,29984991336208659	0,0011573066	-0,22488253554505542	0,008390669758970784	0,22488253554505542
1	0	0	1	0	0	1	14035,40	-0,300000012	3,85754013	-0,00083292400115562816	-0,29985264404640013	0,00115669356	-0,22904711241482624	0,0085460557213150861	0,22904711241482624
1	0	0	1	0	0	1	14085,40	-0,300000012	3,85666251	-0,00083292722499205005	-0,29985380462752602	0,00115643488	-0,23321171435750291	0,0087014426191632154	0,23321171435750291
1	0	0	1	0	0	1	14135,40	-0,300000012	3,85353398	-0,00083291123796668314	-0,29984804929832429	0,00115547469	-0,23737629880091149	0,0088568288640901261	0,23737629880091149
1	0	0	1	0	0	1	14185,40	-0,300000012	3,85004282	-0,00083291247510247757	-0,29984849466721568	0,00115442951	-0,24154085892519616	0,0090122142016378253	0,24154085892519616
1	0	0	1	0	0	1	14235,40	-0,300000012	3,84670448	-0,00083292612793544922	-0,29985340968714496	0,00115344743	-0,24570547340653104	0,0091676015673201536	0,24570547340653104
1	0	0	1	0	0	1	14285,40	-0,300000012	3,84300351	-0,00083292726779977472	-0,29985382003830714	0,00115233927	-0,24987008630889251	0,0093229888740888589	0,24987008630889251
1	0	0	1	0	0	1	14335,40	-0,300000012	3,84004664	-0,0008329113521062665	-0,29984809038857478	0,00115143065	-0,25403467179526813	0,0094783751579302707	0,25403467179526813
1	0	0	1	0	0	1	14385,40	-0,300000012	3,8417635	-0,00083291323322223296	-0,29984876759033088	0,001151948	-0,25819924420730694	0,0096337609539505984	0,25819924420730694
1	0	0	1	0	0	1	14435,40	-0,300000012	3,84863114	-0,00083290987333820915	-0,29984755803206771	0,00115400262	-0,26236381464443037	0,0097891466762841779	0,26236381464443037
1	0	0	1	0	0	1	14485,40	-0,300000012	3,8380053	-0,0008329229261577129	-0,29985225704714592	0,00115083461	-0,26652842178081405	0,0099445337679164992	0,26652842178081405
1	0	0	1	0	0	1	14535,40	-0,300000012	3,82987857	-0,00083292273404863142	-0,29985218788787578	0,00114839745	-0,27069302149975059	0,010099920582793898	0,27069302149975059
1	0	0	1	0	0	1	14585,40	-0,300000012	3,82468963	-0,00083290921488404275	-0,29984732098856493	0,00114682293	-0,27485759394596275	0,010255306380089278	0,27485759394596275
1	0	0	1	0	0	1	14635,40	-0,300000012	3,82390738	-0,00083291754550404006	-0,29985032001180026	0,00114659988	-0,27902217146713293	0,010410692366738166	0,27902217146713293
1	0	0	1	0	0	1	14685,40	-0,300000012	3,81562805	-0,00083291231232881549	-0,29984843606869658	0,00114411011	-0,28318673389316355	0,010566077790167104	0,28318673389316355
1	0	0	1	0	0	1	14735,40	-0,300000012	3,79384232	-0,00083290912765761216	-0,29984728958704954	0,00113757339	-0,28735129982610797	0,010721463344443707	0,28735129982610797
1	0	0	1	0	0	1	14785,40	-0,300000012	3,79641771	-0,00083291447264121651	-0,29984921378117037	0,00113835291	-0,29151586018820525	0,010876848690864515	0,29151586018820525
1	0	0	1	0	0	1	14835,40	-0,300000012	3,78895855	-0,00083291764834026496	-0,29985035703284166	0,00113612053	-0,29568043170647738	0,011032234453537206	0,29568043170647738
1	0	0	1	0	0	1	14885,40	-0,300000012	3,78926373	-0,0008329158005764087	-0,29984969183784538	0,00113620958	-0,29984503801125542	0,011187621514141206	0,29984503801125542
1	0	0	1	0	0	1	14935,40	-0,300000012	3,78500962	-0,00083290954582724301	-0,29984744012811846	0,00113492541	-0,30400958508510816	0,011343006364759742	0,30400958508510816
1	0	0	1	0	0	1	14985,40	-0,300000012	3,77922916	-0,00083290849828554522	-0,29984706301310272	0,00113319082	-0,30817411643904211	0,011498390628846973	0,30817411643904211
1	0	0	1	0	0	1	15035,40	-0,300000012	3,77711177	-0,0008329186316761705	-0,29985071103377197	0,00113256963	-0,31233868168318035	0,011653776157423293	0,31233868168318035
1	0	0	1	0	0	1	15085,40	-0,300000012	3,77346802	-0,00083291443373428442	-0,29984919977467469	0,00113147136	-0,31650326548483898	0,01180916237840565	0,31650326548483898
1	0	0	1	0	0	1	15135,40	-0,300000012	3,76898503	-0,0008329112140221728	-0,29984804067830048	0,00113012281	-0,3206678166213575	0,01196454738060771	0,3206678166213575
1	0	0	1	0	0	1	15185,40	-0,300000012	3,76766872	-0,00083291187682085568	-0,29984827928582918	0,00112972897	-0,3248323709987097	0,012119932503729634	0,3248323709987097
1	0	0	1	0	0	1	15235,40	-0,300000012	3,76976705	-0,00083292285418013734	-0,29985223113521843	0,0011303731	-0,32899696936381958	0,012275319268093936	0,32899696936381958
1	0	0	1	0	0	1	15285,40	-0,300000012	3,77884769	-0,00083290934679739994	-0,29984736847737408	0,00113307755	-0,33316150826750138	0,01243070381387241	0,33316150826750138
1	0	0	1	0	0	1	15335,40	-0,300000012	3,79557824	-0,00083290907759633331	-0,29984727156498893	0,00113809376	-0,33732604454875418	0,012586088261804536	0,33732604454875418
1	0	0	1	0	0	1	15385,40	-0,300000012	3,79283118	-0,00083290801834728986	-0,2998468902353287	0,00113726861	-0,34149059040888416	0,012741473067137443	0,34149059040888416
1	0	0	1	0	0	1	15435,40	-0,300000012	3,77953458	-0,00083290577296581542	-0,29984608189798803	0,00113327859	-0,34565516523882342	0,01289685895337289	0,34565516523882342
1	0	0	1	0	0	1	15485,40	-0,300000012	3,77751231	-0,00083290762271980442	-0,29984674780943219	0,00113267475	-0,34981968393408026	0,013052242745147858	0,34981968393408026
1	0	0	1	0	0	1	15535,40	-0,300000012	3,77695918	-0,00083290793190565376	-0,29984685911633926	0,00113250932	-0,35398420240487923	0,013207626528548002	0,35398420240487923
1	0	0	1	0	0	1	15585,40	-0,300000012	3,77383041	-0,00083290759698881037	-0,29984673854627418	0,00113157078	-0,35814875365205702	0,013363011534878907	0,35814875365205702
1	0	0	1	0	0	1	15635,40	-0,300000012	3,78514314	-0,00083291381640401152	-0,2998489775357737	0,00113497127	-0,36231330127559366	0,013518396406006891	0,36231330127559366
1	0	0	1	0	0	1	15685,40	-0,300000012	3,78445625	-0,00083292465326024422	-0,29985287880406477	0,00113478012	-0,36647791948071539	0,013673783910628714	0,36647791948071539
1	0	0	1	0	0	1	15735,40	-0,300000012	3,77474618	-0,00083290852705968755	-0,29984707337179398	0,00113184657	-0,37064248280428109	0,01382916936754589	0,37064248280428109
1	0	0	1	0	0	1	15785,40	-0,300000012	3,76724887	-0,00083290477518737318	-0,29984572269774451	0,00112959347	-0,37480702432493126	0,013984554010966971	0,37480702432493126
1	0	0	1	0	0	1	15835,40	-0,300000012	3,75917935	-0,00083291195815801613	-0,2998483085672073	0,00112718355	-0,3789715448643209	0,014139937871549014	0,3789715448643209
1	0	0	1	0	0	1	15885,40	-0,300000012	3,75309372	-0,00083291398549576602	-0,29984903840880614	0,00112536154	-0,38313609262852614	0,014295322747925534	0,38313609262852614
1	0	0	1	0	0	1	15935,40	-0,300000012	3,75366616	-0,0008329129913151264	-0,29984868050377152	0,00112553185	-0,38730064988733075	0,01445070797855832	0,38730064988733075
1	0	0	1	0	0	1	15985,40	-0,300000012	3,74710369	-0,0008329170602079895	-0,29985014530521997	0,00112356956	-0,39146519981555053	0,014606092935677126	0,39146519981555053
1	0	0	1	0	0	1	16035,40	-0,300000012	3,74975538	-0,00083291215985019994	-0,29984838117639437	0,00112435804	-0,39562976700349222	0,014761478536779373	0,39562976700349222
1	0	0	1	0	0	1	16085,40	-0,300000012	3,75296021	-0,00083290778270363802	-0,29984680540361299	0,00112531311	-0,39979430446701811	0,014916863028823693	0,39979430446701811
1	0	0	1	0	0	1	16135,40	-0,300000012	3,76297569	-0,0008329043371246921	-0,29984556499517747	0,00112831162	-0,40395884098106522	0,015072247485441683	0,40395884098106522
1	0	0	1	0	0	1	16185,40	-0,300000012	3,75736713	-0,00083291825262043213	-0,29985057457370451	0,00112664874	-0,40812340323782867	0,01522763290255503	0,40812340323782867
1	0	0	1	0	0	1	16235,40	-0,300000012	3,75725269	-0,0008328978289282985	-0,29984322204444736	0,00112658681	-0,4122879157690281	0,01538301646434073	0,4122879157690281
1	0	0	1	0	0	1	16285,40	-0,300000012	3,75147223	-0,00083291228723194867	-0,29984842703382445	0,00112487306	-0,41645244110105664	0,015538400503742579	0,41645244110105664
1	0	0	1	0	0	1	16335,40	-0,300000012	3,75168204	-0,00083290803342229786	-0,29984689566233165	0,00112493022	-0,42061702707819213	0,015693786805894899	0,42061702707819213
1	0	0	1	0	0	1	16385,40	-0,300000012	3,75330377	-0,00083291621806555315	-0,2998498421339392	0,00112542755	-0,42478156048901606	0,015849171146727462	0,42478156048901606
1	0	0	1	0	0	1	16435,40	-0,300000012	3,75498247	-0,00083291863503721024	-0,29985071224374624	0,00112593418	-0,42894616062286054	0,016004557977085635	0,42894616062286054
1	0	0	1	0	0	1	16485,40	-0,300000012	3,75498247	-0,0008329109401371744	-0,29984794207969984	0,00112592382	-0,4331107333149303	0,016159943783554291	0,4331107333149303
1	0	0	1	0	0	1	16535,40	-0,300000012	3,75013685	-0,00083291506245401178	-0,29984942611377926	0,00112447643	-0,4372753149723399	0,016315329924531834	0,4372753149723399
1	0	0	1	0	0	1	16585,40	-0,300000012	3,74843907	-0,0008329024562570784	-0,29984488788282829	0,00112395035	-0,44143986579636614	0,016470714915074387	0,44143986579636614
1	0	0	1	0	0	1	16635,40	-0,300000012	3,74697018	-0,00083290153471794406	-0,29984455612873587	0,00112350855	-0,44560438480360851	0,016626098718489958	0,44560438480360851
1	0	0	1	0	0	1	16685,40	-0,300000012	3,74342179	-0,00083290099127756224	-0,2998443604901961	0,00112244394	-0,44976889760613325	0,016781482290399171	0,44976889760613325
1	0	0	1	0	0	1	16735,40	-0,300000012	3,74218178	-0,00083291583842370253	-0,29984970546287123	0,00112209213	-0,45393343517143744	0,016936866786240976	0,45393343517143744
1	0	0	1	0	0	1	16785,40	-0,300000012	3,73735523	-0,00083292993931969011	-0,29985478178548832	0,00112066383	-0,45809804011257882	0,017092253795965856	0,45809804011257882
1	0	0	1	0	0	1	16835,40	-0,300000012	3,73705006	-0,00083290946771038899	-0,29984741200605069	0,00112054474	-0,46226261484193696	0,017247639678448483	0,46226261484193696
1	0	0	1	0	0	1	16885,40	-0,300000012	3,73811841	-0,00083292340754469222	-0,29985243034646061	0,00112088386	-0,46642722590780314	0,017403026916695082	0,46642722590780314
1	0	0	1	0	0	1	16935,40	-0,300000012	3,73436022	-0,00083292823270625549	-0,29985416740464435	0,00111976347	-0,47059183907956442	0,017558414233515456	0,47059183907956442
1	0	0	1	0	0	1	16985,40	-0,300000012	3,73138428	-0,00083291132557557696	-0,2998480808375264	0,00111884845	-0,47475639862143053	0,017713799549332336	0,47475639862143053
1	0	0	1	0	0	1	17035,40	-0,300000012	3,72932386	-0,00083291295340657229	-0,29984866685669184	0,00111823285	-0,47892095356407488	0,017869184693546067	0,47892095356407488
1	0	0	1	0	0	1	17085,40	-0,300000012	3,72606182	-0,00083290259055793293	-0,29984493623113651	0,00111724075	-0,48308550335051507	0,018024569645374893	0,48308550335051507
1	0	0	1	0	0	1	17135,40	-0,300000012	3,72285676	-0,00083289952221347226	-0,29984383162711731	0,00111627567	-0,48725000297765658	0,018179952725692842	0,48725000297765658
1	0	0	1	0	0	1	17185,40	-0,300000012	3,72142601	-0,00083289714859757158	-0,29984297712538272	0,00111584342	-0,4914145047116601	0,018335335884620643	0,4914145047116601
1	0	0	1	0	0	1	17235,40	-0,300000012	3,71879339	-0,00083290639523830682	-0,29984630591608768	0,00111506646	-0,4955790251811849	0,018490719742595936	0,4955790251811849
1	0	0	1	0	0	1	17285,40	-0,300000012	3,71570301	-0,00083290462760461696	-0,29984566956795168	0,00111413747	-0,49974353891063469	0,018646103349089965	0,49974353891063469
1	0	0	1	0	0	1	17335,40	-0,300000012	3,71045685	-0,00083291626549098227	-0,29984985920709389	0,00111257995	-0,50390808064577888	0,018801488000514112	0,50390808064577888
1	0	0	1	0	0	1	17385,40	-0,300000012	3,71371889	-0,00083290261714326016	-0,2998449458018544	0,00111353979	-0,50807261967893856	0,018956872551123581	0,50807261967893856
1	0	0	1	0	0	1	17435,40	-0,300000012	3,69799948	-0,00083290857242378918	-0,29984708970287085	0,0011088344	-0,51223714443407539	0,019112256569000819	0,51223714443407539
1	0	0	1	0	0	1	17485,40	-0,300000012	3,69063592	-0,00083292106102241408	-0,29985158559843021	0,001106643	-0,5164017105123376	0,019267642128699427	0,5164017105123376
1	0	0	1	0	0	1	17535,40	-0,300000012	3,68289065	-0,00083292933012545114	-0,29985456247555955	0,00110433158	-0,52056635228963123	0,019423030512830675	0,52056635228963123
1	0	0	1	0	0	1	17585,40	-0,300000012	3,67382908	-0,00083292393746806515	-0,29985262111887718	0,00110160722	-0,52473096951736262	0,019578417980984749	0,52473096951736262
1	0	0	1	0	0	1	17635,40	-0,300000012	3,66247821	-0,00083291291258235763	-0,2998486521599744	0,00109818915	-0,52889555775348941	0,019733804367423072	0,52889555775348941
1	0	0	1	0	0	1	17685,40	-0,300000012	3,64338231	-0,0008329147452347808	-0,29984931191485478	0,00109246571	-0,53306012340782835	0,019889189911304534	0,53306012340782835
1	0	0	1	0	0	1	17735,40	-0,300000012	3,61640739	-0,0008329081428315904	-0,29984693504967744	0,00108436868	-0,53722467673577133	0,020044574995271587	0,53722467673577133
1	0	0	1	0	0	1	17785,40	-0,300000012	3,59299994	-0,00083290536980827661	-0,29984593676127232	0,00107734639	-0,54138920052960115	0,020199958977281171	0,54138920052960115
1	0	0	1	0	0	1	17835,40	-0,300000012	3,53573108	-0,00083292578364577562	-0,29985328574286099	0,00106020062	-0,54555377572532096	0,020355344877164378	0,54555377572532096
1	0	0	1	0	0	1	17885,40	-0,300000012	3,45562696	-0,00083292319617337651	-0,29985235425278598	0,00103617785	-0,54971844818538515	0,020510734406111046	0,54971844818538515
1	0	0	1	0	0	1	17935,40	-0,300000012	3,32611346	-0,0008329238702389929	-0,29985259691641088	0,000997343799	-0,55388303655370176	0,020666120797481552	0,55388303655370176
1	0	0	1	0	0	1	17985,40	-0,300000012	3,10451555	-0,00083291123689214387	-0,29984804891149011	0,000930882932	-0,55804760472541306	0,020821506435289558	0,55804760472541306
1	0	0	1	0	0	1	18035,40	-0,300000012	2,80264187	-0,00083290333901511309	-0,29984520567572461	0,000840358727	-0,56221212264470835	0,020976890198112362	0,56221212264470835
1	0	0	1	0	0	1	18085,40	-0,300000012	2,45851278	-0,0008329044352786409	-0,29984560033059942	0,000737174239	-0,56637665939491552	0,021132274663541805	0,56637665939491552
1	0	0	1	0	0	1	18135,40	-0,300000012	2,14048076	-0,00083290283622344346	-0,29984502467072134	0,000641812512	-0,57054118972420256	0,02128765888939808	0,57054118972420256
1	1	0	0	0	0	2	18170,44	0,300000012	2,59133124	0,00083383117693993779	0,3001792273327056	0,000777863839	-0,57179248336072653	0,021334346337358979	0,00083384730365375667
1	1	0	0	0	0	2	18220,44	0,300000012	3,79480076	0,00083384163776040077	0,30018299322811789	0,00113913463	-0,56762328938216192	0,021178788104477808	0,0050030412822183642
1	1	0	0	0	0	2	18270,44	0,300000012	3,82118416	0,00083383126152555149	0,30017925778352691	0,00114704028	-0,56345411242087904	0,021023230506534304	0,0091722182435012531
1	1	0	0	0	0	2	18320,44	0,300000012	3,82562923	0,00083382637565500198	0,30017749887010778	0,00114836777	-0,55928496836134842	0,020867674136199411	0,013341362303031818
1	1	0	0	0	0	2	18370,44	0,300000012	3,83564448	0,00083382621199058163	0,30017743995091571	0,00115137396	-0,55511583428448986	0,020712118138331434	0,017510496379890378
1	1	0	0	0	0	2	18420,44	0,300000012	3,84567904	0,00083381548077364774	0,30017357671277274	0,00115437119	-0,5509467262641312	0,020556563112666506	0,021679604400248989
1	1	0	0	0	0	2	18470,44	0,300000012	3,85884213	0,00083381799121035469	0,30017448046999814	0,00115832593	-0,54677762386562957	0,020401008296760614	0,02584870679875049
1	1	0	0	0	0	2	18520,44	0,300000012	3,86588144	0,00083381830267608166	0,30017459259766125	0,00116043934	-0,5426085409329753	0,020245454207151667	0,030017789731404845
1	1	0	0	0	0	2	18570,44	0,300000012	3,86466074	0,00083382178568508877	0,30017584648091904	0,00116007787	-0,53843943072341094	0,020089899099804528	0,03418689994096921
1	1	0	0	0	0	2	18620,44	0,300000012	3,86672091	0,00083382991904517005	0,30017877449058374	0,00116070756	-0,53427028119152998	0,019934342525288886	0,038356049472850221
1	1	0	0	0	0	2	18670,44	0,300000012	3,85878491	0,0008338378204753001	0,30018161900546496	0,00115833629	-0,53010111166391328	0,019778785204705456	0,042525219000466982
1	1	0	0	0	0	2	18720,44	0,300000012	3,85926175	0,00083382972878714394	0,3001787059976935	0,00115846819	-0,5259319689620441	0,019623228885026739	0,046694361702336192
1	1	0	0	0	0	2	18770,44	0,300000012	3,87620211	0,00083382382274998554	0,30017657982429075	0,00116354506	-0,52176282428031552	0,019467672491476806	0,050863506384064742
1	1	0	0	0	0	2	18820,44	0,300000012	3,87236762	0,00083382248144182899	0,30017609695334854	0,0011623922	-0,51759369687413229	0,019312116742500694	0,055032633790247962
1	1	0	0	0	0	2	18870,44	0,300000012	3,87458062	0,00083382396112713549	0,30017662964006528	0,00116305856	-0,51342457092619821	0,019156561047933818	0,059201759738182016
1	1	0	0	0	0	2	18920,44	0,300000012	3,87076521	0,00083383373117943603	0,30018014685893606	0,00116192689	-0,50925543069203085	0,019001004820328374	0,063370899972349389
1	1	0	0	0	0	2	18970,44	0,300000012	3,86950612	0,00083382631638646118	0,30017747753343283	0,00116153853	-0,50508630308413715	0,018845449063826173	0,067540027580242995
1	1	0	0	0	0	2	19020,44	0,300000012	3,8690865	0,0008338298002084096	0,30017873170934944	0,00116141746	-0,50091717171589414	0,018689893167020285	0,071709158948486029
1	1	0	0	0	0	2	19070,44	0,300000012	3,86702609	0,00083382908517122266	0,30017847429595898	0,00116079801	-0,49674803200965171	0,018534336959112429	0,075878298654728461
1	1	0	0	0	0	2	19120,44	0,300000012	3,86708331	0,00083383302494717965	0,3001798926153207	0,0011608206	-0,49257887986236358	0,018378780287012432	0,080047450802016589
1	1	0	0	0	0	2	19170,44	0,300000012	3,86706424	0,00083382507131331507	0,30017702930709478	0,00116080383	-0,48840975385576205	0,018223224590256592	0,084216576808618163
1	1	0	0	0	0	2	19220,44	0,300000012	3,86544275	0,00083383399565849024	0,30018024207139674	0,00116032956	-0,4842406165853561	0,018067668473233072	0,088385714079024051
1	1	0	0	0	0	2	19270,44	0,300000012	3,86618686	0,00083382554539375834	0,30017719997605638	0,0011605412	-0,48007146579236672	0,017912111851663779	0,092554864872013517
1	1	0	0	0	0	2	19320,44	0,300000012	3,86406922	0,0008338355672127671	0,30018080783094323	0,00115991943	-0,475902315441296	0,017756555246583066	0,096724015223084211
1	1	0	0	0	0	2	19370,44	0,300000012	3,86414552	0,00083382623090677786	0,3001774467607465	0,00115992932	-0,47173316579470093	0,017600998667787286	0,10089316486967933
1	1	0	0	0	0	2	19420,44	0,300000012	3,86435533	0,00083382530962261901	0,30017711509844518	0,00115999102	-0,46756404286115757	0,017445443085691382	0,10506228780322274
1	1	0	0	0	0	2	19470,44	0,300000012	3,86714053	0,00083382998097770752	0,30017879678629747	0,00116083364	-0,46339489918126061	0,017289886729521133	0,10923143148311973
1	1	0	0	0	0	2	19520,44	0,300000012	3,86605334	0,00083381482510103117	0,30017334067062797	0,00116048614	-0,45922579053384288	0,017134331680459786	0,11340054013053742
1	1	0	0	0	0	2	19570,44	0,300000012	3,8629055	0,00083382886488901235	0,30017839499436237	0,00115956075	-0,4550566816636064	0,016978776623084771	0,11756964900077384
1	1	0	0	0	0	2	19620,44	0,300000012	3,86300087	0,00083383175810674829	0,30017943655275994	0,00115959346	-0,45088753101213491	0,016823220006795699	0,12173879965224533
1	1	0	0	0	0	2	19670,44	0,300000012	3,86788464	0,00083383486587471437	0,30018055534924122	0,00116106379	-0,44671836852334989	0,016667662948840547	0,12590796214103037
1	1	0	0	0	0	2	19720,44	0,300000012	3,86624408	0,00083383024687899494	0,30017889251076205	0,00116056483	-0,44254920061594298	0,016512105688709328	0,13007713004843726
1	1	0	0	0	0	2	19770,44	0,300000012	3,87450433	0,0008338277524279223	0,30017799450836512	0,00116304099	-0,43838005521986598	0,016356549268506093	0,13424627544451426
1	1	0	0	0	0	2	19820,44	0,300000012	3,88906002	0,00083384210206899379	0,30018316037921338	0,00116743031	-0,43421086415662586	0,0162009911443996	0,13841546650775443
1	1	0	0	0	0	2	19870,44	0,300000012	3,86813259	0,00083383330792519782	0,30017999448740845	0,00116113597	-0,43004170107987904	0,016045434064506803	0,14258462958450122
1	1	0	0	0	0	2	19920,44	0,300000012	3,86775112	0,00083383402923411789	0,30018025415862285	0,00116102246	-0,42587253748316288	0,015889876965213251	0,14675379318121741
1	1	0	0	0	0	2	19970,44	0,300000012	3,87076521	0,00083383296546505562	0,30017987120175578	0,00116192584	-0,42170338941285069	0,015734320445230707	0,15092294125152963
1	1	0	0	0	0	2	20020,44	0,300000012	3,87337875	0,00083383252414067584	0,30017971232497715	0,00116270967	-0,41753422892047027	0,015578763461764093	0,15509210174391011
1	1	0	0	0	0	2	20070,44	0,300000012	3,87479043	0,00083383342986802266	0,30018003838682592	0,0011631347	-0,41336506609375661	0,015423206391200368	0,15926126457062371
1	1	0	0	0	0	2	20120,44	0,300000012	3,87814808	0,0008338327807237705	0,30017980469489235	0,00116414169	-0,40919591912366496	0,015267649912268531	0,1634304115407153
1	1	0	0	0	0	2	20170,44	0,300000012	3,88949871	0,00083384116824964685	0,30018282420424435	0,00116756069	-0,4050267019739289	0,015112090814839802	0,16759962869045149
1	1	0	0	0	0	2	20220,44	0,300000012	3,88993764	0,00083384289719992205	0,30018344662635098	0,00116769492	-0,40085749486776083	0,014956532092150099	0,17176883579661955
1	1	0	0	0	0	2	20270,44	0,300000012	3,88690448	0,00083385489234990554	0,30018776488039731	0,0011668012	-0,39668821899993946	0,014800970803870662	0,17593811166444099
1	1	0	0	0	0	2	20320,44	0,300000012	3,88205886	0,00083384249436524173	0,30018330160586438	0,00116532925	-0,39251898908408877	0,01464541123012103	0,18010734158029168
1	1	0	0	0	0	2	20370,44	0,300000012	3,88312721	0,00083384126549959181	0,30018285921422502	0,00116564822	-0,38834977124543725	0,014489852106987939	0,1842765594189433
1	1	0	0	0	0	2	20420,44	0,300000012	3,88383293	0,00083384790405962202	0,30018524909586483	0,00116586941	-0,38418055610234272	0,014334293084429709	0,18844577456203782
1	1	0	0	0	0	2	20470,44	0,300000012	3,88640833	0,00083382232199774848	0,30017603955347885	0,00116660667	-0,38001138174271488	0,014178735583557448	0,1926149489216657
1	1	0	0	0	0	2	20520,44	0,300000012	3,88951778	0,00083382208072808051	0,30017595269639731	0,00116753974	-0,37584225745721235	0,01402317995101813	0,19678407320716826
1	1	0	0	0	0	2	20570,44	0,300000012	3,8908534	0,00083383291546007002	0,30017985319996077	0,00116795581	-0,37167310305648947	0,013867623194839453	0,2009532276078911
1	1	0	0	0	0	2	20620,44	0,300000012	3,89167356	0,00083382931309938432	0,30017855635009824	0,0011681969	-0,36750397727438381	0,013712067506459858	0,2051223533899968
1	1	0	0	0	0	2	20670,44	0,300000012	3,89764476	0,00083383253340423117	0,30017971565985709	0,00116999389	-0,36333481596474586	0,013556510492500267	0,20929151469963478
1	1	0	0	0	0	2	20720,44	0,300000012	3,90872836	0,00083382881254951155	0,30017837615214182	0,00117331569	-0,35916564076606669	0,013400952960321877	0,21346068989831392
1	1	0	0	0	0	2	20770,44	0,300000012	3,91057897	0,00083382906977997875	0,30017846875511117	0,00117387157	-0,35499649989739469	0,01324539670904221	0,21762983076698598
1	1	0	0	0	0	2	20820,44	0,300000012	3,90975857	0,0008338242873615689	0,30017674708446272	0,0011736186	-0,35082736236292032	0,013089840582165939	0,22179896830146035
1	1	0	0	0	0	2	20870,44	0,300000012	3,90758371	0,00083383822022709568	0,30018176291611315	0,00117298542	-0,34665822129770202	0,012934284323552866	0,22596810936667875
1	1	0	0	0	0	2	20920,44	0,300000012	3,90058255	0,00083384084989130496	0,30018270959523994	0,0011708875	-0,3424890672804871	0,012778727581683382	0,23013726338389373
1	1	0	0	0	0	2	20970,44	0,300000012	3,89705324	0,00083384242395063245	0,30018327625660467	0,00116983021	-0,33831985267548358	0,012623168579202045	0,23430647798889734
1	1	0	0	0	0	2	21020,44	0,300000012	3,89142561	0,0008338319193853271	0,30017949461304896	0,00116812612	-0,33415068064270182	0,012467611165147542	0,23847565002167914
1	1	0	0	0	0	2	21070,44	0,300000012	3,89648104	0,00083383928602437184	0,30018214660313715	0,00116965408	-0,32998149503830829	0,01231205324471796	0,24264483562607261
1	1	0	0	0	0	2	21120,44	0,300000012	3,89438248	0,00083383682136899904	0,30018125932719226	0,00116902066	-0,32581230769906208	0,012156495259558685	0,24681402296531891
1	1	0	0	0	0	2	21170,44	0,300000012	3,89993382	0,00083384742430845901	0,30018507638544403	0,00117070193	-0,32164309006827661	0,012000936144181358	0,25098324059610429
1	1	0	0	0	0	2	21220,44	0,300000012	3,89836955	0,00083384961017966272	0,30018586329908685	0,00117023545	-0,31747385172562886	0,011845376256016598	0,25515247893875203
1	1	0	0	0	0	2	21270,44	0,300000012	3,90004849	0,00083384502526124326	0,3001842127284359	0,00117073301	-0,31330460723375366	0,011689816138415898	0,25932172343062726
1	1	0	0	0	0	2	21320,44	0,300000012	3,90289092	0,00083383827557994266	0,3001817828431383	0,00117157679	-0,3091354018717616	0,011534257480803747	0,26349092879261933
1	1	0	0	0	0	2	21370,44	0,300000012	3,90493202	0,00083383996653887962	0,30018239158836294	0,00117219181	-0,30496619149641293	0,01137869863613652	0,26766013916796803
1	1	0	0	0	0	2	21420,44	0,300000012	3,90231848	0,00083382258727484275	0,30017613505323398	0,00117138284	-0,30079703475336826	0,011223141792562667	0,27182929591101267
1	1	0	0	0	0	2	21470,44	0,300000012	3,90424538	0,00083383145153853619	0,30017932618820224	0,00117197377	-0,2966278907528695	0,011067585424430333	0,27599843991151146
1	1	0	0	0	0	2	21520,44	0,300000012	3,90621018	0,00083383306310077517	0,30017990635061523	0,00117256586	-0,29245869863822163	0,010912027261094406	0,2801676320261593
1	1	0	0	0	0	2	21570,44	0,300000012	3,91075063	0,00083383666342828006	0,30018120246853274	0,00117393385	-0,28828953443264077	0,010756470139083291	0,28433679623174019
1	1	0	0	0	0	2	21620,44	0,300000012	3,91082692	0,00083383499700327718	0,30018060255552442	0,00117395434	-0,28412036487185565	0,010600912817262307	0,28850596579252531
1	1	0	0	0	0	2	21670,44	0,300000012	3,91561508	0,00083384073302812045	0,30018266752449299	0,00117539975	-0,27995117070984282	0,010445354577536438	0,29267515995453811
1	1	0	0	0	0	2	21720,44	0,300000012	3,92320776	0,0008338435363786089	0,30018367673068102	0,00117768289	-0,27578193715764515	0,010289794868109814	0,29684439350673581
1	1	0	0	0	0	2	21770,44	0,300000012	3,91843867	0,00083384237731993203	0,30018325946955232	0,0011762497	-0,27161273862614006	0,010134236465352315	0,3010135920382409
1	1	0	0	0	0	2	21820,44	0,300000012	3,92257833	0,00083384440553353894	0,30018398962645965	0,00117749523	-0,26744352804259725	0,0099786776129170867	0,30518280262178368
1	1	0	0	0	0	2	21870,44	0,300000012	3,92280722	0,00083384410449696909	0,30018388125329318	0,00117756345	-0,26327432498283453	0,0098231190412042086	0,30935200568154643
1	1	0	0	0	0	2	21920,44	0,300000012	3,92292166	0,00083383788366284634	0,30018164175298189	0,00117758906	-0,25910512939291136	0,0096675607482010867	0,31352120127146957
1	1	0	0	0	0	2	21970,44	0,300000012	3,9216435	0,00083384718709521818	0,30018499098867635	0,00117721851	-0,25493590281222035	0,0095120012988907482	0,31769042785216064
1	1	0	0	0	0	2	22020,44	0,300000012	3,92410445	0,00083384319023125696	0,3001835521176329	0,00117795158	-0,25076668773170413	0,0093564422786673946	0,3218596429326768
1	1	0	0	0	0	2	22070,44	0,300000012	3,92627931	0,0008338376697715785	0,30018156475212454	0,00117859663	-0,2465974973854151	0,0092008841813113126	0,32602883327896582
1	1	0	0	0	0	2	22120,44	0,300000012	3,92822504	0,00083384170393149056	0,30018301704971053	0,00117918639	-0,24242831333640317	0,0090453263189151053	0,33019801732797773
1	1	0	0	0	0	2	22170,44	0,300000012	3,9406631	0,00083384449215067763	0,30018402080862995	0,00118292414	-0,23825910476921101	0,0088897675417126298	0,33436722589516986
1	1	0	0	0	0	2	22220,44	0,300000012	3,93444419	0,0008338397367232375	0,30018230885473082	0,00118105055	-0,23408989594887958	0,0087342087550651878	0,33853643471550131
1	1	0	0	0	0	2	22270,44	0,300000012	3,95168972	0,00083383165282673318	0,30017939865195398	0,0011862159	-0,22992071516104637	0,0085786510143479424	0,34270561550333453
1	1	0	0	0	0	2	22320,44	0,300000012	3,95804238	0,00083383474394182374	0,3001805114534	0,00118812721	-0,2257515750914855	0,0084230947928841856	0,34687475557289542
1	1	0	0	0	0	2	22370,44	0,300000012	3,96088481	0,00083384125735527949	0,30018285628227251	0,00118898973	-0,22158236423285898	0,0082675359301852147	0,35104396643152192
1	1	0	0	0	0	2	22420,44	0,300000012	3,95674515	0,00083384758325583398	0,30018513360649971	0,00118775608	-0,21741313138577274	0,0081119762470672448	0,35521319927860813
1	1	0	0	0	0	2	22470,44	0,300000012	3,96826768	0,00083384433943861056	0,30018396583228512	0,00119121035	-0,21324390599858358	0,0079564168422880666	0,35938242466579725
1	1	0	0	0	0	2	22520,44	0,300000012	3,97334194	0,00083384455963306957	0,30018404510229133	0,00119273388	-0,20907467745492787	0,0078008573197368768	0,36355165320945306
1	1	0	0	0	0	2	22570,44	0,300000012	3,97704291	0,00083383716081579533	0,30018138152804038	0,00119383424	-0,20490550727780589	0,0076452999749195354	0,36772082338657504
1	1	0	0	0	0	2	22620,44	0,300000012	3,97906518	0,00083384962003098586	0,30018586684556333	0,00119445915	-0,20073627434760925	0,0074897402887006054	0,37189005631677171
1	1	0	0	0	0	2	22670,44	0,300000012	3,98173594	0,00083384572135243149	0,30018446332126669	0,00119525532	-0,19656704989816842	0,0073341809189100787	0,37605928076621254
1	1	0	0	0	0	2	22720,44	0,300000012	3,98684859	0,00083384063955975898	0,30018263387588243	0,00119678269	-0,19239785558164714	0,0071786226734192922	0,38022847508273382
1	1	0	0	0	0	2	22770,44	0,300000012	3,99062586	0,00083383670662343501	0,30018121801878867	0,00119791098	-0,1882286601226008	0,0070230643852993613	0,38439767054178022
1	1	0	0	0	0	2	22820,44	0,300000012	3,99409771	0,0008338354121082359	0,30018075199331136	0,00119895127	-0,18405946550728147	0,0068675061286600192	0,38856686515709958
1	1	0	0	0	0	2	22870,44	0,300000012	3,99634886	0,00083383562831580634	0,3001808298280377	0,0011996273	-0,17989027381652525	0,0067119479811400589	0,39273605684785574
1	1	0	0	0	0	2	22920,44	0,300000012	3,99596739	0,00083384187239574054	0,30018307769684122	0,00119952182	-0,17572108869991962	0,006556390078910496	0,39690524196446131
1	1	0	0	0	0	2	22970,44	0,300000012	4,00191927	0,00083382490202453402	0,30017696836313286	0,001201284	-0,17155191553279027	0,006400832622531959	0,40107441513159072
1	1	0	0	0	0	2	23020,44	0,300000012	4,00472355	0,00083382035230431296	0,30017533046383341	0,00120211917	-0,16738281918839382	0,0062452780325128755	0,4052435114759872
1	1	0	0	0	0	2	23070,44	0,300000012	4,00831032	0,00083383828592300403	0,30018178656664045	0,00120322173	-0,16321364970676368	0,0060897207136452698	0,40941268095761734
1	1	0	0	0	0	2	23120,44	0,300000012	4,01239252	0,00083383655307028032	0,30018116273965235	0,00120444468	-0,15904447492836512	0,0059341631971481126	0,41358185573601594
1	1	0	0	0	0	2	23170,44	0,300000012	4,01645613	0,00083384308355715546	0,30018351371495584	0,00120567391	-0,15487529896813725	0,0057786056365553152	0,41775103169624371
1	1	0	0	0	0	2	23220,44	0,300000012	4,01195383	0,00083383977589342323	0,30018232295599782	0,00120431767	-0,1507060881072921	0,0056230467737735622	0,42192024255708883
1	1	0	0	0	0	2	23270,44	0,300000012	4,01576948	0,00083384246974852352	0,30018329274384563	0,00120546692	-0,14653691522317718	0,0054674893279546746	0,42608941544120378
1	1	0	0	0	0	2	23320,44	0,300000012	4,02050018	0,00083384192172355123	0,30018309545485325	0,00120688614	-0,14236770967959786	0,0053119306635672589	0,43025862098478304
1	1	0	0	0	0	2	23370,44	0,300000012	4,02584171	0,00083384575408697114	0,30018447510570118	0,00120849523	-0,13819851057855051	0,0051563722395593728	0,4344278200858304
1	1	0	0	0	0	2	23420,44	0,300000012	4,03005791	0,00083382369615137574	0,30017653424879066	0,00120972877	-0,13402935989539253	0,0050008156220880378	0,43859697076898842
1	1	0	0	0	0	2	23470,44	0,300000012	4,03869963	0,00083382783242066701	0,30017802330575354	0,00121232891	-0,12986022832831005	0,0048452597178631814	0,44276610233607085
1	1	0	0	0	0	2	23520,44	0,300000012	4,04703665	0,00083383524440228941	0,30018069161916992	0,00121484231	-0,1256910622647811	0,004689702526529527	0,44693526839959974
1	1	0	0	0	0	2	23570,44	0,300000012	4,05132866	0,00083382896927992499	0,30017843257509133	0,00121612148	-0,12152190435463611	0,0045341456394095904	0,4511044263097447
1	1	0	0	0	0	2	23620,44	0,300000012	4,05514431	0,00083384019453989133	0,30018247366872819	0,00121728319	-0,11735273940671242	0,0043785884897006675	0,45527359125766835
1	1	0	0	0	0	2	23670,44	0,300000012	4,06233597	0,00083384052654935245	0,30018259319213562	0,00121944258	-0,11318353529277202	0,0042230298786550016	0,45944279537160877
1	1	0	0	0	0	2	23720,44	0,300000012	4,06918478	0,00083383915942245056	0,30018210102644499	0,00122149638	-0,1090143455769859	0,004067471804823831	0,46361198508739488
1	1	0	0	0	0	2	23770,44	0,300000012	4,06210709	0,00083382618772817971	0,30017743121645094	0,00121935282	-0,10484519973323168	0,0039119153679171578	0,46778113093114912
1	1	0	0	0	0	2	23820,44	0,300000012	4,06412935	0,00083383650479548506	0,30018114536072582	0,00121997495	-0,10067605240304856	0,0037563588755498234	0,47195027826133216
1	1	0	0	0	0	2	23870,44	0,300000012	4,06546497	0,00083384418364365888	0,30018390974610189	0,00122038717	-0,09650684805892663	0,0036008002559157747	0,47611948260545414
1	1	0	0	0	0	2	23920,44	0,300000012	4,06775379	0,0008338286242485047	0,3001783083637785	0,00122105144	-0,092337664323291085	0,0034452424052120627	0,48028866634108973
1	1	0	0	0	0	2	23970,44	0,300000012	4,07179832	0,00083383215720454861	0,30017958022796973	0,00122227066	-0,088168501534385062	0,003289685336058992	0,48445782912999578
1	1	0	0	0	0	2	24020,44	0,300000012	4,0774641	0,00083383137705094298	0,30017929937266829	0,00122397032	-0,083999343979243674	0,0031341284621847168	0,48862698668513722
1	1	0	0	0	0	2	24070,44	0,300000012	4,08557177	0,00083382381836904422	0,30017657824715181	0,00122639292	-0,079830194903518669	0,0029785719046888672	0,49279613576086221
1	1	0	0	0	0	2	24120,44	0,300000012	4,09161949	0,00083382514640026624	0,3001770563383975	0,00122821028	-0,075661045017958592	0,0028230153169769827	0,49696528564642234
1	1	0	0	0	0	2	24170,44	0,300000012	4,10024214	0,00083382026809288397	0,30017530014771866	0,00123079144	-0,071491935854235533	0,0026674602486515885	0,50113439481014534
1	1	0	0	0	0	2	24220,44	0,300000012	4,10600328	0,00083381503785484378	0,30017341726200134	0,00123251299	-0,067322820197867917	0,0025119049380768963	0,5053035104665129
1	1	0	0	0	0	2	24270,44	0,300000012	4,11199331	0,00083381533528533235	0,30017352433697862	0,00123431149	-0,063153752986677082	0,0023563514350568845	0,50947257767770368
1	1	0	0	0	0	2	24320,44	0,300000012	4,11411095	0,00083382350220945152	0,30017646442969709	0,00123495923	-0,058984635049395354	0,0022007960393782198	0,51364169561498541
1	1	0	0	0	0	2	24370,44	0,300000012	4,12654924	0,00083383042712012928	0,3001789573975712	0,00123870326	-0,054815505482730854	0,0020452402097916483	0,51781082518164998
1	1	0	0	0	0	2	24420,44	0,300000012	4,13332129	0,00083382835059199066	0,30017820984743232	0,00124073296	-0,050646357078702182	0,0018896836773576922	0,52197997358567859
1	1	0	0	0	0	2	24470,44	0,300000012	4,14167738	0,00083382423730691264	0,3001767290647863	0,00124323519	-0,046477228612614266	0,0017341278888351126	0,52614910205176646
1	1	0	0	0	0	2	24520,44	0,300000012	4,14799166	0,0008338254946784841	0,3001771817185575	0,00124513241	-0,042308102847537325	0,0015785722010908842	0,53031822781684333
1	1	0	0	0	0	2	24570,44	0,300000012	4,15339041	0,00083383641957574413	0,30018111468161875	0,00124676933	-0,03813894432111673	0,0014230152909768758	0,534487386343264
1	1	0	0	0	0	2	24620,44	0,300000012	4,16084957	0,00083382176538308454	0,30017583917219744	0,00124898646	-0,033969797469174784	0,0012674588164533624	0,53865653319520589
1	1	0	0	0	0	2	24670,44	0,300000012	4,1656189	0,0008338243332256873	0,3001767635955456	0,00125042198	-0,029800675675133126	0,0011119032768737994	0,54282565498924749
1	1	0	0	0	0	2	24720,44	0,300000012	4,17170429	0,0008338272867947817	0,30017782688043245	0,00125225307	-0,025631559289716272	0,00095634793909729971	0,54699477137466445
1	1	0	0	0	0	2	24770,44	0,300000012	4,17944956	0,0008338173869152864	0,30017426292377094	0,00125456322	-0,02146246051979985	0,00080079325857880538	0,5511638701445808
1	1	0	0	0	0	2	24820,44	0,300000012	4,1850009	0,00083381549426085414	0,30017358156816717	0,00125622668	-0,0172933718037896	0,00064523895318506816	0,55533295886059098
1	1	0	0	0	0	2	24870,44	0,300000012	4,18862534	0,00083381549380388531	0,30017358140365837	0,0012573147	-0,013124291325548549	0,00048968495515357536	0,559502039338832
1	1	0	0	0	0	2	24920,44	0,300000012	4,19467306	0,00083382791795002086	0,30017805409632128	0,00125914882	-0,0089551774684183411	0,00033412971171084986	0,5636711531959623
1	1	0	0	0	0	2	24964,70	0,300000012	4,20000982	0,0003554130249056551	0,30017992331940634	0,00126075861	-0,0052644557695629798	0,00019642392289845645	0,5673618748948176