File: Experimentelles/Rohdaten/Batteriemessungen/AlteZelle/Studenten_Batterietests/LiCoO2 vs Li 300µm GCPL/ZView-Export/LiCoO2 vs Li 300µm GCPL_02_GCPL_C04_loop5.txt
EC-Lab ASCII FILE
Nb header lines : 3
mode	ox/red	error	control changes	Ns changes	counter inc.	Ns	time/s	control/V/mA	Ewe/V	dq/mA.h	<I>/mA	P/W	(Q-Qo)/mA.h	x	Capacity/mA.h
1	0	0	1	1	0	1	63247,18	-0,300000012	4,18455744	0	0	0	0	0	0
1	0	0	1	0	0	1	63287,18	-0,300000012	4,11929512	-0,00083288886095749005	-0,2998399893862009	0,00123512943	-0,0033274104615174554	0,00012415015807016234	0,0033274104615174554
1	0	0	1	0	0	1	63327,18	-0,300000012	4,10649443	-0,00083287332050171162	-0,29983439482213107	0,00123126828	-0,0066589256706856512	0,00024845346979406566	0,0066589256706856512
1	0	0	1	0	0	1	63367,18	-0,300000012	4,09594488	-0,00083287610163456858	-0,29983539602995776	0,00122810923	-0,0099904261326084019	0,00037275623127841363	0,0099904261326084019
1	0	0	1	0	0	1	63407,18	-0,300000012	4,0867691	-0,00083286256396936038	-0,2998305224704919	0,00122533808	-0,013321907166925354	0,00049705826789266854	0,013321907166925354
1	0	0	1	0	0	1	63447,18	-0,300000012	4,07829857	-0,0008328768693274921	-0,29983567239940973	0,00122281944	-0,016653402375678832	0,000621360833374208	0,016653402375678832
1	0	0	1	0	0	1	63487,18	-0,300000012	4,07103062	-0,00083287201581564224	-0,29983392513514701	0,00122063304	-0,019984890400648726	0,0007456631308191232	0,019984890400648726
1	0	0	1	0	0	1	63527,18	-0,300000012	4,06565094	-0,00083288823076254784	-0,29983976251602214	0,00121904386	-0,023316411169067638	0,00086996664996614515	0,023316411169067638
1	0	0	1	0	0	1	63567,18	-0,300000012	4,05899286	-0,00083288728681372262	-0,29983942269444576	0,00121704605	-0,026647974236243914	0,00099427174733667597	0,026647974236243914
1	0	0	1	0	0	1	63607,18	-0,300000012	4,0518961	-0,00083287647973828851	-0,29983553214729664	0,00121490238	-0,029979487369120736	0,0011185749815913565	0,029979487369120736
1	0	0	1	0	0	1	63647,18	-0,300000012	4,0464592	-0,00083287526134153203	-0,29983509352446522	0,00121327047	-0,033310977953472678	0,0012428773745302571	0,033310977953472678
1	0	0	1	0	0	1	63687,18	-0,300000012	4,03936291	-0,00083288837988012378	-0,29983981619834931	0,00121116184	-0,036642488006246368	0,0013671804938621483	0,036642488006246368
1	0	0	1	0	0	1	63727,18	-0,300000012	4,03331518	-0,00083287995531823898	-0,29983678335607648	0,00120933622	-0,039974031515045894	0,0014914848614833462	0,039974031515045894
1	0	0	1	0	0	1	63767,18	-0,300000012	4,02789736	-0,00083288596059216397	-0,29983894525468544	0,00120772049	-0,043305552974802522	0,0016157884064251078	0,043305552974802522
1	0	0	1	0	0	1	63807,18	-0,300000012	4,0225749	-0,00083288422809541222	-0,299838321555856	0,00120612211	-0,046637080239245235	0,001740092167947512	0,046637080239245235
1	0	0	1	0	0	1	63847,18	-0,300000012	4,01729059	-0,0008328924785736535	-0,29984129172801734	0,00120454957	-0,049968612646042253	0,0018643961213380691	0,049968612646042253
1	0	0	1	0	0	1	63887,18	-0,300000012	4,01225424	-0,00083289089221755648	-0,29984072063982355	0,00120303722	-0,053300194703672275	0,0019887019272679619	0,053300194703672275
1	0	0	1	0	0	1	63927,18	-0,300000012	4,00731325	-0,0008328707331965367	-0,29983346339226982	0,00120152661	-0,056631707258690336	0,0021130051399619555	0,056631707258690336
1	0	0	1	0	0	1	63967,18	-0,300000012	4,00235319	-0,00083290865453581018	-0,29984711507438291	0,001200094	-0,05996324406904704	0,0022373092576552451	0,05996324406904704
1	0	0	1	0	0	1	64007,18	-0,300000012	3,99746966	-0,00083289245545864102	-0,29984128340661286	0,00119860645	-0,063294809313112435	0,0023616144362484355	0,063294809313112435
1	0	0	1	0	0	1	64047,18	-0,300000012	3,99363518	-0,0008329012643545865	-0,29984445460914733	0,0011974693	-0,066626384042167603	0,0024859199687393472	0,066626384042167603
1	0	0	1	0	0	1	64087,18	-0,300000012	3,98848438	-0,00083288645459545997	-0,29983912309587168	0,00119590363	-0,069957964166832243	0,0026102257025477027	0,069957964166832243
1	0	0	1	0	0	1	64127,18	-0,300000012	3,98398209	-0,00083289586451318528	-0,29984251066624653	0,00119456719	-0,073289531228244902	0,0027345309489485632	0,073289531228244902
1	0	0	1	0	0	1	64167,18	-0,300000012	3,97959447	-0,00083289647759166029	-0,29984273137449709	0,00119325251	-0,076621116544760538	0,0028588368764718595	0,076621116544760538
1	0	0	1	0	0	1	64207,18	-0,300000012	3,97480607	-0,00083288667870395712	-0,2998392037749305	0,00119180267	-0,079952675955728294	0,0029831418374243347	0,079952675955728294
1	0	0	1	0	0	1	64247,18	-0,300000012	3,97057104	-0,00083289021503097485	-0,29984047685265453	0,00119053794	-0,083284244092708429	0,003107447123956064	0,083284244092708429
1	0	0	1	0	0	1	64287,18	-0,300000012	3,9658401	-0,00083289342425432474	-0,29984163217305837	0,00118912396	-0,086615827483921203	0,0032317529796437222	0,086615827483921203
1	0	0	1	0	0	1	64327,18	-0,300000012	3,96191025	-0,00083289015477067904	-0,29984045515894803	0,00118794094	-0,089947402015754547	0,0033560585047760218	0,089947402015754547
1	0	0	1	0	0	1	64367,18	-0,300000012	3,9574461	-0,0008328945514940553	-0,29984203797936058	0,00118660869	-0,093278959377079168	0,0034803633892535565	0,093278959377079168
1	0	0	1	0	0	1	64407,18	-0,300000012	3,95378327	-0,00083288457421130611	-0,29983844615757754	0,00118549622	-0,096610517253560128	0,0036046682929522656	0,096610517253560128
1	0	0	1	0	0	1	64447,18	-0,300000012	3,94935751	-0,00083289140976965427	-0,29984090695857837	0,00118417898	-0,099942088026691456	0,0037289736778423398	0,099942088026691456
1	0	0	1	0	0	1	64487,18	-0,300000012	3,9454658	-0,00083289343638221414	-0,2998416365390985	0,00118301495	-0,10327365596079725	0,0038532789568045542	0,10327365596079725
1	0	0	1	0	0	1	64527,18	-0,300000012	3,94250894	-0,00083288024707966387	-0,29983688839018925	0,00118210958	-0,10660520584258502	0,0039775835622105126	0,10660520584258502
1	0	0	1	0	0	1	64567,18	-0,300000012	3,9387126	-0,00083289022417366502	-0,29984048014402298	0,00118098548	-0,10993676795297595	0,0041018886238820947	0,10993676795297595
1	0	0	1	0	0	1	64607,18	-0,300000012	3,93463016	-0,00083289135833084582	-0,2998408884406073	0,001179763	-0,11326833906673952	0,0042261940214816166	0,11326833906673952
1	0	0	1	0	0	1	64647,18	-0,300000012	3,93096733	-0,00083288946232530803	-0,29984020587861498	0,00117866206	-0,11659989549801149	0,0043504988712576352	0,11659989549801149
1	0	0	1	0	0	1	64687,18	-0,300000012	3,92772436	-0,00083288557021651008	-0,29983880471945037	0,00117768417	-0,11993144128389059	0,0044748033238397331	0,11993144128389059
1	0	0	1	0	0	1	64727,18	-0,300000012	3,92425227	-0,00083290270208153459	-0,29984497219084768	0,00117666728	-0,12326302531098718	0,004599109203253072	0,12326302531098718
1	0	0	1	0	0	1	64767,18	-0,300000012	3,92081833	-0,00083289529450734451	-0,29984230546414426	0,00117562723	-0,12659461397891803	0,004723415255822176	0,12659461397891803
1	0	0	1	0	0	1	64807,18	-0,300000012	3,91780424	-0,00083289164821969152	-0,29984099280059155	0,00117471826	-0,1299262018008884	0,0048477212768273574	0,1299262018008884
1	0	0	1	0	0	1	64847,18	-0,300000012	3,91465664	-0,00083289521047969651	-0,29984227521419098	0,0011737796	-0,13325777409710546	0,004972026718545808	0,13325777409710546
1	0	0	1	0	0	1	64887,18	-0,300000012	3,91160417	-0,00083290210737122432	-0,29984475809513638	0,00117287401	-0,13658938757120629	0,0050963336966664666	0,13658938757120629
1	0	0	1	0	0	1	64927,18	-0,300000012	3,90925789	-0,00083289161021179622	-0,29984097911774925	0,00117215572	-0,1399209727240244	0,0052206396180819885	0,1399209727240244
1	0	0	1	0	0	1	64967,18	-0,300000012	3,90706396	-0,00083288375797371072	-0,29983815231204378	0,0011714868	-0,14325252242346664	0,0053449442166843891	0,14325252242346664
1	0	0	1	0	0	1	65007,18	-0,300000012	3,90446949	-0,00083289635909100378	-0,2998426887142608	0,00117072661	-0,14658407668488947	0,0054692489855004186	0,14658407668488947
1	0	0	1	0	0	1	65047,18	-0,300000012	3,90263796	-0,000832890373127328	-0,29984053376734157	0,0011701691	-0,14991564731064829	0,0055935543648918272	0,14991564731064829
1	0	0	1	0	0	1	65087,18	-0,300000012	3,89956665	-0,00083288699997630387	-0,29983931943297517	0,00116924336	-0,15324720253730208	0,0057178591697219226	0,15324720253730208
1	0	0	1	0	0	1	65127,18	-0,300000012	3,89769721	-0,00083289628680050381	-0,29984266268968083	0,00116869586	-0,1565787740818897	0,0058421645833960678	0,1565787740818897
1	0	0	1	0	0	1	65167,18	-0,300000012	3,89248919	-0,00083290444637503885	-0,2998456001365081	0,00116714579	-0,15991037521063181	0,0059664711008947942	0,15991037521063181
1	0	0	1	0	0	1	65207,18	-0,300000012	3,8899138	-0,0008328906476679776	-0,29984063260197523	0,00116635417	-0,16324197154616208	0,0060907774395523418	0,16324197154616208
1	0	0	1	0	0	1	65247,18	-0,300000012	3,88628912	-0,00083291382367246682	-0,29984897596357587	0,00116529979	-0,16657357462136173	0,0062150840296760166	0,16657357462136173
1	0	0	1	0	0	1	65287,18	-0,300000012	3,88268352	-0,00083290314429501696	-0,29984513138770106	0,00116420374	-0,16990519878757888	0,0063393914067339098	0,16990519878757888
1	0	0	1	0	0	1	65327,18	-0,300000012	3,88016534	-0,0008329055651989248	-0,29984600291310618	0,00116345205	-0,17323681531632336	0,0064636984988274317	0,17323681531632336
1	0	0	1	0	0	1	65367,18	-0,300000012	3,87825775	-0,00083291317952010368	-0,2998487440687255	0,00116289069	-0,17656844338892794	0,0065880060216378918	0,17656844338892794
1	0	0	1	0	0	1	65407,18	-0,300000012	3,87558699	-0,00083290658790204262	-0,29984637108622797	0,00116208068	-0,1799000819420407	0,0067123139354902054	0,1799000819420407
1	0	0	1	0	0	1	65447,18	-0,300000012	3,87167621	-0,00083290182510349491	-0,29984465647875398	0,00116090139	-0,18323168953225581	0,0068366206940751757	0,18323168953225581
1	0	0	1	0	0	1	65487,18	-0,300000012	3,86898637	-0,00083289507221678886	-0,29984222543954432	0,00116008543	-0,18656326102172733	0,0069609261056928666	0,18656326102172733
1	0	0	1	0	0	1	65527,18	-0,300000012	3,86850929	-0,00083289024252030592	-0,2998404867488137	0,00115993572	-0,18989482089596394	0,0070852310839305254	0,18989482089596394
1	0	0	1	0	0	1	65567,18	-0,300000012	3,86457944	-0,00083291988182730138	-0,29984523198572762	0,00115877576	-0,19322645866501398	0,0072095389685284045	0,19322645866501398
1	0	0	1	0	0	1	65607,18	-0,300000012	3,86250019	-0,00083290029174917274	-0,29983817975630554	0,001158125	-0,19655809529979261	0,0073338468108050918	0,19655809529979261
1	0	0	1	0	0	1	65647,18	-0,300000012	3,86162257	-0,00083290993687344922	-0,29984165092715187	0,00115787529	-0,19988969681411382	0,0074581533426902925	0,19988969681411382
1	0	0	1	0	0	1	65687,18	-0,300000012	3,85754013	-0,00083290306823617882	-0,29983917815490982	0,00115664164	-0,20322131536884506	0,0075824605103761011	0,20322131536884506
1	0	0	1	0	0	1	65727,18	-0,300000012	3,85633826	-0,00083290783766905459	-0,29984089601038669	0,00115628797	-0,20655293555593389	0,007706767738967369	0,20655293555593389
1	0	0	1	0	0	1	65767,19	-0,300000012	3,85362935	-0,00083291002389126362	-0,29984168325473306	0,00115547876	-0,20988459188608061	0,0078310763161047194	0,20988459188608061
1	0	0	1	0	0	1	65807,19	-0,300000012	3,85217953	-0,00083291093069811661	-0,29984200885054509	0,00115504523	-0,2132162351982848	0,0079553844075251328	0,2132162351982848
1	0	0	1	0	0	1	65847,19	-0,300000012	3,85120654	-0,00083290841567516326	-0,29984110319184102	0,00115475	-0,21654788050627107	0,0080796925734108582	0,21654788050627107
1	0	0	1	0	0	1	65887,19	-0,300000012	3,84971857	-0,00083290420386526323	-0,29983958770980026	0,00115429808	-0,2198795027075896	0,0082039998771557427	0,2198795027075896
1	0	0	1	0	0	1	65927,19	-0,300000012	3,84773469	-0,00083291346326304819	-0,29984292140410765	0,001153716	-0,2232111376390033	0,0083283076558775936	0,2232111376390033
1	0	0	1	0	0	1	65967,19	-0,300000012	3,84317517	-0,00083290838081141312	-0,29984109109098253	0,00115234184	-0,22654279379060099	0,0084526162263530419	0,22654279379060099
1	0	0	1	0	0	1	66007,19	-0,300000012	3,84077144	-0,00083291512050396864	-0,29984351688555795	0,00115163042	-0,22987444311460253	0,0085769245420816947	0,22987444311460253
1	0	0	1	0	0	1	66047,19	-0,300000012	3,83838701	-0,00083291616472436326	-0,29984389336992403	0,00115091691	-0,23320609447013238	0,0087012329336094029	0,23320609447013238
1	0	0	1	0	0	1	66087,19	-0,300000012	3,83611679	-0,0008329239647156663	-0,29984670185583315	0,00115024694	-0,23653779005925914	0,0088255429755520845	0,23653779005925914
1	0	0	1	0	0	1	66127,19	-0,300000012	3,83398008	-0,00083291930132607616	-0,29984502256611181	0,00114959979	-0,23986947977839968	0,0089498527984776858	0,23986947977839968
1	0	0	1	0	0	1	66167,19	-0,300000012	3,83119488	-0,00083292455319563546	-0,29984691258395027	0,00114877196	-0,24320117963925725	0,0090741629998043866	0,24320117963925725
1	0	0	1	0	0	1	66207,19	-0,300000012	3,82888651	-0,0008329257962206999	-0,29984736046904006	0,0011480815	-0,24653285968034691	0,0091984724616288998	0,24653285968034691
1	0	0	1	0	0	1	66247,20	-0,300000012	3,82524276	-0,00083292823513845606	-0,29984823917460326	0,00114699232	-0,24986457386890774	0,0093227831975414733	0,24986457386890774
1	0	0	1	0	0	1	66287,20	-0,300000012	3,82211423	-0,00083292615778247514	-0,29984749099173069	0,00114605133	-0,25319627511278848	0,0094470934504706266	0,25319627511278848
1	0	0	1	0	0	1	66327,20	-0,300000012	3,81990123	-0,00083293462491201024	-0,29985053833018118	0,00114539941	-0,25652797164535251	0,0095714035276142208	0,25652797164535251
1	0	0	1	0	0	1	66367,20	-0,300000012	3,81667733	-0,0008329212125274871	-0,29984571020803795	0,0011444143	-0,25985965838891654	0,0096957132395170637	0,25985965838891654
1	0	0	1	0	0	1	66407,20	-0,300000012	3,81394935	-0,00083292511236005363	-0,2998471150066295	0,00114360172	-0,26319134518123389	0,0098200229532389581	0,26319134518123389
1	0	0	1	0	0	1	66447,20	-0,300000012	3,81083989	-0,00083292185150749146	-0,29984594093441261	0,00114266493	-0,26652302477150221	0,0099443323982427187	0,26652302477150221
1	0	0	1	0	0	1	66487,20	-0,300000012	3,80702448	-0,00083291859208875238	-0,29984476663137843	0,00114151638	-0,26985468998411021	0,010068641306796643	0,26985468998411021
1	0	0	1	0	0	1	66527,20	-0,300000012	3,80332351	-0,00083291894135210253	-0,29984489243351104	0,00114040717	-0,27318637837548442	0,010192951080181501	0,27318637837548442
1	0	0	1	0	0	1	66567,20	-0,300000012	3,80032825	-0,0008329245736102263	-0,29984692105005248	0,00113951671	-0,27651808382554243	0,010317261490048784	0,27651808382554243
1	0	0	1	0	0	1	66607,20	-0,300000012	3,79784846	-0,0008329197005679209	-0,29984516677552717	0,00113876653	-0,27984976636918608	0,010441571045246949	0,27984976636918608
1	0	0	1	0	0	1	66647,20	-0,300000012	3,79430008	-0,00083291615748405453	-0,2998438901879561	0,00113769772	-0,28318142366131533	0,010565879658277162	0,28318142366131533
1	0	0	1	0	0	1	66687,20	-0,300000012	3,79140043	-0,00083291592500938304	-0,29984380649829216	0,00113682798	-0,28651309891314531	0,010690188941407957	0,28651309891314531
1	0	0	1	0	0	1	66727,20	-0,300000012	3,78865337	-0,00083292416056990618	-0,29984677235847565	0,00113601552	-0,28984476567247232	0,010814497907672046	0,28984476567247232
1	0	0	1	0	0	1	66767,21	-0,300000012	3,78445625	-0,00083290733742548365	-0,2998407161496544	0,00113473402	-0,2931764021210825	0,010938805743002538	0,2931764021210825
1	0	0	1	0	0	1	66807,21	-0,300000012	3,78157568	-0,00083291134030454694	-0,29984215604066355	0,0011338758	-0,29650804363826464	0,011063113767448266	0,29650804363826464
1	0	0	1	0	0	1	66847,21	-0,300000012	3,77846622	-0,00083291816045840589	-0,29984461124752493	0,00113295275	-0,29983970419309587	0,011187422502214275	0,29983970419309587
1	0	0	1	0	0	1	66887,21	-0,300000012	3,77329636	-0,00083291537384688845	-0,29984360920418886	0,00113139884	-0,30317135790319456	0,011311730981594112	0,30317135790319456
1	0	0	1	0	0	1	66927,21	-0,300000012	3,76875591	-0,0008329216107113495	-0,2998458544310256	0,00113004586	-0,30650301009918797	0,011436039404480645	0,30650301009918797
1	0	0	1	0	0	1	66967,21	-0,300000012	3,76507425	-0,00083293254331250982	-0,29984978896917242	0,00112895668	-0,30983470855768403	0,01156034955348335	0,30983470855768403
1	0	0	1	0	0	1	67007,21	-0,300000012	3,75944638	-0,00083292453357742899	-0,29984690552153555	0,00112725841	-0,31316640306762733	0,011684659555160248	0,31316640306762733
1	0	0	1	0	0	1	67047,21	-0,300000012	3,75494432	-0,0008329187650630871	-0,29984482991710451	0,00112590066	-0,3164980971912928	0,011808969542424597	0,3164980971912928
1	0	0	1	0	0	1	67087,21	-0,300000012	3,74971724	-0,00083292121453252096	-0,29984571180597517	0,00112433662	-0,31982978774426592	0,011933279396461614	0,31982978774426592
1	0	0	1	0	0	1	67127,21	-0,300000012	3,7450242	-0,00083291182327767219	-0,29984233005764602	0,00112291682	-0,3231614579724839	0,012057588492154691	0,3231614579724839
1	0	0	1	0	0	1	67167,21	-0,300000012	3,73996878	-0,00083291803270247245	-0,29984456525629792	0,00112140935	-0,32649311204776378	0,012181896985159928	0,32649311204776378
1	0	0	1	0	0	1	67207,21	-0,300000012	3,73506618	-0,00083291503768993754	-0,29984348792479469	0,0011199353	-0,32982476002736102	0,01230620525072705	0,32982476002736102
1	0	0	1	0	0	1	67247,22	-0,300000012	3,72962928	-0,00083291393328872	-0,2998430906065152	0,00111830363	-0,33315641920664781	0,012430513934169648	0,33315641920664781
1	0	0	1	0	0	1	67287,22	-0,300000012	3,72400141	-0,00083294402234918541	-0,29985392165136941	0,00111665647	-0,33648814472419066	0,012554825092781773	0,33648814472419066
1	0	0	1	0	0	1	67327,22	-0,300000012	3,71822119	-0,00083291841419868992	-0,29984470259222176	0,00111488893	-0,33981986363746931	0,012679136004979922	0,33981986363746931
1	0	0	1	0	0	1	67367,22	-0,300000012	3,7116015	-0,0008329372877428928	-0,29985149762848435	0,00111292931	-0,34315158943838426	0,012803447174165038	0,34315158943838426
1	0	0	1	0	0	1	67407,22	-0,300000012	3,70566845	-0,00083291529302464589	-0,29984358010526592	0,00111112092	-0,34648326641507002	0,012927756521652522	0,34648326641507002
1	0	0	1	0	0	1	67447,22	-0,300000012	3,69943047	-0,00083291623941063885	-0,29984392016962381	0,00110925175	-0,3498149418795328	0,013052065812716933	0,3498149418795328
1	0	0	1	0	0	1	67487,22	-0,300000012	3,69199038	-0,00083292155080702566	-0,29984583174715917	0,00110702787	-0,35314660607092794	0,01317637468316803	0,35314660607092794
1	0	0	1	0	0	1	67527,22	-0,300000012	3,68458843	-0,00083292568334109248	-0,29984731995884666	0,001104814	-0,3564783220306871	0,013300685485166397	0,3564783220306871
1	0	0	1	0	0	1	67567,22	-0,300000012	3,67888451	-0,00083292062344153728	-0,29984549902091661	0,00110309699	-0,35981002815853766	0,01342499592032303	0,35981002815853766
1	0	0	1	0	0	1	67607,22	-0,300000012	3,67091036	-0,00083293235644532582	-0,29984972235804698	0,00110072142	-0,36314173267923347	0,013549306295514563	0,36314173267923347
1	0	0	1	0	0	1	67647,22	-0,300000012	3,66224933	-0,00083292876136965222	-0,29984842750014426	0,00109811965	-0,36647344179959648	0,013673616842325859	0,36647344179959648
1	0	0	1	0	0	1	67687,22	-0,300000012	3,65284443	-0,0008329291507353385	-0,29984856803204614	0,00109530019	-0,36980516894202477	0,013797928061564643	0,36980516894202477
1	0	0	1	0	0	1	67727,22	-0,300000012	3,64380193	-0,00083292947591178957	-0,29984868584723078	0,00109258923	-0,37313690626698778	0,013922239660727491	0,37313690626698778
1	0	0	1	0	0	1	67767,23	-0,300000012	3,6344161	-0,00083292305969198541	-0,29984637574308282	0,00108976651	-0,37646860511764429	0,014046549824362232	0,37646860511764429
1	0	0	1	0	0	1	67807,23	-0,300000012	3,62548804	-0,00083292187341219853	-0,29984594788098067	0,00108708791	-0,37980028705639686	0,014170859356991096	0,37980028705639686
1	0	0	1	0	0	1	67847,23	-0,300000012	3,61402273	-0,00083291809449924365	-0,29984458769467782	0,00108364515	-0,38313198018734867	0,014295169307215966	0,38313198018734867
1	0	0	1	0	0	1	67887,23	-0,300000012	3,60402656	-0,00083291527210838259	-0,29984357258428634	0,0010806442	-0,38646366311755494	0,014419478876837306	0,38646366311755494
1	0	0	1	0	0	1	67927,23	-0,300000012	3,59305716	-0,00083293415937821069	-0,29985037171870746	0,00107737957	-0,3897953718602695	0,014543789409558032	0,3897953718602695
1	0	0	1	0	0	1	67967,23	-0,300000012	3,58050466	-0,0008329182205431991	-0,29984463287762298	0,00107359514	-0,39312706316892019	0,014668099291790394	0,39312706316892019
1	0	0	1	0	0	1	68007,23	-0,300000012	3,56715083	-0,00083292241094344192	-0,29984614141981894	0,00106959639	-0,39645873380969677	0,014792408402876586	0,39645873380969677
1	0	0	1	0	0	1	68047,23	-0,300000012	3,55560923	-0,00083291616743968589	-0,29984389489195027	0,00106612768	-0,39979041240001267	0,014916717810570778	0,39979041240001267
1	0	0	1	0	0	1	68087,23	-0,300000012	3,53906941	-0,00083292510943611469	-0,29984711394705107	0,00106117979	-0,40312210044006054	0,015041027570847174	0,40312210044006054
1	0	0	1	0	0	1	68127,23	-0,300000012	3,52014518	-0,00083291215301056704	-0,29984244860904813	0,00105548894	-0,40645377002606176	0,015165336642578282	0,40645377002606176
1	0	0	1	0	0	1	68167,23	-0,300000012	3,50148797	-0,00083292307903369267	-0,2998463818961401	0,00104990846	-0,40978546559916986	0,015289646683923283	0,40978546559916986
1	0	0	1	0	0	1	68207,23	-0,300000012	3,48088479	-0,00083291808110475533	-0,29984458379427085	0,00104372448	-0,41311714772087219	0,015413956223378256	0,41311714772087219
1	0	0	1	0	0	1	68247,23	-0,300000012	3,45879364	-0,00083291833828058509	-0,29984467637617632	0,00103710091	-0,41644882707405312	0,015538265659535965	0,41644882707405312
1	0	0	1	0	0	1	68287,24	-0,300000012	3,4336884	-0,0008329271437939671	-0,29984784518091661	0,00102958409	-0,41978053825239725	0,015662576283133306	0,41978053825239725
1	0	0	1	0	0	1	68327,24	-0,300000012	3,40587425	-0,00083291885257926246	-0,29984486040610861	0,00102123385	-0,42311220422296774	0,01578688521996783	0,42311220422296774
1	0	0	1	0	0	1	68367,24	-0,300000012	3,3741684	-0,00083291551259987878	-0,29984365915427827	0,00101172295	-0,42644385960085254	0,015911193761575008	0,42644385960085254
1	0	0	1	0	0	1	68407,24	-0,300000012	3,33853245	-0,00083291635318431578	-0,29984396175869568	0,00100103882	-0,42977555842453638	0,016035503924203363	0,42977555842453638
1	0	0	1	0	0	1	68447,24	-0,300000012	3,29778409	-0,00083291886290080013	-0,29984486414971347	0,000988823595	-0,43310724037545318	0,016159813457286093	0,43310724037545318
1	0	0	1	0	0	1	68487,24	-0,300000012	3,25205684	-0,00083292073147992282	-0,29984553679697728	0,000975114701	-0,43643892714628314	0,016284123170206262	0,43643892714628314
1	0	0	1	0	0	1	68527,24	-0,300000012	3,20062518	-0,00083291949484745664	-0,29984509259196237	0,000959691766	-0,43977059281708365	0,016408432095855965	0,43977059281708365
1	0	0	1	0	0	1	68567,24	-0,300000012	3,14175367	-0,00083291043288177907	-0,29984183048840909	0,000942029175	-0,44310225637876058	0,016532740942811434	0,44310225637876058
1	0	0	1	0	0	1	68607,24	-0,300000012	3,07437396	-0,00083290601373215514	-0,2998402387044823	0,000921821047	-0,44643389706680237	0,016657048936320819	0,44643389706680237
1	0	0	1	0	0	1	68647,24	-0,300000012	2,99726486	-0,00083292108597026931	-0,29984566440748909	0,000898716855	-0,44976558208887501	0,016781358583992502	0,44976558208887501
1	0	0	1	0	0	1	68687,24	-0,300000012	2,90943456	-0,00083290958025885952	-0,29984152324305555	0,000872369274	-0,45309722543194944	0,016905666676564723	0,45309722543194944
1	0	0	1	0	0	1	68727,24	-0,300000012	2,80710578	-0,00083290884131524301	-0,2998412575357785	0,000841686153	-0,45642887554912326	0,017029975021887706	0,45642887554912326
1	0	0	1	0	0	1	68767,25	-0,300000012	2,68758869	-0,00083291162592338189	-0,29984225921046733	0,000805852644	-0,4597605187628473	0,01715428310963369	0,4597605187628473
1	0	0	1	0	0	1	68807,25	-0,300000012	2,55246663	-0,00083290013152360922	-0,29983812095928058	0,000765326782	-0,46309214439952256	0,017278590541556355	0,46309214439952256
1	0	0	1	0	0	1	68847,25	-0,300000012	2,40549779	-0,00083291091807848883	-0,29984200469851066	0,000721269287	-0,46642376134437696	0,017402897649175494	0,46642376134437696
1	0	0	1	0	0	1	68887,25	-0,300000012	2,25688839	-0,00083291786657273766	-0,29984450656776122	0,000676715572	-0,46975540479970848	0,017527205745936182	0,46975540479970848
1	0	0	1	0	0	1	68927,25	-0,300000012	2,10616136	-0,00083291496126850445	-0,29984346008899962	0,00063151872	-0,47308704451562509	0,017651513703174269	0,47308704451562509
1	1	0	0	1	0	2	68955,19	0,300000012	2,02995062	1,6144295533498131E-008	0,096865773298719846	0,00019663274	-0,47541405627794611	0,017738337640727056	1,6144295533498131E-008
1	1	0	0	0	0	2	68995,19	0,300000012	3,50153089	0,00083386378792756134	0,30018503153143149	0,00105110719	-0,47207862050028525	0,017613888047321434	0,003335451921956407
1	1	0	0	0	0	2	69035,19	0,300000012	3,89829326	0,00083386441536744435	0,30018525704713466	0,00117021019	-0,46874317420763654	0,017489438061587472	0,00667089821460512
1	1	0	0	0	0	2	69075,19	0,300000012	3,91300154	0,00083385487207439219	0,30018182076423405	0,00117461197	-0,46540774019332941	0,017364988533974944	0,010006332228912248
1	1	0	0	0	0	2	69115,19	0,300000012	3,92065144	0,00083386409878234061	0,30018514255107328	0,0011769213	-0,46207230364502522	0,017240538911815581	0,013341768777216474
1	1	0	0	0	0	2	69155,19	0,300000012	3,92622185	0,00083385948480334554	0,30018348243208454	0,00117858697	-0,45873687031128397	0,017116089409595882	0,01667720211095777
1	1	0	0	0	0	2	69195,19	0,300000012	3,93041897	0,00083386315337485747	0,30018480292399245	0,00117985206	-0,45540141013524486	0,016991638905853962	0,020012662286996845
1	1	0	0	0	0	2	69235,19	0,300000012	3,934654	0,00083383696386218074	0,30017537393526144	0,00118108629	-0,45206603242501843	0,016867191479022387	0,023348039997223354
1	1	0	0	0	0	2	69275,19	0,300000012	3,93806887	0,00083384941711193997	0,30017985708296051	0,00118212891	-0,4487306574260201	0,016742744153350378	0,026683414996221667
1	1	0	0	0	0	2	69315,19	0,300000012	3,94154072	0,00083385499628219341	0,30018186659290675	0,00118317909	-0,445395244313032	0,016618295405594166	0,030018828109209741
1	1	0	0	0	0	2	69355,20	0,300000012	3,94486022	0,00083386391272644211	0,30018507643586298	0,00118418818	-0,44205980542833165	0,01649384569626072	0,03335426699391008
1	1	0	0	0	0	2	69395,20	0,300000012	3,94611931	0,0008338544719384777	0,30018167671465747	0,00118455268	-0,43872437028141043	0,016369396126388838	0,03668970214083129
1	1	0	0	0	0	2	69435,20	0,300000012	3,94810319	0,00083385394873056154	0,30018148836702496	0,00118514744	-0,43538894429549133	0,016244946898326269	0,040025128126750394
1	1	0	0	0	0	2	69475,20	0,300000012	3,9502399	0,00083385222254031232	0,30018086806905651	0,00118578644	-0,43205352588345005	0,016120497952855254	0,043360546538791731
1	1	0	0	0	0	2	69515,20	0,300000012	3,95245266	0,00083386449363496576	0,30018528557583488	0,00118646817	-0,4287180920931239	0,01599604843359976	0,04669598032911785
1	1	0	0	0	0	2	69555,20	0,300000012	3,95470381	0,00083384780424005466	0,30017927639416275	0,0011871201	-0,42538270873881274	0,015871600796179795	0,050031363683429037
1	1	0	0	0	0	2	69595,20	0,300000012	3,95638251	0,00083385498556660275	0,3001818616206224	0,00118763431	-0,42204732956874765	0,015747153314879677	0,053366742853494157
1	1	0	0	0	0	2	69635,20	0,300000012	3,95779443	0,00083385748240186112	0,30018276157830074	0,00118806167	-0,41871188707995808	0,015622703471072819	0,056702185342283718
1	1	0	0	0	0	2	69675,20	0,300000012	3,95975924	0,00083386663540204378	0,30018605659325184	0,00118866446	-0,41537642963451379	0,015498253069213062	0,060037642787728038
1	1	0	0	0	0	2	69715,20	0,300000012	3,96252537	0,00083385144508712819	0,3001805870697088	0,0011894732	-0,41204100701185306	0,015373803966638176	0,063373065410388838
1	1	0	0	0	0	2	69755,20	0,300000012	3,96466208	0,00083385383164882662	0,30018144621493894	0,00119011803	-0,40870558524157178	0,01524935489586672	0,066708487180670106
1	1	0	0	0	0	2	69795,20	0,300000012	3,96599746	0,00083385118568274714	0,30018049469239098	0,00119051512	-0,40537018428977075	0,015124906601860746	0,070043888132471181
1	1	0	0	0	0	2	69835,21	0,300000012	3,96737099	0,00083384646823008858	0,30017879655481779	0,00119092059	-0,40203478075580538	0,015000458211510752	0,073379291666436531
1	1	0	0	0	0	2	69875,21	0,300000012	3,96899247	0,00083385613457692992	0,30018227540992301	0,00119142118	-0,39869939348150534	0,014876010427830733	0,076714678940736589
1	1	0	0	0	0	2	69915,21	0,300000012	3,97078562	0,00083385788280930778	0,30018290460738125	0,00119196193	-0,39536395295933626	0,014751560657401126	0,080050119462905664
1	1	0	0	0	0	2	69955,21	0,300000012	3,97246456	0,00083385672206017702	0,30018248759861498	0,00119246426	-0,39202850128730381	0,01462711047095513	0,08338557113493815
1	1	0	0	0	0	2	69995,21	0,300000012	3,97420049	0,00083384721575180685	0,30017906566081299	0,00119297183	-0,38869308786441299	0,014502661711636029	0,086720984557828992
1	1	0	0	0	0	2	70035,21	0,300000012	3,97610831	0,00083386050398316659	0,30018384854330016	0,00119356345	-0,38535768102029043	0,014378213197779619	0,090056391401951526
1	1	0	0	0	0	2	70075,21	0,300000012	3,97790146	0,00083386052705016397	0,30018385651178016	0,00119410176	-0,38202222693909619	0,014253762921444557	0,093391845483145792
1	1	0	0	0	0	2	70115,21	0,300000012	3,98057222	0,00083385853496856154	0,30018314006194099	0,00119490072	-0,37868679346696288	0,014129313414061264	0,09672727895527913
1	1	0	0	0	0	2	70155,21	0,300000012	3,98364353	0,0008338531579424937	0,3001812048036928	0,00119581493	-0,37535134043092941	0,014004863176722552	0,10006273199131258
1	1	0	0	0	0	2	70195,21	0,300000012	3,98482633	0,00083385742926763162	0,30018274182134291	0,00119617605	-0,37201591774973523	0,013880414071963709	0,10339815467250678
1	1	0	0	0	0	2	70235,21	0,300000012	3,98492169	0,00083385773502952525	0,30018285140771098	0,00119620515	-0,36868047677041184	0,013755964284477059	0,10673359565183024
1	1	0	0	0	0	2	70275,21	0,300000012	3,98642874	0,00083386303604311411	0,3001847602590656	0,00119666511	-0,36534502033326291	0,013631513920238157	0,11006905208897923
1	1	0	0	0	0	2	70315,21	0,300000012	3,9881649	0,00083385334699518157	0,30018127286480998	0,00119717245	-0,3620095862389945	0,013507064389642166	0,11340448618324765
1	1	0	0	0	0	2	70355,22	0,300000012	3,98936677	0,00083386091693076813	0,30018399752649024	0,00119754404	-0,35867414679945101	0,013382614659606779	0,11673992562279104
1	1	0	0	0	0	2	70395,22	0,300000012	3,99100733	0,00083386611716449254	0,30018586891665728	0,00119804405	-0,35533868874310208	0,013258164234953347	0,12007538367913994
1	1	0	0	0	0	2	70435,22	0,300000012	3,99280047	0,00083386116390758093	0,30018408612537216	0,00119857513	-0,35200323258397562	0,013133713881087838	0,12341083983826637
1	1	0	0	0	0	2	70475,22	0,300000012	3,99444103	0,00083384774127271424	0,30017925484809555	0,00119904836	-0,34866781588104282	0,013009264999385963	0,12674625654119914
1	1	0	0	0	0	2	70515,22	0,300000012	3,99585295	0,00083385628052221414	0,30018232860309766	0,00119948445	-0,34533242217867821	0,012884816975866211	0,13008165024356378
1	1	0	0	0	0	2	70555,22	0,300000012	3,99768424	0,00083385680710275968	0,30018251735805709	0,00120003487	-0,3419969915678112	0,012760367575240611	0,1334170808544308
1	1	0	0	0	0	2	70595,22	0,300000012	3,99930573	0,00083385818161732608	0,30018301236834035	0,00120052369	-0,3386615494616089	0,012635917745708598	0,13675252296063304
1	1	0	0	0	0	2	70635,22	0,300000012	4,0009656	0,00083384894184768192	0,30017968704304851	0,00120100856	-0,33532614755574438	0,012511469416105237	0,14008792486649752
1	1	0	0	0	0	2	70675,22	0,300000012	4,00254917	0,000833855148807168	0,30018192137151565	0,00120149285	-0,33199071912900019	0,012387020096972194	0,14342335329324171
1	1	0	0	0	0	2	70715,22	0,300000012	4,00399876	0,0008338665097074377	0,30018601022932442	0,00120194443	-0,32865528525353542	0,012262570574540062	0,14675878716870643
1	1	0	0	0	0	2	70755,22	0,300000012	4,00552511	0,00083387555763622131	0,30018926744726394	0,00120241567	-0,32531980032378509	0,012138119147203894	0,1500942720984568
1	1	0	0	0	0	2	70795,22	0,300000012	4,00771904	0,00083386066778169728	0,30018390829587546	0,00120305282	-0,32198434130502816	0,012013668686641725	0,15342973111721379
1	1	0	0	0	0	2	70835,22	0,300000012	4,00943565	0,00083386053012808166	0,30018385873805856	0,00120356784	-0,318648871944968	0,011889217840231629	0,15676520047727392
1	1	0	0	0	0	2	70875,23	0,300000012	4,01164865	0,00083386480120652262	0,30018539517765709	0,00120423839	-0,3153134104770231	0,011764767288286968	0,16010066194521882
1	1	0	0	0	0	2	70915,23	0,300000012	4,01382351	0,00083385733650624742	0,30018270793910893	0,00120488042	-0,31197797669513107	0,01164031776934616	0,16343609572711091
1	1	0	0	0	0	2	70955,23	0,300000012	4,01550245	0,00083386079219480358	0,30018395308021408	0,00120538939	-0,30864254316021741	0,01151586825962045	0,16677152926202448
1	1	0	0	0	0	2	70995,23	0,300000012	4,01687574	0,0008338571904069847	0,30018265646222253	0,00120579638	-0,30530710662889062	0,011391418638094534	0,17010696579335133
1	1	0	0	0	0	2	71035,23	0,300000012	4,01826859	0,00083385751767953242	0,3001827731632601	0,00120621501	-0,30197168477417434	0,011266969564172691	0,17344238764806755
1	1	0	0	0	0	2	71075,23	0,300000012	4,02025223	0,00083385654406249523	0,3001824226680544	0,00120680907	-0,29863625978583501	0,011142520373331158	0,17677781263640691
1	1	0	0	0	0	2	71115,23	0,300000012	4,02235079	0,00083385551338228915	0,300182052741768	0,00120743748	-0,29530084744375187	0,011018071654338448	0,18011322497849002
1	1	0	0	0	0	2	71155,23	0,300000012	4,02364826	0,00083385433686607411	0,30018162921128941	0,00120782526	-0,29196542934368794	0,010893622720507734	0,18344864307855405
1	1	0	0	0	0	2	71195,23	0,300000012	4,0246973	0,00083386073642638003	0,30018393193115706	0,00120814948	-0,2886299899021577	0,010769172990398216	0,18678408252008426
1	1	0	0	0	0	2	71235,23	0,300000012	4,02601385	0,0008338557975027296	0,30018215390835629	0,00120853749	-0,2852945529158273	0,010644723351895502	0,19011951950641475
1	1	0	0	0	0	2	71275,23	0,300000012	4,02788305	0,00083385496599641114	0,30018185553648218	0,00120909745	-0,28195911336779843	0,010520273617812379	0,19345495905444358
1	1	0	0	0	0	2	71315,23	0,300000012	4,02906609	0,00083385281361639501	0,30018108084918368	0,00120944937	-0,27862370381065622	0,010395825002729558	0,19679036861158576
1	1	0	0	0	0	2	71355,24	0,300000012	4,03219461	0,00083385890765984858	0,3001832737384825	0,00121039734	-0,27528828179873776	0,010271375922942291	0,20012579062350429
1	1	0	0	0	0	2	71395,24	0,300000012	4,0336442	0,00083385605929460787	0,30018224815156966	0,00121082843	-0,27195283966442035	0,010146926092361264	0,2034612327578217
1	1	0	0	0	0	2	71435,24	0,300000012	4,03534222	0,00083387990286946291	0,3001908324831063	0,00121137279	-0,26861735351014547	0,010022474619336438	0,20679671891209651
1	1	0	0	0	0	2	71475,24	0,300000012	4,03736448	0,00083387058340178586	0,30018747784856736	0,00121196627	-0,26528185397418746	0,0098980226470230208	0,21013221844805446
1	1	0	0	0	0	2	71515,24	0,300000012	4,03885221	0,00083387841007941299	0,30019029465597754	0,00121242425	-0,2619463525278592	0,0097735706034311232	0,21346771989438272
1	1	0	0	0	0	2	71555,24	0,300000012	4,04056931	0,00083387228796713894	0,3001880903617024	0,00121293077	-0,2586108367130432	0,0096491180237316275	0,21680323570919866
1	1	0	0	0	0	2	71595,24	0,300000012	4,04209566	0,00083387618363234726	0,30018949341646419	0,00121339469	-0,25527533913991085	0,0095246661246538765	0,22013873328233094
1	1	0	0	0	0	2	71635,24	0,300000012	4,04329729	0,00083387602660225498	0,30018943735851859	0,00121375511	-0,25193983479216758	0,0094002139728062848	0,22347423763007418
1	1	0	0	0	0	2	71675,24	0,300000012	4,04505253	0,00083389117731816243	0,30019489092135987	0,00121430412	-0,24860428878696659	0,0092757602666629338	0,22680978363527517
1	1	0	0	0	0	2	71715,24	0,300000012	4,04717016	0,0008338801653054025	0,30019092614436941	0,0012149238	-0,24526876916260752	0,009151307544824265	0,23014530325963424
1	1	0	0	0	0	2	71755,24	0,300000012	4,0488677	0,00083387056119574451	0,3001874692220327	0,00121541938	-0,24193327210393283	0,0090268556649416218	0,23348080031830893
1	1	0	0	0	0	2	71795,24	0,300000012	4,05052757	0,0008338771938565705	0,30018985756176826	0,0012159273	-0,23859777439902954	0,008902403760947319	0,23681629802321222
1	1	0	0	0	0	2	71835,24	0,300000012	4,0537324	0,00083385983016093568	0,30018360633901677	0,00121686398	-0,23526231004831427	0,0087779531014426176	0,24015176237392749
1	1	0	0	0	0	2	71875,25	0,300000012	4,05399942	0,00083386392527321984	0,3001850798513952	0,00121695013	-0,23192685243695382	0,0086535026933923046	0,24348721998528794
1	1	0	0	0	0	2	71915,25	0,300000012	4,05554485	0,00083387962142792013	0,30019073066292915	0,00121743698	-0,22859135577176582	0,008529050828191177	0,24682271665047594
1	1	0	0	0	0	2	71955,25	0,300000012	4,05754805	0,00083387390486233766	0,30018867355772621	0,00121803	-0,22525587925439978	0,0084045997147323776	0,25015819316784198
1	1	0	0	0	0	2	71995,25	0,300000012	4,05926466	0,0008338694373286432	0,30018706500480205	0,00121853873	-0,22192039074081747	0,0082801481536786189	0,25349368168142429
1	1	0	0	0	0	2	72035,25	0,300000012	4,06149673	0,0008338701162636279	0,30018730856039642	0,00121920975	-0,21858489307054285	0,0081556962509763584	0,25682917935169891
1	1	0	0	0	0	2	72075,25	0,300000012	4,06376696	0,00083386996350685747	0,3001872537228071	0,00121989101	-0,21524941860069238	0,0080312452139131174	0,26016465382154934
1	1	0	0	0	0	2	72115,25	0,300000012	4,0666666	0,00083386919655402496	0,3001869785897449	0,0012207604	-0,21191394108899501	0,0079067940633544781	0,26350013133324672
1	1	0	0	0	0	2	72155,25	0,300000012	4,06943274	0,0008338754295061033	0,30018922231554496	0,00122159987	-0,2085784553849985	0,0077823426071301427	0,26683561703724323
1	1	0	0	0	0	2	72195,25	0,300000012	4,07103539	0,00083386958350075622	0,30018711676955334	0,0012220724	-0,20524296331482691	0,0076578909133752576	0,27017110910741475
1	1	0	0	0	0	2	72235,25	0,300000012	4,07254219	0,00083387070932984358	0,30018752206350867	0,00122252631	-0,20190749719547792	0,0075334401878804531	0,27350657522676374
1	1	0	0	0	0	2	72275,25	0,300000012	4,0755372	0,00083386774786975642	0,30018645707720883	0,00122342107	-0,19857201563853258	0,0074089888863881728	0,27684205678370909
1	1	0	0	0	0	2	72315,25	0,300000012	4,07801723	0,00083388071010178995	0,30019112338852723	0,00122418453	-0,19523650799230304	0,0072845366114696218	0,28017756442993862
1	1	0	0	0	0	2	72355,25	0,300000012	4,07921934	0,00083387550572719834	0,30018924873242829	0,00122453785	-0,19190098840729962	0,0071600838910993651	0,28351308401494214
1	1	0	0	0	0	2	72395,26	0,300000012	4,08089781	0,00083385475739174413	0,30018177947929683	0,00122501119	-0,18856556516313786	0,0070356347653354432	0,28684850725910387
1	1	0	0	0	0	2	72435,26	0,300000012	4,08257675	0,0008338622146844864	0,30018446516638022	0,0012255261	-0,18523012305189408	0,0069111849356153242	0,29018394937034771
1	1	0	0	0	0	2	72475,26	0,300000012	4,08442736	0,00083387315748300813	0,3001884044960007	0,00122609769	-0,18189465806050998	0,0067867342522064064	0,29351941436173178
1	1	0	0	0	0	2	72515,26	0,300000012	4,08622026	0,0008338666180570921	0,30018604923093453	0,00122662634	-0,17855919950269398	0,0066622838088425651	0,29685487291954778
1	1	0	0	0	0	2	72555,26	0,300000012	4,08812809	0,00083386501472857254	0,3001854720458231	0,00122719666	-0,17522374136144323	0,0065378333810213325	0,30019033106079853
1	1	0	0	0	0	2	72595,26	0,300000012	4,09009314	0,00083384882610539584	0,30017964534519859	0,00122776267	-0,17188831166884371	0,0064133840146575283	0,30352576075339802
1	1	0	0	0	0	2	72635,26	0,300000012	4,0924015	0,0008338514976882272	0,30018060712746246	0,00122845953	-0,16855292077402013	0,0062889360958909069	0,30686115164822157
1	1	0	0	0	0	2	72675,26	0,300000012	4,09512949	0,00083386248421503437	0,30018456116457101	0,00122929469	-0,16521747053649427	0,0061644859629682778	0,31019660188574739
1	1	0	0	0	0	2	72715,26	0,300000012	4,09703732	0,00083385884676542554	0,30018325162472467	0,00122986198	-0,16188201949785552	0,006040035800155049	0,31353205292438605
1	1	0	0	0	0	2	72755,26	0,300000012	4,09869671	0,00083387508323457498	0,30018909756066234	0,00123038411	-0,15854653999626704	0,0059155845753508979	0,31686753242597453
1	1	0	0	0	0	2	72795,26	0,300000012	4,10016584	0,00083386677044795622	0,30018610520881958	0,00123081286	-0,15521107286599843	0,0057911338121373235	0,32020299955624314
1	1	0	0	0	0	2	72835,26	0,300000012	4,10268402	0,00083387457260323891	0,3001889130485799	0,00123158027	-0,15187558947369856	0,005666682442165497	0,32353848294854304
1	1	0	0	0	0	2	72875,27	0,300000012	4,10529757	0,00083386390130884122	0,30018507122089485	0,00123234908	-0,14854010029221478	0,0055422308561914374	0,32687397213002682
1	1	0	0	0	0	2	72915,27	0,300000012	4,10810184	0,00083387139777508045	0,30018777066464454	0,00123320194	-0,14520462084979718	0,0054177796335950298	0,33020945157244442
1	1	0	0	0	0	2	72955,27	0,300000012	4,11025763	0,00083385866455733773	0,30018318714586246	0,00123383023	-0,14186914225747587	0,0052933284427168589	0,33354493016476563
1	1	0	0	0	0	2	72995,27	0,300000012	4,1127758	0,00083387878159681958	0,30019042844153581	0,00123461592	-0,13853367725545898	0,0051688777589112173	0,33688039516678246
1	1	0	0	0	0	2	73035,27	0,300000012	4,11521769	0,00083388316624528832	0,30019200646443334	0,00123535551	-0,13519815371312269	0,005044424890887552	0,34021591870911878
1	1	0	0	0	0	2	73075,27	0,300000012	4,11702967	0,00083388186118668979	0,3001915372536985	0,00123589742	-0,13186263229567544	0,004919972102146352	0,34355144012656608
1	1	0	0	0	0	2	73115,27	0,300000012	4,1191473	0,00083388943161732621	0,3001942630720752	0,00123654434	-0,12852708642421898	0,0047955184009931904	0,34688698599802253
1	1	0	0	0	0	2	73155,27	0,300000012	4,12151289	0,00083388092923661069	0,30019120173034355	0,0012372419	-0,12519156698895398	0,0046710656862098765	0,35022250543328755
1	1	0	0	0	0	2	73195,27	0,300000012	4,12380219	0,00083388058911429504	0,30019107871211834	0,00123792863	-0,12185606459681429	0,0045466136073284813	0,35355800782542726
1	1	0	0	0	0	2	73235,27	0,300000012	4,12626314	0,00083386864190631437	0,30018677824955846	0,00123864959	-0,11852058081514376	0,004422162222828713	0,35689349160709779
1	1	0	0	0	0	2	73275,27	0,300000012	4,12866688	0,00083387226487696166	0,30018808316417402	0,00123937661	-0,11518510428483522	0,0042977111088870106	0,36022896813740634
1	1	0	0	0	0	2	73315,27	0,300000012	4,13133764	0,00083386463644769446	0,30018533660736915	0,00124016695	-0,11184963920407563	0,0041732604221433747	0,36356443321816595
1	1	0	0	0	0	2	73355,27	0,300000012	4,13385582	0,0008338654705385367	0,30018563613241958	0,00124092412	-0,10851418628493846	0,0040488101891662214	0,36689988613730304
1	1	0	0	0	0	2	73395,28	0,300000012	4,13604927	0,0008338609324809577	0,30018400272956563	0,00124157581	-0,10517873893292317	0,0039243601639058701	0,37023533348931834
1	1	0	0	0	0	2	73435,28	0,300000012	4,13870096	0,00083386588898466701	0,3001857878918007	0,00124237919	-0,10184328755025138	0,0037999099882563066	0,37357078487199014
1	1	0	0	0	0	2	73475,28	0,300000012	4,13868189	0,00083386311285694438	0,30018478828191942	0,0012423693	-0,098507848750166438	0,003675460282079975	0,37690622367207507
1	1	0	0	0	0	2	73515,28	0,300000012	4,14039898	0,00083386414387325453	0,30018515854585229	0,0012428863	-0,095172396195639181	0,0035510100627069082	0,3802416762266023
1	1	0	0	0	0	2	73555,28	0,300000012	4,14297438	0,00083386399026215078	0,30018510335877344	0,00124365918	-0,091836954054545024	0,0034265602318730304	0,38357711836769645
1	1	0	0	0	0	2	73595,28	0,300000012	4,14558792	0,00083386684699190989	0,3001861327640983	0,00124444801	-0,08850148682422999	0,0033021094649265907	0,38691258559801158
1	1	0	0	0	0	2	73635,28	0,300000012	4,14843035	0,00083386192691822848	0,30018436152015654	0,00124529388	-0,085166027938255642	0,0031776590093187194	0,39024804448398598
1	1	0	0	0	0	2	73675,28	0,300000012	4,15178776	0,00083385571360422502	0,30018212370592845	0,00124629249	-0,081830582705390758	0,0030532090631267194	0,39358348971685088
1	1	0	0	0	0	2	73715,28	0,300000012	4,15520287	0,00083385145810246464	0,30018059175513734	0,00124731124	-0,078495193147272499	0,0029287611942343718	0,39691887927496902
1	1	0	0	0	0	2	73755,28	0,300000012	4,15817881	0,0008338522519038784	0,30018087863623686	0,00124820578	-0,075159796673808474	0,0028043130673211754	0,40025427574843309
1	1	0	0	0	0	2	73795,28	0,300000012	4,16094494	0,00083385195173488717	0,30018077058103002	0,0012490357	-0,071824391272464358	0,0026798646072967693	0,40358968114977715
1	1	0	0	0	0	2	73835,28	0,300000012	4,16317701	0,00083386429129872051	0,30018521161797107	0,00124972418	-0,068488952232682675	0,0025554148921770304	0,40692512018955885
1	1	0	0	0	0	2	73875,29	0,300000012	4,16594315	0,00083385433299177229	0,30018162669832666	0,00125053956	-0,065153539247866112	0,0024309661492030714	0,41026053317437542
1	1	0	0	0	0	2	73915,29	0,300000012	4,16899538	0,00083384158891439437	0,30017704003937389	0,00125143665	-0,061818151522102272	0,0023065183486783306	0,41359592090013933
1	1	0	0	0	0	2	73955,29	0,300000012	4,17160892	0,00083384440082808333	0,30017805230829792	0,00125222548	-0,058482787515943885	0,0021820714331639606	0,41693128490629766
1	1	0	0	0	0	2	73995,29	0,300000012	4,17443228	0,00083385359771384141	0,30018136200000883	0,00125308672	-0,055147386926739398	0,0020576231526869546	0,42026668549550214
1	1	0	0	0	0	2	74035,29	0,300000012	4,17782784	0,00083385252154535706	0,30018097458701184	0,00125410443	-0,051811970827063571	0,0019331742934934083	0,42360210159517798
1	1	0	0	0	0	2	74075,29	0,300000012	4,18097591	0,00083385483277671859	0,30018180766264563	0,00125505286	-0,048476546425078291	0,0018087251245295338	0,4269375259971632
1	1	0	0	0	0	2	74115,29	0,300000012	4,18450499	0,00083385210609436032	0,30018082614584768	0,00125610817	-0,045141148767245126	0,0016842769534259325	0,43027292365499642
1	1	0	0	0	0	2	74155,29	0,300000012	4,18717575	0,00083385947126150131	0,3001834765611769	0,00125692098	-0,041805717929160243	0,0015598275443225286	0,43360835449308134
1	1	0	0	0	0	2	74195,29	0,300000012	4,19049501	0,00083384889846543475	0,30017967030751379	0,00125790143	-0,038470308742613235	0,0014353789430671134	0,43694376367962835
1	1	0	0	0	0	2	74235,29	0,300000012	4,19429159	0,00083387805953456294	0,30019016896554861	0,00125908514	-0,035134814335979334	0,0013109271621356766	0,44027925808626221
1	1	0	0	0	0	2	74275,29	0,300000012	4,19815922	0,00083387167914708467	0,30018787230907974	0,00126023649	-0,031799319944827738	0,0011864753817819056	0,44361475247741376
1	1	0	0	0	0	2	74296,39	0,300000012	4,19991446	9,1324806044499085E-005	0,30019117900192179	0,00126077724	-0,030040254596734029	0,001120842288556015	0,44537381782550752