File: Experimentelles/Rohdaten/Batteriemessungen/AlteZelle/Studenten_Batterietests/LiCoO2 vs Li 300µm GCPL/ZView-Export/LiCoO2 vs Li 300µm GCPL_02_GCPL_C04_loop8.txt
EC-Lab ASCII FILE
Nb header lines : 3
mode	ox/red	error	control changes	Ns changes	counter inc.	Ns	time/s	control/V/mA	Ewe/V	dq/mA.h	<I>/mA	P/W	(Q-Qo)/mA.h	x	Capacity/mA.h
1	0	0	1	1	0	1	92115,51	-0,300000012	4,17789936	0	0	0	0	0	0
1	0	0	1	0	0	1	92145,51	-0,300000012	4,05355597	-0,00083289706378181773	-0,29983701770753114	0,00121540611	-0,0024945760318159171	9,3075985740198029E-005	0,0024945760318159171
1	0	0	1	0	0	1	92175,51	-0,300000012	4,03390694	-0,0008328968095580736	-0,29983692521494451	0,00120951422	-0,0049932702033886432	0,00018630562481162038	0,0049932702033886432
1	0	0	1	0	0	1	92205,51	-0,300000012	4,01755762	-0,00083289928858975578	-0,29983781806757152	0,00120461569	-0,007491963818431145	0,00027953524311815184	0,007491963818431145
1	0	0	1	0	0	1	92235,51	-0,300000012	4,0041275	-0,00083289223102397389	-0,2998352777710736	0,00120057864	-0,0099906442880732288	0,00037276437095211949	0,0099906442880732288
1	0	0	1	0	0	1	92265,51	-0,300000012	3,99174643	-0,00083291562764677734	-0,29984369945336051	0,00119690003	-0,012489382795378811	0,0004659956642493447	0,012489382795378811
1	0	0	1	0	0	1	92295,51	-0,300000012	3,98133039	-0,00083290797779460762	-0,29984094667798336	0,0011937659	-0,014988104150320339	0,00055922631756880544	0,014988104150320339
1	0	0	1	0	0	1	92325,51	-0,300000012	3,9729557	-0,00083290632840659891	-0,29984035179306381	0,00119125249	-0,017486825007218698	0,00065245695230560602	0,017486825007218698
1	0	0	1	0	0	1	92355,51	-0,300000012	3,9644475	-0,00083290287298129664	-0,29983910897801677	0,00118869636	-0,019985532661163392	0,00074568709442245376	0,019985532661163392
1	0	0	1	0	0	1	92385,51	-0,300000012	3,95702648	-0,00083290464799768397	-0,29983974685432058	0,00118647376	-0,022484246688280093	0,00083891747433091789	0,022484246688280093
1	0	0	1	0	0	1	92415,52	-0,300000012	3,95080733	-0,0008329021616478761	-0,29983885249814605	0,00118460553	-0,024982949142363587	0,00093214742243395302	0,024982949142363587
1	0	0	1	0	0	1	92445,52	-0,300000012	3,94523692	-0,00083290794510808256	-0,29984093457292096	0,00118294358	-0,027481663514485213	0,0010253778152150147	0,027481663514485213
1	0	0	1	0	0	1	92475,52	-0,300000012	3,9376061	-0,00083290165220366592	-0,29983866838979027	0,00118064659	-0,029980379441014848	0,0011186082659931291	0,029980379441014848
1	0	0	1	0	0	1	92505,52	-0,300000012	3,93260789	-0,00083290054150422413	-0,29983826966285683	0,00117914635	-0,032479092637145107	0,001211838614896372	0,032479092637145107
1	0	0	1	0	0	1	92535,52	-0,300000012	3,92520618	-0,00083290290335814157	-0,29983911879998963	0,00117693038	-0,034977796606708154	0,0013050686195439867	0,034977796606708154
1	0	0	1	0	0	1	92565,52	-0,300000012	3,91810942	-0,00083291481215920704	-0,29984340700061939	0,00117481931	-0,037476519039005293	0,0013982993130610339	0,037476519039005293
1	0	0	1	0	0	1	92595,52	-0,300000012	3,91269159	-0,00083292159958680474	-0,29984584930927782	0,00117320428	-0,03997528550566592	0,0014915316495593875	0,03997528550566592
1	0	0	1	0	0	1	92625,52	-0,300000012	3,90570951	-0,00083291234705514368	-0,29984251932937331	0,00117109774	-0,042474022780133869	0,001584762896857783	0,042474022780133869
1	0	0	1	0	0	1	92655,52	-0,300000012	3,89918518	-0,00083292219498091277	-0,29984606427522803	0,00116915535	-0,044972791454262451	0,0016779953157197344	0,044972791454262451
1	0	0	1	0	0	1	92685,52	-0,300000012	3,89239383	-0,00083291427179343181	-0,29984321142561485	0,00116710784	-0,047471540978077632	0,0017712270200577446	0,047471540978077632
1	0	0	1	0	0	1	92715,52	-0,300000012	3,88604116	-0,0008329119491693047	-0,29984237634462189	0,00116519979	-0,049970283568753389	0,001864458465711001	0,049970283568753389
1	0	0	1	0	0	1	92745,52	-0,300000012	3,87955499	-0,00083291640683511898	-0,2998439799521287	0,00116326124	-0,052469030497711814	0,0019576900732314173	0,052469030497711814
1	0	0	1	0	0	1	92775,52	-0,300000012	3,87337399	-0,00083291936593916685	-0,29984504632551859	0,00116141199	-0,054967784836367021	0,0020509219572175824	0,054967784836367021
1	0	0	1	0	0	1	92805,52	-0,300000012	3,86738396	-0,0008329140607482857	-0,29984313537756205	0,00115960848	-0,057466528778970496	0,0021441534533130797	0,057466528778970496
1	0	0	1	0	0	1	92835,52	-0,300000012	3,86164165	-0,00083290928808848064	-0,29984141827366675	0,00115788006	-0,059965262596786278	0,0022373845716391357	0,059965262596786278
1	0	0	1	0	0	1	92865,52	-0,300000012	3,85595679	-0,00083291615004671949	-0,29984388798484998	0,00115618506	-0,062464003063390912	0,0023306159380404426	0,062464003063390912
1	0	0	1	0	0	1	92895,52	-0,300000012	3,84987116	-0,00083290642045438285	-0,29984038513555245	0,00115434686	-0,064962729686071744	0,0024238467879063389	0,064962729686071744
1	0	0	1	0	0	1	92925,53	-0,300000012	3,84691429	-0,00083290619744857152	-0,29984030576258528	0,00115346001	-0,067461451556202688	0,0025170774604482099	0,067461451556202688
1	0	0	1	0	0	1	92955,53	-0,300000012	3,84109592	-0,00083292006394598221	-0,29984529648950835	0,0011517345	-0,069960203317241805	0,0026103092482600531	0,069960203317241805
1	0	0	1	0	0	1	92985,53	-0,300000012	3,83920717	-0,00083290746398601267	-0,29984076171054451	0,00115115079	-0,072458937208002074	0,0027035403693077658	0,072458937208002074
1	0	0	1	0	0	1	93015,53	-0,300000012	3,83443785	-0,00083291460894379354	-0,29984333272753485	0,00114973064	-0,074957685288073549	0,0027967720197777571	0,074957685288073549
1	0	0	1	0	0	1	93045,53	-0,300000012	3,82375479	-0,00083290347190697997	-0,29983932459049248	0,00114651211	-0,07745641257868567	0,0028900028945650682	0,07745641257868567
1	0	0	1	0	0	1	93075,53	-0,300000012	3,81719232	-0,00083290706656045376	-0,29984061784432858	0,00114454934	-0,079955133506020173	0,002983233531929936	0,079955133506020173
1	0	0	1	0	0	1	93105,53	-0,300000012	3,81404471	-0,00083291343493759642	-0,29984291047063802	0,0011436143	-0,082453872966259968	0,0030764648607824179	0,082453872966259968
1	0	0	1	0	0	1	93135,53	-0,300000012	3,80702448	-0,00083292455148200192	-0,29984691308404915	0,00114152452	-0,084952637168901082	0,0031696971128071597	0,084952637168901082
1	0	0	1	0	0	1	93165,53	-0,300000012	3,80103421	-0,00083291542368464986	-0,29984362602495533	0,0011397159	-0,087451378904627674	0,0032629285265611136	0,087451378904627674
1	0	0	1	0	0	1	93195,53	-0,300000012	3,79525399	-0,00083290798374348211	-0,29984094881604538	0,00113797258	-0,089950099691363085	0,0033561591586800403	0,089950099691363085
1	0	0	1	0	0	1	93225,53	-0,300000012	3,79061818	-0,00083291069450146624	-0,29984192355309549	0,0011365863	-0,092448825730173363	0,0034493899867609421	0,092448825730173363
1	0	0	1	0	0	1	93255,53	-0,300000012	3,78544831	-0,0008329092633078496	-0,29984140945011475	0,00113503414	-0,09494756591920745	0,0035426213428057184	0,09494756591920745
1	0	0	1	0	0	1	93285,53	-0,300000012	3,78109884	-0,00083290107696255053	-0,2998384614746263	0,00113371888	-0,097446284938911834	0,0036358519089943418	0,097446284938911834
1	0	0	1	0	0	1	93315,53	-0,300000012	3,77674937	-0,00083291396558781466	-0,29984310165103533	0,00113243225	-0,099945014645765453	0,0037290828739348717	0,099945014645765453
1	0	0	1	0	0	1	93345,53	-0,300000012	3,76967168	-0,0008329031983829207	-0,29983922597019411	0,00113029545	-0,10244372600022147	0,0038223131541227725	0,10244372600022147
1	0	0	1	0	0	1	93375,53	-0,300000012	3,76211715	-0,00083291357711288666	-0,29984296127575021	0,00112804433	-0,10494246100989504	0,0039155443169186451	0,10494246100989504
1	0	0	1	0	0	1	93405,53	-0,300000012	3,75748158	-0,00083291018675598835	-0,29984174188836589	0,00112664979	-0,10744119375159366	0,0040087753950933229	0,10744119375159366
1	0	0	1	0	0	1	93435,54	-0,300000012	3,7532084	-0,00083291173852317862	-0,29984229939653754	0,00112537062	-0,10993992043205622	0,0041020062471151328	0,10993992043205622
1	0	0	1	0	0	1	93465,54	-0,300000012	3,74849629	-0,00083291481030152909	-0,29984340633186848	0,00112396188	-0,11243865213335909	0,0041952372864712461	0,11243865213335909
1	0	0	1	0	0	1	93495,54	-0,300000012	3,74361253	-0,00083291703361603955	-0,29984420560625325	0,00112250051	-0,11493739510282733	0,00428846874625776	0,11493739510282733
1	0	0	1	0	0	1	93525,54	-0,300000012	3,73842359	-0,00083290822635259904	-0,29984103570681242	0,00112093275	-0,11743612634975403	0,0043816997686604877	0,11743612634975403
1	0	0	1	0	0	1	93555,54	-0,300000012	3,73325372	-0,00083290926272670426	-0,29984140893373875	0,00111938408	-0,1199348497071153	0,0044749304966929197	0,1199348497071153
1	0	0	1	0	0	1	93585,54	-0,300000012	3,72753072	-0,0008329208535138103	-0,29984558072481786	0,0011176836	-0,12243360128809702	0,0045681622777865811	0,12243360128809702
1	0	0	1	0	0	1	93615,54	-0,300000012	3,72199845	-0,00083291488582392525	-0,29984343351633971	0,00111601676	-0,12493234602684142	0,0046613938035871661	0,12493234602684142
1	0	0	1	0	0	1	93645,54	-0,300000012	3,71690488	-0,00083291245268119706	-0,2998425564857248	0,00111448625	-0,1274310869409776	0,0047546251866864774	0,1274310869409776
1	0	0	1	0	0	1	93675,54	-0,300000012	3,71226907	-0,00083291510875191949	-0,29984351377712179	0,00111309974	-0,12992983416295411	0,004847856805139792	0,12992983416295411
1	0	0	1	0	0	1	93705,54	-0,300000012	3,70706105	-0,00083290359364449971	-0,29983936729467642	0,00111152278	-0,13242854945478366	0,004941087232236393	0,13242854945478366
1	0	0	1	0	0	1	93735,54	-0,300000012	3,70112824	-0,00083291023290985152	-0,29984175822418438	0,0011097528	-0,13492727498560509	0,0050343180413635469	0,13492727498560509
1	0	0	1	0	0	1	93765,54	-0,300000012	3,69538593	-0,0008329099312904809	-0,29984164946184832	0,00110803056	-0,13742601237462157	0,0051275492929359027	0,13742601237462157
1	0	0	1	0	0	1	93795,54	-0,300000012	3,68977737	-0,00083291563443839552	-0,29984370192621933	0,0011063565	-0,13992474107464181	0,0052207802203101254	0,13992474107464181
1	0	0	1	0	0	1	93825,54	-0,300000012	3,68399715	-0,00083291454045971226	-0,29984330918375302	0,00110462192	-0,14242347799205477	0,0053140114542863194	0,14242347799205477
1	0	0	1	0	0	1	93855,54	-0,300000012	3,67758727	-0,00083291229647729126	-0,29984250025604806	0,00110269699	-0,14492222232154205	0,0054072429648169715	0,14492222232154205
1	0	0	1	0	0	1	93885,54	-0,300000012	3,67129183	-0,00083291003561019904	-0,29984168747695699	0,00110080629	-0,1474209600668751	0,0055004742296839776	0,1474209600668751
1	0	0	1	0	0	1	93915,54	-0,300000012	3,66539717	-0,00083290915636056	-0,29984136983636781	0,0010990377	-0,14991969971405162	0,0055937055655113203	0,14991969971405162
1	0	0	1	0	0	1	93945,55	-0,300000012	3,65870118	-0,00083291547085510349	-0,29984364399730502	0,00109703827	-0,15241844204058442	0,005686937001309047	0,15241844204058442
1	0	0	1	0	0	1	93975,55	-0,300000012	3,65190959	-0,00083291042453878451	-0,29984182688461587	0,0010949953	-0,15491717964328026	0,0057801682608540672	0,15491717964328026
1	0	0	1	0	0	1	94005,55	-0,300000012	3,64559531	-0,00083291620466444224	-0,29984390736803206	0,00109310949	-0,15741591806852512	0,0058733995510894963	0,15741591806852512
1	0	0	1	0	0	1	94035,55	-0,300000012	3,63844132	-0,00083291313877039488	-0,29984280458949728	0,00109096046	-0,15991465856928982	0,0059666309187653619	0,15991465856928982
1	0	0	1	0	0	1	94065,55	-0,300000012	3,63199329	-0,00083291764394938944	-0,29984442530620883	0,00108903297	-0,16241340758461117	0,006059862604130784	0,16241340758461117
1	0	0	1	0	0	1	94095,55	-0,300000012	3,62533545	-0,00083291005101468826	-0,29984169301897299	0,00108702667	-0,16491214023395738	0,0061530936788596685	0,16491214023395738
1	0	0	1	0	0	1	94125,55	-0,300000012	3,61808634	-0,00083290645679665933	-0,29984039801257203	0,00108484842	-0,16741087259709693	0,0062463247429097984	0,16741087259709693
1	0	0	1	0	0	1	94155,55	-0,300000012	3,61110401	-0,00083292011073562842	-0,29984531445043686	0,00108277262	-0,16990960696634179	0,0063395558818104154	0,16990960696634179
1	0	0	1	0	0	1	94185,55	-0,300000012	3,60467505	-0,0008329198684477143	-0,29984522646058189	0,00108084455	-0,17240836061106979	0,0064327877399052224	0,17240836061106979
1	0	0	1	0	0	1	94215,55	-0,300000012	3,59536552	-0,0008329134729603927	-0,29984292411668742	0,00107804488	-0,17490710548311168	0,0065260192706793165	0,17490710548311168
1	0	0	1	0	0	1	94245,55	-0,300000012	3,58809733	-0,00083291474687556429	-0,29984338349897235	0,00107586721	-0,17740586678977834	0,0066192514146513574	0,17740586678977834
1	0	0	1	0	0	1	94275,55	-0,300000012	3,58058095	-0,00083293314409918259	-0,29985000525159046	0,00107363716	-0,17990465190667104	0,0067124844470149453	0,17990465190667104
1	0	0	1	0	0	1	94305,55	-0,300000012	3,57216811	-0,00083293113395902835	-0,29984928273244141	0,001071112	-0,18240343665543389	0,0068057174656431142	0,18240343665543389
1	0	0	1	0	0	1	94335,55	-0,300000012	3,56301117	-0,00083292459923028941	-0,29984692915609818	0,00106835796	-0,18490220908433552	0,006898950024600695	0,18490220908433552
1	0	0	1	0	0	1	94365,55	-0,300000012	3,55408311	-0,00083292061824931034	-0,29984549714826131	0,00106567587	-0,18740097609825786	0,0069921823815181197	0,18740097609825786
1	0	0	1	0	0	1	94395,55	-0,300000012	3,54460192	-0,00083291636287503782	-0,29984396432228442	0,00106282753	-0,18989973021763418	0,0070854142573226957	0,18989973021763418
1	0	0	1	0	0	1	94425,55	-0,300000012	3,53195381	-0,00083292859870526528	-0,2998483694273193	0,00105905056	-0,19239849181004221	0,0071786464119561306	0,19239849181004221
1	0	0	1	0	0	1	94455,56	-0,300000012	3,52268243	-0,00083292843507726976	-0,2998483110250551	0,00105627032	-0,19489728803799402	0,0072718798588882726	0,19489728803799402
1	0	0	1	0	0	1	94485,56	-0,300000012	3,5121901	-0,00083292539780835302	-0,29984721663851891	0,00105312048	-0,19739605991432256	0,0073651123972286093	0,19739605991432256
1	0	0	1	0	0	1	94515,56	-0,300000012	3,50116348	-0,00083291645360986394	-0,29984399790768794	0,00104980287	-0,1998948197202552	0,0074583444852062464	0,1998948197202552
1	0	0	1	0	0	1	94545,56	-0,300000012	3,49282694	-0,0008329169576697879	-0,29984417825218074	0,00104730378	-0,20239356896408915	0,0075515761790977805	0,20239356896408915
1	0	0	1	0	0	1	94575,56	-0,300000012	3,47884345	-0,00083291555723879066	-0,29984367522396896	0,00104310922	-0,20489231751839837	0,0076448078472622208	0,20489231751839837
1	0	0	1	0	0	1	94605,56	-0,300000012	3,46865654	-0,0008329161744382647	-0,29984389634327334	0,00104005553	-0,20739106695655667	0,0077380395484042573	0,20739106695655667
1	0	0	1	0	0	1	94635,56	-0,300000012	3,45486379	-0,00083293014282319283	-0,29984892545586554	0,00103593722	-0,20988984264675133	0,0078312722290450662	0,20988984264675133
1	0	0	1	0	0	1	94665,56	-0,300000012	3,43593955	-0,00083291038149429696	-0,29984181172748986	0,00103023835	-0,21238858678531168	0,0079245037324519782	0,21238858678531168
1	0	0	1	0	0	1	94695,56	-0,300000012	3,42102122	-0,00083291184967425126	-0,2998423394101328	0,00102576695	-0,2148873147294904	0,0080177346316247386	0,2148873147294904
1	0	0	1	0	0	1	94725,56	-0,300000012	3,40696168	-0,0008329129876908329	-0,29984275020149344	0,00102155271	-0,21738604843846646	0,0081109657458898368	0,21738604843846646
1	0	0	1	0	0	1	94755,56	-0,300000012	3,39141393	-0,00083290726693140122	-0,29984068965182419	0,00101688388	-0,21988477980301466	0,0082041967726811814	0,21988477980301466
1	0	0	1	0	0	1	94785,56	-0,300000012	3,37598062	-0,00083291434000929203	-0,29984323702651827	0,00101226498	-0,22238350245821494	0,0082974274745150451	0,22238350245821494
1	0	0	1	0	0	1	94815,56	-0,300000012	3,3596127	-0,00083292971648110285	-0,29984877133041619	0,00100737577	-0,22488228488019955	0,0083906604063279885	0,22488228488019955
1	0	0	1	0	0	1	94845,56	-0,300000012	3,34286308	-0,00083292331266072064	-0,29984646681002778	0,0010023457	-0,22738105809378144	0,0084838929945630451	0,22738105809378144
1	0	0	1	0	0	1	94875,56	-0,300000012	3,32794476	-0,00083291771839227942	-0,29984445280149024	0,000997865805	-0,22987981047416413	0,0085771248054834304	0,22987981047416413
1	0	0	1	0	0	1	94905,56	-0,300000012	3,30917311	-0,00083292270617021453	-0,29984624768539405	0,000992243178	-0,23237858623925034	0,0086703574889185446	0,23237858623925034
1	0	0	1	0	0	1	94935,57	-0,300000012	3,29150796	-0,0008329217735330263	-0,29984591304567091	0,000986945233	-0,23487735443307805	0,0087635898898598246	0,23487735443307805
1	0	0	1	0	0	1	94965,57	-0,300000012	3,27388072	-0,00083292749763859648	-0,2998479725659561	0,000981666497	-0,23737612467160672	0,0088568223670916454	0,23737612467160672
1	0	0	1	0	0	1	94995,57	-0,300000012	3,25529981	-0,00083291886189579968	-0,29984486487698278	0,000976084906	-0,23987487943201443	0,0089500542668139635	0,23987487943201443
1	0	0	1	0	0	1	95025,57	-0,300000012	3,23708129	-0,0008329125612957609	-0,2998425955888128	0,000970614841	-0,24237362265714189	0,0090432857361394675	0,24237362265714189
1	0	0	1	0	0	1	95055,57	-0,300000012	3,21821427	-0,00083291207446157939	-0,29984242128140275	0,000964957173	-0,24487234053584118	0,0091365162597556557	0,24487234053584118
1	0	0	1	0	0	1	95085,57	-0,300000012	3,19963336	-0,0008329099869065815	-0,29984166935758918	0,000959383382	-0,24737107258107939	0,0092297473119444582	0,24737107258107939
1	0	0	1	0	0	1	95115,57	-0,300000012	3,1799078	-0,00083290875746309747	-0,29984122638621299	0,000953467446	-0,24986978946475693	0,009322977798435049	0,24986978946475693
1	0	0	1	0	0	1	95145,57	-0,300000012	3,15894222	-0,0008329055629869303	-0,29984007736090803	0,000947177468	-0,2523685025719753	0,0094162081440208691	0,2523685025719753
1	0	0	1	0	0	1	95175,57	-0,300000012	3,13992238	-0,00083290733862585498	-0,29984071546131738	0,000941476552	-0,25486722522512749	0,0095094388457783155	0,25486722522512749
1	0	0	1	0	0	1	95205,57	-0,300000012	3,11802197	-0,0008329117728951904	-0,29984231288414054	0,000934914919	-0,25736596173409798	0,0096026700645149722	0,25736596173409798
1	0	0	1	0	0	1	95235,57	-0,300000012	3,09451914	-0,00083290935809082458	-0,29984144245520986	0,000927865098	-0,2598646801050969	0,0096959006064995213	0,2598646801050969
1	0	0	1	0	0	1	95265,57	-0,300000012	3,07208467	-0,00083290274093714022	-0,29983906142909773	0,000921130995	-0,2623633935130223	0,0097891309633051264	0,2623633935130223
1	0	0	1	0	0	1	95295,57	-0,300000012	3,04793334	-0,00083290626328852429	-0,2998403287245072	0,000913893338	-0,26486210577129504	0,0098823612772156442	0,26486210577129504
1	0	0	1	0	0	1	95325,57	-0,300000012	3,02219844	-0,00083291090002655987	-0,29984199785088947	0,000906182046	-0,26736083213970746	0,0099755921175944448	0,26736083213970746
1	0	0	1	0	0	1	95355,57	-0,300000012	2,99655914	-0,00083290724579658778	-0,29984068316390374	0,000898490369	-0,26985955775682813	0,010068822929941539	0,26985955775682813
1	0	0	1	0	0	1	95385,57	-0,300000012	2,96504402	-0,00083291947925753062	-0,29984508600582611	0,000889053859	-0,27235829999202339	0,010162054362331341	0,27235829999202339
1	0	0	1	0	0	1	95415,57	-0,300000012	2,93171644	-0,00083291405551135539	-0,29984313461277562	0,000879055064	-0,27485705131041683	0,010255286133627478	0,27485705131041683
1	0	0	1	0	0	1	95445,58	-0,300000012	2,89589	-0,00083291389750606477	-0,29984307661501466	0,000868312549	-0,27735578135913126	0,010348517111323294	0,27735578135913126
1	0	0	1	0	0	1	95475,58	-0,300000012	2,85685849	-0,00083292281017700826	-0,29984628623012979	0,000856618397	-0,27985452569275277	0,010441748622008202	0,27985452569275277
1	0	0	1	0	0	1	95505,58	-0,300000012	2,81467938	-0,00083291117624441779	-0,29984209721405146	0,000843959395	-0,28235327521200486	0,010534980326175957	0,28235327521200486
1	0	0	1	0	0	1	95535,58	-0,300000012	2,76687264	-0,00083291609738601574	-0,29984386901340909	0,000829629775	-0,28485203067545274	0,010628212252129648	0,28485203067545274
1	0	0	1	0	0	1	95565,58	-0,300000012	2,71626139	-0,00083292365946372352	-0,29984659188004019	0,000814461731	-0,2873507982875143	0,010721444631364451	0,2873507982875143
1	0	0	1	0	0	1	95595,58	-0,300000012	2,663342	-0,00083292047192818586	-0,29984544335714451	0,000798590947	-0,2898495656174688	0,010814677000073459	0,2898495656174688
1	0	0	1	0	0	1	95625,58	-0,300000012	2,60666442	-0,00083291704100867098	-0,29984420936707981	0,000781593204	-0,2923483156666128	0,010907908724012195	0,2923483156666128
1	0	0	1	0	0	1	95655,58	-0,300000012	2,54775476	-0,0008329195424666007	-0,29984510875889632	0,000763931777	-0,29484707880839059	0,011001140936454698	0,29484707880839059
1	0	0	1	0	0	1	95685,58	-0,300000012	2,48619342	-0,00083292877269784614	-0,2998484326917232	0,000745481171	-0,29734585302576941	0,011094373562142768	0,29734585302576941
1	0	0	1	0	0	1	95715,58	-0,300000012	2,42217112	-0,00083292669592466624	-0,29984768403842048	0,000726282422	-0,29984462613687936	0,011187606146554461	0,29984462613687936
1	0	0	1	0	0	1	95745,58	-0,300000012	2,35297894	-0,00083292770527965491	-0,29984804792960909	0,000705536164	-0,30234340614879981	0,011280838988444669	0,30234340614879981
1	0	0	1	0	0	1	95775,58	-0,300000012	2,2834816	-0,00083292650589678029	-0,29984761642559424	0,000684696541	-0,3048421828502071	0,011374071706815184	0,3048421828502071
1	0	0	1	0	0	1	95805,58	-0,300000012	2,21228647	-0,00083291690881053606	-0,29984416066319776	0,000663341198	-0,30734096317077203	0,011467304560221334	0,30734096317077203
1	0	0	1	0	0	1	95835,58	-0,300000012	2,14070964	-0,00083292215577264627	-0,29984605064921485	0,000641883351	-0,30983972232903565	0,011560536624033566	0,30983972232903565
1	0	0	1	0	0	1	95865,58	-0,300000012	2,06600428	-0,00083291883130537126	-0,29984485274765914	0,000619480736	-0,31233847827490854	0,011653768567987184	0,31233847827490854
1	0	0	1	0	0	1	95891,96	-0,300000012	1,9999218	-0,00053068805167410106	-0,29984265196935904	0,000599661842	-0,31453499770358886	0,011735723661123029	0,31453499770358886
1	1	0	0	0	0	2	95911,96	0,300000012	2,9793756	0,0008338486488544279	0,30017958044932742	0,00089434773	-0,31286727330651072	0,011673498621588744	0,0016677243970781562
1	1	0	0	0	0	2	95941,96	0,300000012	3,73776078	0,00083386227171619738	0,30018448570787411	0,00112201774	-0,31036570001616429	0,011580161558724859	0,0041692976874245536
1	1	0	0	0	0	2	95971,96	0,300000012	3,92481017	0,00083385317639840986	0,30018121033294573	0,00117815426	-0,30786413437768499	0,011486824781362426	0,0066708633259038131
1	1	0	0	0	0	2	96001,96	0,300000012	3,93976665	0,00083384558138582438	0,30017847730068621	0,0011826331	-0,30536259240963571	0,011393488887175558	0,009172405293953088
1	1	0	0	0	0	2	96031,96	0,300000012	3,94861841	0,00083385692551235354	0,30018255998728922	0,00118530635	-0,30286103450683264	0,011300152398441606	0,011673963196756112
1	1	0	0	0	0	2	96061,96	0,300000012	3,95466566	0,00083386656528711322	0,30018603093302886	0,00118713535	-0,30035943846894483	0,011206814486836365	0,014175559234643976
1	1	0	0	0	0	2	96091,96	0,300000012	3,96002626	0,00083386254425346842	0,30018458349086618	0,00118873885	-0,29785785533857523	0,011113477056827987	0,016677142365013562
1	1	0	0	0	0	2	96121,96	0,300000012	3,96548223	0,0008338588192810615	0,30018324172705466	0,00119037135	-0,29535627880709715	0,011020139873033122	0,019178718896491664
1	1	0	0	0	0	2	96151,96	0,300000012	3,96924043	0,00083386244356466662	0,3001845475620537	0,00119150465	-0,2928546886289353	0,010926802180062136	0,02168030907465352
1	1	0	0	0	0	2	96181,96	0,300000012	3,97303677	0,00083387066830032397	0,30018750728967904	0,001192656	-0,29035308817450221	0,010833464103669654	0,024181909529086621
1	1	0	0	0	0	2	96211,96	0,300000012	3,9766233	0,00083387211687531738	0,30018802988463494	0,0011937347	-0,28785147706199542	0,010740125629610114	0,026683520641593472
1	1	0	0	0	0	2	96241,96	0,300000012	3,97998071	0,00083385375912487501	0,30018142011032698	0,00119471631	-0,28534990597979088	0,010646788649134971	0,029185091723798054
1	1	0	0	0	0	2	96271,96	0,300000012	3,98398709	0,00083386849673092365	0,30018672639631469	0,00119594007	-0,28284829934203488	0,010553450342034397	0,031686698361554086
1	1	0	0	0	0	2	96301,96	0,300000012	3,98721099	0,00083386689840588301	0,30018615080099763	0,0011969055	-0,28034671641677811	0,010460112919679054	0,034188281286810835
1	1	0	0	0	0	2	96331,96	0,300000012	3,99035859	0,00083387170699569907	0,30018788127203117	0,00119785732	-0,27784511276659558	0,010366774724048862	0,036689884936993318
1	1	0	0	0	0	2	96361,97	0,300000012	3,99287677	0,00083386373499698099	0,30018501247155731	0,00119860179	-0,27534350006721603	0,010273436190780966	0,039191497636372845
1	1	0	0	0	0	2	96391,97	0,300000012	3,99562383	0,00083386543265978496	0,30018562249983302	0,00119942881	-0,27284192304237376	0,010180098988578019	0,041693074661215149
1	1	0	0	0	0	2	96421,97	0,300000012	3,99825644	0,00083387428521944422	0,3001888104765895	0,00120023184	-0,27034030045455549	0,010086760086359178	0,044194697249033382
1	1	0	0	0	0	2	96451,97	0,300000012	4,0012517	0,00083387415644195341	0,30018876299584621	0,0012011308	-0,26783867692518426	0,0099934211490097306	0,046696320778404672
1	1	0	0	0	0	2	96481,97	0,300000012	4,00441837	0,00083388263966474266	0,30019181788816218	0,00120209367	-0,26533703440480294	0,0099000815030801626	0,049197963298786022
1	1	0	0	0	0	2	96511,97	0,300000012	4,00665045	0,00083386839519275571	0,30018668947636736	0,00120274315	-0,26283541647030112	0,0098067427744828147	0,051699581233287853
1	1	0	0	0	0	2	96541,97	0,300000012	4,01044703	0,00083386880663037299	0,30018683729787558	0,00120388344	-0,26033380904935328	0,0097134044381603021	0,054201188654235667
1	1	0	0	0	0	2	96571,97	0,300000012	4,01267862	0,00083384808297289741	0,3001793778507417	0,00120452337	-0,25783222752592493	0,0096200670681090598	0,056702770177664032
1	1	0	0	0	0	2	96601,97	0,300000012	4,01613188	0,00083384503689242726	0,30017828016521318	0,00120555551	-0,25533068645615408	0,0095267312074381709	0,05920431124743488
1	1	0	0	0	0	2	96631,97	0,300000012	4,02193117	0,00083384960639642342	0,30017992627237331	0,00120730302	-0,25282915710370109	0,0094333957839561626	0,061705840599887898
1	1	0	0	0	0	2	96661,97	0,300000012	4,02494526	0,0008338489454239607	0,30017968721224902	0,00120820676	-0,25032761649658141	0,0093400599405474125	0,064207381207007501
1	1	0	0	0	0	2	96691,97	0,300000012	4,02679586	0,0008338419260399209	0,30017716140216518	0,00120875216	-0,24782606449691149	0,0092467236720672922	0,06670893320667744
1	1	0	0	0	0	2	96721,97	0,300000012	4,03175592	0,00083385982747872666	0,30018360501000966	0,00121026707	-0,24532449828264474	0,0091533868732214528	0,069210499420944192
1	1	0	0	0	0	2	96751,97	0,300000012	4,03482723	0,00083387207576466931	0,30018801431978118	0,00121120678	-0,24282289015459213	0,0090600485105159104	0,0717121075489968
1	1	0	0	0	0	2	96781,97	0,300000012	4,03570461	0,0008338717996395296	0,30018791568550272	0,00121146976	-0,24032128386408614	0,0089667102163717005	0,074213713839502797
1	1	0	0	0	0	2	96811,97	0,300000012	4,03881407	0,00083386533339156045	0,30018558676397856	0,00121239375	-0,23781969386850986	0,0088733725302132301	0,076715303835079078
1	1	0	0	0	0	2	96841,97	0,300000012	4,04264879	0,00083386823734309939	0,30018663328063552	0,00121354917	-0,23531809434881334	0,0087800344886970278	0,079216903354775578
1	1	0	0	0	0	2	96871,98	0,300000012	4,04568195	0,00083387296607759258	0,30018833447314624	0,00121446652	-0,23281648625658973	0,0086866961273283136	0,081718511446999181
1	1	0	0	0	0	2	96901,98	0,300000012	4,04863882	0,00083384126217994432	0,30017692241380186	0,00121530797	-0,23031494087546922	0,0085933601057951706	0,08422005682811968
1	1	0	0	0	0	2	96931,98	0,300000012	4,05169106	0,00083385151964591603	0,30018061410647034	0,00121623906	-0,22781339306016458	0,0085000239934393459	0,086721604643424358
1	1	0	0	0	0	2	96961,98	0,300000012	4,05241632	0,00083386355449755981	0,30018494688849376	0,00121647434	-0,22531180849726522	0,0084066865099813542	0,089223189206323699
1	1	0	0	0	0	2	96991,98	0,300000012	4,05419016	0,00083388818742169267	0,30019381504119648	0,00121704279	-0,2228101659440417	0,0083133468628264	0,091724831759547213
1	1	0	0	0	0	2	97021,98	0,300000012	4,05518246	0,00083387092819313216	0,3001876008492407	0,00121731544	-0,22030854169343107	0,0082200078985665382	0,094226456010157875
1	1	0	0	0	0	2	97051,98	0,300000012	4,05672741	0,0008338546139001847	0,30018172894159834	0,00121775549	-0,21780694849511677	0,0081266700929096064	0,096728049208472192
1	1	0	0	0	0	2	97081,98	0,300000012	4,05812025	0,000833839513854848	0,3001762919144775	0,00121815153	-0,21530541869825315	0,0080333346528460403	0,099229579005335795
1	1	0	0	0	0	2	97111,98	0,300000012	4,05995131	0,00083385042078627482	0,30018021945042074	0,00121871708	-0,21280386775569974	0,0079399984238083597	0,10173112994788922
1	1	0	0	0	0	2	97141,98	0,300000012	4,06103897	0,00083384938469529152	0,3001798453747584	0,00121904199	-0,21030232684467427	0,0078466625690604736	0,10423267085891469
1	1	0	0	0	0	2	97171,98	0,300000012	4,06267929	0,00083385078885820173	0,30018035150640122	0,00121953653	-0,2078007638938512	0,0077533258919781082	0,10673423380973771
1	1	0	0	0	0	2	97201,98	0,300000012	4,06449175	0,00083385599906576998	0,30018222729781594	0,00122008822	-0,20529920268402851	0,0076599892798548045	0,10923579501956042
1	1	0	0	0	0	2	97231,98	0,300000012	4,06418657	0,00083385894821087514	0,30018328814087021	0,00122000091	-0,2027976224597215	0,0075666519582755264	0,11173737524386749
1	1	0	0	0	0	2	97261,98	0,300000012	4,06515932	0,00083385171926518285	0,30018068689009568	0,00122028228	-0,20029604498377306	0,0074733147392412019	0,11423895271981595
1	1	0	0	0	0	2	97291,98	0,300000012	4,06723881	0,00083385078747073805	0,30018035033248755	0,00122090522	-0,19779449274254042	0,0073799784617480525	0,11674050496104861
1	1	0	0	0	0	2	97321,98	0,300000012	4,06899405	0,00083385561537411469	0,30018208946203098	0,0012214391	-0,19529294348982336	0,007286642295760439	0,11924205421376563
1	1	0	0	0	0	2	97351,98	0,300000012	4,07082558	0,00083385957584116186	0,30018351408418125	0,00122199475	-0,19279136112659206	0,0071933048943750195	0,12174363657699694
1	1	0	0	0	0	2	97381,99	0,300000012	4,07387781	0,00083385655468867878	0,3001824273023849	0,00122290652	-0,19028979602046838	0,0070999681368754893	0,12424520168312064
1	1	0	0	0	0	2	97411,99	0,300000012	4,07574701	0,00083384895976550054	0,30017969304254752	0,00122345646	-0,18778824399174947	0,0070066318673115123	0,12674675371183955
1	1	0	0	0	0	2	97441,99	0,300000012	4,07820797	0,00083385645424657408	0,30018239034893984	0,00122420618	-0,18528667337633203	0,0069132949042528243	0,12924832432725699
1	1	0	0	0	0	2	97471,99	0,300000012	4,08120346	0,00083384379611578253	0,30017783461617152	0,00122508686	-0,18278512284621462	0,0068199586906036851	0,13174987485737442
1	1	0	0	0	0	2	97501,99	0,300000012	4,08362579	0,00083385378947688461	0,3001814310368345	0,00122582866	-0,18028356623124445	0,0067266222499205069	0,13425143147234459
1	1	0	0	0	0	2	97531,99	0,300000012	4,08534288	0,00083385259847839667	0,30018100339710349	0,00122634228	-0,17778200278640819	0,0066332855544058432	0,13675299491718085
1	1	0	0	0	0	2	97561,99	0,300000012	4,08702183	0,0008338526206629143	0,30018101027212166	0,00122684636	-0,17528046393126115	0,006539949776365545	0,13925453377232789
1	1	0	0	0	0	2	97591,99	0,300000012	4,08877659	0,00083384795256124608	0,30017933075321235	0,00122736627	-0,17277889791875117	0,0064466129850475238	0,14175609978483786
1	1	0	0	0	0	2	97621,99	0,300000012	4,09129477	0,00083384754799140826	0,30017918467763386	0,00122812157	-0,17027736179485123	0,0063532773089137267	0,14425763590873779
1	1	0	0	0	0	2	97651,99	0,300000012	4,09303093	0,00083384321226510746	0,30017762348009491	0,00122863625	-0,16777584043468237	0,0062599421836345882	0,14675915726890666
1	1	0	0	0	0	2	97681,99	0,300000012	4,09507227	0,00083385530212190426	0,30018197669302682	0,00122926687	-0,1652742887573312	0,0061666059271806144	0,14926070894625786
1	1	0	0	0	0	2	97711,99	0,300000012	4,0971899	0,00083385995587872141	0,30018365089456173	0,00122990948	-0,16277271454436778	0,0060732688298926477	0,15176228315922125
1	1	0	0	0	0	2	97741,99	0,300000012	4,10008955	0,00083385897099475072	0,30018329746158797	0,00123077841	-0,1602711364241312	0,0059799315868190669	0,15426386127945782
1	1	0	0	0	0	2	97771,99	0,300000012	4,10216904	0,00083385585546990234	0,30018217477787322	0,00123139797	-0,15776956484079395	0,0058865945876459891	0,15676543286279507
1	1	0	0	0	0	2	97801,99	0,300000012	4,10552645	0,00083386076932152115	0,30018394484599514	0,00123241311	-0,15526799043650797	0,00579325748321952	0,15926700726708106
1	1	0	0	0	0	2	97831,99	0,300000012	4,10854053	0,00083386396545833997	0,30018509469516346	0,00123332266	-0,15276640082153053	0,0056999198112617037	0,1617685968820585
1	1	0	0	0	0	2	97861,99	0,300000012	4,11100149	0,00083385879549218547	0,30018323350219738	0,00123405375	-0,15026482500431309	0,005606582654116864	0,16427017269927594
1	1	0	0	0	0	2	97892,00	0,300000012	4,11470222	0,00083387137340837056	0,3001877622453177	0,00123518321	-0,14776323258254134	0,005513244877433776	0,16677176512104768
1	1	0	0	0	0	2	97922,00	0,300000012	4,11701059	0,00083386233309573594	0,30018450667882995	0,00123586284	-0,14526165301552451	0,0054199075803788794	0,16927334468806451
1	1	0	0	0	0	2	97952,00	0,300000012	4,11861324	0,00083387418098416589	0,30018877295263091	0,00123636145	-0,14276005067116059	0,0053265694334705376	0,17177494703242845
1	1	0	0	0	0	2	97982,00	0,300000012	4,12240934	0,00083385569094452595	0,30018211555165562	0,00123747357	-0,14025846547814579	0,0052332319265020915	0,17427653222544323
1	1	0	0	0	0	2	98012,00	0,300000012	4,12565231	0,00083384524548219315	0,30017835637776851	0,00123843155	-0,1377569198445632	0,0051398958955492493	0,17677807785902582
1	1	0	0	0	0	2	98042,00	0,300000012	4,1257863	0,00083386099925968384	0,30018402671351936	0,00123849511	-0,13525536508565683	0,0050465595241183085	0,17927963261793219
1	1	0	0	0	0	2	98072,00	0,300000012	4,12887669	0,00083385487512581875	0,30018182233448442	0,00123941374	-0,13275380951555606	0,0049532231224206144	0,18178118818803296
1	1	0	0	0	0	2	98102,00	0,300000012	4,1312995	0,00083384805107778982	0,30017936627088435	0,00124013086	-0,13025227545484442	0,0048598875232671469	0,18428272224874461
1	1	0	0	0	0	2	98132,00	0,300000012	4,13332129	0,00083385693230728307	0,30018256242992096	0,00124075101	-0,12775071962332598	0,0047665511118156077	0,18678427808026304
1	1	0	0	0	0	2	98162,00	0,300000012	4,13635492	0,00083386073538660992	0,3001839326366576	0,00124166731	-0,12524914777564214	0,0046732141027794022	0,18928584992794688
1	1	0	0	0	0	2	98192,00	0,300000012	4,13839579	0,00083386526147690086	0,30018556087171821	0,00124228664	-0,12274755811716821	0,0045798764291986733	0,19178743958642083
1	1	0	0	0	0	2	98222,00	0,300000012	4,14066601	0,0008338549486994743	0,30018184946346637	0,00124295277	-0,12024598756181571	0,004486539468381088	0,19428901014177331
1	1	0	0	0	0	2	98252,00	0,300000012	4,14291716	0,00083386321806576525	0,30018482531765626	0,0012436409	-0,11774440276151933	0,004393201976065495	0,19679059494206973
1	1	0	0	0	0	2	98282,00	0,300000012	4,14541626	0,00083386571644412147	0,30018572528919443	0,00124439481	-0,11524281459857397	0,0042998643582849466	0,19929218310501507
1	1	0	0	0	0	2	98312,00	0,300000012	4,14844942	0,00083384235757589338	0,30017731648646675	0,00124527037	-0,11274126303237882	0,0042065281059783533	0,20179373467121021
1	1	0	0	0	0	2	98342,00	0,300000012	4,15070057	0,0008338390470163689	0,30017612385594682	0,00124594115	-0,11023975161439882	0,0041131933516556474	0,20429524608919021
1	1	0	0	0	0	2	98372,01	0,300000012	4,15339041	0,00083384598723881766	0,30017862340487654	0,00124675897	-0,10773820196546984	0,0040198571708848333	0,20679679573811917
1	1	0	0	0	0	2	98402,01	0,300000012	4,15691948	0,0008338462763726711	0,30017872637277606	0,00124781881	-0,10523665799132691	0,0039265212018479155	0,20929833971226214
1	1	0	0	0	0	2	98432,01	0,300000012	4,15863657	0,00083384753318793242	0,30017917993206547	0,00124833616	-0,10273511477323742	0,0038331852610203699	0,21179988293035162
1	1	0	0	0	0	2	98462,01	0,300000012	4,16029644	0,0008338565247290665	0,3001824157046631	0,00124884781	-0,10023355695489917	0,003739848775437911	0,21430144074868989
1	1	0	0	0	0	2	98492,01	0,300000012	4,16266203	0,00083385802107387123	0,30018295516091834	0,00124956015	-0,097731982211896512	0,0036465116583734688	0,21680301549169254
1	1	0	0	0	0	2	98522,01	0,300000012	4,16546631	0,00083384808876944909	0,30017937953253626	0,00125038705	-0,095230429784096346	0,0035531753739192346	0,2193045679194927
1	1	0	0	0	0	2	98552,01	0,300000012	4,16750717	0,00083383874914712384	0,30017601662164358	0,00125098566	-0,092728898199727526	0,0034598398671614477	0,2218060995038615
1	1	0	0	0	0	2	98582,01	0,300000012	4,16973925	0,00083383906977540915	0,30017613316376602	0,00125165621	-0,090227374368805414	0,0033665046496951821	0,22430762333478362
1	1	0	0	0	0	2	98612,01	0,300000012	4,17258167	0,00083385292957226432	0,30018112147728966	0,00125253026	-0,087725812010020403	0,003273167994702551	0,22680918569356864
1	1	0	0	0	0	2	98642,01	0,300000012	4,17202854	0,00083386191442443264	0,30018435707839155	0,00125237776	-0,085224240625929882	0,0031798310029636365	0,22931075707765917
1	1	0	0	0	0	2	98672,01	0,300000012	4,17324972	0,00083383221108218035	0,30017366296827904	0,00125269964	-0,082722725659180403	0,0030864961162315699	0,23181227204440867
1	1	0	0	0	0	2	98702,01	0,300000012	4,17555809	0,00083383681432240538	0,30017532104550285	0,00125339953	-0,080221217056079424	0,002993161466935785	0,23431378064750963
1	1	0	0	0	0	2	98732,01	0,300000012	4,17786598	0,00083383123733103283	0,3001733129838999	0,00125408382	-0,07771971276456983	0,0028998269785112717	0,2368152849390192
1	1	0	0	0	0	2	98762,01	0,300000012	4,17983103	0,00083384086643159386	0,3001767789722599	0,00125468825	-0,075218199434840397	0,002806492152858624	0,23931679826874867
1	1	0	0	0	0	2	98792,01	0,300000012	4,18267345	0,00083384058242042854	0,30017667770870643	0,00125554099	-0,072716664093590835	0,0027131565059265654	0,24181833360999821
1	1	0	0	0	0	2	98822,01	0,300000012	4,18429518	0,0008338491548912393	0,30017976261548442	0,00125604076	-0,070215128709117965	0,0026198208573817872	0,24431986899447107
1	1	0	0	0	0	2	98852,01	0,300000012	4,18647003	0,0008338485267013312	0,30017953758982106	0,00125669269	-0,067713591065877402	0,0025264851245593501	0,24682140663771162
1	1	0	0	0	0	2	98882,02	0,300000012	4,18885469	0,00083383882530695872	0,30017604403864218	0,00125739386	-0,065212061167781939	0,0024331496807186893	0,2493229365358071
1	1	0	0	0	0	2	98912,02	0,300000012	4,19125843	0,0008338625325527456	0,3001845795691728	0,00125815114	-0,062710510779806707	0,0023398134723730653	0,25182448692378234
1	1	0	0	0	0	2	98942,02	0,300000012	4,19249821	0,00083387555577688755	0,30018926713873382	0,00125854299	-0,060208883253336346	0,0022464743858864749	0,2543261144502527
1	1	0	0	0	0	2	98972,02	0,300000012	4,19440603	0,00083385557221207347	0,30018207309886195	0,00125908549	-0,057707283245395021	0,0021531363261532016	0,25682771445819402
1	1	0	0	0	0	2	99002,02	0,300000012	4,19659519	0,00083385677827894682	0,3001825080990608	0,00125974452	-0,055205732725047802	0,002059800112868601	0,25932926497854131
1	1	0	0	0	0	2	99032,02	0,300000012	4,19819736	0,00083385062073005568	0,30018029031052282	0,00126021612	-0,052704171140692704	0,0019664634867709907	0,26183082656289642
1	1	0	0	0	0	2	99062,02	0,300000012	4,19949484	0,00083386136560804314	0,30018415950839558	0,00126062182	-0,05020261944456935	0,0018731272296166022	0,26433237825901974
1	1	0	0	0	0	2	99064,96	0,300000012	4,19991446	0,00024504747873544694	0,30018073170799744	0,00126073335	-0,049957571965833907	0,0018639841787151434	0,26457742573775517