File: Experimentelles/Rohdaten/Batteriemessungen/AlteZelle/Studenten_Batterietests/LiCoO2 vs Li 300µm GCPL/ZView-Export/LiCoO2 vs Li 300µm GCPL_02_GCPL_C04_loop4.txt
EC-Lab ASCII FILE
Nb header lines : 3
mode	ox/red	error	control changes	Ns changes	counter inc.	Ns	time/s	control/V/mA	Ewe/V	dq/mA.h	<I>/mA	P/W	(Q-Qo)/mA.h	x	Capacity/mA.h
1	0	0	1	1	0	1	51118,48	-0,300000012	4,18646526	0	0	0	0	0	0
1	0	0	1	0	0	1	51168,48	-0,300000012	4,13900185	-0,00083291000967555571	-0,29984760292469037	0,00124106975	-0,0041603989456555347	0,0001552300783782824	0,0041603989456555347
1	0	0	1	0	0	1	51218,48	-0,300000012	4,12683058	-0,00083289672870934003	-0,29984282177686163	0,00123740057	-0,008324884939386889	0,00031061265001536819	0,008324884939386889
1	0	0	1	0	0	1	51268,48	-0,300000012	4,11734915	-0,0008328901401393943	-0,29984044989168563	0,00123454782	-0,012489370666374211	0,00046599521169987546	0,012489370666374211
1	0	0	1	0	0	1	51318,48	-0,300000012	4,10950851	-0,00083289649169809293	-0,2998427364528128	0,00123220624	-0,016653839058433418	0,00062137712659490778	0,016653839058433418
1	0	0	1	0	0	1	51368,48	-0,300000012	4,10269833	-0,00083289666284951898	-0,29984279806732608	0,00123016455	-0,02081830119718225	0,00077675880817052224	0,02081830119718225
1	0	0	1	0	0	1	51418,48	-0,300000012	4,09501028	-0,00083289786649909286	-0,29984323138117184	0,00122786115	-0,024982798361643594	0,0009321417966025632	0,024982798361643594
1	0	0	1	0	0	1	51468,48	-0,300000012	4,08636856	-0,00083289616532789338	-0,29984261895954125	0,00122526742	-0,02914728984000727	0,001087524572878655	0,02914728984000727
1	0	0	1	0	0	1	51518,48	-0,300000012	4,07894754	-0,00083291483975450202	-0,29984934175310778	0,00122306973	-0,033311810089253158	0,0012429084226350451	0,033311810089253158
1	0	0	1	0	0	1	51568,48	-0,300000012	4,07263279	-0,00083290652671953037	-0,29984634906052358	0,00122116413	-0,037476391833170688	0,0013982945668403146	0,037476391833170688
1	0	0	1	0	0	1	51618,48	-0,300000012	4,06656647	-0,00083290605070524736	-0,29984617769538208	0,00121934444	-0,041640943994672198	0,0015536796072858685	0,041640943994672198
1	0	0	1	0	0	1	51668,48	-0,300000012	4,06063366	-0,00083291356213887526	-0,29984888181148301	0,00121757644	-0,045805460381606656	0,0017090633129342262	0,045805460381606656
1	0	0	1	0	0	1	51718,48	-0,300000012	4,05424261	-0,00083289468456142477	-0,2998420858836135	0,00121563254	-0,049969963749803866	0,0018644465328359933	0,049969963749803866
1	0	0	1	0	0	1	51768,48	-0,300000012	4,05109501	-0,00083291356339553984	-0,2998488822638823	0,00121471635	-0,054134508781450758	0,0020198313072570848	0,054134508781450758
1	0	0	1	0	0	1	51818,48	-0,300000012	4,05416632	-0,00083290830315483942	-0,2998469885772336	0,00121562951	-0,05829906587998679	0,0021752165319100349	0,05829906587998679
1	0	0	1	0	0	1	51868,48	-0,300000012	4,04972172	-0,0008329195095366903	-0,29985102287469248	0,0012143132	-0,062463629978187661	0,0023306020177298912	0,062463629978187661
1	0	0	1	0	0	1	51918,48	-0,300000012	4,0445137	-0,00083290346325768358	-0,2998452462142608	0,00121272821	-0,066628207769207923	0,0024859880144472486	0,066628207769207923
1	0	0	1	0	0	1	51968,48	-0,300000012	4,03924847	-0,00083292779739697779	-0,2998540065043904	0,00121118489	-0,07079279724631319	0,0026413744471881504	0,07079279724631319
1	0	0	1	0	0	1	52018,48	-0,300000012	4,0349369	-0,00083291574037737306	-0,2998496659773408	0,00120987452	-0,074957401733018726	0,0027967614399574176	0,074957401733018726
1	0	0	1	0	0	1	52068,48	-0,300000012	4,02877522	-0,00083291642541355558	-0,29984991259036602	0,00120802794	-0,079122024927602317	0,0029521491307427686	0,079122024927602317
1	0	0	1	0	0	1	52118,48	-0,300000012	4,01931286	-0,00083291444302764211	-0,29984919893143846	0,00120518776	-0,083286610686786739	0,0031075354247630451	0,083286610686786739
1	0	0	1	0	0	1	52168,48	-0,300000012	4,01385689	-0,0008329052144421472	-0,29984587664066656	0,00120353838	-0,0874511452967072	0,003262919810335511	0,0874511452967072
1	0	0	1	0	0	1	52218,48	-0,300000012	4,00738955	-0,00083289309053454131	-0,29984151203393658	0,00120158179	-0,091615620250131789	0,0034183019700439078	0,091615620250131789
1	0	0	1	0	0	1	52268,48	-0,300000012	4,00334549	-0,00083291542293959206	-0,29984955169973984	0,00120040134	-0,095780116064057843	0,0035736849080856614	0,095780116064057843
1	0	0	1	0	0	1	52318,48	-0,300000012	3,99899578	-0,00083291131701072051	-0,2998480735653488	0,0011990912	-0,099944716268110042	0,0037290717410633754	0,099944716268110042
1	0	0	1	0	0	1	52368,48	-0,300000012	3,99430275	-0,00083289733252922701	-0,29984303915202054	0,00119766383	-0,10410923282272394	0,0038844554529680787	0,10410923282272394
1	0	0	1	0	0	1	52418,48	-0,300000012	3,98941922	-0,00083289612661136525	-0,2998426050215911	0,00119619782	-0,1082737316305317	0,0040398385027155834	0,1082737316305317
1	0	0	1	0	0	1	52468,48	-0,300000012	3,98266578	-0,00083290109034048192	-0,29984439196406976	0,00119417999	-0,1124382057951865	0,0041952206329939187	0,1124382057951865
1	0	0	1	0	0	1	52518,48	-0,300000012	3,98016691	-0,00083289830010798246	-0,29984338748037184	0,00119342678	-0,1166027116560367	0,0043506039458999206	0,1166027116560367
1	0	0	1	0	0	1	52568,48	-0,300000012	3,97696185	-0,00083289624101585818	-0,29984264620720845	0,00119246275	-0,1207672033491576	0,0045059867301888928	0,1207672033491576
1	0	0	1	0	0	1	52618,48	-0,300000012	3,97400498	-0,00083289700626995827	-0,29984292169868397	0,00119157729	-0,12493168141026573	0,0046613690058491411	0,12493168141026573
1	0	0	1	0	0	1	52668,48	-0,300000012	3,9701705	-0,0008328987125605344	-0,2998435359632903	0,0011904299	-0,1290961587026892	0,0048167512528287302	0,1290961587026892
1	0	0	1	0	0	1	52718,48	-0,300000012	3,96637416	-0,00083290645625193907	-0,29984632369219078	0,00118930265	-0,13326066862902654	0,0049721347174235238	0,13326066862902654
1	0	0	1	0	0	1	52768,48	-0,300000012	3,96248245	-0,00083290010524458355	-0,29984403732954701	0,00118812674	-0,137425176056618	0,0051275180887867482	0,137425176056618
1	0	0	1	0	0	1	52818,48	-0,300000012	3,95870519	-0,00083290657816661734	-0,29984636758147488	0,00118700333	-0,14158969868471672	0,0052829020273013357	0,14158969868471672
1	0	0	1	0	0	1	52868,48	-0,300000012	3,95521426	-0,00083290917074680333	-0,2998473009103401	0,00118596037	-0,14575425064510387	0,0054382870602430413	0,14575425064510387
1	0	0	1	0	0	1	52918,48	-0,300000012	3,95128441	-0,00083291779386997235	-0,29985040523467507	0,00118479424	-0,14991878791316294	0,0055936715449942342	0,14991878791316294
1	0	0	1	0	0	1	52968,48	-0,300000012	3,94695377	-0,00083290919734040896	-0,29984731048403808	0,00118348352	-0,15408331729876275	0,0057490557356402733	0,15408331729876275
1	0	0	1	0	0	1	53018,48	-0,300000012	3,94277596	-0,00083290522401531546	-0,2998458800870071	0,00118222518	-0,15824785577829955	0,0059044402655933286	0,15824785577829955
1	0	0	1	0	0	1	53068,48	-0,300000012	3,93884611	-0,0008329180126024617	-0,29985048397837114	0,00118106487	-0,16241239908328099	0,0060598249755902106	0,16241239908328099
1	0	0	1	0	0	1	53118,48	-0,300000012	3,93571758	-0,00083291943421628736	-0,29985099575934746	0,00118012889	-0,16657694859130627	0,0062152099170309978	0,16657694859130627
1	0	0	1	0	0	1	53168,48	-0,300000012	3,93207383	-0,00083290582128034701	-0,29984609510241805	0,00117901701	-0,17074149947668726	0,0063705949098627802	0,17074149947668726
1	0	0	1	0	0	1	53218,48	-0,300000012	3,92843008	-0,00083291255149576397	-0,29984851797996365	0,00117793388	-0,17490603827979613	0,0065259794518887424	0,17490603827979613
1	0	0	1	0	0	1	53268,48	-0,300000012	3,92478633	-0,00083291720801757453	-0,29985019432781229	0,00117684796	-0,17907058788366893	0,0066813643969057306	0,17907058788366893
1	0	0	1	0	0	1	53318,48	-0,300000012	3,92205834	-0,00083290047768420634	-0,29984417140781101	0,00117600628	-0,18323512450375763	0,0068367488574802778	0,18323512450375763
1	0	0	1	0	0	1	53368,48	-0,300000012	3,91900611	-0,00083290595189399194	-0,29984614212333011	0,00117509882	-0,18739965331213782	0,0069921330265894771	0,18739965331213782
1	0	0	1	0	0	1	53418,48	-0,300000012	3,91587758	-0,0008329091792255639	-0,29984730396269389	0,00117416529	-0,19156418247482787	0,0071475172089184525	0,19156418247482787
1	0	0	1	0	0	1	53468,48	-0,300000012	3,91219568	-0,00083291308226188032	-0,29984870905576512	0,00117306679	-0,19572875999293008	0,0073029031954528704	0,19572875999293008
1	0	0	1	0	0	1	53518,48	-0,300000012	3,90881896	-0,00083290846959418726	-0,29984704849539872	0,00117204781	-0,19989332073419405	0,0074582885560208973	0,19989332073419405
1	0	0	1	0	0	1	53568,48	-0,300000012	3,90569043	-0,00083291768238113997	-0,29985036509869555	0,00117112265	-0,20405787656796752	0,0076136737334838554	0,20405787656796752
1	0	0	1	0	0	1	53618,48	-0,300000012	3,9021039	-0,00083290423689285914	-0,29984552472292346	0,00117002835	-0,20822241598167795	0,0077690582982921843	0,20822241598167795
1	0	0	1	0	0	1	53668,48	-0,300000012	3,89901352	-0,0008329092071337833	-0,2998473140096528	0,00116910879	-0,21238696087069424	0,0079244430673915366	0,21238696087069424
1	0	0	1	0	0	1	53718,48	-0,300000012	3,8959229	-0,00083291743948393408	-0,29985027765570157	0,00116819353	-0,21655150918296256	0,0080798279642170253	0,21655150918296256
1	0	0	1	0	0	1	53768,48	-0,300000012	3,89309955	-0,00083290774505005939	-0,29984678765951322	0,00116733334	-0,22071607048677187	0,0082352133457743744	0,22071607048677187
1	0	0	1	0	0	1	53818,48	-0,300000012	3,89061952	-0,00083291132301588851	-0,29984807572720928	0,0011665948	-0,2248806439761729	0,0083905991819925363	0,2248806439761729
1	0	0	1	0	0	1	53868,48	-0,300000012	3,88787246	-0,00083290832053787174	-0,29984699483512531	0,00116576685	-0,22904519338112019	0,0085459841195873446	0,22904519338112019
1	0	0	1	0	0	1	53918,48	-0,300000012	3,88619375	-0,00083291244073046579	-0,29984847810445638	0,00116526929	-0,23320975126019728	0,0087013693733633306	0,23320975126019728
1	0	0	1	0	0	1	53968,48	-0,300000012	3,88392353	-0,00083291116906371379	-0,2998480203044265	0,00116458675	-0,23737433198051763	0,0088567554793768128	0,23737433198051763
1	0	0	1	0	0	1	54018,48	-0,300000012	3,88121462	-0,00083291920445859443	-0,29985091304657811	0,0011637857	-0,24153888102775427	0,0090121404036249587	0,24153888102775427
1	0	0	1	0	0	1	54068,48	-0,300000012	3,87814331	-0,00083290621304677594	-0,29984623613833222	0,00116284669	-0,24570342013171926	0,0091675249568762675	0,24570342013171926
1	0	0	1	0	0	1	54118,48	-0,300000012	3,87602568	-0,00083290294699867571	-0,2998450603610183	0,0011622071	-0,24986795851173446	0,0093229094831160371	0,24986795851173446
1	0	0	1	0	0	1	54168,48	-0,300000012	3,87388921	-0,00083290753628644672	-0,2998467125046128	0,00116157299	-0,25403246275072906	0,0094782927355084262	0,25403246275072906
1	0	0	1	0	0	1	54218,48	-0,300000012	3,87114191	-0,0008329095593773655	-0,29984744081734221	0,00116075203	-0,25819700189811274	0,0096336772903797466	0,25819700189811274
1	0	0	1	0	0	1	54268,48	-0,300000012	3,86902452	-0,00083290550091697114	-0,29984597977160294	0,00116011139	-0,26236155429641517	0,0097890623396606618	0,26236155429641517
1	0	0	1	0	0	1	54318,48	-0,300000012	3,86725044	-0,00083290500835080934	-0,29984580244778502	0,00115957879	-0,26652606248365955	0,0099444457393675584	0,26652606248365955
1	0	0	1	0	0	1	54368,48	-0,300000012	3,86562872	-0,0008329044772634903	-0,29984561125635059	0,00115909183	-0,27069060313008835	0,010099830350170267	0,27069060313008835
1	0	0	1	0	0	1	54418,48	-0,300000012	3,86343503	-0,00083290037003987366	-0,29984413265585133	0,00115842838	-0,27485512188369309	0,010255214144122275	0,27485512188369309
1	0	0	1	0	0	1	54468,48	-0,300000012	3,86122203	-0,00083290610583457677	-0,29984619754194061	0,00115777273	-0,27901965410644262	0,010410598440626186	0,27901965410644262
1	0	0	1	0	0	1	54518,48	-0,300000012	3,85918069	-0,00083291798471245504	-0,29985047393796877	0,00115717715	-0,28318419450651888	0,010565983042237149	0,28318419450651888
1	0	0	1	0	0	1	54568,48	-0,300000012	3,85765457	-0,00083290515684253645	-0,29984585590480666	0,00115670171	-0,28734874185349824	0,010721367903046408	0,28734874185349824
1	0	0	1	0	0	1	54618,48	-0,300000012	3,8553462	-0,00083290694662100736	-0,29984650022505504	0,00115601206	-0,2915132813697568	0,010876752471680944	0,2915132813697568
1	0	0	1	0	0	1	54668,48	-0,300000012	3,8536675	-0,00083289412119653478	-0,2998418830722535	0,00115549087	-0,29567776821105626	0,011032135074941936	0,29567776821105626
1	0	0	1	0	0	1	54718,48	-0,300000012	3,85168362	-0,00083289711623887219	-0,29984296128749293	0,00115490018	-0,2998422610171001	0,01118751790075556	0,2998422610171001
1	0	0	1	0	0	1	54768,48	-0,300000012	3,84924173	-0,00083289651237262618	-0,2998427438956448	0,00115416723	-0,30400672699556691	0,011342899725596214	0,30400672699556691
1	0	0	1	0	0	1	54818,48	-0,300000012	3,84681892	-0,00083292556082540083	-0,29985320133862419	0,00115348096	-0,3081712623839257	0,011498284140213264	0,3081712623839257
1	0	0	1	0	0	1	54868,48	-0,300000012	3,84447241	-0,00083291199202835558	-0,29984831657169702	0,0011527586	-0,31233583864969626	0,011653670080021504	0,31233583864969626
1	0	0	1	0	0	1	54918,48	-0,300000012	3,84224033	-0,00083290493341949248	-0,29984577547251104	0,00115207955	-0,31650038898126234	0,011809055052189704	0,31650038898126234
1	0	0	1	0	0	1	54968,48	-0,300000012	3,83964586	-0,00083290797267026368	-0,29984686960278662	0,00115130574	-0,32066492011722701	0,011964439308144213	0,32066492011722701
1	0	0	1	0	0	1	55018,48	-0,300000012	3,83710885	-0,00083289604570137139	-0,29984257589399341	0,00115052855	-0,32482940652356326	0,012119821895176138	0,32482940652356326
1	0	0	1	0	0	1	55068,48	-0,300000012	3,83449531	-0,00083292192221846835	-0,29985189144013094	0,0011497807	-0,32899391704430784	0,012275205381949066	0,32899391704430784
1	0	0	1	0	0	1	55118,48	-0,300000012	3,83163357	-0,00083291305178734989	-0,29984869808493427	0,00114891038	-0,33315849863965747	0,012430591520611067	0,33315849863965747
1	0	0	1	0	0	1	55168,48	-0,300000012	3,8286767	-0,00083289598762492339	-0,29984255498647213	0,00114800024	-0,33732303090217146	0,012585975818598643	0,33732303090217146
1	0	0	1	0	0	1	55218,48	-0,300000012	3,82558632	-0,00083290387111074394	-0,29984539304136224	0,0011470844	-0,34148753494846758	0,01274135906380119	0,34148753494846758
1	0	0	1	0	0	1	55268,48	-0,300000012	3,82192349	-0,0008328973237888681	-0,29984303600549133	0,00114597718	-0,34565203017297658	0,012896741979851003	0,34565203017297658
1	0	0	1	0	0	1	55318,48	-0,300000012	3,81860399	-0,00083290052865280038	-0,29984418975650483	0,00114498625	-0,34981654381631923	0,013052125583132259	0,34981654381631923
1	0	0	1	0	0	1	55368,48	-0,300000012	3,81564713	-0,00083290352973176371	-0,2998452701449296	0,00114410371	-0,35398105038717664	0,013207508922529584	0,35398105038717664
1	0	0	1	0	0	1	55418,48	-0,300000012	3,81156468	-0,0008329044802867703	-0,29984561234473133	0,001142881	-0,35814557759491213	0,013362893031916578	0,35814557759491213
1	0	0	1	0	0	1	55468,48	-0,300000012	3,80792093	-0,00083290801706744576	-0,2998468855857721	0,00114179321	-0,36231010375710432	0,013518277102292946	0,36231010375710432
1	0	0	1	0	0	1	55518,48	-0,300000012	3,80385756	-0,00083291107870472806	-0,29984798777519168	0,001140579	-0,36647466767597798	0,013673662581421862	0,36647466767597798
1	0	0	1	0	0	1	55568,48	-0,300000012	3,79954624	-0,00083291555050512154	-0,29984959762333037	0,00113929238	-0,37063923785960774	0,013829048294297251	0,37063923785960774
1	0	0	1	0	0	1	55618,48	-0,300000012	3,79458618	-0,00083290653746492339	-0,29984635292886509	0,00113779283	-0,37480379331883226	0,013984433457785285	0,37480379331883226
1	0	0	1	0	0	1	55668,48	-0,300000012	3,78962612	-0,0008329028089592855	-0,29984501066683789	0,0011363005	-0,37896832641437581	0,01413981778685431	0,37896832641437581
1	0	0	1	0	0	1	55718,48	-0,300000012	3,78441811	-0,00083290676666299507	-0,29984643544017069	0,00113474426	-0,38313286089504685	0,014295202167604309	0,38313286089504685
1	0	0	1	0	0	1	55768,48	-0,300000012	3,77859974	-0,000832907373516096	-0,29984665390728666	0,00113300048	-0,38729738621797754	0,014450586206666704	0,38729738621797754
1	0	0	1	0	0	1	55818,48	-0,300000012	3,77249503	-0,00083290277833077645	-0,29984499964057472	0,00113116379	-0,39146189400440544	0,014605969591418595	0,39146189400440544
1	0	0	1	0	0	1	55868,48	-0,300000012	3,76581812	-0,00083290364199214515	-0,29984531055866688	0,00112916285	-0,39562642650007296	0,01476135389810544	0,39562642650007296
1	0	0	1	0	0	1	55918,48	-0,300000012	3,75845456	-0,00083292246921691635	-0,29985208835957184	0,00112698041	-0,39979098898340352	0,014916739323672317	0,39979098898340352
1	0	0	1	0	0	1	55968,48	-0,300000012	3,75088096	-0,00083291927772760384	-0,2998509394234215	0,00112470519	-0,4039556165914064	0,015072127179128275	0,4039556165914064
1	0	0	1	0	0	1	56018,48	-0,300000012	3,74340272	-0,0008329093882573975	-0,29984737921415386	0,00112244952	-0,40812017197532211	0,015227512339806435	0,40812017197532211
1	0	0	1	0	0	1	56068,48	-0,300000012	3,73457003	-0,00083290460026429773	-0,29984565553664109	0,00111979456	-0,41228471661829542	0,01538289709972559	0,41228471661829542
1	0	0	1	0	0	1	56118,48	-0,300000012	3,72539401	-0,0008329130935387479	-0,2998487131154375	0,00111705461	-0,41644928698784198	0,015538282819537789	0,41644928698784198
1	0	0	1	0	0	1	56168,48	-0,300000012	3,71522617	-0,0008329011008954711	-0,29984439576386592	0,00111398974	-0,42061381344222618	0,01569366690081623	0,42061381344222618
1	0	0	1	0	0	1	56218,48	-0,300000012	3,70439029	-0,0008329027685738272	-0,29984499612807296	0,00111074292	-0,42477832052224134	0,015849050259210915	0,42477832052224134
1	0	0	1	0	0	1	56268,48	-0,300000012	3,69260073	-0,0008329021687573856	-0,29984478019415437	0,00110720703	-0,42894283802571974	0,01600443400651903	0,42894283802571974
1	0	0	1	0	0	1	56318,48	-0,300000012	3,68001008	-0,00083291570555004813	-0,29984965343950381	0,00110344973	-0,43310741230357434	0,016159819872155453	0,43310741230357434
1	0	0	1	0	0	1	56368,48	-0,300000012	3,66665626	-0,00083290282642179059	-0,29984501695333978	0,00109942863	-0,4372719542900464	0,016315204532956976	0,4372719542900464
1	0	0	1	0	0	1	56418,48	-0,300000012	3,65196681	-0,00083290340786013338	-0,29984522627114272	0,00109502487	-0,44143646964788678	0,016470588200208451	0,44143646964788678
1	0	0	1	0	0	1	56468,48	-0,300000012	3,63300443	-0,000832906066828304	-0,29984618349968237	0,00108934252	-0,44560098704101222	0,016625971943399146	0,44560098704101222
1	0	0	1	0	0	1	56518,48	-0,300000012	3,61503386	-0,00083290914222929203	-0,29984729064403603	0,00108395808	-0,44976552142396973	0,016781356320503322	0,44976552142396973
1	0	0	1	0	0	1	56568,48	-0,300000012	3,59469795	-0,00083291070707639053	-0,29984785398899046	0,00107786246	-0,45393009685882675	0,016936742229309062	0,45393009685882675
1	0	0	1	0	0	1	56618,48	-0,300000012	3,57134771	-0,000832914097941584	-0,29984907470045779	0,00107086531	-0,45809464522278554	0,01709212712806319	0,45809464522278554
1	0	0	1	0	0	1	56668,48	-0,300000012	3,54446816	-0,00083289445883201242	-0,29984200462102515	0,00106278039	-0,46225915075384819	0,017247510428664374	0,46225915075384819
1	0	0	1	0	0	1	56718,48	-0,300000012	3,51285768	-0,00083290685829023526	-0,29984646842597709	0,00105331792	-0,46642369726236902	0,017402895258189619	0,46642369726236902
1	0	0	1	0	0	1	56768,48	-0,300000012	3,47443676	-0,00083291096616619162	-0,29984794726131872	0,00104180269	-0,47058826023898272	0,017558280702161549	0,47058826023898272
1	0	0	1	0	0	1	56818,48	-0,300000012	3,42706871	-0,00083290365604725158	-0,29984531561850515	0,00102759048	-0,47475278616667206	0,017713664763788301	0,47475278616667206
1	0	0	1	0	0	1	56868,48	-0,300000012	3,36712885	-0,00083290497110121792	-0,29984578903793216	0,00100961945	-0,47891728634502074	0,017869047864672531	0,47891728634502074
1	0	0	1	0	0	1	56918,48	-0,300000012	3,29078293	-0,00083291669906510246	-0,29985001110492269	0,000986741274	-0,48308184409908198	0,018024433113784006	0,48308184409908198
1	0	0	1	0	0	1	56968,48	-0,300000012	3,19287992	-0,00083290839120911219	-0,29984702027677178	0,000957375509	-0,48724637286723731	0,018179817281392362	0,48724637286723731
1	0	0	1	0	0	1	57018,48	-0,300000012	3,06855559	-0,00083291138787898765	-0,29984809907792493	0,000920100545	-0,49141092337334074	0,018335202260072787	0,49141092337334074
1	0	0	1	0	0	1	57068,48	-0,300000012	2,91862965	-0,00083290145937105011	-0,29984452481507411	0,000875135127	-0,49557547055171846	0,018490587114591293	0,49557547055171846
1	0	0	1	0	0	1	57118,48	-0,300000012	2,73755121	-0,00083290881761742963	-0,29984717378376582	0,000820846995	-0,49973998849809594	0,018645970878424566	0,49973998849809594
1	0	0	1	0	0	1	57168,48	-0,300000012	2,52465248	-0,00083290715516441395	-0,29984657530068128	0,000757008384	-0,50390452881088109	0,018801355476778586	0,50390452881088109
1	0	0	1	0	0	1	57218,48	-0,300000012	2,30187178	-0,00083292452250917747	-0,29985282754478451	0,000690222776	-0,50806910626042637	0,018956741460755046	0,50806910626042637
1	0	0	1	0	0	1	57268,48	-0,300000012	2,08368874	-0,00083291521888474624	-0,29984947823999546	0,000624793	-0,51223368813389613	0,019112127609794086	0,51223368813389613
1	1	0	0	0	0	2	57308,32	0,300000012	2,91686034	0,00083383002514640499	0,3001788084935792	0,000875579659	-0,51221799859684294	0,019111542212071824	0,001667677194762561
1	1	0	0	0	0	2	57358,32	0,300000012	3,88560724	0,00083382289085619981	0,30017624014911008	0,00116636697	-0,50804886282802541	0,018955986151074586	0,0058368129635800922
1	1	0	0	0	0	2	57408,32	0,300000012	3,9077363	0,00083383338827722611	0,30018001922067251	0,00117302442	-0,50387970482827482	0,018800429260611341	0,010005970963330733
1	1	0	0	0	0	2	57458,32	0,300000012	3,91698861	0,00083382058134509453	0,30017540872511379	0,00117578369	-0,4997105844621369	0,018644873774308787	0,014175091329468621
1	1	0	0	0	0	2	57508,32	0,300000012	3,92200589	0,00083383011188440845	0,30017883971926042	0,00117730314	-0,49554139172676128	0,018489315587812672	0,01834428406484425
1	1	0	0	0	0	2	57558,32	0,300000012	3,92584038	0,00083382343295878835	0,3001764353060416	0,00117844471	-0,49137222392023853	0,018333758331445578	0,022513451871366966
1	1	0	0	0	0	2	57608,32	0,300000012	3,92915988	0,00083383248668412365	0,30017969464715629	0,00117945403	-0,48720305872024352	0,018178201172331533	0,02668261707136201
1	1	0	0	0	0	2	57658,32	0,300000012	3,93246007	0,00083383233687116032	0,3001796407144896	0,00118044449	-0,48303392960249805	0,018022645359494733	0,030851746189107494
1	1	0	0	0	0	2	57708,32	0,300000012	3,93577957	0,00083382186379697574	0,30017587040779014	0,00118142611	-0,47886481690900608	0,017867090159468915	0,035020858882599405
1	1	0	0	0	0	2	57758,32	0,300000012	3,93827868	0,00083382042617599168	0,30017535286423686	0,00118217419	-0,47469570214056723	0,017711534882024038	0,039189973651038266
1	1	0	0	0	0	2	57808,32	0,300000012	3,94020534	0,00083383702563246093	0,30018132866855462	0,00118277606	-0,4705265595467977	0,017555978566378662	0,043359116244807827
1	1	0	0	0	0	2	57858,32	0,300000012	3,94217038	0,0008338327529927095	0,30017979051824698	0,00118335988	-0,46635740495909011	0,017400421803223334	0,047528270832515418
1	1	0	0	0	0	2	57908,32	0,300000012	3,94424963	0,00083383963951137331	0,30018226966496128	0,00118399377	-0,4621882427760537	0,01724486475667607	0,051697433015551821
1	1	0	0	0	0	2	57958,32	0,300000012	3,94602394	0,00083384009078972864	0,30018243212516896	0,00118452706	-0,45801904518320582	0,017089306388941139	0,055866630608399693
1	1	0	0	0	0	2	58008,32	0,300000012	3,94762635	0,00083384801202846886	0,30018528377111014	0,00118501938	-0,45384981987981421	0,016933746987288557	0,060035855911791296
1	1	0	0	0	0	2	58058,32	0,300000012	3,94936228	0,00083385265710618752	0,30018695599908576	0,00118554709	-0,44968057702719091	0,016778186930850547	0,064205098764414566
1	1	0	0	0	0	2	58108,32	0,300000012	3,95096469	0,00083383919828136768	0,30018211082215962	0,00118600891	-0,44551135987436678	0,016622627833306602	0,068374315917238554
1	1	0	0	0	0	2	58158,32	0,300000012	3,95237637	0,00083383091728058112	0,30017912966188205	0,00118642091	-0,44134220384863258	0,016467071016496563	0,072543471942972749
1	1	0	0	0	0	2	58208,32	0,300000012	3,95369267	0,00083382484047777126	0,30017694201287456	0,00118680741	-0,43717305738177478	0,016311514556341056	0,076712618409830605
1	1	0	0	0	0	2	58258,32	0,300000012	3,95519996	0,0008338242879708608	0,30017674311038714	0,0011872591	-0,43300393043337843	0,01615595882444559	0,080881745358226995
1	1	0	0	0	0	2	58308,32	0,300000012	3,95664978	0,00083384319520990042	0,30018354971642874	0,00118772115	-0,42883477678439763	0,016000402096315418	0,085050899007207808
1	1	0	0	0	0	2	58358,32	0,300000012	3,9577179	0,00083383180514640282	0,30017944929357722	0,00118802558	-0,4246655902692071	0,015844844141902771	0,089220085522398336
1	1	0	0	0	0	2	58408,32	0,300000012	3,96033144	0,00083384405873881446	0,30018386058683718	0,00118882756	-0,42049639891487603	0,015689286006935286	0,093389276876729395
1	1	0	0	0	0	2	58458,32	0,300000012	3,96294498	0,00083383592619333005	0,30018093287046829	0,00118960056	-0,41632716978660627	0,01553372646257136	0,097558506004999078
1	1	0	0	0	0	2	58508,32	0,300000012	3,96359372	0,00083384225684735501	0,30018321190591302	0,00118980429	-0,41215797068131533	0,015378168038405139	0,10172770511028997
1	1	0	0	0	0	2	58558,32	0,300000012	3,96506262	0,00083384016829563507	0,30018246002729523	0,00119024224	-0,40798875366089152	0,015222608945801226	0,10589692213071384
1	1	0	0	0	0	2	58608,32	0,300000012	3,96622634	0,00083384240687059034	0,30018326591427763	0,00119059475	-0,40381954854616589	0,015067050297414918	0,11006612724543942
1	1	0	0	0	0	2	58658,32	0,300000012	3,96622634	0,00083383783140944115	0,30018161874826701	0,00119058823	-0,39965034684106118	0,01491149177624615	0,11423532895054421
1	1	0	0	0	0	2	58708,32	0,300000012	3,96780968	0,0008338326699932416	0,30017976063843859	0,00119105622	-0,39548114949859411	0,014755933417853261	0,1184045262930112
1	1	0	0	0	0	2	58758,32	0,300000012	3,96929765	0,00083384056707554394	0,30018260358806214	0,00119151408	-0,39131197410714362	0,01460037587848231	0,12257370168446173
1	1	0	0	0	0	2	58808,32	0,300000012	3,97061396	0,00083384235648479731	0,30018324777539219	0,00119191175	-0,38714275566294362	0,014444816732755392	0,12674292012866176
1	1	0	0	0	0	2	58858,32	0,300000012	3,97181582	0,00083383951866295603	0,3001822261595312	0,00119226857	-0,38297352837919597	0,014289257257213066	0,13091214741240939
1	1	0	0	0	0	2	58908,32	0,300000012	3,97301769	0,0008338471739341815	0,30018498205716723	0,00119264028	-0,37880430564550624	0,014133697951439522	0,13508137014609906
1	1	0	0	0	0	2	58958,32	0,300000012	3,97416234	0,00083384237528178432	0,30018325454230746	0,00119297695	-0,37463508686775206	0,013978138793267246	0,13925058892385328
1	1	0	0	0	0	2	59008,32	0,300000012	3,97555494	0,00083384776895741619	0,30018519626553133	0,00119340268	-0,37046587263072934	0,013822579804515771	0,14341980316087602
1	1	0	0	0	0	2	59058,32	0,300000012	3,97742462	0,00083384914675520525	0,30018569227273446	0,00119396602	-0,36629663874453216	0,013667020082627174	0,14758903704707328
1	1	0	0	0	0	2	59108,32	0,300000012	3,97851181	0,00083384273913005978	0,3001833855276864	0,00119428313	-0,36212742205241069	0,013511461002272662	0,15175825373919475
1	1	0	0	0	0	2	59158,32	0,300000012	3,98026705	0,00083384014114406374	0,30018245025272954	0,0011948063	-0,35795821225932154	0,013355902179330322	0,1559274635322839
1	1	0	0	0	0	2	59208,32	0,300000012	3,98236537	0,00083385208766327962	0,30018675099963923	0,00119545334	-0,3537889670940976	0,013200342036606075	0,16009670869750778
1	1	0	0	0	0	2	59258,32	0,300000012	3,98425412	0,00083384100136491994	0,30018275993223718	0,00119600445	-0,34961973164806502	0,013044782256517923	0,16426594414354029
1	1	0	0	0	0	2	59308,32	0,300000012	3,98660064	0,00083384871561494144	0,30018553706223974	0,00119671982	-0,34545050084261504	0,012889222649576146	0,16843517494899034
1	1	0	0	0	0	2	59358,32	0,300000012	3,98778319	0,00083383710729413568	0,3001813580667575	0,00119705813	-0,34128127341166381	0,012733663168541458	0,1726044023799416
1	1	0	0	0	0	2	59408,32	0,300000012	3,98867989	0,00083383362623386906	0,30018010488506387	0,00119732239	-0,33711209171666445	0,012578105393976624	0,1767735840749409
1	1	0	0	0	0	2	59458,32	0,300000012	3,99087381	0,00083384756748874982	0,30018512373681158	0,00119800097	-0,33294291096787885	0,012422547654716298	0,18094276482372643
1	1	0	0	0	0	2	59508,32	0,300000012	3,99207568	0,00083384627140396173	0,3001846571462887	0,00119835988	-0,32877368487555187	0,012266988223627482	0,18511199091605338
1	1	0	0	0	0	2	59558,32	0,300000012	3,99404049	0,00083383251188033165	0,3001797037177911	0,00119892985	-0,32460448840490547	0,012111429897763392	0,18928118738669978
1	1	0	0	0	0	2	59608,32	0,300000012	3,99570012	0,00083384817495942118	0,30018534242625286	0,00119945058	-0,32043529545097946	0,011955871703112867	0,19345038034062579
1	1	0	0	0	0	2	59658,32	0,300000012	3,99713111	0,00083383990652362509	0,30018236578937178	0,00119986827	-0,31626606468501754	0,011800312097644445	0,19761961110658774
1	1	0	0	0	0	2	59708,32	0,300000012	3,99909592	0,00083384248783522176	0,3001832950615449	0,00120046176	-0,31209684567021069	0,011644752930627418	0,20178883012139459
1	1	0	0	0	0	2	59758,32	0,300000012	4,0006032	0,00083383420207930931	0,30018031218942195	0,00120090228	-0,30792767121499507	0,011489195426188651	0,20595800457661014
1	1	0	0	0	0	2	59808,32	0,300000012	4,00220537	0,00083383782982660672	0,30018161817844659	0,00120138854	-0,30375847309402861	0,011333637038748901	0,21012720269757674
1	1	0	0	0	0	2	59858,32	0,300000012	4,00392246	0,00083384174480703142	0,30018302757139686	0,00120190962	-0,29958925896128416	0,011178078053888187	0,21429641683032112
1	1	0	0	0	0	2	59908,32	0,300000012	4,00550604	0,00083384576987392371	0,30018447659547539	0,00120239076	-0,29542004116945197	0,011022518932501987	0,21846563462215328
1	1	0	0	0	0	2	59958,32	0,300000012	4,00668859	0,00083383954367041587	0,30018223516221677	0,00120273675	-0,29125083040625581	0,010866960073363651	0,22263484538534941
1	1	0	0	0	0	2	60008,32	0,300000012	4,00758505	0,00083384159069756672	0,30018297209198963	0,00120300881	-0,28708159942570227	0,010711400459888526	0,22680407636590301
1	1	0	0	0	0	2	60058,32	0,300000012	4,01023722	0,00083384532372156787	0,30018431598062758	0,00120381033	-0,2829123971760561	0,010555841918402184	0,23097327861554918
1	1	0	0	0	0	2	60108,32	0,300000012	4,01180124	0,00083384384943213722	0,30018378523643354	0,00120427774	-0,27874315239542458	0,010400281790027597	0,2351425233961807
1	1	0	0	0	0	2	60158,32	0,300000012	4,01376629	0,00083382403582831232	0,30017665233906982	0,00120483898	-0,27457398063536221	0,010244724386148621	0,23931169515624307
1	1	0	0	0	0	2	60208,32	0,300000012	4,01538754	0,00083384723440971635	0,30018500382835974	0,00120535912	-0,27040479301605357	0,010089166390539843	0,24348088277555165
1	1	0	0	0	0	2	60258,32	0,300000012	4,01765776	0,00083384380957318682	0,30018377088721139	0,00120603561	-0,26623562177388605	0,0099336090059842214	0,2476500540177192
1	1	0	0	0	0	2	60308,32	0,300000012	4,01947021	0,00083382903892629683	0,30017845345434093	0,00120655831	-0,26206643609080944	0,0097780510826188646	0,25181923970079578
1	1	0	0	0	0	2	60358,32	0,300000012	4,02151155	0,0008338354044573175	0,30018074504550406	0,00120718032	-0,2578972779019912	0,0096224941851012531	0,25598839788961402
1	1	0	0	0	0	2	60408,32	0,300000012	4,02387714	0,00083384364619188838	0,30018371206994413	0,00120790233	-0,25372805934977434	0,0094669350353440794	0,26015761644183088
1	1	0	0	0	0	2	60458,32	0,300000012	4,02567005	0,00083383073457578816	0,30017906388815667	0,00120842189	-0,24955888132614794	0,0093113773977631078	0,26432679446545725
1	1	0	0	0	0	2	60508,32	0,300000012	4,0282836	0,00083384423401620646	0,30018392368669824	0,00120922597	-0,24538969309195942	0,0091558193792123379	0,26849598269964576
1	1	0	0	0	0	2	60558,32	0,300000012	4,03110695	0,00083382844324575526	0,30017823900934637	0,00121005054	-0,24122052241370813	0,0090002620156971891	0,27266515337789715
1	1	0	0	0	0	2	60608,32	0,300000012	4,03436947	0,00083384145160019392	0,30018292201693555	0,0012110488	-0,23705136166945338	0,0088447050228328051	0,27683431412215197
1	1	0	0	0	0	2	60658,32	0,300000012	4,03660154	0,00083384616485569216	0,30018461878891174	0,00121172564	-0,23288210827379997	0,0086891445730201677	0,28100356751780541
1	1	0	0	0	0	2	60708,32	0,300000012	4,03889036	0,00083385621237258112	0,30018823589498502	0,00121242739	-0,22871284464662349	0,0085335837414556454	0,28517283114498189
1	1	0	0	0	0	2	60758,32	0,300000012	4,0409317	0,00083385248881247309	0,30018689541334867	0,00121303473	-0,2245435739157207	0,0083780226448415488	0,28934210187588467
1	1	0	0	0	0	2	60808,32	0,300000012	4,04276323	0,00083385057522190938	0,30018620652074701	0,00121358177	-0,22037433003147347	0,0082224625499122637	0,2935113457601319
1	1	0	0	0	0	2	60858,32	0,300000012	4,04486179	0,00083386720515622029	0,30019219329708774	0,0012142359	-0,2162050363270664	0,0080669005961258291	0,29768063946453901
1	1	0	0	0	0	2	60908,32	0,300000012	4,04722738	0,00083385783248146368	0,30018881913418163	0,00121493242	-0,21203575509912838	0,0079113391078532326	0,30184992069247699
1	1	0	0	0	0	2	60958,32	0,300000012	4,04884863	0,00083384325275321805	0,30018357043202304	0,00121539785	-0,20786650006013187	0,0077557785967252544	0,3060191757314736
1	1	0	0	0	0	2	61008,32	0,300000012	4,05127144	0,00083385580438209907	0,30018808901841178	0,00121614349	-0,20369724868837901	0,0076002182224270682	0,3101884271032265
1	1	0	0	0	0	2	61058,32	0,300000012	4,05367517	0,0008338515968786345	0,30018657431716736	0,00121685886	-0,19952798480058947	0,0074446573811387238	0,314357690991016
1	1	0	0	0	0	2	61108,32	0,300000012	4,05583096	0,00083385867514212928	0,30018912249202074	0,00121751637	-0,19535867103397421	0,007289094678804329	0,31852700475763123
1	1	0	0	0	0	2	61158,32	0,300000012	4,05836821	0,00083385204534729318	0,30018673576588416	0,0012182683	-0,19118939859538182	0,0071335335184740352	0,32269627719622368
1	1	0	0	0	0	2	61208,32	0,300000012	4,06107712	0,00083386111375523942	0,30019000039273875	0,00121909473	-0,18702010590616435	0,0069779716025656909	0,32686556988544115
1	1	0	0	0	0	2	61258,32	0,300000012	4,06489229	0,00083385301627549862	0,30018708530003744	0,00122022815	-0,18285084732175773	0,0068224109591536934	0,33103482846984774
1	1	0	0	0	0	2	61308,32	0,300000012	4,06712437	0,00083385336048735514	0,3001872092163056	0,0012208987	-0,17868157888840707	0,0066668499482643546	0,3352040969031984
1	1	0	0	0	0	2	61358,32	0,300000012	4,06937551	0,00083385319972866112	0,30018715134317587	0,00122157426	-0,17451231676398621	0,0065112891727696678	0,33937335902761933
1	1	0	0	0	0	2	61408,32	0,300000012	4,07208443	0,00083385082880324787	0,30018629781002867	0,00122238393	-0,17034306040762605	0,006355728612489079	0,34354261538397958
1	1	0	0	0	0	2	61458,32	0,300000012	4,07454538	0,0008338487624939945	0,30018555393869882	0,00122311967	-0,16617382912569488	0,0062001689877691507	0,34771184666591078
1	1	0	0	0	0	2	61508,32	0,300000012	4,07700634	0,00083385053176350067	0,30018619087571994	0,00122386101	-0,16200458723566509	0,0060446089672468006	0,35188108855594048
1	1	0	0	0	0	2	61558,32	0,300000012	4,07935286	0,00083385736355351078	0,30018865032011898	0,00122457545	-0,15783531801975018	0,005889047927158935	0,35605035777185542
1	1	0	0	0	0	2	61608,32	0,300000012	4,07994413	0,00083384354339374438	0,30018367506261229	0,00122473261	-0,15366606906080986	0,0057334876428860269	0,36021960673079565
1	1	0	0	0	0	2	61658,32	0,300000012	4,08200455	0,00083382028890152768	0,30017530344542989	0,0012253169	-0,14949690996881901	0,0055779307116698336	0,36438876582278662
1	1	0	0	0	0	2	61708,32	0,300000012	4,08421755	0,00083384271238247552	0,3001833758985561	0,00122601422	-0,14532774227434144	0,0054223734594832928	0,36855793351726419
1	1	0	0	0	0	2	61758,32	0,300000012	4,08717442	0,00083384155052569178	0,30018295763011469	0,00122690015	-0,14115854444912157	0,0052668150830782451	0,3727271313424841
1	1	0	0	0	0	2	61808,32	0,300000012	4,09068441	0,00083384379074805312	0,30018376411016326	0,00122795708	-0,13698932307111966	0,0051112558278872333	0,37689635272048608
1	1	0	0	0	0	2	61858,32	0,300000012	4,09392738	0,00083384744317995174	0,30018507898564435	0,0012289359	-0,13282009442822051	0,0049556963016331379	0,38106558136338522
1	1	0	0	0	0	2	61908,32	0,300000012	4,09684658	0,00083382871283259661	0,30017833606060909	0,00122978457	-0,12865093994791554	0,004800139542485143	0,38523473584369024
1	1	0	0	0	0	2	61958,32	0,300000012	4,10020399	0,00083384716912441779	0,30018498032565235	0,00123081962	-0,12448173187868874	0,0046445807838624237	0,38940394391291699
1	1	0	0	0	0	2	62008,32	0,300000012	4,10361862	0,0008338465217351913	0,3001847472655312	0,00123184372	-0,12031252606235357	0,0044890221092981203	0,39357314972925216
1	1	0	0	0	0	2	62058,32	0,300000012	4,10705233	0,00083384001349740557	0,30018240429993267	0,0012328648	-0,11614333135663382	0,0043334638492858182	0,3977423444349719
1	1	0	0	0	0	2	62108,32	0,300000012	4,10960865	0,00083385317708220749	0,30018714319045261	0,00123365165	-0,1119740812208859	0,0041779035211046362	0,40191159457071987
1	1	0	0	0	0	2	62158,32	0,300000012	4,11254692	0,00083384719010359706	0,30018498787815686	0,00123452488	-0,10780484290245088	0,0040223436338432883	0,40608083288915488
1	1	0	0	0	0	2	62208,32	0,300000012	4,11578989	0,00083385383394857254	0,30018737966234355	0,00123550813	-0,10363555481177315	0,0038667818895126451	0,41025012097983258
1	1	0	0	0	0	2	62258,32	0,300000012	4,11899471	0,00083384818201760448	0,30018534496719885	0,0012364618	-0,099466293499727142	0,0037112211443287565	0,41441938229187846
1	1	0	0	0	0	2	62308,32	0,300000012	4,12290525	0,00083384923658437184	0,30018572461123443	0,00123763725	-0,095297056876613773	0,0035556613203221382	0,41858861891499174
1	1	0	0	0	0	2	62358,32	0,300000012	4,12628222	0,00083383445719546739	0,30018040403123872	0,00123862911	-0,091127853046802099	0,0034001027198776979	0,42275782274480352
1	1	0	0	0	0	2	62408,32	0,300000012	4,13009739	0,00083383551250563725	0,30018078394289907	0,00123977591	-0,086958661953686758	0,0032445445946565222	0,42692701383791885
1	1	0	0	0	0	2	62458,32	0,300000012	4,13404655	0,00083382442233959821	0,30017679148313254	0,00124094484	-0,082789547088580749	0,003088989313604864	0,43109612870302496
1	1	0	0	0	0	2	62508,32	0,300000012	4,13793802	0,0008338268721666601	0,30017767342087315	0,00124211656	-0,078620446883920909	0,0029334345795541638	0,43526522890768474
1	1	0	0	0	0	2	62558,32	0,300000012	4,142097	0,00083384085864987648	0,30018270855482163	0,00124338595	-0,074451277400300646	0,0027778772606123037	0,43943439839130502
1	1	0	0	0	0	2	62608,32	0,300000012	4,14535904	0,00083383894376125606	0,30018201919491962	0,00124436221	-0,070282077883115162	0,0026223188210777446	0,4436035979084905
1	1	0	0	0	0	2	62658,32	0,300000012	4,14894533	0,00083382317038046003	0,30017634077784358	0,00124541519	-0,066112945259078426	0,0024667628774165043	0,44777273053252723
1	1	0	0	0	0	2	62708,32	0,300000012	4,15257025	0,00083385209918518848	0,30018675514752646	0,00124654663	-0,06194373449206592	0,0023112040181357734	0,45194194129953971
1	1	0	0	0	0	2	62758,32	0,300000012	4,15608025	0,00083385348435077402	0,30018725380713632	0,00124760228	-0,057774461100590643	0,0021556428222521366	0,45611121469101504
1	1	0	0	0	0	2	62808,32	0,300000012	4,1598959	0,00083384932291011008	0,3001857556885001	0,00124874152	-0,053605189457135802	0,0020000816915894934	0,46028048633446982
1	1	0	0	0	0	2	62858,32	0,300000012	4,16386366	0,00083384742298722266	0,30018507171626189	0,00124992966	-0,049435934105973184	0,0018445211688141779	0,46444974168563245
1	1	0	0	0	0	2	62908,32	0,300000012	4,16817522	0,00083384014968242906	0,30018245332654106	0,00125121302	-0,045266710457383667	0,0016889618289044896	0,46861896533422195
1	1	0	0	0	0	2	62958,32	0,300000012	4,17248631	0,00083385949407517901	0,30018941730791808	0,0012525362	-0,041097452219381018	0,0015334011984172909	0,47278822357222464
1	1	0	0	0	0	2	63008,32	0,300000012	4,17744637	0,00083383957106040589	0,30018224502261312	0,00125399523	-0,036928217031691558	0,0013778414279682691	0,47695745875991405
1	1	0	0	0	0	2	63058,32	0,300000012	4,18152905	0,00083384321117235558	0,30018355546291258	0,00125522621	-0,032759031021728198	0,001222283492406328	0,48112664476987744
1	1	0	0	0	0	2	63108,32	0,300000012	4,18576384	0,00083384302287300429	0,30018348767514624	0,00125649723	-0,028589804829325021	0,0010667240575835317	0,48529587096228058
1	1	0	0	0	0	2	63158,32	0,300000012	4,19080019	0,00083383629949556454	0,30018106725927238	0,00125799887	-0,024420607902977939	0,00091116571471663693	0,48946506788862765
1	1	0	0	0	0	2	63208,32	0,300000012	4,19526434	0,00083385587009953139	0,3001881126766873	0,0012593685	-0,020251319722379984	0,00075560396703094925	0,4936343560692256
1	1	0	0	0	0	2	63247,13	0,300000012	4,19993353	0,00073476220175623885	0,30018883305987008	0,00126077316	-0,017015001486328646	0,00063485258236772749	0,49687067430527699