File: Experimentelles/Rohdaten/Batteriemessungen/AlteZelle/Studenten_Batterietests/LiCoO2 vs Li 300µm GCPL/ZView-Export/LiCoO2 vs Li 300µm GCPL_02_GCPL_C04_loop2.txt
EC-Lab ASCII FILE
Nb header lines : 3
mode	ox/red	error	control changes	Ns changes	counter inc.	Ns	time/s	control/V/mA	Ewe/V	dq/mA.h	<I>/mA	P/W	(Q-Qo)/mA.h	x	Capacity/mA.h
1	0	0	1	1	0	1	24964,75	-0,300000012	4,18873549	0	0	0	0	0	0
1	0	0	1	0	0	1	25014,75	-0,300000012	4,13491917	-0,00083289275469879309	-0,29984139532180333	0,00123981992	-0,0041603956139636838	0,0001552299540683799	0,0041603956139636838
1	0	0	1	0	0	1	25064,75	-0,300000012	4,12478924	-0,00083289497235914074	-0,29984219367953805	0,0012367859	-0,0083248771124965082	0,00031061235798356474	0,0083248771124965082
1	0	0	1	0	0	1	25114,75	-0,300000012	4,11725378	-0,00083290201186140378	-0,29984472790038349	0,00123453687	-0,01248938817407384	0,00046599586493568806	0,01248938817407384
1	0	0	1	0	0	1	25164,75	-0,300000012	4,10893631	-0,00083290343753662374	-0,29984524114346886	0,001232045	-0,016653916821887373	0,00062138002805392896	0,016653916821887373
1	0	0	1	0	0	1	25214,75	-0,300000012	4,10128641	-0,00083291544655793254	-0,29984956439119238	0,00122976897	-0,020818454458149219	0,00077676452654326144	0,020818454458149219
1	0	0	1	0	0	1	25264,75	-0,300000012	4,09144258	-0,00083290215997066765	-0,29984478121971917	0,0012267977	-0,024982984342383293	0,0009321487357940151	0,024982984342383293
1	0	0	1	0	0	1	25314,75	-0,300000012	4,08381224	-0,00083290410053233306	-0,29984547982192717	0,00122451258	-0,02914751053924224	0,0010875328074638451	0,02914751053924224
1	0	0	1	0	0	1	25364,75	-0,300000012	4,07778358	-0,00083291387510134118	-0,29984899866681261	0,00122271932	-0,03331205665892391	0,0012429176224809771	0,03331205665892391
1	0	0	1	0	0	1	25414,75	-0,300000012	4,06292295	-0,00083290534962879296	-0,29984592949665811	0,00121825095	-0,037476614258276378	0,0013983028658200618	0,037476614258276378
1	0	0	1	0	0	1	25464,75	-0,300000012	4,05304098	-0,00083290442866914816	-0,29984559795118202	0,00121528655	-0,041641135218039443	0,0015536867420868029	0,041641135218039443
1	0	0	1	0	0	1	25514,75	-0,300000012	4,04546738	-0,00083290215868088934	-0,29984478075539891	0,00121301226	-0,045805672945113946	0,0017090712439644778	0,045805672945113946
1	0	0	1	0	0	1	25564,75	-0,300000012	4,03760767	-0,00083290500045319398	-0,29984580379344102	0,00121065974	-0,049970189985899763	0,0018644549740089088	0,049970189985899763
1	0	0	1	0	0	1	25614,75	-0,300000012	4,03377295	-0,0008329033753938144	-0,29984521877205728	0,00120950758	-0,054134702202196224	0,0020198385240451552	0,054134702202196224
1	0	0	1	0	0	1	25664,75	-0,300000012	4,02310896	-0,00083290043032003776	-0,29984415854548486	0,00120630569	-0,058299210107669542	0,0021752219132387942	0,058299210107669542
1	0	0	1	0	0	1	25714,75	-0,300000012	4,01708078	-0,00083291501015259162	-0,29984940728526778	0,0012045193	-0,06246375429365897	0,0023306066561072694	0,06246375429365897
1	0	0	1	0	0	1	25764,75	-0,300000012	4,00731325	-0,00083290012887285811	-0,29984405002449888	0,00120156899	-0,066628290762461197	0,0024859911110371139	0,066628290762461197
1	0	0	1	0	0	1	25814,75	-0,300000012	4,00225782	-0,0008329462507069111	-0,29986065388495898	0,00120011962	-0,070792884933495155	0,0026413777189148054	0,070792884933495155
1	0	0	1	0	0	1	25864,75	-0,300000012	3,99746966	-0,0008329322576456599	-0,29985561638284755	0,00119866373	-0,07495753677244681	0,0027967664784600419	0,07495753677244681
1	0	0	1	0	0	1	25914,75	-0,300000012	3,9939785	-0,0008329192588643895	-0,2998509368215335	0,00119759818	-0,079122131484474048	0,0029521531065229203	0,079122131484474048
1	0	0	1	0	0	1	25964,75	-0,300000012	3,98592806	-0,00083290980116526285	-0,29984753204980666	0,00119517068	-0,083286703038451046	0,0031075388705278086	0,083286703038451046
1	0	0	1	0	0	1	26014,75	-0,300000012	3,97955632	-0,00083291891199847053	-0,29985081194980122	0,00119327323	-0,087451273560640166	0,0032629245960353037	0,087451273560640166
1	0	0	1	0	0	1	26064,75	-0,300000012	3,97255516	-0,00083292280373142822	-0,29985221297368294	0,0011911795	-0,091615894481197274	0,0034183122019736691	0,091615894481197274
1	0	0	1	0	0	1	26114,75	-0,300000012	3,96671748	-0,00083291990407804646	-0,2998511690984528	0,00118942489	-0,095780478867648653	0,0035736984447754291	0,095780478867648653
1	0	0	1	0	0	1	26164,75	-0,300000012	3,9613378	-0,00083292338086333542	-0,29985242074117203	0,00118781673	-0,099945083703491699	0,0037290854505714874	0,099945083703491699
1	0	0	1	0	0	1	26214,75	-0,300000012	3,95424128	-0,00083294050884577958	-0,29985858681492659	0,00118571322	-0,10410971310811766	0,0038844733730618688	0,10410971310811766
1	0	0	1	0	0	1	26264,75	-0,300000012	3,95097899	-0,00083291885020832218	-0,29985078970534752	0,00118470413	-0,10827430786585339	0,0040398600028301926	0,10827430786585339
1	0	0	1	0	0	1	26314,75	-0,300000012	3,94735456	-0,00083291663441061965	-0,29984999201816493	0,00118361425	-0,11243888541277941	0,0041952459904400659	0,11243888541277941
1	0	0	1	0	0	1	26364,75	-0,300000012	3,94455004	-0,00083290489740669722	-0,2998457666967017	0,00118275662	-0,1166034438067959	0,0043506312634291334	0,1166034438067959
1	0	0	1	0	0	1	26414,75	-0,300000012	3,94241357	-0,00083289551759428454	-0,29984238996419226	0,00118210271	-0,12076792600606413	0,0045060136934896979	0,12076792600606413
1	0	0	1	0	0	1	26464,75	-0,300000012	3,94113541	-0,00083290419861839872	-0,29984551513291117	0,00118173182	-0,12493243524386514	0,0046613971323942746	0,12493243524386514
1	0	0	1	0	0	1	26514,75	-0,300000012	3,94769788	-0,00083289752874440614	-0,2998431139782448	0,00118369004	-0,12909695034723842	0,004816780790151239	0,12909695034723842
1	0	0	1	0	0	1	26564,75	-0,300000012	3,94414949	-0,00083290134680271142	-0,29984448847925139	0,00118263147	-0,13326145591082706	0,0049721640919660122	0,13326145591082706
1	0	0	1	0	0	1	26614,75	-0,300000012	3,94411135	-0,00083289728256397773	-0,29984302535328947	0,00118261424	-0,1374259350995872	0,0051275464097004723	0,1374259350995872
1	0	0	1	0	0	1	26664,75	-0,300000012	3,95067382	-0,00083289423151976538	-0,29984192697735974	0,0011845777	-0,14159041182455456	0,0052829286355075123	0,14159041182455456
1	0	0	1	0	0	1	26714,75	-0,300000012	3,94941473	-0,00083289210323492685	-0,29984116079480864	0,00118419714	-0,14575487471949923	0,0054383103452978106	0,14575487471949923
1	0	0	1	0	0	1	26764,75	-0,300000012	3,95714092	-0,00083290195205973248	-0,29984470637178157	0,00118652778	-0,14991936835126944	0,0055936932019203955	0,14991936835126944
1	0	0	1	0	0	1	26814,75	-0,300000012	3,94523692	-0,00083290122997098483	-0,29984444641982931	0,00118295744	-0,15408387609450224	0,0057490765850606221	0,15408387609450224
1	0	0	1	0	0	1	26864,75	-0,300000012	3,93421054	-0,00083291314199732403	-0,29984873474936333	0,001179668	-0,15824841432867648	0,0059044611058588698	0,15824841432867648
1	0	0	1	0	0	1	26914,75	-0,300000012	3,93297052	-0,00083291296458078758	-0,29984867087940941	0,00117929594	-0,1624129614918616	0,006059845959810519	0,1624129614918616
1	0	0	1	0	0	1	26964,75	-0,300000012	3,91570568	-0,00083290715922580826	-0,29984658095159155	0,00117411092	-0,1665775074587335	0,0062152307691261133	0,1665775074587335
1	0	0	1	0	0	1	27014,75	-0,300000012	3,91303492	-0,00083291474062866624	-0,2998493102566535	0,00117332081	-0,17074207856302822	0,0063706165163527501	0,17074207856302822
1	0	0	1	0	0	1	27064,75	-0,300000012	3,910326	-0,00083291283479498496	-0,29984862415651994	0,0011725059	-0,17490667447968685	0,0065260031893620467	0,17490667447968685
1	0	0	1	0	0	1	27114,75	-0,300000012	3,90437412	-0,00083291378554205107	-0,29984896642546784	0,00117072253	-0,17907122245219213	0,0066813880735105178	0,17907122245219213
1	0	0	1	0	0	1	27164,75	-0,300000012	3,89754462	-0,0008329113372034496	-0,29984808502356064	0,0011686713	-0,18323577758659782	0,0068367732248791245	0,18323577758659782
1	0	0	1	0	0	1	27214,75	-0,300000012	3,89470196	-0,00083290986100998195	-0,29984755359390579	0,00116781681	-0,18740032220550406	0,0069921579839003072	0,18740032220550406
1	0	0	1	0	0	1	27264,75	-0,300000012	3,89040971	-0,00083290225960645414	-0,29984481708860275	0,00116651924	-0,19156485100863734	0,007147542152813737	0,19156485100863734
1	0	0	1	0	0	1	27314,75	-0,300000012	3,88751006	-0,00083291312084926502	-0,29984872713606195	0,00116566499	-0,19572940768530822	0,0073029273617263309	0,19572940768530822
1	0	0	1	0	0	1	27364,75	-0,300000012	3,88554502	-0,00083291780866020262	-0,2998504147480199	0,00116508233	-0,19989398278493542	0,0074583132580241946	0,19989398278493542
1	0	0	1	0	0	1	27414,75	-0,300000012	3,8800509	-0,0008329188572830624	-0,29985079225225402	0,00116343633	-0,20405856124654768	0,0076136992797622413	0,20405856124654768
1	0	0	1	0	0	1	27464,75	-0,300000012	3,87779999	-0,00083291440805792806	-0,29984919053118624	0,00116275519	-0,20822312411915946	0,0077690847198537203	0,20822312411915946
1	0	0	1	0	0	1	27514,75	-0,300000012	3,87913537	-0,00083290401270323328	-0,29984544820345082	0,0011631411	-0,21238767627249517	0,0079244697599945971	0,21238767627249517
1	0	0	1	0	0	1	27564,75	-0,300000012	3,87476659	-0,00083291049180428198	-0,29984778067985658	0,00116184016	-0,21655223855637702	0,0080798551781197709	0,21655223855637702
1	0	0	1	0	0	1	27614,75	-0,300000012	3,8709321	-0,00083291228141387302	-0,29984842493931718	0,00116069289	-0,22071680219948483	0,0082352406469594944	0,22071680219948483
1	0	0	1	0	0	1	27664,75	-0,300000012	3,86671615	-0,00083291970696217485	-0,29985109813673824	0,0011594391	-0,22488135665735299	0,0083906257730855731	0,22488135665735299
1	0	0	1	0	0	1	27714,75	-0,300000012	3,85971498	-0,00083290940752294323	-0,29984739033856992	0,00115732546	-0,22904591453157891	0,0085460110266805568	0,22904591453157891
1	0	0	1	0	0	1	27764,75	-0,300000012	3,85521269	-0,0008329042690545321	-0,29984554048991949	0,00115596829	-0,23321045692115882	0,0087013957025225766	0,23321045692115882
1	0	0	1	0	0	1	27814,75	-0,300000012	3,85210323	-0,00083290768319865062	-0,29984676958181702	0,00115504069	-0,23737499991179862	0,0088567804007909504	0,23737499991179862
1	0	0	1	0	0	1	27864,75	-0,300000012	3,84943247	-0,00083290401668018765	-0,29984544963515443	0,00115423487	-0,24153954585484189	0,0090121652092174669	0,24153954585484189
1	0	0	1	0	0	1	27914,75	-0,300000012	3,84876466	-0,00083289963137441216	-0,29984387092505613	0,00115402846	-0,24570405585818179	0,0091675486766853286	0,24570405585818179
1	0	0	1	0	0	1	27964,75	-0,300000012	3,84527373	-0,00083291211862034266	-0,2998483663336455	0,001152999	-0,2498685914994232	0,0093229331007377651	0,2498685914994232
1	0	0	1	0	0	1	28014,75	-0,300000012	3,84416723	-0,00083291016551189952	-0,2998476632145975	0,00115266454	-0,25403314595004771	0,009478318226593577	0,25403314595004771
1	0	0	1	0	0	1	28064,75	-0,300000012	3,84117222	-0,00083291577019459674	-0,29984968090039296	0,00115177431	-0,25819769513320618	0,0096337031559131469	0,25819769513320618
1	0	0	1	0	0	1	28114,75	-0,300000012	3,8394742	-0,00083290848963790464	-0,299847059899952	0,0011512551	-0,26236224063633734	0,009789087947925952	0,26236224063633734
1	0	0	1	0	0	1	28164,75	-0,300000012	3,83768106	-0,0008329169740627209	-0,29985011429292288	0,00115072913	-0,26652679032750454	0,0099444728962000115	0,26652679032750454
1	0	0	1	0	0	1	28214,75	-0,300000012	3,83233953	-0,00083290904564493235	-0,29984726006248442	0,00114911655	-0,27069135586377008	0,010099858435675994	0,27069135586377008
1	0	0	1	0	0	1	28264,75	-0,300000012	3,83094692	-0,00083291556653049254	-0,2998496075813145	0,00114870793	-0,27485593067030301	0,010255244321038115	0,27485593067030301
1	0	0	1	0	0	1	28314,75	-0,300000012	3,82675004	-0,00083290830898616051	-0,29984699486532333	0,00114743947	-0,27902048728172339	0,010410629527516125	0,27902048728172339
1	0	0	1	0	0	1	28364,75	-0,300000012	3,83050799	-0,00083290998375415795	-0,29984759778180973	0,00114856858	-0,28318504013210067	0,01056601459366456	0,28318504013210067
1	0	0	1	0	0	1	28414,75	-0,300000012	3,82808542	-0,00083291473351253402	-0,29984930769484589	0,00114784879	-0,28734958634485664	0,010721399412154419	0,28734958634485664
1	0	0	1	0	0	1	28464,75	-0,300000012	3,82661653	-0,00083291764089961856	-0,2998503543542089	0,00114741235	-0,29151417144620282	0,010876785681629866	0,29151417144620282
1	0	0	1	0	0	1	28514,75	-0,300000012	3,82180905	-0,0008329304798907703	-0,29985497639107955	0,00114598847	-0,29567880180333741	0,011032173639659626	0,29567880180333741
1	0	0	1	0	0	1	28564,75	-0,300000012	3,81910014	-0,00083290918431844966	-0,2998473099849513	0,0011451469	-0,29984339390839328	0,011187560170452896	0,29984339390839328
1	0	0	1	0	0	1	28614,75	-0,300000012	3,81917644	-0,00083291829586360192	-0,29985059014124582	0,00114518229	-0,30400795836741414	0,011342945669735432	0,30400795836741414
1	0	0	1	0	0	1	28664,75	-0,300000012	3,8164866	-0,00083290712715023104	-0,29984656940438362	0,0011443604	-0,30817250959258125	0,011498330675245091	0,30817250959258125
1	0	0	1	0	0	1	28714,75	-0,300000012	3,81723046	-0,00083291123981442714	-0,29984804996351219	0,00114458916	-0,31233706032700352	0,0116537156624444	0,31233706032700352
1	0	0	1	0	0	1	28764,75	-0,300000012	3,8141973	-0,00083291806873844736	-0,29985050837618912	0,00114368903	-0,31650168254337555	0,011809103316731363	0,31650168254337555
1	0	0	1	0	0	1	28814,75	-0,300000012	3,81463599	-0,00083290835177070554	-0,29984701026775981	0,0011438072	-0,32066625445777523	0,011964489094184106	0,32066625445777523
1	0	0	1	0	0	1	28864,75	-0,300000012	3,81572342	-0,00083291481092241075	-0,29984933556240179	0,00114414212	-0,32483082849766496	0,012119874950941739	0,32483082849766496
1	0	0	1	0	0	1	28914,75	-0,300000012	3,81442618	-0,00083290561239255795	-0,29984602409161472	0,00114374049	-0,32899538626287565	0,012275260200469218	0,32899538626287565
1	0	0	1	0	0	1	28964,75	-0,300000012	3,82390738	-0,00083291733965112102	-0,29985024590474854	0,00114659953	-0,33315994039255898	0,01243064531435028	0,33315994039255898
1	0	0	1	0	0	1	29014,75	-0,300000012	3,82753205	-0,00083291259525550733	-0,29984853792230694	0,00114767987	-0,33732450231297504	0,012586030718914058	0,33732450231297504
1	0	0	1	0	0	1	29064,75	-0,300000012	3,82428908	-0,00083291285180217702	-0,29984863027910906	0,0011467078	-0,34148908227700186	0,012741416796709213	0,34148908227700186
1	0	0	1	0	0	1	29114,75	-0,300000012	3,82741761	-0,00083291550653510618	-0,29984958598297517	0,0011476496	-0,3456536521787463	0,012896802499067082	0,3456536521787463
1	0	0	1	0	0	1	29164,75	-0,300000012	3,82871485	-0,0008329104945808649	-0,2998477816794265	0,00114803168	-0,3498182136217209	0,013052187885816874	0,3498182136217209
1	0	0	1	0	0	1	29214,75	-0,300000012	3,82924914	-0,0008329170118222633	-0,29985012788635834	0,00114820083	-0,35398282157787539	0,013207575008035946	0,35398282157787539
1	0	0	1	0	0	1	29264,75	-0,300000012	3,82396483	-0,00083290867428812723	-0,29984712637403296	0,00114660489	-0,35814737797198554	0,013362960206405819	0,35814737797198554
1	0	0	1	0	0	1	29314,75	-0,300000012	3,82243848	-0,00083291385520829094	-0,2998489915053145	0,00114615436	-0,36231195605811667	0,01351834621413416	0,36231195605811667
1	0	0	1	0	0	1	29364,75	-0,300000012	3,82999301	-0,00083290982790622451	-0,29984754167655302	0,00114841398	-0,36647652759571565	0,013673731977527962	0,36647652759571565
1	0	0	1	0	0	1	29414,75	-0,300000012	3,81835604	-0,00083290993844469389	-0,2998475814704025	0,00114492478	-0,37064109062193856	0,013829117423350882	0,37064109062193856
1	0	0	1	0	0	1	29464,75	-0,300000012	3,81763124	-0,000832921526082688	-0,29985175302013082	0,00114472338	-0,37480567689513363	0,013984503736549584	0,37480567689513363
1	0	0	1	0	0	1	29514,75	-0,300000012	3,8159523	-0,00083290819575223667	-0,29984695410111027	0,00114420173	-0,37897023104776307	0,014139888851286797	0,37897023104776307
1	0	0	1	0	0	1	29564,75	-0,300000012	3,81423545	-0,0008329087438152896	-0,29984715140381171	0,00114368764	-0,38313477169298496	0,014295273462044475	0,38313477169298496
1	0	0	1	0	0	1	29614,75	-0,300000012	3,81707788	-0,00083291650242937933	-0,29984994450491789	0,00114455062	-0,38729934074026381	0,014450659132521082	0,38729934074026381
1	0	0	1	0	0	1	29664,75	-0,300000012	3,82026386	-0,00083290605411926912	-0,29984618311323264	0,00114549149	-0,39146387699614496	0,01460604357950656	0,39146387699614496
1	0	0	1	0	0	1	29714,75	-0,300000012	3,82026386	-0,00083291189626521536	-0,29984828628579872	0,00114549953	-0,39562843430649446	0,014761428812062554	0,39562843430649446
1	0	0	1	0	0	1	29764,75	-0,300000012	3,81765032	-0,0008329156320161289	-0,29984963115614394	0,00114472106	-0,3997929900297047	0,01491681398540025	0,3997929900297047
1	0	0	1	0	0	1	29814,75	-0,300000012	3,82154202	-0,00083291626664830566	-0,29984985962373037	0,00114588882	-0,40395760092680211	0,015072201217349856	0,40395760092680211
1	0	0	1	0	0	1	29864,75	-0,300000012	3,81967235	-0,00083290892990761344	-0,29984721839704909	0,00114531815	-0,40812214983575603	0,015227586136438483	0,40812214983575603
1	0	0	1	0	0	1	29914,75	-0,300000012	3,81723046	-0,00083291132755577562	-0,29984808155039795	0,00114458927	-0,41228666475036134	0,015382969787152266	0,41228666475036134
1	0	0	1	0	0	1	29964,75	-0,300000012	3,81747866	-0,00083291381912595699	-0,29984897851567411	0,00114466704	-0,41645122719450848	0,015538355211257152	0,41645122719450848
1	0	0	1	0	0	1	30014,75	-0,300000012	3,82047367	-0,0008329192897793321	-0,29985094795091296	0,00114557263	-0,42061583346744275	0,015693742270673014	0,42061583346744275
1	0	0	1	0	0	1	30064,75	-0,300000012	3,81875682	-0,0008329188496155872	-0,29985078949196294	0,00114505726	-0,42478039639885952	0,015849127712958586	0,42478039639885952
1	0	0	1	0	0	1	30114,75	-0,300000012	3,82329702	-0,00083290472198526067	-0,29984570354498381	0,00114639918	-0,42894493061186438	0,0160045120837216	0,42894493061186438
1	0	0	1	0	0	1	30164,75	-0,300000012	3,82774186	-0,00083291641218960294	-0,29984991201859795	0,00114774809	-0,43310950487209754	0,016159897948700544	0,43310950487209754
1	0	0	1	0	0	1	30214,75	-0,300000012	3,81650567	-0,0008329116718901527	-0,29984820551077523	0,00114437239	-0,43727405220143558	0,016315282808851584	0,43727405220143558
1	0	0	1	0	0	1	30264,75	-0,300000012	3,8119843	-0,00083291688253647757	-0,29985008134347488	0,00114302384	-0,44143863756200077	0,016470669087998838	0,44143863756200077
1	0	0	1	0	0	1	30314,75	-0,300000012	3,80521202	-0,0008329300370183255	-0,2998548169569975	0,00114101113	-0,44560324771928858	0,016626056292345152	0,44560324771928858
1	0	0	1	0	0	1	30364,75	-0,300000012	3,80191183	-0,00083291574690573747	-0,29984967251640346	0,00114000204	-0,44976786884711584	0,016781443906017046	0,44976786884711584
1	0	0	1	0	0	1	30414,75	-0,300000012	3,78014493	-0,00083289771814975475	-0,29984318216417114	0,00113345066	-0,45393238874564147	0,016936827742687594	0,45393238874564147
1	0	0	1	0	0	1	30464,75	-0,300000012	3,7736969	-0,00083289227513472243	-0,29984122267873574	0,0011315099	-0,45809686169343763	0,017092209827563299	0,45809686169343763
1	0	0	1	0	0	1	30514,75	-0,300000012	3,76648593	-0,0008329008741130432	-0,2998443183109687	0,00112935936	-0,46226134490029421	0,017247592295218339	0,46226134490029421
1	0	0	1	0	0	1	30564,75	-0,300000012	3,75689006	-0,0008329001003007095	-0,29984403973852518	0,0011264811	-0,46642584747043162	0,017402975485343421	0,46642584747043162
1	0	0	1	0	0	1	30614,75	-0,300000012	3,75988531	-0,00083291227508915789	-0,29984842266241971	0,00112739566	-0,47059040351089082	0,017558360670518102	0,47059040351089082
1	0	0	1	0	0	1	30664,75	-0,300000012	3,75736713	-0,00083291987374259366	-0,29985115817768973	0,00112665084	-0,47475501854126566	0,01771374805668585	0,47475501854126566
1	0	0	1	0	0	1	30714,75	-0,300000012	3,75074744	-0,00083291584091385203	-0,29984970635932512	0,00112466048	-0,47891962195364051	0,017869135009370394	0,47891962195364051
1	0	0	1	0	0	1	30764,75	-0,300000012	3,74523401	-0,00083291395719349376	-0,2998490282199879	0,00112300483	-0,48308420852950298	0,018024521333862022	0,48308420852950298
1	0	0	1	0	0	1	30814,75	-0,300000012	3,73245263	-0,00083292231750157158	-0,29985203793093235	0,00111918349	-0,48724881020743565	0,018179908221832202	0,48724881020743565
1	0	0	1	0	0	1	30864,75	-0,300000012	3,72033882	-0,00083291183938748314	-0,29984826580981491	0,00111553713	-0,49141336524556333	0,018335293369608544	0,49141336524556333
1	0	0	1	0	0	1	30914,75	-0,300000012	3,70822477	-0,00083291586259504154	-0,29984971416455347	0,0011119101	-0,49557792730502701	0,018490678779360374	0,49557792730502701
1	0	0	1	0	0	1	30964,75	-0,300000012	3,69653058	-0,00083291466430657434	-0,29984928278070003	0,00110840204	-0,49974251614485773	0,018646065188323702	0,49974251614485773
1	0	0	1	0	0	1	31014,75	-0,300000012	3,67909431	-0,00083291629296541222	-0,29984986909788877	0,00110317592	-0,50390707790361933	0,018801450586855936	0,50390707790361933
1	0	0	1	0	0	1	31064,75	-0,300000012	3,65442777	-0,00083291284375223859	-0,2998486273811312	0,00109577517	-0,50807166212298061	0,018956836823423341	0,50807166212298061
1	0	0	1	0	0	1	31114,75	-0,300000012	3,62770104	-0,00083291536114778778	-0,29984953364353997	0,00108776451	-0,51223624853323315	0,019112223141735843	0,51223624853323315
1	0	0	1	0	0	1	31164,75	-0,300000012	3,59761667	-0,00083291820432080166	-0,29985055718583731	0,00107874733	-0,51640082547777158	0,019267609106869827	0,51640082547777158
1	0	0	1	0	0	1	31214,75	-0,300000012	3,56270576	-0,0008329127036680777	-0,2998485769508327	0,00106827228	-0,52056538456161242	0,019422994405597165	0,52056538456161242
1	0	0	1	0	0	1	31264,75	-0,300000012	3,51325846	-0,00083292943016025766	-0,29985459848809037	0,00105346669	-0,52472999787361498	0,019578381727650134	0,52472999787361498
1	0	0	1	0	0	1	31314,75	-0,300000012	3,44295979	-0,00083291919286217958	-0,29985091306073766	0,00103237468	-0,52889460680197933	0,019733768886143664	0,52889460680197933
1	0	0	1	0	0	1	31364,75	-0,300000012	3,3375597	-0,00083291539103620582	-0,29984954440337056	0,00100076571	-0,53305917267277766	0,019889154438101517	0,53305917267277766
1	0	0	1	0	0	1	31414,75	-0,300000012	3,1733644	-0,0008329113534920745	-0,29984809088746566	0,000951527269	-0,53722373431293926	0,020044539832208618	0,53722373431293926
1	0	0	1	0	0	1	31464,75	-0,300000012	2,9396143	-0,0008329102855424087	-0,29984770642558131	0,00088143663	-0,54138828928150816	0,020199924977389632	0,54138828928150816
1	0	0	1	0	0	1	31514,75	-0,300000012	2,66835928	-0,00083290538856718272	-0,29984594351447866	0,000800096721	-0,54555282303492147	0,020355309331004666	0,54555282303492147
1	0	0	1	0	0	1	31564,75	-0,300000012	2,37037706	-0,00083291161804066765	-0,29984818612496032	0,000710753258	-0,54971735834512192	0,02051069374270552	0,54971735834512192
1	0	0	1	0	0	1	31614,75	-0,300000012	2,09978962	-0,00083290714749197158	-0,2998465767274103	0,000629614748	-0,55388190348353562	0,020666078521110224	0,55388190348353562
1	1	0	0	0	0	2	31654,73	0,300000012	2,94986343	0,0008338300966388649	0,30017883842431462	0,000885486603	-0,55387791488603002	0,020665929701174566	0,0016676686236461002
1	1	0	0	0	0	2	31704,73	0,300000012	3,83982253	0,00083383149411943232	0,30017934151732493	0,00115263544	-0,54970876685688141	0,020510373182727888	0,005836816652794679
1	1	0	0	0	0	2	31754,73	0,300000012	3,85298562	0,00083382790820962854	0,30017805058978003	0,00115658168	-0,5455396032909511	0,020354816084582995	0,01000598021872507
1	1	0	0	0	0	2	31804,73	0,300000012	3,8648324	0,00083382363034784794	0,30017651055952032	0,00116013188	-0,54137046653874624	0,02019925998689425	0,014175116970929834
1	1	0	0	0	0	2	31854,73	0,300000012	3,86889577	0,00083382477133307187	0,30017692131420595	0,0011613532	-0,53720135007097722	0,020043704646045085	0,018344233438698781
1	1	0	0	0	0	2	31904,73	0,300000012	3,86950612	0,00083382312610745421	0,30017632903297645	0,00116153411	-0,53303222101895085	0,019888148835660352	0,022513362490725184
1	1	0	0	0	0	2	31954,73	0,300000012	3,87261581	0,00083382255934344397	0,3001761249979303	0,00116246683	-0,52886309065800986	0,019732592976438256	0,026682492851666278
1	1	0	0	0	0	2	32004,73	0,300000012	3,87448525	0,00083381611912945907	0,30017380652086758	0,00116301898	-0,52469401071354816	0,01957703899832279	0,030851572796127859
1	1	0	0	0	0	2	32054,73	0,300000012	3,87458062	0,0008338290431549152	0,30017845917008819	0,00116306567	-0,52052488924413331	0,019421483470855491	0,035020694265542758
1	1	0	0	0	0	2	32104,73	0,300000012	3,87685084	0,00083381521218849549	0,3001734800221168	0,00116372784	-0,51635579398660269	0,019265928921388832	0,03918978952307337
1	1	0	0	0	0	2	32154,73	0,300000012	3,87976956	0,00083383254960510464	0,30017972149217165	0,00116462819	-0,51218666610681741	0,01911037315474199	0,043358917402858534
1	1	0	0	0	0	2	32204,73	0,300000012	3,879884	0,00083383884897993664	0,30018198926713862	0,00116467127	-0,50801748271291526	0,01895481531678881	0,047528100796760787
1	1	0	0	0	0	2	32254,73	0,300000012	3,88169646	0,00083384494199355443	0,30018418275206752	0,00116522389	-0,50384829986080602	0,018799257499050656	0,051697283648870061
1	1	0	0	0	0	2	32304,73	0,300000012	3,88459611	0,00083383091481361126	0,30017913296722688	0,00116607465	-0,49967910010449178	0,018643699050593878	0,055866483405184422
1	1	0	0	0	0	2	32354,73	0,300000012	3,88757205	0,00083383612473805747	0,30018100854005018	0,00116697524	-0,49550994287917446	0,018488142189025782	0,06003564063050185
1	1	0	0	0	0	2	32404,73	0,300000012	3,88745761	0,0008338315840810537	0,30017937390350906	0,00116693461	-0,49134077657049485	0,018332584988545229	0,064204806939181363
1	1	0	0	0	0	2	32454,73	0,300000012	3,88778186	0,00083383075436453018	0,30017907520555706	0,00116703077	-0,48717161740437568	0,018177028054563206	0,068373966105300544
1	1	0	0	0	0	2	32504,73	0,300000012	3,88984227	0,0008338244529134697	0,30017680668314778	0,00116764044	-0,48300246696903232	0,01802147144633817	0,072543116540643942
1	1	0	0	0	0	2	32554,73	0,300000012	3,89140654	0,00083382593619161178	0,30017734066328538	0,00116811204	-0,47883334914851603	0,017865916055016179	0,076712234361160154
1	1	0	0	0	0	2	32604,73	0,300000012	3,89216971	0,00083383273716270925	0,30017978901291008	0,00116835069	-0,47466416740378656	0,01771035827859585	0,080881416105889626
1	1	0	0	0	0	2	32654,73	0,300000012	3,8933332	0,00083382607521116723	0,30017739071032595	0,00116869062	-0,4704950313256889	0,01755480220605895	0,085050552183987392
1	1	0	0	0	0	2	32704,73	0,300000012	3,89674807	0,00083381851152247859	0,30017466778236506	0,00116970506	-0,46632588855966848	0,017399245883986662	0,089219694950007757
1	1	0	0	0	0	2	32754,73	0,300000012	3,90338683	0,00083383604552348454	0,30018098002280365	0,00117172254	-0,46215670855218918	0,017243688172385475	0,093388874957487002
1	1	0	0	0	0	2	32804,73	0,300000012	3,91145635	0,00083382389621105459	0,30017660207685715	0,00117412768	-0,45798757977878637	0,01708813237239656	0,097558003730889843
1	1	0	0	0	0	2	32854,73	0,300000012	3,90802264	0,00083383293575214016	0,30017985631164192	0,00117310963	-0,45381843797814605	0,016932576086343901	0,10172714553153019
1	1	0	0	0	0	2	32904,73	0,300000012	3,90802264	0,00083383242782122573	0,30017967345651302	0,00117310893	-0,44964927599914131	0,016777019047409341	0,10589630751053493
1	1	0	0	0	0	2	32954,73	0,300000012	3,91040707	0,00083382993135684058	0,30017877472933613	0,00117382116	-0,44548012772127251	0,016621462519682576	0,11006545578840376
1	1	0	0	0	0	2	33004,73	0,300000012	3,9125247	0,00083383140732016832	0,30017930607613299	0,001174459	-0,44131099979430362	0,016465906751275251	0,11423458371537264
1	1	0	0	0	0	2	33054,73	0,300000012	3,91134191	0,00083383039161066214	0,30017894042071155	0,00117410242	-0,43714185474332429	0,016310350343948077	0,11840372876635197
1	1	0	0	0	0	2	33104,73	0,300000012	3,91382194	0,00083382697644333043	0,30017771096047443	0,00117484212	-0,43297270035179546	0,016154793588112438	0,1225728831578808
1	1	0	0	0	0	2	33154,73	0,300000012	3,91530991	0,00083383017262319718	0,30017886158522426	0,00117529323	-0,42880355056980019	0,015999237004264694	0,12674203293987616
1	1	0	0	0	0	2	33204,73	0,300000012	3,91639733	0,00083381724075476326	0,30017420611259674	0,0011756015	-0,42463445259114208	0,015843682353269114	0,13091113091853429
1	1	0	0	0	0	2	33254,73	0,300000012	3,91763735	0,00083383734535343117	0,30018144376810368	0,00117600209	-0,42046529053044416	0,015688125311286467	0,13508029297923216
1	1	0	0	0	0	2	33304,73	0,300000012	3,9198885	0,00083382552997271219	0,3001771902310528	0,00117666111	-0,41629614505787462	0,015532568888229194	0,13924943845180179
1	1	0	0	0	0	2	33354,73	0,300000012	3,91658807	0,00083381762471463949	0,30017434433815194	0,00117565924	-0,41212702285163379	0,01537701333326992	0,14341856065804266
1	1	0	0	0	0	2	33404,73	0,300000012	3,91645455	0,00083382029097278912	0,30017530419108403	0,00117562292	-0,40795790580790522	0,015221457970930928	0,1475876777017713
1	1	0	0	0	0	2	33454,73	0,300000012	3,91855311	0,00083383113605611853	0,30017920842107533	0,00117626821	-0,40378878270817082	0,015065902382634214	0,1517568008015057
1	1	0	0	0	0	2	33504,73	0,300000012	3,91618752	0,00083383831631971738	0,30018179331596608	0,00117556821	-0,39961958279316237	0,014910343928256346	0,15592600071651411
1	1	0	0	0	0	2	33554,73	0,300000012	3,91378379	0,00083383644940455757	0,30018112122650982	0,00117484399	-0,39545039800710925	0,014754786038360141	0,16009518550256726
1	1	0	0	0	0	2	33604,73	0,300000012	3,91200972	0,00083383496080670106	0,30018058533128243	0,00117430941	-0,39128120609695168	0,014599227882654022	0,16426437741272483
1	1	0	0	0	0	2	33654,73	0,300000012	3,91235304	0,00083385106534759206	0,30018638296599245	0,00117443514	-0,38711198779122477	0,014443668742093722	0,16843359571845171
1	1	0	0	0	0	2	33704,73	0,300000012	3,91235304	0,00083383546242117888	0,30018076591249414	0,00117441313	-0,38294279236276563	0,014288110455115037	0,17260279114691088
1	1	0	0	0	0	2	33754,73	0,300000012	3,91508102	0,00083383122508227827	0,3001792404704928	0,00117522606	-0,37877361443695866	0,014132552821183842	0,17677196907271779
1	1	0	0	0	0	2	33804,73	0,300000012	3,91666436	0,00083381295237441856	0,30017266229567552	0,00117567554	-0,37460453265245709	0,013976998774414011	0,18094105085721946
1	1	0	0	0	0	2	33854,73	0,300000012	3,91769457	0,0008338363201088375	0,30018107468005075	0,0011760178	-0,37043535911782368	0,013821441304323405	0,18511022439185283
1	1	0	0	0	0	2	33904,73	0,300000012	3,91948771	0,0008338304256614711	0,30017895267900275	0,00117654772	-0,36626618483874643	0,013665883806456597	0,18927939867092998
1	1	0	0	0	0	2	33954,73	0,300000012	3,92305517	0,0008338301526837879	0,30017885440703693	0,00117761816	-0,36209704124529267	0,013510327453511659	0,19344854226438368
1	1	0	0	0	0	2	34004,73	0,300000012	3,92460036	0,00083383300135864141	0,30017987992998234	0,00117808604	-0,35792788329446918	0,01335477056487395	0,1976177002152072
1	1	0	0	0	0	2	34054,73	0,300000012	3,9270041	0,00083383161318798861	0,30017938018854822	0,0011788056	-0,353758728601864	0,013199213797804752	0,20178685490781232
1	1	0	0	0	0	2	34104,73	0,300000012	3,92980838	0,00083383372680511744	0,30018014109071315	0,00117965043	-0,34958956409269664	0,013043656664466419	0,20595601941697958
1	1	0	0	0	0	2	34154,73	0,300000012	3,93089581	0,00083383625244597606	0,30018105032142054	0,00117998046	-0,34542039793909677	0,012888099469772096	0,21012518557057942
1	1	0	0	0	0	2	34204,73	0,300000012	3,93507361	0,0008338299512598249	0,30017878189441043	0,00118122564	-0,34125123930496403	0,012732542555639202	0,21429434420471226
1	1	0	0	0	0	2	34254,73	0,300000012	3,94136906	0,00083382633237871859	0,30017747909721459	0,00118311017	-0,33708210162409574	0,012576986423300778	0,21846348188558054
1	1	0	0	0	0	2	34304,73	0,300000012	3,94163609	0,0008338187294022903	0,30017474202570554	0,00118317956	-0,33291298001471091	0,012421430890611008	0,22263260349496534
1	1	0	0	0	0	2	34354,73	0,300000012	3,94352484	0,00083382576367093453	0,30017727436241274	0,00118375651	-0,32874385289259853	0,012265875152233963	0,22680173061707779
1	1	0	0	0	0	2	34404,73	0,300000012	3,94474578	0,00083381602145069171	0,30017376716313184	0,00118410925	-0,32457476454502112	0,012110320860586949	0,23097081896465517
1	1	0	0	0	0	2	34454,73	0,300000012	3,94642448	0,00083382281720969408	0,30017621363636806	0,00118462276	-0,32040568692138394	0,011954766969064566	0,23513989658829238
1	1	0	0	0	0	2	34504,73	0,300000012	3,94863749	0,0008338156918982665	0,30017364852425894	0,00118527689	-0,31623660737300019	0,011799213005727301	0,23930897613667613
1	1	0	0	0	0	2	34554,73	0,300000012	3,94997287	0,00083382423396739699	0,30017672366914022	0,00118568994	-0,31206751260784365	0,011643658474631782	0,24347807090183261
1	1	0	0	0	0	2	34604,73	0,300000012	3,95168972	0,00083382168499794266	0,30017580604013837	0,0011862017	-0,307898399552136	0,01148810326109121	0,24764718395754026
1	1	0	0	0	0	2	34654,73	0,300000012	3,95354009	0,00083382007276515162	0,30017522563633466	0,00118675479	-0,30372928283812038	0,011332547911054248	0,2518163006715559
1	1	0	0	0	0	2	34704,73	0,300000012	3,95546699	0,00083382474724617267	0,30017690844949907	0,00118733989	-0,29956015850242573	0,011176992276642195	0,25598542500725059
1	1	0	0	0	0	2	34754,73	0,300000012	3,95954943	0,00083383353607853261	0,30018007242914272	0,00118857785	-0,29539097858080698	0,011021434568244576	0,26015460492886931
1	1	0	0	0	0	2	34804,73	0,300000012	3,96069407	0,00083383302770223885	0,30017988941367738	0,00118892069	-0,29122182233065299	0,010865877743061134	0,26432376117902333
1	1	0	0	0	0	2	34854,73	0,300000012	3,96204853	0,00083382620389593971	0,30017743284341427	0,00118931755	-0,28705269310258426	0,010710321926108027	0,26849289040709206
1	1	0	0	0	0	2	34904,73	0,300000012	3,9657495	0,00083382996109128	0,30017878543373427	0,00119043386	-0,28288358107837968	0,010554766751054222	0,27266200243129661
1	1	0	0	0	0	2	34954,73	0,300000012	3,96763802	0,00083383290570477645	0,30017984549459098	0,00119100499	-0,2787143984672073	0,010399208942305742	0,27683118504246899
1	1	0	0	0	0	2	35004,73	0,300000012	3,96882081	0,00083383799975448192	0,30018167935248154	0,00119136728	-0,27454522196959226	0,010243651361662306	0,28100036154008406
1	1	0	0	0	0	2	35054,73	0,300000012	3,96969843	0,0008338288330949015	0,30017837935503872	0,00119161769	-0,27037607515661686	0,010088094888592688	0,28516950835305942
1	1	0	0	0	0	2	35104,73	0,300000012	3,97122455	0,00083382657694651021	0,30017756714161939	0,00119207252	-0,26620695356343782	0,0099325393565075776	0,28933862994623846
1	1	0	0	0	0	2	35154,73	0,300000012	3,97246456	0,00083383017434179789	0,30017886220392051	0,00119244994	-0,26203778611713581	0,0097769821135808013	0,29350779739254054
1	1	0	0	0	0	2	35204,73	0,300000012	3,97595549	0,0008338299370540512	0,3001787767803319	0,00119349745	-0,25786864204821091	0,0096214257428953958	0,29767694146146541
1	1	0	0	0	0	2	35254,73	0,300000012	3,97925591	0,00083383393736183642	0,3001802168911319	0,00119449396	-0,25369948880819248	0,00946586903002416	0,30184609470148384
1	1	0	0	0	0	2	35304,73	0,300000012	3,9828043	0,00083383205377889997	0,30017953880127603	0,00119555637	-0,24953029963072899	0,0093103109762785306	0,30601528387894733
1	1	0	0	0	0	2	35354,73	0,300000012	3,98328114	0,00083383468705581299	0,30018048678096294	0,00119570328	-0,24536113649786442	0,009154753894291904	0,3101844470118119
1	1	0	0	0	0	2	35404,73	0,300000012	3,98465466	0,0008338246260848311	0,30017686483141619	0,00119610119	-0,24119200798686112	0,0089991981040934694	0,31435357552281523
1	1	0	0	0	0	2	35454,73	0,300000012	3,98602819	0,00083383157651623091	0,30017936698671552	0,00119652343	-0,23702285335564714	0,0088436413393148582	0,31852273015402925
1	1	0	0	0	0	2	35504,73	0,300000012	3,98850822	0,00083383650289310349	0,3001811404823863	0,00119727489	-0,23285367977867622	0,0086880838676445824	0,32269190373100006
1	1	0	0	0	0	2	35554,73	0,300000012	3,99012971	0,00083382892728017446	0,30017841326173696	0,0011977508	-0,22868452887615824	0,0085325272419886298	0,32686105463351802
1	1	0	0	0	0	2	35604,73	0,300000012	3,99194217	0,00083382484032710387	0,30017694195863424	0,00119828898	-0,22451537916592195	0,008376970660818313	0,33103020434375437
1	1	0	0	0	0	2	35654,73	0,300000012	3,99407864	0,00083382710662815296	0,30017775782701043	0,00119893358	-0,22034624296004672	0,0082214145835138624	0,33519934054962963
1	1	0	0	0	0	2	35704,73	0,300000012	3,99642515	0,00083383586980899174	0,30018091257210656	0,00119965058	-0,21617706892189318	0,0080658570946362406	0,33936851458778317
1	1	0	0	0	0	2	35754,73	0,300000012	3,99840927	0,00083382116637461722	0,30017561933574157	0,00120022497	-0,21200792930266195	0,007910300889974889	0,3435376542070144
1	1	0	0	0	0	2	35804,73	0,300000012	4,00098467	0,00083382251043121024	0,30017610319611418	0,00120099995	-0,20783882400377363	0,0077547459658516736	0,34770675950590278
1	1	0	0	0	0	2	35854,73	0,300000012	4,00264454	0,00083381978740957043	0,30017512290832563	0,00120149436	-0,20366971397594714	0,0075991908652854195	0,35187586953372928
1	1	0	0	0	0	2	35904,73	0,300000012	4,00501013	0,00083383236364192435	0,30017965035196461	0,00120222254	-0,19950058315939971	0,0074436349890640358	0,35604500035027667
1	1	0	0	0	0	2	35954,73	0,300000012	4,00695562	0,00083381705056793165	0,30017413764533747	0,00120278448	-0,19533145034037469	0,00728807903812752	0,36021413316930176
1	1	0	0	0	0	2	36004,73	0,300000012	4,00996971	0,00083382686384684518	0,30017767042573978	0,00120370334	-0,19116234420405597	0,0071325240827586522	0,36438323930562042
1	1	0	0	0	0	2	36054,73	0,300000012	4,01136255	0,00083382646914488742	0,30017752833303526	0,00120412093	-0,18699319819773008	0,0069769676397862093	0,3685523853119463
1	1	0	0	0	0	2	36104,73	0,300000012	4,01365185	0,00083381763842205197	0,30017434927282042	0,00120479532	-0,18282408416725299	0,0068214123898756787	0,3727214993424233
1	1	0	0	0	0	2	36154,73	0,300000012	4,01630354	0,00083383303447564442	0,30017989185210336	0,0012056136	-0,17865495416496794	0,0066658565440355187	0,37689062934470835
1	1	0	0	0	0	2	36204,73	0,300000012	4,01939392	0,00083382078064150285	0,30017548047182061	0,00120652351	-0,17448580633150304	0,0065103000328900646	0,38105977717817318
1	1	0	0	0	0	2	36254,73	0,300000012	4,02071047	0,00083382839445604211	0,30017822144504966	0,00120692968	-0,17031667034224765	0,006354743963667991	0,38522891316742861
1	1	0	0	0	0	2	36304,73	0,300000012	4,02584171	0,00083382439417971507	0,30017678134557466	0,00120846427	-0,16614753977991405	0,0061991880969316672	0,38939804372976218
1	1	0	0	0	0	2	36354,73	0,300000012	4,02555561	0,00083382456464237645	0,30017684271213254	0,00120837858	-0,16197842786500781	0,0060436329259559296	0,39356715564466835
1	1	0	0	0	0	2	36404,73	0,300000012	4,02803564	0,00083381768734256422	0,3001743668842048	0,00120911305	-0,15780933612768781	0,0058880785078330624	0,39773624738198842
1	1	0	0	0	0	2	36454,73	0,300000012	4,03021049	0,00083382919645971725	0,30017851016637216	0,00120978255	-0,15364020893991091	0,0057325227670059866	0,40190537456976525
1	1	0	0	0	0	2	36504,73	0,300000012	4,03288126	0,00083381779175168947	0,30017440447148979	0,00121056777	-0,14947112734855651	0,0055769687274427373	0,40607445616111974
1	1	0	0	0	0	2	36554,73	0,300000012	4,03623867	0,00083383045884304576	0,3001789646243696	0,00121159398	-0,14530198379668035	0,0054214123760491162	0,4102435997129959
1	1	0	0	0	0	2	36604,73	0,300000012	4,03988266	0,00083382530448999667	0,30017710905727533	0,00121268025	-0,1411328498761151	0,0052658563840126534	0,41441273363356115
1	1	0	0	0	0	2	36654,73	0,300000012	4,04947805	0,00083381608020265894	0,30017378831384	0,00121554721	-0,13696375567423741	0,0051103018739338259	0,41858182783543885
1	1	0	0	0	0	2	36704,73	0,300000012	4,04919195	0,00083382261989514022	0,30017614260312883	0,00121547084	-0,13279468154351682	0,0049547481127368557	0,42275090196615936
1	1	0	0	0	0	2	36754,73	0,300000012	4,05106163	0,00083382381719019686	0,30017657362934842	0,00121603382	-0,12862557466245958	0,0047991931295807923	0,42692000884721658
1	1	0	0	0	0	2	36804,73	0,300000012	4,05420923	0,00083383257535762266	0,30017972656961581	0,00121699146	-0,12445644218324723	0,0046436371913231437	0,43108914132642893
1	1	0	0	0	0	2	36854,73	0,300000012	4,05722332	0,0008338342567731936	0,30018033187922029	0,00121789868	-0,12028729357376464	0,0044880806512234259	0,43525828993591155
1	1	0	0	0	0	2	36904,73	0,300000012	4,05924559	0,00083383300632569523	0,30017988171812173	0,00121850381	-0,11611813212591344	0,0043325236321069139	0,43942745138376269
1	1	0	0	0	0	2	36954,73	0,300000012	4,06338549	0,00083383539092871885	0,30018074017520858	0,00121975003	-0,11194897130680019	0,0041769666364494598	0,44359661220287603
1	1	0	0	0	0	2	37004,73	0,300000012	4,06533146	0,00083384677985144986	0,30018484018738413	0,00122035085	-0,10777972699751226	0,0040214065256613357	0,44776585651216397
1	1	0	0	0	0	2	37054,73	0,300000012	4,06769657	0,00083384065886669683	0,30018263663287712	0,00122105191	-0,10361050445474288	0,0038658472270112832	0,45193507905493338
1	1	0	0	0	0	2	37104,73	0,300000012	4,07044363	0,00083384172389739085	0,30018302004392627	0,0012218781	-0,099441300715417677	0,0037102886299430144	0,4561042827942585
1	1	0	0	0	0	2	37154,73	0,300000012	4,0718174	0,00083381987249023386	0,30017515353736442	0,00122225843	-0,095272155352472614	0,0035547322109759763	0,46027342815720365
1	1	0	0	0	0	2	37204,73	0,300000012	4,07544184	0,0008338318915284343	0,30017948039110848	0,00122336403	-0,091103031348234458	0,0033991765889310099	0,46444255216144173
1	1	0	0	0	0	2	37254,73	0,300000012	4,07954359	0,00083384428787231462	0,30018394307489702	0,00122461352	-0,086933841237878835	0,0032436185003779213	0,46861174227179731
1	1	0	0	0	0	2	37304,73	0,300000012	4,0835495	0,00083382028739651046	0,30017530290362368	0,0012257807	-0,082764695699047078	0,0030880620748483142	0,47278088781062912
1	1	0	0	0	0	2	37354,73	0,300000012	4,08820438	0,0008338208872427543	0,30017551884827104	0,00122717884	-0,078595555419952704	0,0029325058455665811	0,47695002808972346
1	1	0	0	0	0	2	37404,73	0,300000012	4,09545374	0,00083381918511788058	0,30017490608331763	0,00122935243	-0,074426462870524365	0,0027769513971428605	0,48111912063915181
1	1	0	0	0	0	2	37454,73	0,300000012	4,10008955	0,00083382505774497971	0,30017702022906944	0,00123075268	-0,070257341701563226	0,0026213958808858918	0,4852882418081129
1	1	0	0	0	0	2	37504,73	0,300000012	4,10333252	0,00083383082428408998	0,30017909618314528	0,00123173464	-0,066088209312224742	0,0024658399459815587	0,48945737419745146
1	1	0	0	0	0	2	37554,73	0,300000012	4,11042929	0,00083382646115289792	0,30017752545591904	0,00123385852	-0,061919058087000602	0,002310283308285007	0,49362652542267552
1	1	0	0	0	0	2	37604,73	0,300000012	4,1143589	0,00083383166825936896	0,30017940001424512	0,00123504584	-0,057749910812678618	0,0021547268180019261	0,49779567269699744
1	1	0	0	0	0	2	37654,73	0,300000012	4,11966228	0,00083383999225331674	0,30018239665206074	0,00123665005	-0,053580744585945555	0,0019991696205789066	0,50196483892373056
1	1	0	0	0	0	2	37704,73	0,300000012	4,1257863	0,00083383384846813146	0,30018018488939814	0,00123847928	-0,04941157111471993	0,001843612152854129	0,50613401239495616
1	1	0	0	0	0	2	37754,73	0,300000012	4,13284445	0,00083384420491092736	0,3001839132087977	0,0012406134	-0,045242359842202086	0,0016880532747123142	0,51030322366747405
1	1	0	0	0	0	2	37804,73	0,300000012	4,14268827	0,00083384259951445798	0,30018333526606982	0,00124356593	-0,041073154636875808	0,0015324946229455747	0,51447242887280032
1	1	0	0	0	0	2	37854,73	0,300000012	4,14522552	0,00083382714879016077	0,30017777300533318	0,00124430459	-0,03690399822614857	0,0013769377917709299	0,51864158528352768
1	1	0	0	0	0	2	37904,73	0,300000012	4,15129185	0,00083382135171029299	0,3001756860565847	0,00124611682	-0,032734873400354739	0,001221382139072617	0,52281071010932147
1	1	0	0	0	0	2	37954,73	0,300000012	4,15846491	0,00083383084891570944	0,30017910505052826	0,00124828424	-0,028565712821095539	0,0010658251523644402	0,52697987068858067
1	1	0	0	0	0	2	38004,73	0,300000012	4,16537094	0,00083382531058291584	0,30017711125072634	0,00125034899	-0,024396564308430768	0,00091026861587712538	0,53114901920124544
1	1	0	0	0	0	2	38054,73	0,300000012	4,17149448	0,0008338173972417911	0,30017426244792666	0,00125217531	-0,020227458312552192	0,00075471366574826765	0,53531812519712384
1	1	0	0	0	0	2	38104,73	0,300000012	4,17662621	0,00083382829259335987	0,30017818477448416	0,00125373213	-0,016058354071310179	0,00059915878108725939	0,53948722943836582
1	1	0	0	0	0	2	38154,73	0,300000012	4,18311214	0,00083383326859275494	0,30017997613426298	0,00125568651	-0,011889211768143066	0,00044360247628465075	0,54365637174153293
1	1	0	0	0	0	2	38204,73	0,300000012	4,1916399	0,0008338428836978144	0,30018343757207795	0,00125826092	-0,0077200535627464666	0,0002880455781484793	0,5478255299469296
1	1	0	0	0	0	2	38254,73	0,300000012	4,19794941	0,00083383260722292787	0,3001797380411257	0,0012601394	-0,0035508636337396384	0,00013248749636175734	0,55199471987593638
1	1	0	0	0	0	2	38272,17	0,300000012	4,20014334	0,00062075803424583539	0,30018119430008256	0,00126080401	-0,0020962774395042208	7,8214929742895782E-005	0,55344930607017184