File: Experimentelles/Rohdaten/Batteriemessungen/AlteZelle/Studenten_Batterietests/LiCoO2 vs Li 300µm GCPL/ZView-Export/LiCoO2 vs Li 300µm GCPL_02_GCPL_C04_loop6.txt
EC-Lab ASCII FILE
Nb header lines : 3
mode	ox/red	error	control changes	Ns changes	counter inc.	Ns	time/s	control/V/mA	Ewe/V	dq/mA.h	<I>/mA	P/W	(Q-Qo)/mA.h	x	Capacity/mA.h
1	0	0	1	1	0	1	74296,44	-0,300000012	4,18318367	0	0	0	0	0	0
1	0	0	1	0	0	1	74336,44	-0,300000012	4,10126734	-0,0008329144666973088	-0,2998432826367936	0,00122973742	-0,0033275295628980973	0,00012415460190280758	0,0033275295628980973
1	0	0	1	0	0	1	74376,44	-0,300000012	4,08596754	-0,00083290297146472666	-0,29983914443484147	0,00122513296	-0,0066591600583006451	0,00024846221511111862	0,0066591600583006451
1	0	0	1	0	0	1	74416,44	-0,300000012	4,07703972	-0,00083292145215471578	-0,29984579623477485	0,00122248323	-0,0099908167002227072	0,00037277080388122714	0,0099908167002227072
1	0	0	1	0	0	1	74456,44	-0,300000012	4,06706238	-0,00083290962387621402	-0,29984153813867674	0,00121947424	-0,013322480466509149	0,00049707965847094944	0,013322480466509149
1	0	0	1	0	0	1	74496,44	-0,300000012	4,05929804	-0,00083290924200581171	-0,2998414017850233	0,00121714559	-0,016654119366156672	0,00062138758525294016	0,016654119366156672
1	0	0	1	0	0	1	74536,44	-0,300000012	4,05149555	-0,00083290663839876646	-0,29984046450151859	0,00121480227	-0,019985751632827136	0,00074569526454963866	0,019985751632827136
1	0	0	1	0	0	1	74576,44	-0,300000012	4,04428434	-0,00083290733652313562	-0,29984071470435328	0,00121264113	-0,023317385912654416	0,00087000301895992461	0,023317385912654416
1	0	0	1	0	0	1	74616,45	-0,300000012	4,03705454	-0,0008329038915236791	-0,29983947452949779	0,00121046836	-0,026649016850537018	0,00099431064867776141	0,026649016850537018
1	0	0	1	0	0	1	74656,45	-0,300000012	4,03119755	-0,00083290271175735526	-0,29983905088269645	0,00120871048	-0,02998063639274169	0,001118617853207533	0,02998063639274169
1	0	0	1	0	0	1	74696,45	-0,300000012	4,02516937	-0,00083289775296383437	-0,29983726580815424	0,0012068958	-0,033312227355393389	0,0012429239913957576	0,033312227355393389
1	0	0	1	0	0	1	74736,45	-0,300000012	4,01912212	-0,00083289413574006835	-0,29983596263156346	0,00120507739	-0,036643808230818259	0,0013672297532159867	0,036643808230818259
1	0	0	1	0	0	1	74776,45	-0,300000012	4,01198721	-0,00083290714575019149	-0,29984064603094138	0,00120295689	-0,039975404465399802	0,0014915360881070016	0,039975404465399802
1	0	0	1	0	0	1	74816,45	-0,300000012	4,00559664	-0,00083289130559563635	-0,29983494458157018	0,00120101788	-0,04330698470526697	0,0016158418262137184	0,04330698470526697
1	0	0	1	0	0	1	74856,45	-0,300000012	3,9975841	-0,0008329148762606912	-0,29984343007669766	0,00119864929	-0,04663863952220905	0,0017401503468913702	0,04663863952220905
1	0	0	1	0	0	1	74896,45	-0,300000012	3,98877048	-0,00083291252323653965	-0,2998425821530464	0,00119600329	-0,049970288432451699	0,0018644586471821245	0,049970288432451699
1	0	0	1	0	0	1	74936,45	-0,300000012	3,98230338	-0,00083291430519024525	-0,29984322337492819	0,00119406672	-0,053301929706049581	0,0019887666625393949	0,053301929706049581
1	0	0	1	0	0	1	74976,45	-0,300000012	3,97379518	-0,0008328989640689559	-0,299837701420408	0,00119149359	-0,056633568399701792	0,0021130745816354234	0,056633568399701792
1	0	0	1	0	0	1	75016,45	-0,300000012	3,96578288	-0,00083290410540666842	-0,29983955264281939	0,00118909858	-0,05996516027396681	0,0022373807538371664	0,05996516027396681
1	0	0	1	0	0	1	75056,45	-0,300000012	3,95887685	-0,00083290853141744922	-0,29984114530633869	0,00118703418	-0,063296794369824358	0,0023616885013832944	0,063296794369824358
1	0	0	1	0	0	1	75096,45	-0,300000012	3,95387888	-0,00083291895695692966	-0,29984489797783552	0,00118555035	-0,066628428083718771	0,0024859962346778643	0,066628428083718771
1	0	0	1	0	0	1	75136,46	-0,300000012	3,94910955	-0,00083291253408624064	-0,29984258636603066	0,00118411123	-0,069960077609180685	0,0026103045579232765	0,069960077609180685
1	0	0	1	0	0	1	75176,46	-0,300000012	3,94269967	-0,00083291623208920166	-0,29984391816531603	0,00118219457	-0,073291738136315622	0,0027346132916559011	0,073291738136315622
1	0	0	1	0	0	1	75216,46	-0,300000012	3,93697667	-0,00083290116273528998	-0,29983849278851603	0,00118045718	-0,076623369038793062	0,0028589209200527238	0,076623369038793062
1	0	0	1	0	0	1	75256,46	-0,300000012	3,93176866	-0,00083290982933342464	-0,29984161210181062	0,00117890781	-0,079954982110274445	0,0029832278831511098	0,079954982110274445
1	0	0	1	0	0	1	75296,46	-0,300000012	3,92690396	-0,00083290580673846938	-0,29984016441511258	0,00117744354	-0,083286612782252442	0,0031075355029476877	0,083286612782252442
1	0	0	1	0	0	1	75336,46	-0,300000012	3,92163873	-0,00083290974121789133	-0,29984158149432998	0,0011758703	-0,086618254858350707	0,0032318435482473261	0,086618254858350707
1	0	0	1	0	0	1	75376,46	-0,300000012	3,91665959	-0,0008329053211708864	-0,29983998995979974	0,00117437122	-0,089949884494423155	0,0033561511293928755	0,089949884494423155
1	0	0	1	0	0	1	75416,46	-0,300000012	3,91158509	-0,00083290375837186982	-0,2998394265953575	0,00117284746	-0,093281499821283046	0,0034804581766424666	0,093281499821283046
1	0	0	1	0	0	1	75456,46	-0,300000012	3,90656781	-0,0008329085382521152	-0,29984114755733734	0,00117134978	-0,096613134863039808	0,0036047659594813658	0,096613134863039808
1	0	0	1	0	0	1	75496,46	-0,300000012	3,90168428	-0,00083290901471343296	-0,29984131995789338	0,00116988621	-0,099944762107254029	0,0037290734513834688	0,099944762107254029
1	0	0	1	0	0	1	75536,46	-0,300000012	3,89664793	-0,00083290872844225843	-0,29984121671032723	0,0011683756	-0,10327640711735283	0,0038533816061546125	0,10327640711735283
1	0	0	1	0	0	1	75576,46	-0,300000012	3,89206934	-0,00083290845356881626	-0,29984111683634067	0,00116700237	-0,10660803971869179	0,0039776892979382419	0,10660803971869179
1	0	0	1	0	0	1	75616,47	-0,300000012	3,88861656	-0,00083290604192515213	-0,29984024874555418	0,00116596371	-0,10993966905112989	0,0041019968677547866	0,10993966905112989
1	0	0	1	0	0	1	75656,47	-0,300000012	3,88464856	-0,00083291648390558029	-0,29984400881742093	0,00116478861	-0,11327132563590435	0,0042263054543926413	0,11327132563590435
1	0	0	1	0	0	1	75696,47	-0,300000012	3,88085222	-0,00083291840385397274	-0,29984469995376838	0,00116365298	-0,1166029846738371	0,0043506141325611296	0,1166029846738371
1	0	0	1	0	0	1	75736,47	-0,300000012	3,87671256	-0,00083291610075367821	-0,29984386976498797	0,0011624085	-0,11993463665407658	0,0044749225473975936	0,11993463665407658
1	0	0	1	0	0	1	75776,47	-0,300000012	3,87263012	-0,00083291107384363814	-0,29984206011314182	0,00116117741	-0,12326628265131771	0,0045992307390003443	0,12326628265131771
1	0	0	1	0	0	1	75816,47	-0,300000012	3,86875749	-0,00083291165860990682	-0,29984227174225146	0,00116001698	-0,12659794365317384	0,0047235394904454547	0,12659794365317384
1	0	0	1	0	0	1	75856,47	-0,300000012	3,86494207	-0,00083291151713497114	-0,2998422208118448	0,00115887285	-0,12992958665018373	0,0048478475701055443	0,12992958665018373
1	0	0	1	0	0	1	75896,47	-0,300000012	3,86114573	-0,00083291073428094387	-0,29984193787647853	0,00115773338	-0,13326121262052581	0,0049721550144777658	0,13326121262052581
1	0	0	1	0	0	1	75936,47	-0,300000012	3,85767365	-0,00083290759965115123	-0,29984080943205728	0,00115668797	-0,13659284500804469	0,005096462698283481	0,13659284500804469
1	0	0	1	0	0	1	75976,47	-0,300000012	3,85429716	-0,00083290809533827827	-0,29984098899286874	0,00115567632	-0,1399244759122159	0,0052207703267435008	0,1399244759122159
1	0	0	1	0	0	1	76016,47	-0,300000012	3,85114932	-0,0008329171891162793	-0,29984426268825562	0,001154745	-0,14325614369233208	0,0053450793310946067	0,14325614369233208
1	0	0	1	0	0	1	76056,47	-0,300000012	3,84773469	-0,0008329121191932096	-0,29984243643504006	0,00115371414	-0,14658777603438752	0,0054693870132040205	0,14658777603438752
1	0	0	1	0	0	1	76096,47	-0,300000012	3,844625	-0,00083291377929846438	-0,29984303405762899	0,00115278398	-0,14991943640423907	0,0055936957410681907	0,14991943640423907
1	0	0	1	0	0	1	76136,48	-0,300000012	3,8417635	-0,0008329139755550359	-0,29984310572784301	0,00115192635	-0,15325110661678442	0,0057180048361764992	0,15325110661678442
1	0	0	1	0	0	1	76176,48	-0,300000012	3,83874941	-0,00083290969881084237	-0,29984156622809402	0,00115101668	-0,15658275797946016	0,0058423132279708301	0,15658275797946016
1	0	0	1	0	0	1	76216,48	-0,300000012	3,83710885	-0,00083291912678711949	-0,29984495926995386	0,00115053775	-0,15991441439470909	0,0059666218082834573	0,15991441439470909
1	0	0	1	0	0	1	76256,48	-0,300000012	3,83653641	-0,00083292604496081664	-0,29984744960880102	0,0011503757	-0,16324611012183056	0,0060909318553749082	0,16324611012183056
1	0	0	1	0	0	1	76296,48	-0,300000012	3,83443785	-0,00083292099575201677	-0,2998456327812649	0,00114973949	-0,16657777781471706	0,0062152408564713574	0,16657777781471706
1	0	0	1	0	0	1	76336,48	-0,300000012	3,83079433	-0,00083292894882957133	-0,2998484961083632	0,00114865787	-0,16990948337242269	0,0063395512703551181	0,16990948337242269
1	0	0	1	0	0	1	76376,48	-0,300000012	3,82695985	-0,00083291849582062822	-0,29984473228271008	0,00114749372	-0,17324116937407779	0,0064638609545763418	0,17324116937407779
1	0	0	1	0	0	1	76416,48	-0,300000012	3,8238883	-0,00083291412062115136	-0,29984315693485824	0,0011465667	-0,17657283581340074	0,0065881699089006502	0,17657283581340074
1	0	0	1	0	0	1	76456,48	-0,300000012	3,82100773	-0,00083290917861792781	-0,29984137854697075	0,00114569627	-0,1799044859270711	0,0067124782540929101	0,1799044859270711
1	0	0	1	0	0	1	76496,48	-0,300000012	3,81770754	-0,00083290942759977446	-0,29984146859403898	0,00114470709	-0,1832361066281689	0,0068367855018625421	0,1832361066281689
1	0	0	1	0	0	1	76536,48	-0,300000012	3,81436896	-0,00083290518905719117	-0,29983994212056717	0,00114370021	-0,18656773072115504	0,0069610928761880896	0,18656773072115504
1	0	0	1	0	0	1	76576,48	-0,300000012	3,80990505	-0,00083290233061048717	-0,2998389126118551	0,00114235783	-0,18989935139740262	0,0070854001230305267	0,18989935139740262
1	0	0	1	0	0	1	76616,48	-0,300000012	3,80628037	-0,00083291413709521306	-0,29984316339247846	0,00114128715	-0,19323099082074816	0,0072097080693523942	0,19323099082074816
1	0	0	1	0	0	1	76656,49	-0,300000012	3,80303741	-0,00083290271982881754	-0,29983905384421376	0,00114029914	-0,1965626195614297	0,007334015617089705	0,1965626195614297
1	0	0	1	0	0	1	76696,49	-0,300000012	3,79958439	-0,00083290897023346688	-0,29984130347419866	0,00113927235	-0,19989423902976602	0,0074583228188633498	0,19989423902976602
1	0	0	1	0	0	1	76736,49	-0,300000012	3,79613137	-0,00083291521026359667	-0,29984354919838528	0,00113824545	-0,20322591127161939	0,0075826319896878694	0,20322591127161939
1	0	0	1	0	0	1	76776,49	-0,300000012	3,79256415	-0,00083290778468714816	-0,2998408764206777	0,0011371657	-0,20655756237473018	0,007706940371797481	0,20655756237473018
1	0	0	1	0	0	1	76816,49	-0,300000012	3,78995061	-0,00083290281111829811	-0,29983908671126784	0,00113637536	-0,20988918183632784	0,0078312475733196979	0,20988918183632784
1	0	0	1	0	0	1	76856,49	-0,300000012	3,7861352	-0,00083290060746835341	-0,29983829310579987	0,00113522832	-0,21322080305539494	0,0079555548404154611	0,21322080305539494
1	0	0	1	0	0	1	76896,49	-0,300000012	3,78212905	-0,00083291698420047757	-0,2998441877995497	0,00113404938	-0,21655245312469958	0,0080798631839523776	0,21655245312469958
1	0	0	1	0	0	1	76936,49	-0,300000012	3,77831364	-0,00083291731680929664	-0,29984430773183021	0,00113290583	-0,21988409378853862	0,0082041711765587238	0,21988409378853862
1	0	0	1	0	0	1	76976,49	-0,300000012	3,77428842	-0,00083291041358311974	-0,29984182354146534	0,00113168953	-0,22321572855887738	0,0083284789492706534	0,22321572855887738
1	0	0	1	0	0	1	77016,49	-0,300000012	3,77051115	-0,00083290395316481587	-0,29983949768281619	0,00113054819	-0,22654736626883939	0,0084527868316638784	0,22654736626883939
1	0	0	1	0	0	1	77056,49	-0,300000012	3,76566553	-0,00083292665023770598	-0,29984766750417446	0,00112912606	-0,22987906488140352	0,008577096986415072	0,22987906488140352
1	0	0	1	0	0	1	77096,49	-0,300000012	3,76043844	-0,0008329208314849271	-0,2998455728399543	0,00112755084	-0,23321076018657878	0,0087014070177631411	0,23321076018657878
1	0	0	1	0	0	1	77136,50	-0,300000012	3,75586009	-0,00083292302720248704	-0,29984636435775814	0,00112618099	-0,23654245502403142	0,0088257170316598502	0,23654245502403142
1	0	0	1	0	0	1	77176,50	-0,300000012	3,75097632	-0,00083290824194418061	-0,29984104176995053	0,00112469669	-0,23987411554203027	0,0089500257650515955	0,23987411554203027
1	0	0	1	0	0	1	77216,50	-0,300000012	3,74595904	-0,00083291894339687296	-0,29984489309980218	0,00112320669	-0,24320577410766742	0,0090743344255980979	0,24320577410766742
1	0	0	1	0	0	1	77256,50	-0,300000012	3,74092269	-0,00083290940047469402	-0,29984145771571917	0,00112168374	-0,24653741851036675	0,0091986425577063514	0,24653741851036675
1	0	0	1	0	0	1	77296,50	-0,300000012	3,73737454	-0,00083290219697852941	-0,29983886562182957	0,00112061016	-0,24986903541522483	0,0093229496638331763	0,24986903541522483
1	0	0	1	0	0	1	77336,50	-0,300000012	3,73224282	-0,00083291000738243264	-0,29984167731167136	0,00111908198	-0,25320066817383734	0,0094472573614848947	0,25320066817383734
1	0	0	1	0	0	1	77376,50	-0,300000012	3,72611904	-0,00083292437279058816	-0,29984684763985325	0,00111726508	-0,25653232356335821	0,0095715659035262298	0,25653232356335821
1	0	0	1	0	0	1	77416,50	-0,300000012	3,71976638	-0,00083292140405873446	-0,29984577891707328	0,00111535622	-0,25986403215978643	0,0096958764307888166	0,25986403215978643
1	0	0	1	0	0	1	77456,50	-0,300000012	3,71337557	-0,00083291488596796992	-0,29984343356775834	0,0011134313	-0,26319569911750422	0,0098201854044551347	0,26319569911750422
1	0	0	1	0	0	1	77496,50	-0,300000012	3,70708013	-0,00083290430787205696	-0,29983962553197312	0,00111152953	-0,26652733005508557	0,0099444930341617293	0,26652733005508557
1	0	0	1	0	0	1	77536,50	-0,300000012	3,7006321	-0,00083291758765280243	-0,29984440506950803	0,0011096138	-0,26985898743713834	0,010068801650547109	0,26985898743713834
1	0	0	1	0	0	1	77576,50	-0,300000012	3,69387889	-0,00083291456205149491	-0,2998433158466409	0,00110758492	-0,27319065210108397	0,010193110538629704	0,27319065210108397
1	0	0	1	0	0	1	77616,50	-0,300000012	3,6871829	-0,00083293023294044864	-0,29984895823253728	0,00110559794	-0,27652234074801478	0,01031742032154972	0,27652234074801478
1	0	0	1	0	0	1	77656,51	-0,300000012	3,68039155	-0,00083291102903087936	-0,29984204510133466	0,00110353611	-0,27985401828242285	0,01044172968984657	0,27985401828242285
1	0	0	1	0	0	1	77696,51	-0,300000012	3,67386723	-0,00083290732839537997	-0,29984071197388915	0,00110157498	-0,28318565764978304	0,010566037634079552	0,28318565764978304
1	0	0	1	0	0	1	77736,51	-0,300000012	3,6667707	-0,00083292100958857267	-0,29984563691062176	0,00109946518	-0,28651730918735046	0,010690346032399325	0,28651730918735046
1	0	0	1	0	0	1	77776,51	-0,300000012	3,65896821	-0,0008329230773564841	-0,29984638210261306	0,00109712838	-0,28984900829638656	0,010814656205674555	0,28984900829638656
1	0	0	1	0	0	1	77816,51	-0,300000012	3,65141368	-0,00083293026092648512	-0,2998489684504272	0,0010948726	-0,2931807074284217	0,010938966379807912	0,2931807074284217
1	0	0	1	0	0	1	77856,51	-0,300000012	3,64332509	-0,00083291547902259558	-0,2998436462952791	0,00109242788	-0,29651237280052026	0,011063275294312643	0,29651237280052026
1	0	0	1	0	0	1	77896,51	-0,300000012	3,63460684	-0,00083291102338333914	-0,29984204195128384	0,00108980795	-0,29984402743321274	0,011187583808115696	0,29984402743321274
1	0	0	1	0	0	1	77936,51	-0,300000012	3,62529731	-0,00083291080782314138	-0,29984196500736998	0,00108701631	-0,30317567184742573	0,011311891940653538	0,30317567184742573
1	0	0	1	0	0	1	77976,51	-0,300000012	3,61556816	-0,00083290804624723059	-0,29984097131345965	0,00108409545	-0,30650730312205971	0,011436199582936021	0,30650730312205971
1	0	0	1	0	0	1	78016,51	-0,300000012	3,60595322	-0,0008329081865631872	-0,29984102124677619	0,00108121266	-0,30983893617472499	0,011560507291559242	0,30983893617472499
1	0	0	1	0	0	1	78056,51	-0,300000012	3,59578538	-0,00083291428175071872	-0,29984321494035597	0,00107817189	-0,31317058031476493	0,01168481541386732	0,31317058031476493
1	0	0	1	0	0	1	78096,51	-0,300000012	3,58542657	-0,00083291771151456576	-0,29984445011612749	0,00107507023	-0,3165022426440297	0,011809124214839834	0,3165022426440297
1	0	0	1	0	0	1	78136,52	-0,300000012	3,57422829	-0,00083291503956251674	-0,29984348886070253	0,00107170909	-0,31983390194608218	0,011933432902862984	0,31983390194608218
1	0	0	1	0	0	1	78176,52	-0,300000012	3,56304932	-0,00083292249554230106	-0,29984617252798477	0,00106836669	-0,32316559355123789	0,012057742796158346	0,32316559355123789
1	0	0	1	0	0	1	78216,52	-0,300000012	3,55127883	-0,00083290589731103846	-0,29984019659998413	0,00106481614	-0,32649724819542253	0,012182051310390187	0,32649724819542253
1	0	0	1	0	0	1	78256,52	-0,300000012	3,5383637	-0,0008329082325481705	-0,29984103760208224	0,00106094661	-0,3298288821654928	0,012306359053243021	0,3298288821654928
1	0	0	1	0	0	1	78296,52	-0,300000012	3,52443743	-0,00083291233386927181	-0,29984251483387328	0,00105677615	-0,33316053130702298	0,012430667362163426	0,33316053130702298
1	0	0	1	0	0	1	78336,52	-0,300000012	3,50991988	-0,00083291185089117952	-0,29984234069991379	0,00105242257	-0,33649217767410432	0,012554975567565411	0,33649217767410432
1	0	0	1	0	0	1	78376,52	-0,300000012	3,49423862	-0,00083291405246986278	-0,2998431324008793	0,00104772346	-0,3398238083187751	0,012679283186343122	0,3398238083187751
1	0	0	1	0	0	1	78416,52	-0,300000012	3,47745085	-0,00083291207122306022	-0,29984241931971213	0,00104268722	-0,34315545755876723	0,012803591498937272	0,34315545755876723
1	0	0	1	0	0	1	78456,52	-0,300000012	3,45915604	-0,00083290918500887027	-0,29984138126652979	0,00103719812	-0,34648710465552538	0,01292789973156448	0,34648710465552538
1	0	0	1	0	0	1	78496,52	-0,300000012	3,44019365	-0,00083289757716655731	-0,29983720241068928	0,00103149808	-0,34981872259387667	0,013052206876252323	0,34981872259387667
1	0	0	1	0	0	1	78536,52	-0,300000012	3,41894197	-0,00083289741994937267	-0,29983714480835878	0,00102512585	-0,35315032677729722	0,013176513507725213	0,35315032677729722
1	0	0	1	0	0	1	78576,52	-0,300000012	3,39599228	-0,00083290360315640768	-0,29983937071889562	0,00101825222	-0,35648194408685926	0,013300820628952085	0,35648194408685926
1	0	0	1	0	0	1	78616,52	-0,300000012	3,37165022	-0,00083292005112932787	-0,29984529299084742	0,00101097347	-0,35981358255813318	0,013425128539750882	0,35981358255813318
1	0	0	1	0	0	1	78656,53	-0,300000012	3,3475368	-0,0008329173410385847	-0,29984431737571424	0,00100373989	-0,36314525701297619	0,013549437793145019	0,36314525701297619
1	0	0	1	0	0	1	78696,53	-0,300000012	3,31693745	-0,00083292003322806618	-0,29984528543127718	0,000994568109	-0,3664769350712825	0,013673747180989218	0,3664769350712825
1	0	0	1	0	0	1	78736,53	-0,300000012	3,28542233	-0,00083291556129521792	-0,29984367556727123	0,000985113089	-0,36980859335790861	0,013798055831125445	0,36980859335790861
1	0	0	1	0	0	1	78776,53	-0,300000012	3,25281978	-0,00083292080547081088	-0,29984556455016019	0,000975343573	-0,3731402576571897	0,013922364705601917	0,3731402576571897
1	0	0	1	0	0	1	78816,53	-0,300000012	3,21806169	-0,00083293650079270208	-0,29985121475438406	0,000964939711	-0,37647198821932032	0,014046676052434394	0,37647198821932032
1	0	0	1	0	0	1	78856,53	-0,300000012	3,17988873	-0,00083292433733907008	-0,29984683488061325	0,000953479554	-0,37980370872702816	0,014170987024122837	0,37980370872702816
1	0	0	1	0	0	1	78896,53	-0,300000012	3,13814831	-0,0008329314577596055	-0,29984939817785101	0,000940971891	-0,38313540382762707	0,014295297047837885	0,38313540382762707
1	0	0	1	0	0	1	78936,53	-0,300000012	3,09181023	-0,00083292018701467238	-0,29984534190685946	0,000927064917	-0,3864671037082569	0,014419607249902317	0,3864671037082569
1	0	0	1	0	0	1	78976,53	-0,300000012	3,04129457	-0,00083292339964707686	-0,29984649843210662	0,000911921554	-0,38979878728768851	0,014543916843747126	0,38979878728768851
1	0	0	1	0	0	1	79016,53	-0,300000012	2,98473144	-0,00083292981067796557	-0,29984880531173811	0,000894968165	-0,39313049162968787	0,014668227212271251	0,39313049162968787
1	0	0	1	0	0	1	79056,53	-0,300000012	2,92000318	-0,00083293515367805952	-0,2998507286856873	0,000875565107	-0,39646224026052282	0,014792539233271379	0,39646224026052282
1	0	0	1	0	0	1	79096,53	-0,300000012	2,84640431	-0,00083292656395335987	-0,29984763738838099	0,000853487581	-0,39979396268558291	0,014916850276498813	0,39979396268558291
1	0	0	1	0	0	1	79136,53	-0,300000012	2,7609396	-0,00083293625658750541	-0,29985112684225056	0,000827870856	-0,40312566679609766	0,015041160636385939	0,40312566679609766
1	0	0	1	0	0	1	79176,54	-0,300000012	2,66408587	-0,00083294237842328026	-0,29985332977992646	0,000798835012	-0,40645744020856045	0,01516547358202192	0,40645744020856045
1	0	0	1	0	0	1	79216,54	-0,300000012	2,5564537	-0,00083292613392240461	-0,2998474816378304	0,000766546233	-0,40978916027314413	0,015289784537176806	0,40978916027314413
1	0	0	1	0	0	1	79256,54	-0,300000012	2,43964553	-0,00083292012587686387	-0,29984531954862432	0,00073151628	-0,41312084676014502	0,015414094239506934	0,41312084676014502
1	0	0	1	0	0	1	79296,54	-0,300000012	2,3197279	-0,00083291528528928755	-0,29984357732757312	0,000695555529	-0,4164525289132375	0,01553840378013311	0,4164525289132375
1	0	0	1	0	0	1	79336,54	-0,300000012	2,19792151	-0,00083291134498516723	-0,29984215811310502	0,000659029523	-0,41978418775475136	0,015662712450972944	0,41978418775475136
1	0	0	1	0	0	1	79376,54	-0,300000012	2,0696671	-0,00083291403350068454	-0,29984312556861952	0,000620575447	-0,42311584220444269	0,015787020957947981	0,42311584220444269
1	1	0	0	1	0	2	79398,78	0,300000012	2,02786756	1,6135856509208678E-008	0,096815153241391091	0,000196328314	-0,42496810399889888	0,01585613133589161	1,6135856509208678E-008
1	1	0	0	0	0	2	79438,78	0,300000012	3,50542259	0,00083386198038690624	0,30018437971664448	0,00105227309	-0,42163264640664826	0,01573168092855431	0,0033354737281070816
1	1	0	0	0	0	2	79478,78	0,300000012	3,91447067	0,00083386165310111309	0,30018426188210963	0,0011750625	-0,41829719582437248	0,015607230782768595	0,0066709243103828698
1	1	0	0	0	0	2	79518,78	0,300000012	3,93011355	0,00083386668016016486	0,30018607259403117	0,00117976533	-0,41496170899126694	0,015482779284415686	0,010006411143488355
1	1	0	0	0	0	2	79558,78	0,300000012	3,9392705	0,00083386252822147469	0,30018457803921286	0,00118250831	-0,41162627419382592	0,015358329727583379	0,013341845940929322
1	1	0	0	0	0	2	79598,78	0,300000012	3,94583297	0,00083385541666547456	0,30018201699136877	0,00118446804	-0,40829083169691686	0,015233879883473571	0,016677288437838355
1	1	0	0	0	0	2	79638,78	0,300000012	3,95119381	0,00083386080444190234	0,30018395637432678	0,00118608493	-0,40495538355828909	0,015109429828863651	0,020012736576466093
1	1	0	0	0	0	2	79678,78	0,300000012	3,95571494	0,00083385716812974874	0,30018264816650918	0,00118743698	-0,40161994446842131	0,014984980111875133	0,023348175666333898
1	1	0	0	0	0	2	79718,79	0,300000012	3,96002626	0,00083386541527840832	0,30018561736091757	0,00118874293	-0,39828446773797862	0,014860528990466157	0,026683652396776608
1	1	0	0	0	0	2	79758,79	0,300000012	3,96391797	0,00083386287629604339	0,3001847025765296	0,00118990755	-0,3949490268236176	0,014736079205403341	0,030019093311137626
1	1	0	0	0	0	2	79798,79	0,300000012	3,96506262	0,00083385989768306419	0,30018362994759693	0,0011902469	-0,39161357753201414	0,014611629107774349	0,033354542602741062
1	1	0	0	0	0	2	79838,79	0,300000012	3,97027063	0,0008338497320827511	0,30017997107126298	0,00119179569	-0,38827815019261766	0,014487179829211712	0,0366899699421376
1	1	0	0	0	0	2	79878,79	0,300000012	3,97540236	0,0008338526020050048	0,30018100467015181	0,00119334029	-0,3849427333403984	0,01436273094193976	0,040025386794356832
1	1	0	0	0	0	2	79918,79	0,300000012	3,97854996	0,00083386615715755354	0,30018588381359597	0,00119430455	-0,3816072607831136	0,014238279976236912	0,0433608593516416
1	1	0	0	0	0	2	79958,79	0,300000012	3,98150706	0,00083387811464899123	0,30019018792396294	0,00119520933	-0,37827178930728557	0,014113829050884675	0,046696330827469613
1	1	0	0	0	0	2	79998,79	0,300000012	3,98402524	0,00083387582079238374	0,30018936265338029	0,00119596196	-0,37493630075394701	0,013989377488347558	0,050031819380808198
1	1	0	0	0	0	2	80038,79	0,300000012	3,98602819	0,00083387366266217498	0,30018858636040147	0,00119656022	-0,37160082256610784	0,01386492631256116	0,053367297568647379
1	1	0	0	0	0	2	80078,79	0,300000012	3,98536062	0,00083386149046652851	0,30018420400926157	0,00119634229	-0,36826537102934976	0,013740476131162427	0,056702749105405459
1	1	0	0	0	0	2	80118,79	0,300000012	3,98539877	0,0008338544553269943	0,30018167073813619	0,00119634368	-0,36492994282590272	0,013616026820360906	0,060038177308852454
1	1	0	0	0	0	2	80158,79	0,300000012	3,98761153	0,00083384835930334208	0,30017947654846682	0,0011969991	-0,36159453178921933	0,013491578150074411	0,063373588345535898
1	1	0	0	0	0	2	80198,79	0,300000012	3,98948121	0,00083384853526618739	0,30017954067310842	0,00119756069	-0,35825912449937318	0,013367129619587459	0,066708995635381978
1	1	0	0	0	0	2	80238,80	0,300000012	3,99144602	0,00083385675033595827	0,30018249774624442	0,00119816221	-0,35492371825452896	0,013242681128090928	0,070044401880226163
1	1	0	0	0	0	2	80278,80	0,300000012	3,9932394	0,00083384220547808538	0,30017726087619661	0,00119867967	-0,35158831532188166	0,013118232760176918	0,073379804812873357
1	1	0	0	0	0	2	80318,80	0,300000012	3,9949944	0,0008338447818540864	0,30017818853537414	0,00119921018	-0,34825293982093933	0,012993785415776707	0,076715180313815616
1	1	0	0	0	0	2	80358,80	0,300000012	3,99694014	0,00083385896483560397	0,30018329524390214	0,00119981461	-0,34491752631609709	0,012869336653399888	0,080050593818657882
1	1	0	0	0	0	2	80398,80	0,300000012	3,99747443	0,00083384962137043482	0,30017993155458182	0,00119996164	-0,34158210998653613	0,012744887785629018	0,083386010148218893
1	1	0	0	0	0	2	80438,80	0,300000012	3,99943924	0,0008338550837520096	0,30018189696667021	0,0012005592	-0,33824669430715584	0,012620438942117264	0,086721425827599194
1	1	0	0	0	0	2	80478,80	0,300000012	4,00128984	0,0008338643851942487	0,30018524543367123	0,00120112812	-0,33491126245920435	0,012495989495334379	0,090056857675550669
1	1	0	0	0	0	2	80518,80	0,300000012	4,00342655	0,00083386469607055194	0,30018535845120576	0,00120177004	-0,3315758070796073	0,01237153917055416	0,093392313055147699
1	1	0	0	0	0	2	80558,80	0,300000012	4,00552511	0,00083386414272752077	0,30018515925165101	0,00120239914	-0,3282403702263657	0,012247089537017173	0,096727749908389274
1	1	0	0	0	0	2	80598,80	0,300000012	4,00670767	0,00083386444575587904	0,30018526721795456	0,00120275456	-0,32490491735266714	0,012122639305735395	0,10006320278208779
1	1	0	0	0	0	2	80638,80	0,300000012	4,00886345	0,00083386220628023155	0,30018446102265613	0,00120339857	-0,32156946645420851	0,011998189148152477	0,10339865368054634
1	1	0	0	0	0	2	80678,80	0,300000012	4,01136255	0,00083386988414327309	0,30018722611698272	0,00120415981	-0,31823399911658368	0,01187373837720216	0,10673412101817123
1	1	0	0	0	0	2	80718,81	0,300000012	4,01353741	0,00083386328179637581	0,30018484931994266	0,00120480312	-0,31489852873184186	0,011749287492559816	0,11006959140291307
1	1	0	0	0	0	2	80758,81	0,300000012	4,01639891	0,00083387422653370445	0,30018878822837779	0,00120567787	-0,31156305146780845	0,011624836351241851	0,1134050686669465
1	1	0	0	0	0	2	80798,81	0,300000012	4,01790571	0,00083386879893309542	0,30018683433077798	0,00120612234	-0,30822760670422586	0,011500386422559403	0,11674051343052912
1	1	0	0	0	0	2	80838,81	0,300000012	4,02044296	0,00083387675297094707	0,30018969884957491	0,00120689557	-0,30489211731437408	0,011375934828810856	0,1200760028203808
1	1	0	0	0	0	2	80878,81	0,300000012	4,02259874	0,00083386414839824038	0,30018516130005882	0,00120752444	-0,30155663447352979	0,011251483479414576	0,12341148566122514
1	1	0	0	0	0	2	80918,81	0,300000012	4,02465916	0,00083385197699235546	0,30018077861121235	0,00120812526	-0,29822122287198464	0,011127034788052336	0,12674689726277019
1	1	0	0	0	0	2	80958,81	0,300000012	4,02732992	0,00083385432251956723	0,30018162292840736	0,00120893039	-0,29488579748864038	0,011002585582472638	0,1300823226461145
1	1	0	0	0	0	2	80998,81	0,300000012	4,02954292	0,00083385200277467558	0,30018078879773843	0,0012095914	-0,29155036415753658	0,010878136080351346	0,13341775597721827
1	1	0	0	0	0	2	81038,81	0,300000012	4,03200388	0,00083385828422341082	0,30018305022835443	0,00121033925	-0,28821493581128842	0,010753686764221723	0,13675318432346642
1	1	0	0	0	0	2	81078,81	0,300000012	4,03480816	0,00083387563853793664	0,30018929676394541	0,0012112062	-0,28487946317187341	0,010629235795454488	0,14008865696288139
1	1	0	0	0	0	2	81118,81	0,300000012	4,03681135	0,00083386861271825101	0,30018676729475898	0,00121179735	-0,28154396075942678	0,010504783715815414	0,14342415937532806
1	1	0	0	0	0	2	81158,81	0,300000012	4,03911972	0,00083387144895725773	0,300187789117384	0,00121249445	-0,27820847475406925	0,010380332248346894	0,14675964538068563
1	1	0	0	0	0	2	81198,81	0,300000012	4,04159927	0,00083387533791363238	0,30018918943900838	0,0012132444	-0,27487296588356192	0,010255879927748893	0,15009515425119286
1	1	0	0	0	0	2	81238,82	0,300000012	4,04371691	0,00083387994363738445	0,3001908467399145	0,00121388678	-0,2715374545895265	0,0101314275167258	0,15343066554522829
1	1	0	0	0	0	2	81278,82	0,300000012	4,04583454	0,00083387978543672282	0,30019078939740544	0,00121452229	-0,2682019342664023	0,010006974768815267	0,15676618586835251
1	1	0	0	0	0	2	81318,82	0,300000012	4,04785681	0,00083387299248576166	0,30018834461241875	0,00121511938	-0,26486642329978678	0,0098825223700086477	0,1601016968349681
1	1	0	0	0	0	2	81358,82	0,300000012	4,05047035	0,0008338593357917335	0,30018342878896429	0,00121588411	-0,26153095066355235	0,009758071401360087	0,1634371694712025
1	1	0	0	0	0	2	81398,82	0,300000012	4,05239725	0,00083384572023815578	0,30017852670995034	0,00121644267	-0,2581955442057176	0,0096336229019165965	0,16677257592903725
1	1	0	0	0	0	2	81438,82	0,300000012	4,05443811	0,00083386514980594317	0,30018552067096806	0,00121708366	-0,25486012042857613	0,0095091737562664845	0,17010799970617875
1	1	0	0	0	0	2	81478,82	0,300000012	4,05636501	0,00083386067980031168	0,30018391196246144	0,00121765549	-0,25152465347106835	0,009384722999498848	0,17344346666368659
1	1	0	0	0	0	2	81518,82	0,300000012	4,05855894	0,00083385990869502234	0,30018363502657805	0,001218313	-0,24818923889433254	0,0092602741971282432	0,17677888124042234
1	1	0	0	0	0	2	81558,82	0,300000012	4,06107712	0,00083386586977541453	0,30018578056774374	0,00121907762	-0,24485378283829901	0,0091358238471092672	0,1801143372964559
1	1	0	0	0	0	2	81598,82	0,300000012	4,06336641	0,00083386227692829248	0,30018448645894989	0,00121975958	-0,24151834054182547	0,0090113740104779763	0,18344977959292944
1	1	0	0	0	0	2	81638,82	0,300000012	4,06567478	0,00083386908297737446	0,30018693688173555	0,00122046249	-0,23818285595124704	0,008886922595796768	0,18678526418350784
1	1	0	0	0	0	2	81678,82	0,300000012	4,06781101	0,00083386786072784	0,30018649770531603	0,00122110196	-0,23484737585443334	0,0087624713487839629	0,19012074428032154
1	1	0	0	0	0	2	81718,82	0,300000012	4,07065392	0,00083385959608025024	0,30018352223937267	0,00122194318	-0,23151192455864029	0,0086380211763759616	0,19345619557611462
1	1	0	0	0	0	2	81758,83	0,300000012	4,07296181	0,0008338507968170775	0,30018035370059776	0,00122262316	-0,22817649967539219	0,0085135719894555238	0,19679162045936272
1	1	0	0	0	0	2	81798,83	0,300000012	4,07540369	0,00083386500906447565	0,30018547014482317	0,00122337695	-0,22484104207332176	0,0083891215817518336	0,20012707806143315
1	1	0	0	0	0	2	81838,83	0,300000012	4,07740688	0,00083386476075152563	0,30018538173240154	0,00122397789	-0,22150558775019386	0,0082646712963898995	0,20346253238456106
1	1	0	0	0	0	2	81878,83	0,300000012	4,07984877	0,00083385556733608243	0,30018207209879091	0,00122469745	-0,21817014457450544	0,00814022142695392	0,20679797556024944
1	1	0	0	0	0	2	81918,83	0,300000012	4,08147049	0,00083386851775646208	0,30018673310919066	0,00122520328	-0,21483469969648358	0,0080157714940015898	0,21013342043827133
1	1	0	0	0	0	2	81958,83	0,300000012	4,08524752	0,00083386573776437171	0,30018573233181875	0,00122633297	-0,21149923039756781	0,0078913206498728742	0,21346888973718707
1	1	0	0	0	0	2	81998,83	0,300000012	4,0883379	0,00083385865889820787	0,30018318511211053	0,00122725032	-0,20816378926333686	0,0077668708566064166	0,21680433087141805
1	1	0	0	0	0	2	82038,83	0,300000012	4,08892965	0,00083386683375140032	0,30018612800110368	0,00122743996	-0,20482832864685757	0,007642420336431081	0,22013979148789734
1	1	0	0	0	0	2	82078,83	0,300000012	4,0911994	0,00083385905478232435	0,30018332650932819	0,00122810982	-0,20149288714817235	0,007517970529566345	0,22347523298658256
1	1	0	0	0	0	2	82118,83	0,300000012	4,09310722	0,0008338508014116023	0,30018035535459392	0,00122867036	-0,19815748474666877	0,0073935221814700224	0,22681063538808614
1	1	0	0	0	0	2	82158,83	0,300000012	4,0950532	0,00083385259255932442	0,30018100127326854	0,00122925721	-0,19482208867775802	0,0072690740696512525	0,2301460314569969
1	1	0	0	0	0	2	82198,83	0,300000012	4,09678888	0,00083384944721062976	0,30017986896662003	0,00122977351	-0,19148668913686678	0,007144625828288224	0,23348143099788813
1	1	0	0	0	0	2	82238,84	0,300000012	4,09867764	0,00083384983426994752	0,30018000718698534	0,00123034103	-0,18815127154749539	0,0070201769135121331	0,23681684858725952
1	1	0	0	0	0	2	82278,84	0,300000012	4,10129118	0,00083385403552320269	0,30018151960870054	0,00123113184	-0,18481586938102947	0,0068957285741853824	0,24015225075372544
1	1	0	0	0	0	2	82318,84	0,300000012	4,10352325	0,00083385751719276122	0,30018277406084301	0,00123180705	-0,18148045901074086	0,0067712799287629747	0,24348766112401405
1	1	0	0	0	0	2	82358,84	0,300000012	4,10493517	0,00083386192288001382	0,30018436012583507	0,00123223732	-0,17814501359108499	0,0066468299756015526	0,24682310654366992
1	1	0	0	0	0	2	82398,84	0,300000012	4,10709047	0,00083385976210236557	0,30018358123735693	0,0012328811	-0,17480958862012038	0,0065223807854082957	0,25015853151463453
1	1	0	0	0	0	2	82438,84	0,300000012	4,10604143	0,00083386295127537523	0,3001847292191015	0,00123257097	-0,1714741392517329	0,0063979306849143872	0,25349398088302195
1	1	0	0	0	0	2	82478,84	0,300000012	4,10783482	0,00083387487817307315	0,30018902373299136	0,00123312697	-0,16813866287751235	0,0062734795767965363	0,25682945725724243
1	1	0	0	0	0	2	82518,84	0,300000012	4,11006689	0,00083385026329921357	0,30018016275619904	0,0012337605	-0,16480324350711114	0,0061490305955678298	0,26016487662764371
1	1	0	0	0	0	2	82558,84	0,300000012	4,1118598	0,00083384827979074586	0,30017944785460838	0,00123429578	-0,16146783872130755	0,0060245821585100672	0,26350028141344739
1	1	0	0	0	0	2	82598,84	0,300000012	4,11401558	0,00083386183654599731	0,30018432792096262	0,00123496295	-0,15813241929992115	0,0059001331753790349	0,26683570083483382
1	1	0	0	0	0	2	82638,84	0,300000012	4,11611414	0,00083384728172587021	0,30017908904408646	0,00123557134	-0,15479700364270221	0,0057756843326941491	0,27017111649205277
1	1	0	0	0	0	2	82678,84	0,300000012	4,11832714	0,00083385615244342221	0,30018228280316096	0,00123624888	-0,15146160276928458	0,0056512360416127686	0,27350651736547043
1	1	0	0	0	0	2	82718,84	0,300000012	4,12076902	0,00083385726111630592	0,30018268123389702	0,00123698346	-0,14812617114807085	0,0055267866032897728	0,27684194898668419
1	1	0	0	0	0	2	82758,85	0,300000012	4,12313461	0,00083385936228268685	0,30018343720377619	0,00123769674	-0,14479076282650147	0,0054023380343078368	0,2801773573082536
1	1	0	0	0	0	2	82798,85	0,300000012	4,12591982	0,00083385535695321037	0,30018199590423603	0,00123852689	-0,14145533135387048	0,0052778886015286643	0,28351278878088454
1	1	0	0	0	0	2	82838,85	0,300000012	4,12815142	0,00083386537877553037	0,30018560422014125	0,00123921165	-0,13811989372312106	0,0051534389389818138	0,28684822641163398
1	1	0	0	0	0	2	82878,85	0,300000012	4,13021183	0,00083386614684263872	0,30018588018766387	0,00123983133	-0,1347844458147891	0,0050289888929645402	0,29018367431996595
1	1	0	0	0	0	2	82918,85	0,300000012	4,13208151	0,0008338641036566761	0,30018514406817018	0,00124038954	-0,13144900291253533	0,0049045390337307744	0,29351911722221965
1	1	0	0	0	0	2	82958,85	0,300000012	4,13459969	0,00083385172988971072	0,30018069001944589	0,00124112703	-0,12811355411756939	0,0047800889546319949	0,2968545660171856
1	1	0	0	0	0	2	82998,85	0,300000012	4,13675547	0,00083385468995405568	0,30018175631695635	0,00124177849	-0,12477814796162883	0,0046556404664525811	0,30018997217312608
1	1	0	0	0	0	2	83038,85	0,300000012	4,13961697	0,00083385405967467354	0,30018152905743424	0,00124263659	-0,12144271136180467	0,0045311908423709376	0,30352540877295027
1	1	0	0	0	0	2	83078,85	0,300000012	4,14215422	0,00083385124940507942	0,30018051662556358	0,00124339398	-0,11810730520545682	0,0044067423541763277	0,30686081492929811
1	1	0	0	0	0	2	83118,85	0,300000012	4,14698076	0,00083385199786225958	0,30018078631817382	0,00124484394	-0,1147719049378641	0,004282294085699088	0,31019621519689082
1	1	0	0	0	0	2	83158,85	0,300000012	4,14669466	0,00083384615737199782	0,30017868464811661	0,00124474929	-0,11143650016021141	0,0041578456489454483	0,31353161997454349
1	1	0	0	0	0	2	83198,85	0,300000012	4,14919329	0,00083385470393134477	0,30018176114250515	0,00124551216	-0,10810108946575299	0,0040333969914278304	0,31686703066900186
1	1	0	0	0	0	2	83238,86	0,300000012	4,15190268	0,00083386688994202342	0,30018614711106976	0,00124634372	-0,10476567207434848	0,0039089480840381504	0,3202024480604064
1	1	0	0	0	0	2	83278,86	0,300000012	4,15413427	0,00083386383874548813	0,30018504879987475	0,00124700903	-0,10143021048932182	0,0037844975277250093	0,32353790964543302
1	1	0	0	0	0	2	83318,86	0,300000012	4,15684319	0,00083386418876051904	0,30018517582320294	0,00124782266	-0,098094745664607232	0,0036600468505347552	0,32687337447014771
1	1	0	0	0	0	2	83358,86	0,300000012	4,15949488	0,00083386224260429542	0,30018447519285114	0,00124861579	-0,094759288792192026	0,0035355964700554835	0,33020883134256288
1	1	0	0	0	0	2	83398,86	0,300000012	4,16357756	0,0008338596301774185	0,30018353364397331	0,00124983746	-0,091423840878225792	0,0034111464238279872	0,33354427925652915
1	1	0	0	0	0	2	83438,86	0,300000012	4,16743088	0,00083386786076426509	0,30018649659667443	0,0012510065	-0,088088370673254886	0,003286695545893136	0,3368797494615001
1	1	0	0	0	0	2	83478,86	0,300000012	4,17017794	0,00083386416843699085	0,30018516850381965	0,0012518256	-0,084752912743029414	0,0031622451259455418	0,34021520739172557
1	1	0	0	0	0	2	83518,86	0,300000012	4,17303991	0,00083385842739045619	0,30018310176747232	0,00125267601	-0,081417469135810022	0,0030377952404085606	0,34355065099894502
1	1	0	0	0	0	2	83558,86	0,300000012	4,17498541	0,00083385874523388019	0,30018321507409082	0,00125326053	-0,078082039961413286	0,0029133458933795981	0,34688608017334176
1	1	0	0	0	0	2	83598,86	0,300000012	4,17733192	0,00083385569393303654	0,30018211662749824	0,0012539603	-0,0747466072139168	0,0027888964130334797	0,35022151292083821
1	1	0	0	0	0	2	83638,86	0,300000012	4,18051767	0,00083384657789766797	0,30017883603786067	0,00125490292	-0,071411202180137971	0,0026644479667234288	0,35355691795461696
1	1	0	0	0	0	2	83678,86	0,300000012	4,18538237	0,00083386473974419968	0,30018537417340826	0,00125639059	-0,068075758060065318	0,0025399980620512032	0,3568923620746896
1	1	0	0	0	0	2	83718,86	0,300000012	4,18742371	0,00083385306844777523	0,3001811714714855	0,00125698571	-0,064740323443746317	0,0024155485119768048	0,36022779669100864
1	1	0	0	0	0	2	83758,87	0,300000012	4,19066668	0,00083385433926350541	0,30018162895261146	0,00125796115	-0,061404904642595942	0,0022910995519876106	0,36356321549215898
1	1	0	0	0	0	2	83798,87	0,300000012	4,19329929	0,00083387058900958963	0,30018747977997248	0,00125877594	-0,058069399382866842	0,0021666473661126	0,36689872075188813
1	1	0	0	0	0	2	83838,87	0,300000012	4,19593191	0,00083386298854980198	0,30018474375937773	0,00125955476	-0,054733944390484781	0,0020421970557798928	0,37023417574427014
1	1	0	0	0	0	2	83878,87	0,300000012	4,19833088	0,00083386711753242547	0,30018622917828294	0,00126028107	-0,051398467259571712	0,0019177459194288275	0,37356965287518323
1	1	0	0	0	0	2	83900,78	0,300000012	4,19991446	0,00015916586152381366	0,30018715320937222	0,00126076036	-0,049571567657590675	0,0018495818389862762	0,37539655247716422