File: Experimentelles/Rohdaten/Batteriemessungen/AlteZelle/Studenten_Batterietests/S vs Li GCPL 200µm/ECLab-Export/S vs Li GCPL 200µm_02_GCPL_C05_loop2.mpt
EC-Lab ASCII FILE
Nb header lines : 3
mode	ox/red	error	control changes	Ns changes	counter inc.	Ns	time/s	control/V/mA	Ewe/V	dq/mA.h	<I>/mA	P/W	(Q-Qo)/mA.h	x	Capacity/mA.h
1	0	0	1	1	0	1	87718,88	-0,200000003	3,4704802	0	0	0	0	0	0
1	0	0	1	0	0	1	87828,88	-0,200000003	2,14856648	-0,00055480611344012947	-0,19972625318760435	0,000429125124	-0,0061001411621603443	0,00022760446848722442	0,0061001411621603443
1	0	0	1	0	0	1	87938,88	-0,200000003	2,13599634	-0,00055481619148867008	-0,1997298812139512	0,000426622282	-0,012203052732052048	0,00045531230461175866	0,012203052732052048
1	0	0	1	0	0	1	88048,89	-0,200000003	2,12849236	-0,00055481524801005914	-0,19972954157010832	0,000425122795	-0,018305942696625136	0,00068301933461280666	0,018305942696625136
1	0	0	1	0	0	1	88158,89	-0,200000003	2,12291193	-0,00055478907729023027	-0,19972012036228422	0,00042398824	-0,024408711492878669	0,00091072184366093952	0,024408711492878669
1	0	0	1	0	0	1	88268,89	-0,200000003	2,11866474	-0,00055479809745318355	-0,1997233678706471	0,000423146848	-0,030511447293562995	0,0011384231216000226	0,030511447293562995
1	0	0	1	0	0	1	88378,89	-0,200000003	2,11470318	-0,00055480409015466771	-0,19972552552605437	0,000422360201	-0,036614254664526189	0,0013661270699224368	0,036614254664526189
1	0	0	1	0	0	1	88488,89	-0,200000003	2,11224627	-0,00055479414676295386	-0,19972194601530099	0,000421861943	-0,04271706671450119	0,0015938311928250733	0,04271706671450119
1	0	0	1	0	0	1	88598,90	-0,200000003	2,10615158	-0,0005547904031864471	-0,1997205983543905	0,000420641853	-0,048819839219622285	0,0018215338402560416	0,048819839219622285
1	0	0	1	0	0	1	88708,90	-0,200000003	2,10207582	-0,00055480832918236653	-0,1997270515880112	0,00041984141	-0,054922638777290739	0,0020492374970539242	0,054922638777290739
1	0	0	1	0	0	1	88818,90	-0,200000003	2,09820938	-0,00055480309247142739	-0,19972516636951053	0,000419065211	-0,061025455081201229	0,0022769417786766125	0,061025455081201229
1	0	0	1	0	0	1	88928,90	-0,200000003	2,0950098	-0,00055479994297689862	-0,19972403225767946	0,000418423791	-0,067128259571582054	0,0025046456195206266	0,067128259571582054
1	0	0	1	0	0	1	89038,91	-0,200000003	2,09167671	-0,00055479578468865818	-0,19972253497566845	0,000417754985	-0,073231057137671398	0,0027323492020100147	0,073231057137671398
1	0	0	1	0	0	1	89148,91	-0,200000003	2,08881974	-0,00055480357359846438	-0,19972533886267686	0,000417190226	-0,079333846100596877	0,002960052463503792	0,079333846100596877
1	0	0	1	0	0	1	89258,91	-0,200000003	2,08723903	-0,00055479477676252525	-0,19972217206665648	0,000416867901	-0,085436553114303245	0,003187752667362023	0,085436553114303245
1	0	0	1	0	0	1	89368,91	-0,200000003	2,08396316	-0,00055480327719449997	-0,19972523216168371	0,00041622002	-0,091539358846677645	0,003415456554546487	0,091539358846677645
1	0	0	1	0	0	1	89478,91	-0,200000003	2,0739069	-0,00055481220467802554	-0,19972844598990554	0,000414218201	-0,097642230810960102	0,0036431629129324896	0,097642230810960102
1	0	0	1	0	0	1	89588,92	-0,200000003	2,06868839	-0,00055479806526833114	-0,19972335620062774	0,000413165399	-0,10374507409437328	0,0038708682011966976	0,10374507409437328
1	0	0	1	0	0	1	89698,92	-0,200000003	2,06489825	-0,00055480158474379123	-0,1997246235145856	0,000412411027	-0,10984788853592754	0,0040985724133323718	0,10984788853592754
1	0	0	1	0	0	1	89808,92	-0,200000003	2,06206036	-0,0005547948955918352	-0,19972221558604611	0,000411839254	-0,11595067040588373	0,0043262754101779283	0,11595067040588373
1	0	0	1	0	0	1	89918,92	-0,200000003	2,0584228	-0,0005547989049802224	-0,19972365893734256	0,000411115732	-0,12205345761477366	0,004553978606226281	0,12205345761477366
1	0	0	1	0	0	1	90028,92	-0,200000003	2,05528021	-0,0005548043186946048	-0,19972560783833197	0,000410492095	-0,12815630424822702	0,0047816840194849933	0,12815630424822702
1	0	0	1	0	0	1	90138,93	-0,200000003	2,05171847	-0,00055480623775968947	-0,19972629868811018	0,000409782137	-0,1342591615247081	0,0050093898298493786	0,1342591615247081
1	0	0	1	0	0	1	90248,93	-0,200000003	2,04849982	-0,00055479041788478688	-0,19972060336436227	0,000409127621	-0,14036195759598086	0,0052370933565651507	0,14036195759598086
1	0	0	1	0	0	1	90358,93	-0,200000003	2,04465246	-0,00055479302172942285	-0,19972154041370355	0,000408361142	-0,14646465079789779	0,0054647930450869478	0,14646465079789779
1	0	0	1	0	0	1	90468,93	-0,200000003	2,04122424	-0,00055479661508980717	-0,19972283385139763	0,000407679094	-0,15256739948363776	0,0056924948037847802	0,15256739948363776
1	0	0	1	0	0	1	90578,94	-0,200000003	2,04318595	-0,00055479883684217933	-0,19972363366644301	0,000408072519	-0,15867017237617002	0,0059201974656705792	0,15867017237617002
1	0	0	1	0	0	1	90688,94	-0,200000003	2,03941488	-0,00055479778429203558	-0,19972325475384618	0,000407318585	-0,16477293114924275	0,0061478996007403597	0,16477293114924275
1	0	0	1	0	0	1	90798,94	-0,200000003	2,03421545	-0,00055480144920365677	-0,19972457409798701	0,000406282808	-0,17087573622308595	0,0063756034633541402	0,17087573622308595
1	0	0	1	0	0	1	90908,94	-0,200000003	2,03101563	-0,0005548085384211607	-0,19972712637975376	0,000405648927	-0,17697860026929206	0,0066033095263060685	0,17697860026929206
1	0	0	1	0	0	1	91018,94	-0,200000003	2,02598763	-0,00055480300767388614	-0,1997251356732695	0,000404640654	-0,1830814667396257	0,0068310156797054541	0,1830814667396257
1	0	0	1	0	0	1	91128,95	-0,200000003	2,02116895	-0,00055479951825158458	-0,19972387971183264	0,000403675716	-0,18918429477132624	0,0070587203989077581	0,18918429477132624
1	0	0	1	0	0	1	91238,95	-0,200000003	2,01680756	-0,0005548031976090537	-0,19972520425550902	0,000402807287	-0,19528713125511936	0,0072864254334689984	0,19528713125511936
1	0	0	1	0	0	1	91348,95	-0,200000003	2,01017952	-0,00055480626590467155	-0,19972630882010352	0,00040148574	-0,20138997923610128	0,0075141308970058138	0,20138997923610128
1	0	0	1	0	0	1	91458,95	-0,200000003	2,001647	-0,00055480815399934848	-0,19972698851843014	0,000399782934	-0,2074928100094921	0,0077418357185042675	0,2074928100094921
1	0	0	1	0	0	1	91568,96	-0,200000003	1,99374306	-0,00055481502600924845	-0,19972946219779715	0,000398209231	-0,21359572244107818	0,0079695435867797786	0,21359572244107818
1	0	0	1	0	0	1	91678,96	-0,200000003	1,98540092	-0,00055481098897755155	-0,19972800858121955	0,000396540185	-0,2196986471693103	0,0081972519138596851	0,2196986471693103
1	0	0	1	0	0	1	91788,96	-0,200000003	1,98174417	-0,00055481704501476557	-0,19973018847669114	0,000395814131	-0,22580159833591197	0,0084249612273907046	0,22580159833591197
1	0	0	1	0	0	1	91898,96	-0,200000003	1,96814537	-0,00055480455765210925	-0,19972569311498707	0,000393089198	-0,23190454780714227	0,008652670477665143	0,23190454780714227
1	0	0	1	0	0	1	92008,96	-0,200000003	1,95923197	-0,00055479774891667898	-0,1997232420210039	0,000391304173	-0,23800735554661117	0,0088803744397369997	0,23800735554661117
1	0	0	1	0	0	1	92118,97	-0,200000003	1,94862342	-0,00055480078693976006	-0,19972433568769642	0,000389187509	-0,24411022090060198	0,0091080805514841331	0,24411022090060198
1	0	0	1	0	0	1	92228,97	-0,200000003	1,93942428	-0,00055481035419801875	-0,19972777996977542	0,000387356908	-0,25021313778730246	0,0093357885859859533	0,25021313778730246
1	0	0	1	0	0	1	92338,97	-0,200000003	1,92982519	-0,0005548052087177833	-0,19972592794971085	0,000385436113	-0,25631603214123526	0,009563495779759913	0,25631603214123526
1	0	0	1	0	0	1	92448,97	-0,200000003	1,92047369	-0,00055480693218194778	-0,19972654867518304	0,000383569597	-0,2624188963104553	0,009791201847301655	0,2624188963104553
1	0	0	1	0	0	1	92558,97	-0,200000003	1,91232204	-0,00055480833589037254	-0,19972705399790483	0,00038194246	-0,26852179500109869	0,010018909202884118	0,26852179500109869
1	0	0	1	0	0	1	92668,98	-0,200000003	1,90323722	-0,0005548097305736608	-0,19972755607425744	0,000380128913	-0,27462472755869478	0,010246617822088123	0,27462472755869478
1	0	0	1	0	0	1	92778,98	-0,200000003	1,89333344	-0,0005547991571086976	-0,19972374970412506	0,000378143654	-0,28072761944783315	0,01047432492389729	0,28072761944783315
1	0	0	1	0	0	1	92888,98	-0,200000003	1,88552463	-0,00055480238099230656	-0,19972491016768669	0,000376586249	-0,28683042782474067	0,010702028909752838	0,28683042782474067
1	0	0	1	0	0	1	92998,98	-0,200000003	1,87663019	-0,0005548157623501287	-0,19972972703346358	0,000374818832	-0,29293333767298118	0,010929736681640253	0,29293333767298118
1	0	0	1	0	0	1	93108,99	-0,200000003	1,8672787	-0,00055480294521318547	-0,19972511264961014	0,00037294245	-0,29903623716660602	0,011157444067183032	0,29903623716660602
1	0	0	1	0	0	1	93218,99	-0,200000003	1,857813	-0,00055481229734089638	-0,1997284793502048	0,000371058151	-0,30513915970123149	0,011385152312416528	0,30513915970123149
1	0	0	1	0	0	1	93328,99	-0,200000003	1,85312772	-0,0005548217093091872	-0,19973186759181987	0,000370128662	-0,31124218326059488	0,011612864327018821	0,31124218326059488
1	0	0	1	0	0	1	93438,99	-0,200000003	1,8525753	-0,00055481122724380762	-0,19972809412083254	0,000370011345	-0,31734511309516442	0,011840572844623045	0,31734511309516442
1	0	0	1	0	0	1	93548,99	-0,200000003	1,85345149	-0,00055481891772316557	-0,1997308626965183	0,000370191468	-0,32344806945535398	0,012068282351933811	0,32344806945535398
1	0	0	1	0	0	1	93659,00	-0,200000003	1,85404181	-0,00055481617816537619	-0,19972987680072301	0,000370307534	-0,3295511096792464	0,012295994988312086	0,3295511096792464
1	0	0	1	0	0	1	93769,00	-0,200000003	1,85508943	-0,00055483178666647936	-0,19973549606397014	0,00037052721	-0,33565408172386906	0,012523705080830144	0,33565408172386906
1	0	0	1	0	0	1	93879,00	-0,200000003	1,85507035	-0,00055482241221186182	-0,19973212137350163	0,00037051714	-0,34175714005274515	0,012751418392729706	0,34175714005274515
1	0	0	1	0	0	1	93989,00	-0,200000003	1,85588932	-0,00055483049409670957	-0,19973503079687725	0,000370686117	-0,34786023927803264	0,012979133230529365	0,34786023927803264
1	0	0	1	0	0	1	94099,01	-0,200000003	1,85665119	-0,0005548216061716279	-0,19973183120707677	0,000370832335	-0,35396323072607578	0,013206844047015125	0,35396323072607578
1	0	0	1	0	0	1	94209,01	-0,200000003	1,85760343	-0,00055481446546150573	-0,19972926057200557	0,000371017755	-0,36006622442753203	0,01343455494757876	0,36006622442753203
1	0	0	1	0	0	1	94319,01	-0,200000003	1,86021268	-0,00055482215003834822	-0,19973202664878102	0,00037154404	-0,36616922334027136	0,013662266042582371	0,36616922334027136
1	0	0	1	0	0	1	94429,01	-0,200000003	1,86573601	-0,00055481180616385408	-0,19972830260436762	0,000372640294	-0,37227221583939277	0,013889976898285278	0,37227221583939277
1	0	0	1	0	0	1	94539,01	-0,200000003	1,86840236	-0,00055480585539589325	-0,19972616029351539	0,000373168819	-0,3783751464039271	0,014117685443125466	0,3783751464039271
1	0	0	1	0	0	1	94649,02	-0,200000003	1,86470759	-0,00055481000285347309	-0,19972765334873344	0,000372433657	-0,3844780794075241	0,014345394078970363	0,3844780794075241
1	0	0	1	0	0	1	94759,02	-0,200000003	1,86179352	-0,00055480880715118515	-0,19972722290674272	0,000371850852	-0,39058103572686291	0,014573103584756934	0,39058103572686291
1	0	0	1	0	0	1	94869,02	-0,200000003	1,86276484	-0,00055482134553541741	-0,19973173663585114	0,00037205327	-0,39668397859819923	0,014800812588780454	0,39668397859819923
1	0	0	1	0	0	1	94979,02	-0,200000003	1,86320293	-0,00055482626592450669	-0,199733508236208	0,000372144044	-0,4027870072092855	0,015028524791869318	0,4027870072092855
1	0	0	1	0	0	1	95089,02	-0,200000003	1,86531699	-0,00055482095783038272	-0,19973159767630806	0,000372562732	-0,40889003730719398	0,015256237050433523	0,40889003730719398
1	0	0	1	0	0	1	95199,03	-0,200000003	1,86484087	-0,00055481131173339162	-0,19972812528254656	0,00037246116	-0,41499299339957152	0,015483946547751866	0,41499299339957152
1	0	0	1	0	0	1	95309,03	-0,200000003	1,86731684	-0,00055481174108386042	-0,1997282798456609	0,000372955983	-0,42109595675737523	0,015711656316153024	0,42109595675737523
1	0	0	1	0	0	1	95419,03	-0,200000003	1,86817384	-0,00055482677452680141	-0,19973369178078723	0,000373137271	-0,42719897297351002	0,015939368056769587	0,42719897297351002
1	0	0	1	0	0	1	95529,03	-0,200000003	1,86767864	-0,00055482039663940666	-0,19973139578175664	0,000373034069	-0,43330199146643885	0,016167079882336397	0,43330199146643885
1	0	0	1	0	0	1	95639,04	-0,200000003	1,86828816	-0,00055482046396864781	-0,19973141975241408	0,000373155839	-0,43940502776287354	0,016394792372175946	0,43940502776287354
1	0	0	1	0	0	1	95749,04	-0,200000003	1,86884046	-0,00055482253139962752	-0,19973216369431347	0,00037326754	-0,44550806564574547	0,016622504921207603	0,44550806564574547
1	0	0	1	0	0	1	95859,04	-0,200000003	1,8696214	-0,00055481459022810061	-0,1997293047709585	0,000373418181	-0,45161107313155322	0,016850216336083926	0,45161107313155322
1	0	0	1	0	0	1	95969,04	-0,200000003	1,86952615	-0,00055482612126734528	-0,1997334558653641	0,000373406918	-0,45771410507072954	0,017077928663348307	0,45771410507072954
1	0	0	1	0	0	1	96079,04	-0,200000003	1,86984992	-0,00055482937598725158	-0,19973462754137187	0,000373473769	-0,46381719444272115	0,017305643133508246	0,46381719444272115
1	0	0	1	0	0	1	96189,05	-0,200000003	1,87099266	-0,00055482043255617222	-0,19973140796749395	0,000373696006	-0,46992020837201792	0,017533354788799805	0,46992020837201792
1	0	0	1	0	0	1	96299,05	-0,200000003	1,87095451	-0,00055482089313864704	-0,19973157397851958	0,000373688701	-0,47602325316631494	0,017761067595706026	0,47602325316631494
1	0	0	1	0	0	1	96409,05	-0,200000003	1,87179255	-0,00055481850036233664	-0,19973071293321565	0,000373854447	-0,4821262528622137	0,017988778719930365	0,4821262528622137
1	0	0	1	0	0	1	96519,05	-0,200000003	1,87224972	-0,00055481831107371386	-0,199730644992944	0,000373945659	-0,48822924241905606	0,018216489465852886	0,48822924241905606
1	0	0	1	0	0	1	96629,06	-0,200000003	1,87223065	-0,00055482120982557536	-0,19973168852328298	0,000373943796	-0,49433229036772448	0,018444202390452944	0,49433229036772448
1	0	0	1	0	0	1	96739,06	-0,200000003	1,87223065	-0,00055482832140641075	-0,19973424864382621	0,000373948569	-0,50043535846365536	0,018671916066774451	0,50043535846365536
1	0	0	1	0	0	1	96849,06	-0,200000003	1,87358284	-0,00055482542172653811	-0,19973320477970051	0,000374216703	-0,50653839996384064	0,018899628750772931	0,50653839996384064
1	0	0	1	0	0	1	96959,06	-0,200000003	1,87716353	-0,00055480667482564851	-0,19972645584041498	0,000374919211	-0,51264134059353638	0,019127337671157824	0,51264134059353638
1	0	0	1	0	0	1	97069,06	-0,200000003	1,87565887	-0,00055480831328117178	-0,19972704534723517	0,000374619791	-0,51874424060611738	0,019355045076063555	0,51874424060611738
1	0	0	1	0	0	1	97179,07	-0,200000003	1,87501132	-0,00055480957718938586	-0,19972750011501587	0,000374491327	-0,524847114918096	0,019582751522045261	0,524847114918096
1	0	0	1	0	0	1	97289,07	-0,200000003	1,87613499	-0,00055481429637720192	-0,19972919898905091	0,000374718948	-0,53095003530238963	0,019810459687046982	0,53095003530238963
1	0	0	1	0	0	1	97399,07	-0,200000003	1,87636364	-0,00055481855586585075	-0,19973073237262218	0,000374767493	-0,5370530315994311	0,020038170684455389	0,5370530315994311
1	0	0	1	0	0	1	97509,07	-0,200000003	1,87577319	-0,0005548212711993191	-0,19973170987305958	0,000374651398	-0,54315605700381318	0,020265882767897814	0,54315605700381318
1	0	0	1	0	0	1	97619,07	-0,200000003	1,87605882	-0,00055482153278175322	-0,19973180417340746	0,000374708616	-0,54925911870938579	0,020493596205786464	0,54925911870938579
1	0	0	1	0	0	1	97729,08	-0,200000003	1,87634456	-0,00055481253445562387	-0,19972856515391373	0,000374759606	-0,55536211243412269	0,02072130710721873	0,55536211243412269
1	0	0	1	0	0	1	97839,08	-0,200000003	1,87659216	-0,00055481989079962182	-0,19973121368303261	0,00037481403	-0,56146507977295622	0,020949017024157466	0,56146507977295622
1	0	0	1	0	0	1	97949,08	-0,200000003	1,87619221	-0,00055481813589152365	-0,19973058193092685	0,000374732976	-0,56756809342436621	0,021176728669080694	0,56756809342436621
1	0	0	1	0	0	1	98059,08	-0,200000003	1,87499225	-0,00055480377598851917	-0,19972541246800198	0,000374483614	-0,57367107752424851	0,021404439211396698	0,57367107752424851
1	0	0	1	0	0	1	98169,09	-0,200000003	1,87457323	-0,00055480922943684794	-0,19972737566827926	0,000374403578	-0,57977396263963328	0,02163214606046801	0,57977396263963328
1	0	0	1	0	0	1	98279,09	-0,200000003	1,87485898	-0,00055480359124143923	-0,19972534584643942	0,000374456868	-0,58587682885027098	0,021859852204177792	0,58587682885027098
1	0	0	1	0	0	1	98389,09	-0,200000003	1,87352574	-0,0005548039418227143	-0,19972547173932061	0,0003741908	-0,59197973292229504	0,022087559760546803	0,59197973292229504
1	0	0	1	0	0	1	98499,09	-0,200000003	1,87417328	-0,00055480184562173152	-0,19972471680334819	0,000374318741	-0,59808255986047142	0,02231526443894825	0,59808255986047142
1	0	0	1	0	0	1	98609,09	-0,200000003	1,87476373	-0,00055481040047523046	-0,19972779649002749	0,000374442432	-0,60418540768585869	0,022542969896679619	0,60418540768585869
1	0	0	1	0	0	1	98719,10	-0,200000003	1,87419236	-0,00055480790588259693	-0,19972689845646384	0,000374326628	-0,61028827088218611	0,022770675927921427	0,61028827088218611
1	0	0	1	0	0	1	98829,10	-0,200000003	1,87354481	-0,0005548042028148969	-0,19972556537844051	0,000374194788	-0,6163911798033847	0,022998383665219664	0,6163911798033847
1	0	0	1	0	0	1	98939,10	-0,200000003	1,87324011	-0,00055481317706240544	-0,19972879608786547	0,000374139985	-0,62249407771392755	0,023226090991695526	0,62249407771392755
1	0	0	1	0	0	1	99049,10	-0,200000003	1,87301147	-0,00055481159182472358	-0,19972822573909293	0,000374093244	-0,62859696136185126	0,023453797786013894	0,62859696136185126
1	0	0	1	0	0	1	99159,11	-0,200000003	1,87169731	-0,00055481407933682202	-0,19972912154429014	0,000373832445	-0,63469991993595507	0,023681507375928778	0,63469991993595507
1	0	0	1	0	0	1	99269,11	-0,200000003	1,87421143	-0,00055480805643399558	-0,19972695339792227	0,000374330528	-0,64080282459590362	0,023909214954234045	0,64080282459590362
1	0	0	1	0	0	1	99379,11	-0,200000003	1,87506843	-0,00055481655170106227	-0,19973001163159629	0,00037450745	-0,6469057307118048	0,024136922586862858	0,6469057307118048
1	0	0	1	0	0	1	99489,11	-0,200000003	1,87722063	-0,00055481414519498746	-0,19972914530856374	0,000374935684	-0,65300868852869606	0,024364632148525126	0,65300868852869606
1	0	0	1	0	0	1	99599,11	-0,200000003	1,87567794	-0,00055481862188958464	-0,19973075686817043	0,000374630588	-0,65911163177590259	0,024592341166572867	0,65911163177590259
1	0	0	1	0	0	1	99709,12	-0,200000003	1,87504947	-0,0005548122779669033	-0,19972847276399674	0,000374500756	-0,66521461257211648	0,024820051585624554	0,66521461257211648
1	0	0	1	0	0	1	99819,12	-0,200000003	1,87518275	-0,00055481967379152768	-0,19973113489202496	0,000374532392	-0,67131757688900634	0,025047761389810509	0,67131757688900634
1	0	0	1	0	0	1	99929,12	-0,200000003	1,87571597	-0,00055481865888751213	-0,19973076946172176	0,000374638184	-0,67742055531734874	0,025275471720513731	0,67742055531734874
1	0	0	1	0	0	1	100039,12	-0,200000003	1,87617314	-0,00055481493380086285	-0,19972942845703334	0,00037472698	-0,68352352372419891	0,025503181677301606	0,68352352372419891
1	0	0	1	0	0	1	100149,12	-0,200000003	1,87278295	-0,00055482962859504749	-0,19973471847605581	0,000374059775	-0,68962653581880422	0,025730893264138365	0,68962653581880422
1	0	0	1	0	0	1	100259,13	-0,200000003	1,87230682	-0,00055481822989301555	-0,1997306150244303	0,00037395698	-0,69572953740734106	0,025958604458979578	0,69572953740734106
1	0	0	1	0	0	1	100369,13	-0,200000003	1,87150693	-0,00055482781187858848	-0,19973406476170275	0,00037380369	-0,7018325916503799	0,026186317618431059	0,7018325916503799
1	0	0	1	0	0	1	100479,13	-0,200000003	1,87082124	-0,0005548168494924903	-0,19973011870389459	0,000373659335	-0,70793564179603162	0,026414030625003517	0,70793564179603162
1	0	0	1	0	0	1	100589,13	-0,200000003	1,86935472	-0,00055481800998002291	-0,1997305366019385	0,00037336722	-0,71403858782290906	0,026641739746764515	0,71403858782290906
1	0	0	1	0	0	1	100699,14	-0,200000003	1,8673358	-0,00055481257194942899	-0,19972857895135482	0,00037296032	-0,72014152506571418	0,026869448540779968	0,72014152506571418
1	0	0	1	0	0	1	100809,14	-0,200000003	1,86630738	-0,00055481644770006342	-0,19972997419401104	0,000372757524	-0,72624448369609459	0,027097158132794608	0,72624448369609459
1	0	0	1	0	0	1	100919,14	-0,200000003	1,86468852	-0,00055481548736161651	-0,1997296284766769	0,00037243354	-0,73234743561001024	0,027324867474208922	0,73234743561001024
1	0	0	1	0	0	1	101029,14	-0,200000003	1,8634696	-0,00055481611561775213	-0,19972985438400333	0,000372190523	-0,73845040536720883	0,027552577481380109	0,73845040536720883
1	0	0	1	0	0	1	101139,14	-0,200000003	1,86807859	-0,00055481509551157562	-0,19972948683914733	0,000373110379	-0,74455342672650266	0,027780289413894848	0,74455342672650266
1	0	0	1	0	0	1	101249,15	-0,200000003	1,86529791	-0,00055482017591595654	-0,19973131558116752	0,000372558396	-0,7506564286447945	0,02800800062103967	0,7506564286447945
1	0	0	1	0	0	1	101359,15	-0,200000003	1,85783195	-0,00055482520215296083	-0,19973312498869104	0,000371070579	-0,75675946675224768	0,028235713178450749	0,75675946675224768
1	0	0	1	0	0	1	101469,15	-0,200000003	1,85476565	-0,00055481006167994605	-0,19972767452817021	0,000370448019	-0,76286246224313882	0,028463424145780608	0,76286246224313882
1	0	0	1	0	0	1	101579,15	-0,200000003	1,8575654	-0,00055481429789794822	-0,19972919953650877	0,000371010043	-0,76896539471144205	0,028691132761652976	0,76896539471144205
1	0	0	1	0	0	1	101689,16	-0,200000003	1,86247921	-0,00055481043392750944	-0,19972780874622771	0,000371988892	-0,77506832186052595	0,028918841179058118	0,77506832186052595
1	0	0	1	0	0	1	101799,16	-0,200000003	1,84718537	-0,00055481724140793082	-0,19973025970812323	0,00036893881	-0,78117128061693222	0,02914655077577495	0,78117128061693222
1	0	0	1	0	0	1	101909,16	-0,200000003	1,84337616	-0,00055482321676446336	-0,19973241100903971	0,000368181965	-0,78727423815651302	0,029374260327090394	0,78727423815651302
1	0	0	1	0	0	1	102019,16	-0,200000003	1,83901477	-0,0005548214677158329	-0,19973178136397552	0,000367309694	-0,7933772655533161	0,029601972484872723	0,7933772655533161
1	0	0	1	0	0	1	102129,16	-0,200000003	1,83537698	-0,00055482106133053696	-0,19973163507048515	0,000366582855	-0,7994803046062473	0,029829685077560864	0,7994803046062473
1	0	0	1	0	0	1	102239,17	-0,200000003	1,83581495	-0,00055481483452684352	-0,19972939346080291	0,000366666209	-0,8055833154072672	0,030057396616132205	0,8055833154072672
1	0	0	1	0	0	1	102349,17	-0,200000003	1,83341527	-0,00055481927731633178	-0,19973099264972739	0,000366189866	-0,81168633474467635	0,030285108473207712	0,81168633474467635
1	0	0	1	0	0	1	102459,17	-0,200000003	1,82135928	-0,00055482389840980365	-0,19973265589195581	0,00036378493	-0,8177893064981609	0,030512818554863014	0,8177893064981609
1	0	0	1	0	0	1	102569,17	-0,200000003	1,81669295	-0,00055482694215658637	-0,1997337513773248	0,000362854887	-0,8238923997488489	0,03074053316974233	0,8238923997488489
1	0	0	1	0	0	1	102679,17	-0,200000003	1,80964601	-0,00055480768810957677	-0,19972682005972608	0,000361434853	-0,82999527780646771	0,030968239755478906	0,82999527780646771
1	0	0	1	0	0	1	102789,18	-0,200000003	1,80537975	-0,00055480332029528083	-0,19972524767765818	0,000360579928	-0,8360981156483575	0,031195944840712563	0,8360981156483575
1	0	0	1	0	0	1	102899,18	-0,200000003	1,79816127	-0,00055480914870566784	-0,19972734586160112	0,000359141966	-0,84220103765490982	0,031423653066242931	0,84220103765490982
1	0	0	1	0	0	1	103009,18	-0,200000003	1,79570436	-0,00055480737746424141	-0,19972670834819478	0,000358650112	-0,84830387320619315	0,031651358066010976	0,84830387320619315
1	0	0	1	0	0	1	103119,18	-0,200000003	1,79029536	-0,00055480394487331315	-0,19972547296771808	0,000357567595	-0,85440672842726822	0,031879063799685408	0,85440672842726822
1	0	0	1	0	0	1	103229,19	-0,200000003	1,76717365	-0,00055481704435083603	-0,19973018898404458	0,000352957926	-0,86050962355698854	0,032106771022405043	0,86050962355698854
1	0	0	1	0	0	1	103339,19	-0,200000003	1,75864112	-0,00055481150634007315	-0,19972819533753306	0,00035125023	-0,86661255038690944	0,032334479427901786	0,86661255038690944
1	0	0	1	0	0	1	103449,19	-0,200000003	1,74218559	-0,00055480272092504627	-0,19972503265265747	0,000347958063	-0,87271543530278592	0,032562186269529171	0,87271543530278592
1	0	0	1	0	0	1	103559,19	-0,200000003	1,72649181	-0,0005547978249680665	-0,19972327014297472	0,000344820583	-0,8788182306892169	0,032789889770692576	0,8788182306892169
1	0	0	1	0	0	1	103669,19	-0,200000003	1,70790303	-0,00055481039849337606	-0,19972779641800867	0,000341115694	-0,88492108220563264	0,033017595366141178	0,88492108220563264
1	0	0	1	0	0	1	103779,20	-0,200000003	1,68619084	-0,00055480919980588883	-0,19972736458399174	0,000336778467	-0,89102392807647168	0,033245300750945722	0,89102392807647168
1	0	0	1	0	0	1	103889,20	-0,200000003	1,66169786	-0,00055480021021680698	-0,19972412807153693	0,000331881165	-0,8971267414469577	0,0334730049231184	0,8971267414469577
1	0	0	1	0	0	1	103999,20	-0,200000003	1,63796675	-0,00055480559516615334	-0,19972606661498573	0,000327144662	-0,90322958869749107	0,033700710359401197	0,90322958869749107
1	0	0	1	0	0	1	104109,20	-0,200000003	1,6178354	-0,00055480716365410227	-0,19972663125745251	0,000323124812	-0,90933249851913626	0,033928418130296301	0,90933249851913626
1	0	0	1	0	0	1	104219,21	-0,200000003	1,59837055	-0,0005548066952402393	-0,19972646263150416	0,000319236889	-0,91543540501235533	0,034156125777003354	0,91543540501235533
1	0	0	1	0	0	1	104329,21	-0,200000003	1,57545841	-0,00055480253587414816	-0,19972496533813302	0,000314658362	-0,92153828395998848	0,034383832395947565	0,92153828395998848
1	0	0	1	0	0	1	104439,21	-0,200000003	1,53936648	-0,00055480811266435514	-0,19972697325681315	0,00030745301	-0,92764113984016102	0,034611538154213798	0,92764113984016102
1	1	0	0	0	0	2	104530,27	0,200000003	2,19488597	0,00055612734172410445	0,20020188596938973	0,000439420313	-0,92824959005514227	0,034634240249804762	0,0022245059586250122
1	1	0	0	0	0	2	104640,28	0,200000003	2,21804547	0,00055612532022760979	0,2002011582467833	0,000444055273	-0,92213223862039731	0,034405993642907949	0,0083418573933699072
1	1	0	0	0	0	2	104750,28	0,200000003	2,21282697	0,00055612169544564358	0,20019985335106714	0,000443007622	-0,91601489336512358	0,034177747266575514	0,014459202648643818
1	1	0	0	0	0	2	104860,28	0,200000003	2,19435263	0,00055613048664314893	0,20020301835034819	0,000439316005	-0,90989750797628646	0,033949499392805875	0,020576588037480912
1	1	0	0	0	0	2	104970,28	0,200000003	2,18389654	0,00055613202160017357	0,20020357125956669	0,000437223876	-0,90378010920764045	0,033721251019817568	0,026693986806126931
1	1	0	0	0	0	2	105080,28	0,200000003	2,17637324	0,00055613116341332589	0,20020326249786525	0,000435717026	-0,89766267980804659	0,033493001503947418	0,032811416205720768
1	1	0	0	0	0	2	105190,29	0,200000003	2,1721642	0,00055612423752248288	0,2002007692264327	0,00043486894	-0,89154530805425203	0,033264754138919546	0,038928787959515238
1	1	0	0	0	0	2	105300,29	0,200000003	2,17513537	0,00055612660674585235	0,20020162212795171	0,000435465627	-0,88542791358650176	0,033036505926403443	0,045046182427265594
1	1	0	0	0	0	2	105410,29	0,200000003	2,18168712	0,00055612607507656019	0,20020143073282813	0,000436776871	-0,87931055116715712	0,032808258909656448	0,05116354484661008
1	1	0	0	0	0	2	105520,29	0,200000003	2,17844939	0,00055612309835768403	0,20020035892079462	0,000436126342	-0,87319313027067085	0,032580009711048672	0,057280965743096358
1	1	0	0	0	0	2	105630,30	0,200000003	2,175421	0,00055611201447165683	0,20019636847207309	0,000435511378	-0,86707583864826291	0,032351765335830566	0,063398257365504102
1	1	0	0	0	0	2	105740,30	0,200000003	2,17444968	0,00055611277159303424	0,20019664082645898	0,000435317517	-0,86095859360383117	0,032123522698499386	0,069515502409935846
1	1	0	0	0	0	2	105850,30	0,200000003	2,17395449	0,00055611715300381184	0,20019821810432886	0,000435221824	-0,85484131115593984	0,031895278665594835	0,07563278485782697
1	1	0	0	0	0	2	105960,30	0,200000003	2,1748116	0,00055611246817724563	0,2001965316000993	0,000435389753	-0,84872402312154957	0,031667034424250502	0,081750072892217229
1	1	0	0	0	0	2	106070,30	0,200000003	2,17635417	0,00055612070022440614	0,20019949507617245	0,000435705006	-0,8426067331981856	0,03143879011242601	0,087867362815581299
1	1	0	0	0	0	2	106180,31	0,200000003	2,17713523	0,00055611799005998502	0,20019851959474349	0,000435859256	-0,83648939515793459	0,031210544005295776	0,093984700855832179
1	1	0	0	0	0	2	106290,31	0,200000003	2,17858267	0,00055611459373931098	0,20019729725809117	0,000436146365	-0,83037209499090406	0,030982299311266317	0,10010200102286293
1	1	0	0	0	0	2	106400,31	0,200000003	2,17873502	0,00055611767095906874	0,20019840530798774	0,000436179282	-0,82425480761893555	0,030754055094637824	0,10621928839483118
1	1	0	0	0	0	2	106510,31	0,200000003	2,1805253	0,0005561138272906343	0,20019702161469533	0,000436534669	-0,81813751730951795	0,030525810768409158	0,11233657870424875
1	1	0	0	0	0	2	106620,32	0,200000003	2,18254423	0,00055612098670750854	0,20019959895616835	0,00043694448	-0,81202018806646963	0,030297564989514387	0,11845390794729694
1	1	0	0	0	0	2	106730,32	0,200000003	2,18370605	0,00055611125351736941	0,20019609507696042	0,000437169423	-0,80590290295576	0,030069320857256499	0,1245711930580065
1	1	0	0	0	0	2	106840,32	0,200000003	2,18580103	0,00055612127680165907	0,20019970324583306	0,000437596726	-0,79978560458292173	0,029841076230170765	0,1306884914308447
1	1	0	0	0	0	2	106950,32	0,200000003	2,18597245	0,00055611993419710138	0,20019921960078515	0,000437629991	-0,79366831032278822	0,029612831756535584	0,13680578569097818
1	1	0	0	0	0	2	107060,32	0,200000003	2,18922925	0,00055612683110684166	0,20020170215255632	0,000438287418	-0,78755096005284902	0,029384585193099238	0,14292313596091752
1	1	0	0	0	0	2	107170,33	0,200000003	2,19115281	0,00055612355855521235	0,20020052405725517	0,000438669929	-0,78143360903151795	0,02915633860162745	0,14904048698224877
1	1	0	0	0	0	2	107280,33	0,200000003	2,19254327	0,00055611526588267744	0,20019753875210877	0,000438941759	-0,77531626192468774	0,02892809215621095	0,15515783408907891
1	1	0	0	0	0	2	107390,33	0,200000003	2,19427633	0,0005561242823981577	0,20020078463556506	0,000439295836	-0,76919894020522931	0,02869984665803143	0,16127515580853744
1	1	0	0	0	0	2	107500,33	0,200000003	2,19861889	0,00055611518333355584	0,2001975091116295	0,000440158037	-0,76308162783635136	0,02847160150873464	0,16739246817741552
1	1	0	0	0	0	2	107610,33	0,200000003	2,20018053	0,00055612001696063405	0,2001992495069359	0,000440474483	-0,75696432708198093	0,028243356792790739	0,1735097689317863
1	1	0	0	0	0	2	107720,34	0,200000003	2,20145679	0,00055613014625012883	0,2002028962972176	0,000440738018	-0,75084697416670528	0,028015110130653338	0,1796271218470617
1	1	0	0	0	0	2	107830,34	0,200000003	2,20383739	0,00055611958928902944	0,20019909589545709	0,000441206241	-0,74472961344802624	0,027786863177360458	0,1857444825657408
1	1	0	0	0	0	2	107940,34	0,200000003	2,21861696	0,00055612781040370458	0,20020205543825494	0,000444171688	-0,73861224445569011	0,027558615915366314	0,19186185155807693
1	1	0	0	0	0	2	108050,34	0,200000003	2,21503639	0,00055613260630104275	0,20020378192513926	0,000443458674	-0,73249482852322752	0,027330366901972934	0,19797926749053936
1	1	0	0	0	0	2	108160,35	0,200000003	2,21351266	0,00055612624549286234	0,20020149203487245	0,000443148543	-0,72637741461251994	0,027102117964013955	0,20409668140124701
1	1	0	0	0	0	2	108270,35	0,200000003	2,21389365	0,00055613346899135245	0,20020409210732848	0,000443230558	-0,72025994852245082	0,026873867079172842	0,21021414749131606
1	1	0	0	0	0	2	108380,35	0,200000003	2,21299839	0,00055612627038442426	0,20020150034075731	0,000443045603	-0,71414252677390451	0,026645617848773562	0,21633156923986237
1	1	0	0	0	0	2	108490,35	0,200000003	2,21570301	0,0005561396963165865	0,20020633353419315	0,00044359779	-0,70802511038508659	0,026417368818352954	0,22244898562868038
1	1	0	0	0	0	2	108600,35	0,200000003	2,21932173	0,00055613843728436365	0,20020588029388205	0,000444321253	-0,70190766683491136	0,026189118774505584	0,22856642917885565
1	1	0	0	0	0	2	108710,36	0,200000003	2,22202611	0,00055613377895289005	0,20020420332769725	0,000444858975	-0,69579015599555341	0,025960866220008336	0,23468394001821366
1	1	0	0	0	0	2	108820,36	0,200000003	2,21833134	0,00055612792724619315	0,2002020967525928	0,000444114587	-0,68967268337413978	0,025732615091473981	0,2408014126396272
1	1	0	0	0	0	2	108930,36	0,200000003	2,21880746	0,00055612860143267443	0,20020233977189274	0,000444210455	-0,68355526381056973	0,025504365942599104	0,24691883220319715
1	1	0	0	0	0	2	109040,36	0,200000003	2,22122622	0,00055612918967008602	0,20020255185247043	0,00044469515	-0,67743789020546752	0,025276118508496451	0,25303620580829946
1	1	0	0	0	0	2	109150,37	0,200000003	2,23101568	0,00055613214414649542	0,20020361555249866	0,000446657417	-0,67132050291716454	0,025047870563855184	0,25915359309660256
1	1	0	0	0	0	2	109260,37	0,200000003	2,22760653	0,00055613078559852314	0,20020312648489338	0,000445973797	-0,66520306374723546	0,024819620683440688	0,26527103226653181
1	1	0	0	0	0	2	109370,37	0,200000003	2,23499632	0,00055613344815952915	0,20020408499024464	0,000447455386	-0,65908560039085478	0,024591369900597165	0,27138849562291251
1	1	0	0	0	0	2	109480,37	0,200000003	2,2480998	0,00055613155684206214	0,20020340412941142	0,000450077234	-0,65296815150269453	0,024363119657582397	0,27750594451107286
1	1	0	0	0	0	2	109590,37	0,200000003	2,2391293	0,00055612728991690611	0,20020186777538397	0,00044827786	-0,64685073796620787	0,024134870733586106	0,2836233580475593
1	1	0	0	0	0	2	109700,38	0,200000003	2,25238514	0,00055613241210497088	0,20020371141084461	0,000450935855	-0,6407333415935319	0,023906622449994666	0,28974075442023514
1	1	0	0	0	0	2	109810,38	0,200000003	2,2790494	0,00055614121958116698	0,20020688190093418	0,000456281385	-0,63461582198623219	0,023678369568353722	0,29585827402753485
1	1	0	0	0	0	2	109920,38	0,200000003	2,24861407	0,00055613527970347149	0,20020474358722816	0,000450183201	-0,62849833366677414	0,023450117854104218	0,30197576234699322
1	1	0	0	0	0	2	110030,38	0,200000003	2,24857616	0,00055613730266690253	0,20020547183762992	0,000450177264	-0,62238084313080717	0,023221866057153786	0,30809325288296026
1	1	0	0	0	0	2	110140,38	0,200000003	2,25402308	0,00055612986795687014	0,20020279539462765	0,000451261731	-0,61626336780838592	0,022993614827841203	0,31421072820538157
1	1	0	0	0	0	2	110250,39	0,200000003	2,25792766	0,00055612181409945088	0,20019989630797459	0,000452036882	-0,61014599026993843	0,02276536724698015	0,32032810574382906
1	1	0	0	0	0	2	110360,39	0,200000003	2,26006079	0,00055612805982016851	0,2002021450376279	0,000452469016	-0,60402862943673971	0,022537120289414394	0,32644546657702784
1	1	0	0	0	0	2	110470,39	0,200000003	2,26929784	0,0005561265896641545	0,20020161597837069	0,00045431708	-0,59791121080195584	0,022308871175193773	0,33256288521181165
1	1	0	0	0	0	2	110580,39	0,200000003	2,27274513	0,00055612262487328717	0,20020018868419469	0,000455004018	-0,59179382025004928	0,022080623108783066	0,33868027576371814
1	1	0	0	0	0	2	110690,40	0,200000003	2,2757926	0,00055611740995198483	0,20019831135428605	0,000455609843	-0,58567647352353741	0,021852376677556758	0,34479762249023008
1	1	0	0	0	0	2	110800,40	0,200000003	2,27607822	0,00055612596467634042	0,20020139098720381	0,000455674017	-0,57955912670277901	0,021624130242813987	0,35091496931098861
1	1	0	0	0	0	2	110910,40	0,200000003	2,27857327	0,00055613664275904493	0,20020523481591606	0,000456182286	-0,57344167186282099	0,021395879777729648	0,35703242415094669
1	1	0	0	0	0	2	111020,40	0,200000003	2,27802086	0,00055612447057995526	0,20020085259408832	0,000456061709	-0,56732421043163738	0,021167629066717811	0,36314988558213043
1	1	0	0	0	0	2	111130,40	0,200000003	2,27706861	0,00055612865290873581	0,2002023579859448	0,000455874513	-0,56120680896207219	0,020939380592954586	0,36926728705169549
1	1	0	0	0	0	2	111240,41	0,200000003	2,27727818	0,00055612633716149466	0,20020152433341539	0,00045591456	-0,55508942225850323	0,020711132670130528	0,37538467375526458
1	1	0	0	0	0	2	111350,41	0,200000003	2,27975416	0,00055613201324144992	0,20020356768414253	0,000456414913	-0,54897204519854515	0,020482885107122557	0,38150205081522259
1	1	0	0	0	0	2	111460,41	0,200000003	2,28316331	0,00055612965967340602	0,20020272041639322	0,000457095506	-0,54285459877430189	0,020254634956039846	0,38761949723946592
1	1	0	0	0	0	2	111570,41	0,200000003	2,28373456	0,00055613727197630547	0,20020546093810378	0,000457216142	-0,53673710667950106	0,020026383100927226	0,39373698933426662
1	1	0	0	0	0	2	111680,42	0,200000003	2,28224897	0,00055613482525944704	0,20020458046373328	0,000456916692	-0,53061963893208922	0,019798132154248429	0,39985445708167853
1	1	0	0	0	0	2	111790,42	0,200000003	2,28224897	0,00055613004163569875	0,20020285866589978	0,000456912763	-0,52450216464868685	0,019569880963703037	0,4059719313650807
1	1	0	0	0	0	2	111900,42	0,200000003	2,28563929	0,00055612915641980032	0,20020253999447382	0,000457590795	-0,5183847482501385	0,019341631932919373	0,41208934776362906
1	1	0	0	0	0	2	112010,42	0,200000003	2,28531551	0,00055613275497986214	0,20020383544845651	0,00045752892	-0,51226729803798342	0,019113381640504579	0,418206797975784
1	1	0	0	0	0	2	112120,42	0,200000003	2,29133391	0,00055613324999146989	0,20020401364882246	0,000458734256	-0,50614984623806189	0,018885131288848086	0,42432424977570573
1	1	0	0	0	0	2	112230,43	0,200000003	2,29710484	0,00055613356425033664	0,20020412665159386	0,000459889881	-0,5000323775258121	0,018656880306169885	0,4304417184879552
1	1	0	0	0	0	2	112340,43	0,200000003	2,30022836	0,00055613748519453741	0,200205537844312	0,000460518466	-0,49391488197156774	0,018428628321980778	0,43655921404219955
1	1	0	0	0	0	2	112450,43	0,200000003	2,30302811	0,00055613894342548307	0,20020606249875302	0,000461080199	-0,4877973996135591	0,01820037683016097	0,44267669640020819
1	1	0	0	0	0	2	112560,43	0,200000003	2,30626583	0,0005561313093105952	0,20020331427404355	0,000461722055	-0,4816799210808672	0,017972125481068867	0,4487941749329001
1	1	0	0	0	0	2	112670,43	0,200000003	2,30634212	0,00055613536922219725	0,20020477581333251	0,00046174071	-0,47556245502830848	0,017743874597627315	0,45491164098545882
1	1	0	0	0	0	2	112780,44	0,200000003	2,307199	0,00055614485538171398	0,20020819076093037	0,000461920135	-0,46944494303629011	0,017515622000122762	0,46102915297747718
1	1	0	0	0	0	2	112890,44	0,200000003	2,30293274	0,00055614290722459552	0,2002074895128112	0,000461064395	-0,46332740989057434	0,017287368613345312	0,46714668612319296
1	1	0	0	0	0	2	113000,44	0,200000003	2,31834102	0,00055613897781156832	0,20020607527138045	0,000464145967	-0,45720993915131661	0,01705911755503672	0,47326415686245069
1	1	0	0	0	0	2	113110,44	0,200000003	2,31658864	0,0005561319845293959	0,20020355805651891	0,0004637893	-0,45109249115700992	0,016830867345372829	0,47938160485675738
1	1	0	0	0	0	2	113220,45	0,200000003	2,31283665	0,00055612452909681523	0,20020087418907885	0,000463031931	-0,44497505705188602	0,01660261765393303	0,48549903896188128
1	1	0	0	0	0	2	113330,45	0,200000003	2,31902647	0,00055612262059251469	0,20020018714314701	0,000464269542	-0,43885764435455667	0,016374368761246822	0,49161645165921062
1	1	0	0	0	0	2	113440,45	0,200000003	2,312989	0,00055612381524840986	0,2002006172107705	0,00046306182	-0,43274021968732909	0,016146119421947619	0,49773387632643821
1	1	0	0	0	0	2	113550,45	0,200000003	2,31253195	0,00055612750830915238	0,20020194663742243	0,000462973403	-0,42662283624779904	0,015917871620909245	0,50385125976596832
1	1	0	0	0	0	2	113660,45	0,200000003	2,31424618	0,00055612184459964435	0,20019990741600954	0,000463311881	-0,42050545263970618	0,015689623813581562	0,50996864337406131
1	1	0	0	0	0	2	113770,46	0,200000003	2,31443644	0,00055612399345305229	0,20020068067331741	0,000463351753	-0,41438808794830298	0,015461376712061005	0,51608600806546432
1	1	0	0	0	0	2	113880,46	0,200000003	2,31656957	0,00055612969205776858	0,20020273207453328	0,000463783566	-0,40827071364726842	0,015233129251992182	0,52220338236649888
1	1	0	0	0	0	2	113990,46	0,200000003	2,32176924	0,0005561197875108983	0,20019916650609523	0,000464816258	-0,4021533602844672	0,015004882573156998	0,52832073572929997
1	1	0	0	0	0	2	114100,46	0,200000003	2,34254813	0,00055613243015276064	0,2002037177692479	0,000468986836	-0,39603594945317318	0,014776633750095078	0,5344381465605943
1	1	0	0	0	0	2	114210,47	0,200000003	2,35077596	0,00055612478810631571	0,20020096668690368	0,000470627623	-0,38991851529302848	0,014548384056602374	0,54055558072073907
1	1	0	0	0	0	2	114320,47	0,200000003	2,35433745	0,00055613077222224736	0,20020312123137178	0,000471345702	-0,38380114481500352	0,014320136739175178	0,54667295119876403
1	1	0	0	0	0	2	114430,47	0,200000003	2,3576324	0,00055612564880649254	0,2002012771644367	0,000472001004	-0,3776837438772832	0,014091888285255798	0,55279035213648422
1	1	0	0	0	0	2	114540,47	0,200000003	2,31723619	0,00055612291584826182	0,20020029343311555	0,000463911361	-0,3715663341823351	0,013863639504592474	0,55890776183143232
1	1	0	0	0	0	2	114650,47	0,200000003	2,31455088	0,00055612566350566022	0,20020128257023206	0,000463376055	-0,3654489980096368	0,013635393467143139	0,5650250980041305
1	1	0	0	0	0	2	114760,48	0,200000003	2,3207407	0,00055612382910317843	0,20020062219605802	0,000464613724	-0,35933161999930253	0,013407145868675357	0,57114247601446464
1	1	0	0	0	0	2	114870,48	0,200000003	2,31517935	0,00055612091720269779	0,20019957393260032	0,000463497912	-0,35321426492162765	0,013178899125855931	0,57725983109213952
1	1	0	0	0	0	2	114980,48	0,200000003	2,31234145	0,00055613488953643379	0,2002046035866767	0,000462941418	-0,34709690042207443	0,012950652031493552	0,58337719559169267
1	1	0	0	0	0	2	115090,48	0,200000003	2,30950356	0,00055612417618102502	0,20020074652633597	0,000462364347	-0,34097952988522138	0,012722404711871406	0,58949456612854579
1	1	0	0	0	0	2	115200,48	0,200000003	2,30017114	0,00055613267785890234	0,20020380693936576	0,000460503012	-0,33486203871979034	0,012494152891434824	0,59561205729397683
1	1	0	0	0	0	2	115310,49	0,200000003	2,31316042	0,00055612254135890144	0,20020015787382096	0,000463095086	-0,32874461608358202	0,012265903627915678	0,60172947993018534
1	1	0	0	0	0	2	115420,49	0,200000003	2,30971313	0,00055612503334134822	0,20020105496977043	0,000462407013	-0,3226272561135248	0,01203765670255489	0,60784683990024243
1	1	0	0	0	0	2	115530,49	0,200000003	2,31127501	0,00055612003509369165	0,20019925563384784	0,000462715543	-0,31650988115368352	0,011809409217905101	0,61396421486008384
1	1	0	0	0	0	2	115640,49	0,200000003	2,31026554	0,0005561236872482631	0,20020057061656669	0,000462516473	-0,31039251013127526	0,011581161880166234	0,62008158588249178
1	1	0	0	0	0	2	115750,50	0,200000003	2,31376982	0,00055612712697353632	0,20020180921248509	0,000463220902	-0,30427514740802733	0,011352914852080197	0,62619894860573965
1	1	0	0	0	0	2	115860,50	0,200000003	2,31222725	0,00055611723809772077	0,20019824948331242	0,000462903845	-0,29815785449291328	0,011124670428629491	0,63231624152085376
1	1	0	0	0	0	2	115970,50	0,200000003	2,30843711	0,00055613037073695002	0,20020297713796976	0,000462155993	-0,29204057780066272	0,010896426610475637	0,63843351821310438
1	1	0	0	0	0	2	116080,50	0,200000003	2,31163669	0,00055612377542754016	0,20020060287554067	0,000462791068	-0,28592323436405149	0,010668180301999946	0,64455086164971558
1	1	0	0	0	0	2	116190,50	0,200000003	2,31373191	0,00055612198496941062	0,20019995832335142	0,000463209028	-0,27980590143048816	0,010439934385407093	0,65066819458327898
1	1	0	0	0	0	2	116300,51	0,200000003	2,31597924	0,00055611651687075686	0,20019798963931597	0,000463654374	-0,27368858333961805	0,010211689022615082	0,65678551267414886
1	1	0	0	0	0	2	116410,51	0,200000003	2,32378793	0,00055612572087264723	0,20020130269755344	0,00046522537	-0,26757121801147504	0,009983441897336905	0,66290287800229184
1	1	0	0	0	0	2	116520,51	0,200000003	2,32195973	0,00055612882610493242	0,20020242033767386	0,000464861951	-0,26145382249036326	0,0097551936455184704	0,66902027352340365
1	1	0	0	0	0	2	116630,51	0,200000003	2,32540703	0,00055612518795662464	0,20020111063016979	0,000465549063	-0,25533647372960771	0,0095269471383917978	0,67513762228415936
1	1	0	0	0	0	2	116740,52	0,200000003	2,33024454	0,00055613786521057286	0,20020567434905718	0,000466528174	-0,24921903064965856	0,0092986971120891968	0,68125506536410867
1	1	0	0	0	0	2	116850,52	0,200000003	2,33340621	0,00055612751426713331	0,20020194808306976	0,00046715248	-0,2431015724059425	0,0090704465200060634	0,68737252360782464
1	1	0	0	0	0	2	116960,52	0,200000003	2,33729148	0,00055612408970048032	0,20020071541493056	0,000467927428	-0,23698416667060374	0,0088421978870810867	0,69348992934316352
1	1	0	0	0	0	2	117070,52	0,200000003	2,34148169	0,00055612975947972806	0,20020275681907498	0,00046877109	-0,23086674842090806	0,0086139487872286298	0,69960734759285914
1	1	0	0	0	0	2	117180,52	0,200000003	2,34441471	0,000556128658660584	0,20020236080236643	0,000469357357	-0,22474935243112586	0,0083857005179234688	0,70572474358264154
1	1	0	0	0	0	2	117290,53	0,200000003	2,35077596	0,00055612757391979302	0,20020197030572915	0,000470629981	-0,21863192590392954	0,0081574511092263347	0,71184217010983782
1	1	0	0	0	0	2	117400,53	0,200000003	2,35873723	0,00055612413010249536	0,20020073056066259	0,000472220912	-0,21251453568476182	0,0079292030552305613	0,71795956032900557
1	1	0	0	0	0	2	117510,53	0,200000003	2,36420321	0,0005561320150237945	0,20020356906924493	0,00047332191	-0,20639710632396074	0,0077009535408078195	0,72407698968980685
1	1	0	0	0	0	2	117620,53	0,200000003	2,36370802	0,00055612759475244416	0,20020197768181293	0,000473219028	-0,20027965552240858	0,0074727032264018278	0,7301944404913591
1	1	0	0	0	0	2	117730,53	0,200000003	2,35567069	0,00055613054860548845	0,2002030407239377	0,000471612439	-0,19416219799820163	0,0072444526611645491	0,73631189801556582
1	1	0	0	0	0	2	117840,54	0,200000003	2,35637546	0,00055613283904476301	0,20020386496745933	0,000471755484	-0,18804479138551155	0,007016203995504416	0,74242930462825613
1	1	0	0	0	0	2	117950,54	0,200000003	2,39416242	0,00055612794731557376	0,20020210397771834	0,000479316339	-0,18192732322349565	0,0067879530333561805	0,74854677279027187
1	1	0	0	0	0	2	118060,54	0,200000003	2,4073801	0,00055612858300324941	0,20020233282279773	0,000481963099	-0,1758098901397511	0,0065597033800254144	0,75466420587401638
1	1	0	0	0	0	2	118170,54	0,200000003	2,41155124	0,00055613690814872589	0,2002053298159328	0,000482805423	-0,16969241840305171	0,0063314522845009331	0,76078167761071565
1	1	0	0	0	0	2	118280,55	0,200000003	2,41560793	0,00055613681014710003	0,20020529459897238	0,000483617507	-0,16357489554154285	0,0061031992814410714	0,76689920047222464
1	1	0	0	0	0	2	118390,55	0,200000003	2,41817904	0,00055613614874167584	0,2002050568251817	0,000484131684	-0,15745739038900608	0,0058749469391267686	0,77301670562476147
1	1	0	0	0	0	2	118500,55	0,200000003	2,42492127	0,00055613511482212275	0,20020468493963139	0,000485480588	-0,1513398782176416	0,0056466943349305683	0,77913421779612595
1	1	0	0	0	0	2	118610,55	0,200000003	2,42901611	0,00055613255680766374	0,20020376410991421	0,000486298173	-0,14522240105428208	0,0054184430369301005	0,78525169495948544
1	1	0	0	0	0	2	118720,55	0,200000003	2,43250155	0,000556134278509352	0,20020438390794314	0,00048699748	-0,13910496660457627	0,0051901933326334835	0,79136912940919117
1	1	0	0	0	0	2	118830,56	0,200000003	2,43779635	0,0005561257888467776	0,20020132768981203	0,000488050078	-0,1329875556883017	0,004961944506400825	0,79748654032546586
1	1	0	0	0	0	2	118940,56	0,200000003	2,44000554	0,00055612638108183936	0,20020154084127837	0,000488492893	-0,12687013829325883	0,0047336954384366112	0,8036039577205088
1	1	0	0	0	0	2	119050,56	0,200000003	2,43244457	0,00055612787698788768	0,20020207904218096	0,000486980454	-0,12075271902278976	0,0045054463004977248	0,80972137699097779
1	1	0	0	0	0	2	119160,56	0,200000003	2,42069316	0,00055613518181112077	0,20020470840960586	0,000484634162	-0,11463520598388877	0,0042771936639325709	0,81583889002987878
1	1	0	0	0	0	2	119270,57	0,200000003	2,41511273	0,00055613269879834515	0,20020381447974682	0,00048351477	-0,10851772072865814	0,0040489420640135123	0,8219563752851095
1	1	0	0	0	0	2	119380,57	0,200000003	2,40837049	0,00055613146610971955	0,20020337072061261	0,000482163887	-0,10240025972560542	0,0038206913689758202	0,82807383628816218
1	1	0	0	0	0	2	119490,57	0,200000003	2,4836967	0,00055613138421542118	0,20020334123691728	0,000497244357	-0,096282790594956928	0,003592440370686601	0,83419130541881075
1	1	0	0	0	0	2	119600,57	0,200000003	2,48424911	0,00055613579050285952	0,20020492746904272	0,000497358909	-0,090165297559056819	0,0033641884804603034	0,84030879845471078
1	1	0	0	0	0	2	119710,57	0,200000003	2,50462818	0,00055613697529253037	0,20020535429487059	0,000501439965	-0,084047754381363584	0,0031359347193762886	0,84642634163240384
1	1	0	0	0	0	2	119820,58	0,200000003	2,5334444	0,00055613942014674355	0,20020623474196259	0,000507211371	-0,077930258901261594	0,0029076827379535328	0,85254383711250573
1	1	0	0	0	0	2	119930,58	0,200000003	2,53902483	0,00055613885488361114	0,2002060313704113	0,000508328085	-0,0718127392839872	0,0026794298559404214	0,8586613567297801
1	1	0	0	0	0	2	120040,58	0,200000003	2,59616232	0,00055613435941106746	0,20020441303431578	0,000519763154	-0,065695256629173094	0,0024511783530464006	0,86477883938459405
1	1	0	0	0	0	2	120150,58	0,200000003	2,64172006	0,00055613436128613024	0,20020441370932506	0,000528884004	-0,059577792291132083	0,0022229275335758106	0,87089630372263514
1	1	0	0	0	0	2	120260,58	0,200000003	2,93247366	0,0005561318763891856	0,20020351916177197	0,000587091548	-0,053460324633927789	0,001994676590262776	0,87701377137983962
1	1	0	0	0	0	2	120370,59	0,200000003	3,24680591	0,00055614412819511354	0,20020792944622995	0,000650036265	-0,047342818117274163	0,00176642419705144	0,88313127789649318
1	1	0	0	0	0	2	120443,64	0,200000003	3,50045824	0,00016956244339131645	0,20020496542139203	0,00070080912	-0,043280331374251162	0,0016148473545977338	0,88719376463951629