File: Experimentelles/Rohdaten/Batteriemessungen/AlteZelle/Studenten_Batterietests/S vs Li GCPL 200µm/ECLab-Export/S vs Li GCPL 200µm_02_GCPL_C05_loop7.mpt
EC-Lab ASCII FILE
Nb header lines : 3
mode	ox/red	error	control changes	Ns changes	counter inc.	Ns	time/s	control/V/mA	Ewe/V	dq/mA.h	<I>/mA	P/W	(Q-Qo)/mA.h	x	Capacity/mA.h
1	0	0	1	1	0	1	136618,78	-0,200000003	3,22545576	0	0	0	0	0	0
1	0	0	1	0	0	1	136628,78	-0,200000003	2,00223732	-0,00055203031650050733	-0,19873088283243181	0,000397906377	-0,00055203031650050733	2,0596993321288266E-005	0,00055203031650050733
1	0	0	1	0	0	1	136638,78	-0,200000003	1,92161632	-0,0005547603481900361	-0,19971369410077056	0,000383773091	-0,0011067906646905434	4,1295847795479488E-005	0,0011067906646905434
1	0	0	1	0	0	1	136648,78	-0,200000003	1,88514352	-0,00055476126138203674	-0,19971402284983933	0,000376489596	-0,0016615519260725802	6,1994736342092058E-005	0,0016615519260725802
1	0	0	1	0	0	1	136658,78	-0,200000003	1,8699069	-0,00055476594108425907	-0,19971570754237578	0,000373449788	-0,002216317867156839	8,2693799494686464E-005	0,002216317867156839
1	0	0	1	0	0	1	136668,78	-0,200000003	1,86074579	-0,00055476082530286573	-0,19971386586136234	0,000371616741	-0,0027710786924597046	0,00010339267177059885	0,0027710786924597046
1	0	0	1	0	0	1	136678,78	-0,200000003	1,85267043	-0,00055476688331613933	-0,19971604674579962	0,000370008027	-0,0033258455757758438	0,00012409177007913157	0,0033258455757758438
1	0	0	1	0	0	1	136688,78	-0,200000003	1,84122384	-0,00055477229913903603	-0,19971799644173738	0,00036772553	-0,0038806178749148806	0,00014479107045929821	0,0038806178749148806
1	0	0	1	0	0	1	136698,78	-0,200000003	1,83244371	-0,00055476253409600915	-0,1997144810267977	0,000365965534	-0,0044353804090108896	0,00016549000649258029	0,0044353804090108896
1	0	0	1	0	0	1	136708,78	-0,200000003	1,82495868	-0,0005547659605650439	-0,19971571455545722	0,000364472915	-0,0049901463695759334	0,00018618907037202893	0,0049901463695759334
1	0	0	1	0	0	1	136718,78	-0,200000003	1,8164643	-0,00055476544275465933	-0,19971552814374797	0,000362776133	-0,0055449118123305933	0,000206888114931276	0,0055449118123305933
1	0	0	1	0	0	1	136728,78	-0,200000003	1,80558908	-0,00055476517892877267	-0,19971543316644358	0,000360603997	-0,0060996769912593651	0,00022758714964682448	0,0060996769912593651
1	0	0	1	0	0	1	136738,78	-0,200000003	1,79353309	-0,00055476526201185254	-0,19971546307634768	0,000358196296	-0,0066544422532712179	0,0002482861874623144	0,0066544422532712179
1	0	0	1	0	0	1	136748,78	-0,200000003	1,78225791	-0,00055477426425450374	-0,19971870388319504	0,000355950237	-0,0072092165175257216	0,00026898556116358128	0,0072092165175257216
1	0	0	1	0	0	1	136758,78	-0,200000003	1,76995432	-0,00055476949241674618	-0,1997169860218711	0,000353489944	-0,0077639860099424678	0,00028968475682116557	0,0077639860099424678
1	0	0	1	0	0	1	136768,78	-0,200000003	1,75707936	-0,0005547721834952633	-0,1997179548099857	0,000350920309	-0,0083187581934377318	0,00031038405288650758	0,0083187581934377318
1	0	0	1	0	0	1	136778,78	-0,200000003	1,74679458	-0,00055477231811814842	-0,19971800327421674	0,000348866335	-0,0088735305115558797	0,00033108335397481043	0,0088735305115558797
1	0	0	1	0	0	1	136788,78	-0,200000003	1,7301867	-0,00055476606949998272	-0,19971575377202909	0,00034554553	-0,0094282965810558618	0,00035178242191876813	0,0094282965810558618
1	0	0	1	0	0	1	136798,78	-0,200000003	1,71569276	-0,00055476410887473165	-0,19971504795169907	0,00034264967	-0,0099830606899305933	0,0003724814167091616	0,0099830606899305933
1	0	0	1	0	0	1	136808,78	-0,200000003	1,69862771	-0,00055476436818142733	-0,19971514129744493	0,000339241669	-0,010537825058112021	0,00039318042117463661	0,010537825058112021
1	0	0	1	0	0	1	136818,78	-0,200000003	1,68224835	-0,00055476983001331488	-0,1997171075566168	0,000335973775	-0,011092594888125336	0,00041387962942840282	0,011092594888125336
1	0	0	1	0	0	1	136828,78	-0,200000003	1,66586888	-0,00055476462000608448	-0,19971523195430736	0,00033269939	-0,011647359508131421	0,0004345786432897943	0,011647359508131421
1	0	0	1	0	0	1	136838,78	-0,200000003	1,64840388	-0,00055476473107106157	-0,19971527193769283	0,000329211442	-0,012202124239202483	0,00045527766129516947	0,012202124239202483
1	0	0	1	0	0	1	136848,78	-0,200000003	1,63764298	-0,00055476381552550528	-0,19971494234134416	0,000327061774	-0,012756888054727987	0,00047597664514030886	0,012756888054727987
1	0	0	1	0	0	1	136858,78	-0,200000003	1,61956847	-0,00055476407197531718	-0,19971503466326198	0,000323452172	-0,013311652126703304	0,00049667563855393568	0,013311652126703304
1	0	0	1	0	0	1	136868,78	-0,200000003	1,6016655	-0,00055475723785244749	-0,19971257437941382	0,00031987275	-0,01386640936455575	0,0005173743769772496	0,01386640936455575
1	0	0	1	0	0	1	136878,78	-0,200000003	1,58300054	-0,00055475918898565901	-0,1997132767872601	0,000316146237	-0,014421168553541408	0,00053807318819996691	0,014421168553541408
1	0	0	1	0	0	1	136888,78	-0,200000003	1,56677353	-0,00055476316942854067	-0,19971470974647325	0,000312907709	-0,014975931722969952	0,00055877214793835994	0,014975931722969952
1	0	0	1	0	0	1	136898,78	-0,200000003	1,55111778	-0,00055476345708635117	-0,19971481330326886	0,0003097812	-0,015530695180056301	0,00057947111840965261	0,015530695180056301
1	0	0	1	0	0	1	136908,78	-0,200000003	1,53603351	-0,00055477064837018643	-0,19971740216504448	0,000306772621	-0,016085465828426486	0,00060017035719741389	0,016085465828426486
1	0	0	1	0	0	1	136918,78	-0,200000003	1,52220631	-0,00055476628299968115	-0,19971583063190848	0,000304008689	-0,01664023211142617	0,00062086943310733248	0,01664023211142617
1	0	0	1	0	0	1	136928,78	-0,200000003	1,51013124	-0,0005547588977979289	-0,19971317195969366	0,0003015931	-0,017194991009224096	0,0006415682334654441	0,017194991009224096
1	0	0	1	0	0	1	136936,22	-0,200000003	1,50003695	-0,00041237825171897811	-0,1997149990076856	0,000299579871	-0,017607369260943075	0,00065695462048553536	0,017607369260943075
1	1	0	0	1	0	2	136936,22	0,200000003	2,378443	9,7715879480044058E-009	0,058629530591086221	0,000139447002	-0,017607359489355126	0,00065695425589445094	9,7715879480044058E-009
1	1	0	0	0	0	2	136946,22	0,200000003	2,70291424	0,00055611150193793914	0,2002001093727447	0,000541123736	-0,017051247987417184	0,00063620498805727987	0,0005561212735258871
1	1	0	0	0	0	2	136956,22	0,200000003	2,69127727	0,0005561160420974096	0,20020174383106365	0,000538798398	-0,016495131945319773	0,00061545555082065472	0,0011122373156232966
1	1	0	0	0	0	2	136966,22	0,200000003	2,61395121	0,0005561246430103977	0,20020484015925494	0,000523325696	-0,015939007302309376	0,00059470579267240179	0,0016683619586336941
1	1	0	0	0	0	2	136976,22	0,200000003	2,45025229	0,00055613011464228224	0,20020680994642522	0,00049055717	-0,015382877187667094	0,00057395583037020672	0,0022244920732759766
1	1	0	0	0	0	2	136986,22	0,200000003	2,4637177	0,00055613770495437914	0,20020954245835248	0,000493259809	-0,014826739482712717	0,00055320558486326208	0,0027806297782303558
1	1	0	0	0	0	2	136996,22	0,200000003	2,4269402	0,00055613224755227565	0,20020757779390262	0,000485891826	-0,01427060723516044	0,00053245554297932736	0,003336762025782631
1	1	0	0	0	0	2	137006,22	0,200000003	2,43455863	0,00055612428131285645	0,20020470994816042	0,000487410114	-0,013714482953847582	0,00051170579832649606	0,003892886307095488
1	1	0	0	0	0	2	137016,22	0,200000003	2,44154835	0,0005561236572066944	0,20020448526997725	0,000488808902	-0,013158359296640888	0,0004909560769599049	0,0044490099643021818
1	1	0	0	0	0	2	137026,22	0,200000003	2,390239	0,00055612834560291629	0,20020617309235309	0,000478540605	-0,012602230951037973	0,00047020618066294701	0,0050051383099050982
1	1	0	0	0	0	2	137036,22	0,200000003	2,42800689	0,00055613230324039846	0,20020759784162374	0,000486105419	-0,012046098647797573	0,00044945613670121357	0,0055612706131454963
1	1	0	0	0	0	2	137046,22	0,200000003	2,4326539	0,00055613265864302726	0,20020772578655005	0,000487036101	-0,011489965989154547	0,00042870607947893024	0,0061174032717885235
1	1	0	0	0	0	2	137056,22	0,200000003	2,39326715	0,00055613721512506406	0,20020936612448816	0,000479154492	-0,010933828774029485	0,00040795585224817587	0,0066735404869135885
1	1	0	0	0	0	2	137066,22	0,200000003	2,4333396	0,00055613563143213587	0,20020879599046173	0,000487176003	-0,010377693142597347	0,00038720568410713389	0,0072296761183457242
1	1	0	0	0	0	2	137076,22	0,200000003	2,47811627	0,00055613405851026381	0,20020822973867635	0,000496139284	-0,0098215590840870835	0,00036645557465392179	0,0077858101768559885
1	1	0	0	0	0	2	137086,22	0,200000003	2,41699839	0,00055613161750055034	0,20020735097531699	0,000483900832	-0,0092654274665865331	0,00034570555627806406	0,0083419417943565376
1	1	0	0	0	0	2	137096,22	0,200000003	2,42522621	0,00055612801955805875	0,20020605571622275	0,000485544966	-0,0087092994470284736	0,00032495567214627821	0,0088980698139145971
1	1	0	0	0	0	2	137106,22	0,200000003	2,40945625	0,0005561376367699769	0,20020951791197152	0,000482396077	-0,008153161810258496	0,00030420542918338515	0,0094542074506845734
1	1	0	0	0	0	2	137116,22	0,200000003	2,42730212	0,00055613665922813933	0,20020916599696512	0,000485968136	-0,0075970251510303565	0,00028345522269389242	0,010010344109912714
1	1	0	0	0	0	2	137126,22	0,200000003	2,30312324	0,00055613171762393581	0,20020738701973014	0,000461102289	-0,0070408934334064218	0,00026270520058229661	0,01056647582753665
1	1	0	0	0	0	2	137136,22	0,200000003	2,42762589	0,00055612694298972691	0,2002056681516839	0,000486024452	-0,006484766490416695	0,00024195535661872266	0,011122602770526376
1	1	0	0	0	0	2	137146,22	0,200000003	2,36633635	0,00055613356544574099	0,20020805223547594	0,000473759603	-0,0059286329249709542	0,00022120526556241085	0,011678736335972117
1	1	0	0	0	0	2	137156,22	0,200000003	2,39440989	0,00055613373386445978	0,20020811286620518	0,00047938028	-0,0053724991911064934	0,00020045516822217021	0,012234870069836574
1	1	0	0	0	0	2	137166,22	0,200000003	2,40899897	0,00055613394161479341	0,20020818765631363	0,000482301315	-0,0048163652494917005	0,00017970506313048528	0,01279100401145137
1	1	0	0	0	0	2	137176,22	0,200000003	2,39111495	0,00055613679781142202	0,20020921588693904	0,000478723261	-0,0042602284516802778	0,00015895485147026394	0,013347140809262792
1	1	0	0	0	0	2	137186,22	0,200000003	2,38995314	0,00055614259741620877	0,20021130374433562	0,00047849564	-0,0037040858542640691	0,00013820442341899034	0,013903283406678998
1	1	0	0	0	0	2	137196,22	0,200000003	2,39671445	0,00055613651189456378	0,20020911295688621	0,000479844079	-0,0031479493423695053	0,00011745422242671142	0,014459419918573562
1	1	0	0	0	0	2	137206,22	0,200000003	2,37469745	0,00055613846874816544	0,20020981742407258	0,00047543773	-0,0025918108736213398	9,6703948421593562E-005	0,015015558387321728
1	1	0	0	0	0	2	137216,22	0,200000003	2,38587737	0,00055614248272776602	0,20021126245650266	0,00047767951	-0,0020356683908935738	7,5953524649499994E-005	0,015571700870049494
1	1	0	0	0	0	2	137226,22	0,200000003	2,42661643	0,00055613862015803654	0,2002098719316176	0,00048583257	-0,0014795297707355373	5,5203244995076294E-005	0,016127839490207533
1	1	0	0	0	0	2	137236,22	0,200000003	2,4101038	0,00055613452922718387	0,20020839919674112	0,000482523028	-0,00092339524150835315	3,4453117978783034E-005	0,016683974019434714
1	1	0	0	0	0	2	137246,22	0,200000003	2,46649837	0,00055614016650699904	0,20021042861715706	0,000493818719	-0,00036725507500135411	1,3702780628000456E-005	0,017240114185941715
1	1	0	0	0	0	2	137256,22	0,200000003	2,3891151	0,00055614331743038368	0,20021156294939798	0,000478328468	0,00018888824242902957	-7,0476742879700608E-006	0,017796257503372096
1	1	0	0	0	0	2	137266,22	0,200000003	2,38206816	0,00055613081609623309	0,20020706246980794	0,000476906862	0,00074501905852526259	-2,7797662762355194E-005	0,01835238831946833
1	1	0	0	0	0	2	137276,22	0,200000003	2,37915421	0,00055614028685788314	0,20021047194346851	0,000476331596	0,0013011593453831458	-4,8548004603591066E-005	0,018908528606326214
1	1	0	0	0	0	2	137286,22	0,200000003	2,38170648	0,00055613953100144864	0,20021019983519469	0,000476841931	0,0018572988763845946	-6,9298318242807104E-005	0,019464668137327664
1	1	0	0	0	0	2	137296,22	0,200000003	2,15936542	0,00055614425476226541	0,20021190038882262	0,000432330649	0,0024134431311468598	-9,0048808131890394E-005	0,02002081239208993
1	1	0	0	0	0	2	137306,22	0,200000003	2,37006927	0,00055613854001876371	0,20020984308148394	0,000474511209	0,0029695816711656237	-0,00011079908479621008	0,020576950932108691
1	1	0	0	0	0	2	137316,22	0,200000003	2,41494131	0,00055613795689245062	0,20020963315604403	0,000483494514	0,0035257196280580742	-0,00013154933970330299	0,021133088889001146
1	1	0	0	0	0	2	137326,22	0,200000003	2,39764762	0,00055613494694895219	0,20020854957655414	0,000480029557	0,0040818545750070266	-0,00015229948230535706	0,021689223835950099
1	1	0	0	0	0	2	137336,22	0,200000003	2,40802765	0,00055612873453978035	0,20020631310960224	0,000482102332	0,0046379833095468064	-0,00017304939311407222	0,022245352570489878
1	1	0	0	0	0	2	137346,22	0,200000003	2,41417956	0,00055612931999481389	0,20020652387338131	0,000483334501	0,0051941126295416211	-0,00019379932576690189	0,022801481890484691
1	1	0	0	0	0	2	137356,22	0,200000003	2,39818096	0,00055613104413035853	0,20020714456208026	0,000480132963	0,0057502436736719795	-0,00021454932274954688	0,02335761293461505
1	1	0	0	0	0	2	137366,22	0,200000003	2,37664008	0,00055613297026604416	0,20020783797081859	0,000475821958	0,0063063766439380237	-0,00023529939159890394	0,023913745904881094
1	1	0	0	0	0	2	137376,22	0,200000003	2,40320921	0,00055613005973067546	0,20020679017824979	0,000481138792	0,0068625067036686989	-0,00025604935185227318	0,024469875964611766
1	1	0	0	0	0	2	137386,22	0,200000003	2,41627455	0,00055613167902992826	0,20020737312588963	0,000483755983	0,0074186383826986266	-0,00027679937252387469	0,025026007643641696
1	1	0	0	0	0	2	137396,22	0,200000003	2,41077042	0,00055613443999489146	0,20020836707312086	0,000482656411	0,0079747728226935194	-0,00029754949621079117	0,025582142083636586
1	1	0	0	0	0	2	137406,22	0,200000003	2,41644597	0,00055612940164075955	0,20020655326591715	0,000483788317	0,0085309022243342784	-0,00031829943190994086	0,026138271485277344
1	1	0	0	0	0	2	137416,22	0,200000003	2,41804576	0,00055612846003307232	0,20020621428720278	0,00048410779	0,0090870306843673498	-0,00033904933247644166	0,026694399945310416
1	1	0	0	0	0	2	137426,22	0,200000003	2,40319014	0,00055612910412914221	0,20020644616175168	0,000481134164	0,0096431597884964928	-0,0003597992570750329	0,027250529049439558
1	1	0	0	0	0	2	137436,22	0,200000003	2,40130448	0,00055612567894491885	0,20020521309562419	0,00048075369	0,010199285467441411	-0,00038054905387539552	0,027806654728384477
1	1	0	0	0	0	2	137446,22	0,200000003	2,3967526	0,00055612161076317229	0,20020374855042458	0,00047983884	0,010755407078204584	-0,00040129869888642746	0,028362776339147651
1	1	0	0	0	0	2	137456,22	0,200000003	2,40399003	0,00055612129471864966	0,2002036347749969	0,000481287541	0,011311528372923234	-0,00042204833210541331	0,028918897633866298
1	1	0	0	0	0	2	137466,22	0,200000003	2,40899897	0,00055612273301763674	0,20020415256196854	0,000482291594	0,011867651105940872	-0,00044279801898926822	0,029475020366883936
1	1	0	0	0	0	2	137476,22	0,200000003	2,41257977	0,00055612781709349811	0,20020598282899229	0,000483012904	0,012423778923034371	-0,00046354789556682918	0,030031148183977434
1	1	0	0	0	0	2	137486,22	0,200000003	2,50228548	0,00055613083863175578	0,20020707058259485	0,000500975235	0,012979909761666125	-0,00048429788488204493	0,03058727902260919
1	1	0	0	0	0	2	137496,22	0,200000003	2,44141507	0,00055612849602186022	0,20020622724316438	0,000488786492	0,013536038257687984	-0,00050504778679133587	0,031143407518631046
1	1	0	0	0	0	2	137506,22	0,200000003	2,43930101	0,00055613223230259296	0,20020757230401773	0,000488366524	0,014092170489990579	-0,00052579782810628435	0,031699539750933638
1	1	0	0	0	0	2	137516,22	0,200000003	2,47225022	0,00055613642128722541	0,20020908033824947	0,000494966924	0,014648306911277805	-0,00054654802571788173	0,032255676172220864
1	1	0	0	0	0	2	137526,22	0,200000003	2,51095128	0,00055613437250753242	0,20020834277767539	0,000502713374	0,015204441283785338	-0,00056729814688675411	0,032811810544728397
1	1	0	0	0	0	2	137536,22	0,200000003	2,50918007	0,00055613079393241139	0,20020705449083341	0,000502355571	0,01576057207771775	-0,00058804813453417728	0,033367941338660813
1	1	0	0	0	0	2	137546,22	0,200000003	2,54348159	0,0005561306757744816	0,20020701195398531	0,000509222853	0,01631670275349223	-0,00060879811777296909	0,03392407201443529
1	1	0	0	0	0	2	137556,22	0,200000003	2,509161	0,00055613388318485683	0,20020816662153974	0,000502354524	0,016872836636677085	-0,0006295482206845545	0,034480205897620154
1	1	0	0	0	0	2	137566,22	0,200000003	2,52224565	0,00055612992288420595	0,20020674091352851	0,000504970609	0,01742896655956129	-0,00065029817583199795	0,035036335820504358
1	1	0	0	0	0	2	137576,22	0,200000003	2,42909241	0,00055613055345995565	0,20020696792076288	0,000486321223	0,017985097113021248	-0,00067104815450707046	0,035592466373964314
1	1	0	0	0	0	2	137586,22	0,200000003	2,53013062	0,00055613230990784026	0,2002076002419024	0,000506551354	0,018541229422929088	-0,00069179819871757517	0,03614859868387216
1	1	0	0	0	0	2	137596,22	0,200000003	2,53195882	0,00055612484260482918	0,20020491201323901	0,000506910612	0,019097354265533914	-0,00071254796431296448	0,036704723526476986
1	1	0	0	0	0	2	137606,22	0,200000003	2,53233981	0,00055612603335993158	0,2002053406850088	0,00050698797	0,019653480298893843	-0,00073329777433702771	0,037260849559836922
1	1	0	0	0	0	2	137616,22	0,200000003	2,55833745	0,00055612040065477293	0,20020331291146896	0,00051218766	0,020209600699548618	-0,00075404737419728832	0,037816969960491693
1	1	0	0	0	0	2	137626,22	0,200000003	2,57721186	0,00055612506908095546	0,20020499354463171	0,000515970693	0,020765725768629571	-0,0007747971482428064	0,038373095029572646
1	1	0	0	0	0	2	137636,22	0,200000003	2,58787751	0,00055612389962457952	0,20020457254040224	0,000518104935	0,02132184966825415	-0,00079554687865433485	0,038929218929197229
1	1	0	0	0	0	2	137646,22	0,200000003	2,6057806	0,00055612996547006893	0,2002067562444368	0,000521694892	0,021877979633724218	-0,00081629683539071398	0,039485348894667296
1	1	0	0	0	0	2	137656,22	0,200000003	2,68520164	0,0005561300040615929	0,20020677014670608	0,000537595537	0,022434109637785811	-0,00083704679356699494	0,04004147889872889
1	1	0	0	0	0	2	137666,22	0,200000003	2,68758225	0,00055612937989830982	0,20020654543863645	0,000538071559	0,022990239017684122	-0,00085779672845490458	0,0405976082786272
1	1	0	0	0	0	2	137676,22	0,200000003	2,72161722	0,00055612329172756934	0,20020435369751283	0,000544879644	0,02354636230941169	-0,00087854643618497818	0,041153731570354771
1	1	0	0	0	0	2	137686,22	0,200000003	2,75252867	0,00055612326334830784	0,20020434348098029	0,000551068166	0,024102485572759997	-0,00089929614285618342	0,041709854833703078
1	1	0	0	0	0	2	137696,22	0,200000003	2,77370763	0,00055612780208140608	0,20020597742464	0,000555312843	0,024658613374841402	-0,00092004601887362291	0,04226598263578448
1	1	0	0	0	0	2	137706,22	0,200000003	2,79976225	0,00055612605352037478	0,20020534794276723	0,000560527376	0,025214739428361776	-0,00094079582964989952	0,042822108689304851
1	1	0	0	0	0	2	137716,22	0,200000003	2,80204773	0,00055613105219850938	0,20020714746661414	0,000560990011	0,025770870480560288	-0,00096154582693357798	0,043378239741503366
1	1	0	0	0	0	2	137726,22	0,200000003	2,82128406	0,00055613033561656877	0,20020688949715584	0,000564840506	0,026327000816176854	-0,0009822957974806208	0,043934370077119936
1	1	0	0	0	0	2	137736,22	0,200000003	2,84309149	0,00055612716116756192	0,20020574669569222	0,000569203228	0,026883127977344416	-0,0010030456495847032	0,044490497238287501
1	1	0	0	0	0	2	137746,22	0,200000003	2,88718271	0,00055613273216618432	0,20020775225488246	0,000578036357	0,027439260709510598	-0,0010237957095502342	0,045046629970453683
1	1	0	0	0	0	2	137756,22	0,200000003	2,92971206	0,00055613068474994758	0,20020701518515258	0,000586548878	0,027995391394260547	-0,0010445456931239128	0,045602760655203629
1	1	0	0	0	0	2	137766,22	0,200000003	2,95854735	0,00055613031291630534	0,2002068813250623	0,000592321565	0,028551521707176851	-0,0010652956628239784	0,04615889096811993
1	1	0	0	0	0	2	137776,22	0,200000003	2,96363258	0,000556123276869456	0,20020434834859286	0,000593332108	0,02910764498404631	-0,0010860453699996758	0,046715014244989389
1	1	0	0	0	0	2	137786,22	0,200000003	2,95287156	0,0005561227101302809	0,20020414432252173	0,000591177144	0,029663767694176589	-0,0011067950560295728	0,047271136955119667
1	1	0	0	0	0	2	137796,22	0,200000003	2,95940447	0,00055612412666198285	0,20020465427385466	0,000592486525	0,030219891820838566	-0,0011275447949121718	0,047827261081781651
1	1	0	0	0	0	2	137806,22	0,200000003	2,98281169	0,00055612561359587648	0,20020518956997264	0,000597174396	0,030776017434434445	-0,0011482945892742739	0,04838338669537753
1	1	0	0	0	0	2	137816,22	0,200000003	2,99722934	0,00055612571324739187	0,20020522544451254	0,000600060972	0,031332143147681837	-0,001169044387354508	0,048939512408624915
1	1	0	0	0	0	2	137826,22	0,200000003	3,01099944	0,00055612568258908064	0,20020521440752221	0,000602817803	0,031888268830270918	-0,001189794184290839	0,049495638091213997
1	1	0	0	0	0	2	137836,22	0,200000003	3,03545427	0,00055612114026397472	0,20020357917073994	0,000607708818	0,032444389970534893	-0,0012105438117469133	0,050051759231477971
1	1	0	0	0	0	2	137846,22	0,200000003	3,04701519	0,0005561255401447415	0,20020516312756816	0,000610028161	0,033000515510679629	-0,0012312936033684547	0,050607884771622707
1	1	0	0	0	0	2	137856,22	0,200000003	3,09310603	0,00055613062763959162	0,20020699462542765	0,000619261467	0,033556646138319226	-0,0012520435848112694	0,051164015399262304
1	1	0	0	0	0	2	137866,22	0,200000003	3,1267221	0,00055613059577842554	0,20020698315540966	0,000625991612	0,034112776734097658	-0,001272793565065301	0,05172014599504073
1	1	0	0	0	0	2	137876,22	0,200000003	3,12687445	0,0005561253993387024	0,20020511243740202	0,000626016234	0,034668902133436358	-0,0012935433514331797	0,052276271394379437
1	1	0	0	0	0	2	137886,22	0,200000003	3,15500498	0,00055612738969922061	0,20020582896707648	0,000631650386	0,035225029523135584	-0,0013142932120640854	0,052832398784078656
1	1	0	0	0	0	2	137896,22	0,200000003	3,13342619	0,00055613234995388326	0,20020761465847562	0,000627335801	0,035781161873089466	-0,0013350432577687621	0,053388531134032544
1	1	0	0	0	0	2	137906,22	0,200000003	3,19124913	0,00055613390863521229	0,20020817578366627	0,000638914178	0,036337295781724678	-0,0013557933616299344	0,053944665042667757
1	1	0	0	0	0	2	137916,22	0,200000003	3,22029424	0,00055613295369760858	0,20020783200618272	0,000644728134	0,036893428735422285	-0,0013765434298611008	0,054500797996365363
1	1	0	0	0	0	2	137926,22	0,200000003	3,21035218	0,00055612826851672589	0,2002061453413289	0,000642732251	0,037449557003939008	-0,0013972933232818691	0,055056926264882086
1	1	0	0	0	0	2	137936,22	0,200000003	3,18572593	0,0005561275963584583	0,20020590336439037	0,000637801131	0,038005684600297472	-0,0014180431916235088	0,055613053861240544
1	1	0	0	0	0	2	137946,22	0,200000003	3,17666006	0,00055613658744427891	0,20020914015477939	0,000635996403	0,038561821187741747	-0,0014387933954346493	0,056169190448684826
1	1	0	0	0	0	2	137956,22	0,200000003	3,17936468	0,00055612829836623539	0,20020615608715059	0,000636528363	0,039117949486107987	-0,0014595432899691434	0,056725318747051066
1	1	0	0	0	0	2	137966,22	0,200000003	3,1885066	0,00055613275692943066	0,20020776116964976	0,000638363766	0,039674082243037414	-0,0014802933508586246	0,057281451503980493
1	1	0	0	0	0	2	137976,22	0,200000003	3,20450521	0,00055613283049729139	0,20020778765407546	0,000641566876	0,040230215073534707	-0,0015010434144930214	0,057837584334477786
1	1	0	0	0	0	2	137986,22	0,200000003	3,17654586	0,00055612581889910835	0,20020526347912451	0,000635961187	0,040786340892433811	-0,0015217932165152627	0,058393710153376883
1	1	0	0	0	0	2	137991,53	0,200000003	3,50013447	0,00029551424631890323	0,20020533710460547	0,000700745615	0,041081855138752717	-0,001532819250368551	0,058689224399695795