File: Experimentelles/Rohdaten/Batteriemessungen/AlteZelle/Studenten_Batterietests/S vs Li GCPL 200µm/ECLab-Export/S vs Li GCPL 200µm_02_GCPL_C05.mpt
EC-Lab ASCII FILE
Nb header lines : 83

Galvanostatic Cycling with Potential Limitation

Run on channel : 5 (SN 5436)
Grouped channel(s) : 5
User :
CE vs. WE compliance from -10 V to 10 V
Electrode connection : standard
Ewe ctrl range : min = 0,00 V, max = 5,00 V
Acquisition started on : 01.23.2015 15:07:20
Saved on :
	File : S vs Li GCPL 200µm_02_GCPL_C05.mpr
	Directory : C:\Hupfer\Studenten Batterietests\S vs Li GCPL 200µm\
	Host : 192.168.0.2
Device : VMP3 (SN 0324)
Address : 192.168.0.1
EC-Lab for windows v10.33 (software)
Internet server v10.33 (firmware)
Command interpretor v10.32 (firmware)
Electrode material : S vs Li
Initial state : charged
Electrolyte : LP30
Comments : 200µm
Mass of active material : 0,001 mg
 at x = 0,000
Molecular weight of active material (at x = 0) : 0,001 g/mol
Atomic weight of intercalated ion : 0,001 g/mol
Acquisition started at : xo = 0,000
Number of e- transfered per intercalated ion : 1
for DX = 1, DQ = 26,801 mA.h
Battery capacity : 0,000 A.h
Reference electrode : Li+/Li (-3,020 V)
Electrode surface area : 0,001 cm²
Characteristic mass : 0,001 g
Create one data file per loop
Ns                  0                   1                   2
Set I/C             I                   I                   I
Is                  0,000               -200,000            200,000
unit Is             mA                  µA                  µA
vs.                 <None>              <None>              <None>
N                   1                   1                   1
I sign              > 0                 > 0                 > 0
t1 (h:m:s)          0:00:0,0000         10:00:0,0000        10:00:0,0000
I Range             1 mA                1 mA                1 mA
Bandwidth           5                   5                   5
dE1 (mV)            0,00                0,00                0,00
dt1 (s)             0,0000              10,0000             10,0000
EM (V)              0,000               1,500               3,500
tM (h:m:s)          0:00:0,0000         0:00:0,0000         0:00:0,0000
Im                  0,000               0,000               0,000
unit Im             mA                  mA                  mA
E range min (V)     0,000               0,000               0,000
E range max (V)     5,000               5,000               5,000
dq                  0,000               1,000               1,000
unit dq             mA.h                mA.h                mA.h
dtq (s)             0,0000              120,0000            120,0000
dQM                 0,000               0,000               0,000
unit dQM            mA.h                mA.h                mA.h
dxM                 0,000               0,000               0,000
tR (h:m:s)          0:00:0,0000         0:00:0,0000         0:00:0,0000
dER/dt (mV/h)       0,0                 0,1                 0,1
dER (mV)            0,00                5,00                5,00
dtR (s)             1,0000              120,0000            120,0000
EL (V)              pass                4,200               4,200
goto Ns'            0                   0                   0
nc cycles           0                   0                   0

Number of loops : 11
Loop 0 from point number 0 to 4510
Loop 1 from point number 4511 to 8418
Loop 2 from point number 8419 to 11694
Loop 3 from point number 11695 to 12469
Loop 4 from point number 12470 to 12911
Loop 5 from point number 12912 to 13130
Loop 6 from point number 13131 to 13323
Loop 7 from point number 13324 to 13463
Loop 8 from point number 13464 to 13541
Loop 9 from point number 13542 to 13670
Loop 10 from point number 13671 to 13679

mode	ox/red	error	control changes	Ns changes	counter inc.	Ns	time/s	control/V/mA	Ewe/V	dq/mA.h	<I>/mA	P/W	(Q-Qo)/mA.h	x	Capacity/mA.h
1	0	0	1	1	0	1	3600,0009	-0,200000003	2,17947769	0	0	0	0	0	0
1	0	0	1	0	0	1	4070,0009	-0,200000003	2,15393734	-0,00055481795423395104	-0,19973446856993946	0,000430215528	-0,026073727481271299	0,00097284582882567411	0,026073727481271299
1	0	0	1	0	0	1	4540,0009	-0,200000003	2,15652752	-0,00055482280440794106	-0,19973621200510374	0,000430736633	-0,052149649998407846	0,0019457735573907376	0,052149649998407846
1	0	0	1	0	0	1	5010,0009	-0,200000003	2,14245272	-0,00055481018969251046	-0,19973167070749376	0,000427915656	-0,0782257773269552	0,0029187089277449101	0,0782257773269552
1	0	0	1	0	0	1	5480,0009	-0,200000003	2,13784361	-0,00055480647776607014	-0,19973033441395904	0,000426992221	-0,1043017619792219	0,0038916389746552218	0,1043017619792219
1	0	0	1	0	0	1	5950,0009	-0,200000003	2,13235831	-0,00055480818362285702	-0,19973094852240976	0,000425897946	-0,13037744660781034	0,0048645578272787104	0,13037744660781034
1	0	0	1	0	0	1	6420,0009	-0,200000003	2,1228354	-0,00055480183430512742	-0,19972866276799942	0,000423991063	-0,15645326113473661	0,0058374815265838349	0,15645326113473661
1	0	0	1	0	0	1	6890,0009	-0,200000003	2,1138649	-0,00055479048839542598	-0,19972457824045744	0,000422190788	-0,18252878967349277	0,006810394555285815	0,18252878967349277
1	0	0	1	0	0	1	7360,0009	-0,200000003	2,0995996	-0,0005548052920566665	-0,19972990755856858	0,000419352844	-0,20860461774476573	0,0077833187599487245	0,20860461774476573
1	0	0	1	0	0	1	7830,0009	-0,200000003	2,08192515	-0,00055480932547234829	-0,19973135958823158	0,000415825751	-0,23468041362066518	0,0087562417633589619	0,23468041362066518
1	0	0	1	0	0	1	8300,0008	-0,200000003	2,05472755	-0,00055481745711300109	-0,19973428697890205	0,000410399545	-0,2607563671080903	0,0097291706474671322	0,2607563671080903
1	0	0	1	0	0	1	8770,0008	-0,200000003	2,0110364	-0,00055481667576150758	-0,19973400569236096	0,000401672354	-0,28683257857134298	0,01070210915700028	0,28683257857134298
1	0	0	1	0	0	1	9240,0008	-0,200000003	1,98681021	-0,00055477962926444083	-0,19972066895325546	0,000396807067	-0,31290787033694765	0,011675013351377635	0,31290787033694765
1	0	0	1	0	0	1	9710,0008	-0,200000003	1,95028031	-0,00055478789136310413	-0,1997236433088103	0,000389517081	-0,33898288424553094	0,012647907178535939	0,33898288424553094
1	0	0	1	0	0	1	10180,0008	-0,200000003	1,91247427	-0,00055477995422234138	-0,19972078593810109	0,000381960854	-0,36505783320320506	0,013620798582288494	0,36505783320320506
1	0	0	1	0	0	1	10650,0008	-0,200000003	1,9151026	-0,00055477843939926893	-0,19972024060178838	0,000382484752	-0,39113263855582342	0,014593684627943341	0,39113263855582342
1	0	0	1	0	0	1	11120,0008	-0,200000003	1,92117822	-0,00055480065189219187	-0,19972823709933747	0,000383713545	-0,41720779402363142	0,01556658373686665	0,41720779402363142
1	0	0	1	0	0	1	11590,0008	-0,200000003	1,92761576	-0,0005547764108984007	-0,19971951034146701	0,000384982472	-0,44328283648390899	0,016539478629327056	0,44328283648390899
1	0	0	1	0	0	1	12060,0008	-0,200000003	1,92940605	-0,00055478802102141914	-0,19972368998580426	0,000385348103	-0,46935767928229939	0,017512366072134	0,46935767928229939
1	0	0	1	0	0	1	12530,0008	-0,200000003	1,94260478	-0,00055479108061393101	-0,19972479143912186	0,000387986336	-0,49543262844129907	0,018485257483398285	0,49543262844129907
1	0	0	1	0	0	1	13000,0008	-0,200000003	1,93390083	-0,0005547817665570311	-0,19972143837859728	0,000386241445	-0,52150772195164397	0,019458154280605341	0,52150772195164397
1	0	0	1	0	0	1	13470,0008	-0,200000003	1,9242636	-0,00055480208395835424	-0,19972875264316218	0,000384330779	-0,5475827913632777	0,020431050178657082	0,5475827913632777
1	0	0	1	0	0	1	13940,0008	-0,200000003	1,92182577	-0,0005547970765315824	-0,1997269499695025	0,000383840408	-0,57365808301336518	0,021403954368724336	0,57365808301336518
1	0	0	1	0	0	1	14410,0008	-0,200000003	1,91411221	-0,00055478182309452032	-0,19972145873209366	0,00038228929	-0,59973312924286451	0,022376849401819472	0,59973312924286451
1	0	0	1	0	0	1	14880,0008	-0,200000003	1,96186006	-0,00055479042849689722	-0,19972455667698685	0,000391831622	-0,62580821935586266	0,02334974607226695	0,62580821935586266
1	0	0	1	0	0	1	15350,0008	-0,200000003	1,91003644	-0,0005547765278228455	-0,19971955243426765	0,000381471618	-0,65188303112988582	0,024322632357513043	0,65188303112988582
1	0	0	1	0	0	1	15820,0008	-0,200000003	1,9091984	-0,00055478919382558925	-0,19972411219531062	0,000381312944	-0,67795797463626483	0,025295523557870451	0,67795797463626483
1	0	0	1	0	0	1	16290,0007	-0,200000003	1,90676057	-0,00055478396644857197	-0,1997222303395616	0,000380822486	-0,70403298036767104	0,026268417079927286	0,70403298036767104
1	0	0	1	0	0	1	16760,0007	-0,200000003	1,9043417	-0,0005547950102951792	-0,19972620612438832	0,00038034693	-0,73010808976898586	0,027241314470047795	0,73010808976898586
1	0	0	1	0	0	1	17230,0007	-0,200000003	1,91649294	-0,00055479769684374342	-0,19972717328188317	0,000382775732	-0,75618346792348096	0,028214221887710803	0,75618346792348096
1	0	0	1	0	0	1	17700,0007	-0,200000003	1,91912127	-0,0005547728583564361	-0,19971823142634426	0,000383283506	-0,78225872530890458	0,029187124799317376	0,78225872530890458
1	0	0	1	0	0	1	18170,0007	-0,200000003	1,91386461	-0,00055478895530684128	-0,19972402632856029	0,000382244732	-0,80833357721045568	0,030160012581775488	0,80833357721045568
1	0	0	1	0	0	1	18640,0007	-0,200000003	1,91007447	-0,00055479074140058618	-0,19972466932231622	0,000381488993	-0,8344082817644032	0,031132894866496403	0,8344082817644032
1	0	0	1	0	0	1	19110,0007	-0,200000003	1,89609492	-0,00055477790527459648	-0,199720048316904	0,000378688157	-0,8604832754505472	0,032105787939128307	0,8604832754505472
1	0	0	1	0	0	1	19580,0007	-0,200000003	1,88638151	-0,00055478519764625363	-0,19972267357073235	0,00037675316	-0,88655810274473638	0,033078674803452659	0,88655810274473638
1	0	0	1	0	0	1	20050,0007	-0,200000003	1,881163	-0,00055478710205604627	-0,19972335915826602	0,000375712203	-0,91263324532297715	0,034051573431448883	0,91263324532297715
1	0	0	1	0	0	1	20520,0007	-0,200000003	1,87573493	-0,00055478080898274976	-0,19972109365185184	0,000374623836	-0,93870812024124173	0,035024462072691526	0,93870812024124173
1	0	0	1	0	0	1	20990,0007	-0,200000003	1,86733568	-0,00055478627806653574	-0,19972306252203862	0,000372949988	-0,96478318483389299	0,03599735779094055	0,96478318483389299
1	0	0	1	0	0	1	21460,0007	-0,200000003	1,86569774	-0,00055479286768204634	-0,19972543478365114	0,000372627284	-0,99085816198658483	0,036970250246687123	0,99085816198658483
1	0	0	1	0	0	1	21930,0007	-0,200000003	1,84697568	-0,00055478742967545984	-0,19972347710125635	0,000368884415	-1,0169333049521902	0,037943148889136442	1,0169333049521902
1	0	0	1	0	0	1	22400,0007	-0,200000003	1,83090103	-0,00055478251170035859	-0,19972170663019843	0,000365670683	-1,0430083466565176	0,038916043753391334	1,0430083466565176
1	0	0	1	0	0	1	22870,0007	-0,200000003	1,80332267	-0,00055479006772240006	-0,1997244267981663	0,000360167585	-1,0690834993587442	0,039888942759127078	1,0690834993587442
1	0	0	1	0	0	1	23340,0007	-0,200000003	1,70194173	-0,0005547954522594809	-0,19972636523153888	0,000339922641	-1,0951585992316178	0,040861839793728627	1,0951585992316178
1	1	0	0	0	0	2	23790,2129	0,200000003	2,12214994	0,00055612090795901094	0,20020352928914678	0,000424861908	-1,1056940774673085	0,041254932651803398	0,0072295233580114112
1	1	0	0	0	0	2	24260,2129	0,200000003	2,07552576	0,00055610444712638861	0,20019760338933101	0,000415515271	-1,0795567673233646	0,040279714468345606	0,033366833501955706
1	1	0	0	0	0	2	24730,2128	0,200000003	2,06291723	0,00055611113800025651	0,20020001210395264	0,000412996043	-1,0534197506891325	0,039304507236129792	0,059503850136187354
1	1	0	0	0	0	2	25200,2128	0,200000003	2,06177449	0,00055611853391014874	0,20020267463154605	0,000412772759	-1,0272823709836323	0,038329286457236813	0,08564122984168768
1	1	0	0	0	0	2	25670,2128	0,200000003	2,05849862	0,00055611417599933018	0,20020110578363238	0,000412113703	-1,0011448945234482	0,037354062068296493	0,11177870630187131
1	1	0	0	0	0	2	26140,2128	0,200000003	2,0599463	0,00055612126354790387	0,20020365730114979	0,000412408786	-0,97500761617228954	0,036378845071070266	0,13791598465302998
1	1	0	0	0	0	2	26610,2128	0,200000003	2,06186986	0,00055613247460209651	0,20020769328070803	0,000412802212	-0,94887004598481165	0,035403617185038586	0,16405355484050755
1	1	0	0	0	0	2	27080,2128	0,200000003	2,06863117	0,00055611556295057126	0,20020160508608525	0,000414143287	-0,92273262253921267	0,034428394774143718	0,19019097828610653
1	1	0	0	0	0	2	27550,2128	0,200000003	2,06868815	0,00055610793865720429	0,20019886034043987	0,000414149021	-0,8965953242989847	0,033453177034829574	0,21632827652633446
1	1	0	0	0	0	2	28020,2128	0,200000003	2,06625032	0,00055612153421094029	0,20020375473984406	0,000413671078	-0,87045804846976051	0,032477960131700115	0,24246555235555859
1	1	0	0	0	0	2	28490,2128	0,200000003	2,07013559	0,00055611101659470131	0,20019996839795219	0,000414441078	-0,84432082923804147	0,031502745340299667	0,26860277158727747
1	1	0	0	0	0	2	28960,2128	0,200000003	2,07304978	0,00055611717129664282	0,20020218409067798	0,000415029092	-0,81818332524719411	0,030527519924153286	0,29474027557812499
1	1	0	0	0	0	2	29430,2128	0,200000003	2,07394481	0,00055612525548206432	0,20020509439746496	0,000415214308	-0,79204586998435354	0,029552296326114349	0,32087773084096563
1	1	0	0	0	0	2	29900,2128	0,200000003	2,07651615	0,00055610733575291104	0,20019864329489168	0,000415715709	-0,76590846303892262	0,028577074530862931	0,3470151377863961
1	1	0	0	0	0	2	30370,2128	0,200000003	2,07508755	0,0005561037971269753	0,20019736938953939	0,000415427057	-0,73977145015964749	0,02760186743874961	0,37315215066567168
1	1	0	0	0	0	2	30840,2128	0,200000003	2,07809687	0,00055610104943480749	0,20019638022034704	0,000416027469	-0,71363433310221645	0,026626656459609219	0,39928926772310298
1	1	0	0	0	0	2	31310,2128	0,200000003	2,08362007	0,00055611240106407136	0,20020046680693149	0,000417141709	-0,68749751236802842	0,025651456536687443	0,42542608845729088
1	1	0	0	0	0	2	31780,2128	0,200000003	2,0824964	0,00055611803268558445	0,20020249419070074	0,000416920986	-0,66136032714226765	0,024676243014095024	0,45156327368305146
1	1	0	0	0	0	2	32250,2128	0,200000003	2,08643889	0,00055611894590655968	0,20020282295025581	0,000417710951	-0,6352230308332023	0,023701025346835155	0,47770056999211699
1	1	0	0	0	0	2	32720,2127	0,200000003	2,09019089	0,00055611922007799155	0,20020292165197245	0,000418462325	-0,60908564038050688	0,022725804166949872	0,50383796044481222
1	1	0	0	0	0	2	33190,2128	0,200000003	2,09055281	0,00055612216362439923	0,20020397853187475	0,000418536976	-0,5829480999224064	0,021750577390161242	0,52997550090291277
1	1	0	0	0	0	2	33660,2128	0,200000003	2,09817123	0,00055611637338664794	0,20020189404628819	0,000420057855	-0,55681041267298925	0,020775345136391222	0,55611318815232992
1	1	0	0	0	0	2	34130,2128	0,200000003	2,10093284	0,00055612135232488314	0,2002036864640495	0,000420614495	-0,5306728842695273	0,019800118809377363	0,58225071655579187
1	1	0	0	0	0	2	34600,2128	0,200000003	2,10965586	0,00055611404260413517	0,20020105496458515	0,000422355341	-0,50453557977623584	0,018824900836753018	0,60838802104908326
1	1	0	0	0	0	2	35070,2128	0,200000003	2,11186504	0,00055611516017301216	0,2002014572893801	0,000422798446	-0,47839815492997754	0,017849678373597658	0,63452544589534234
1	1	0	0	0	0	2	35540,2128	0,200000003	2,11357927	0,00055611608156065152	0,20020178898892966	0,000423142337	-0,45226068439102854	0,016874454205586576	0,66066291643429158
1	1	0	0	0	0	2	36010,2128	0,200000003	2,11940718	0,00055611250640617472	0,20020050193332042	0,000424306374	-0,42612350735984435	0,015899240988744826	0,68680009346547546
1	1	0	0	0	0	2	36480,2128	0,200000003	2,12595892	0,00055611126760890086	0,20020005596630262	0,000425617094	-0,39998621567880397	0,014924023494162794	0,71293738514651584
1	1	0	0	0	0	2	36950,2128	0,200000003	2,1384151	0,00055610674208402637	0,20019842677735085	0,000428107334	-0,3738490806552937	0,013948811844683832	0,73907452017002637
1	1	0	0	0	0	2	37420,2128	0,200000003	2,1555562	0,00055610435816231706	0,20019756856553712	0,000431537104	-0,34771171666899622	0,012973591652295442	0,76521188415632422
1	1	0	0	0	0	2	37890,2128	0,200000003	2,14925218	0,0005561187560516928	0,20020275180570272	0,000430286193	-0,32157422317391744	0,011998366627760291	0,79134937765140275
1	1	0	0	0	0	2	38360,2128	0,200000003	2,15536571	0,00055610756845358349	0,20019872427039088	0,000431501452	-0,29543686138707667	0,011023146517436587	0,8174867394382432
1	1	0	0	0	0	2	38830,2128	0,200000003	2,15949869	0,00055610470356626643	0,20019769291095866	0,000432326662	-0,26929970458574355	0,010047934055397779	0,84362389623957606
1	1	0	0	0	0	2	39300,2128	0,200000003	2,16161275	0,0005561087121317785	0,20019913599454029	0,000432753004	-0,24316257689001914	0,0090727226793283648	0,86976102393530035
1	1	0	0	0	0	2	39770,2128	0,200000003	2,1634984	0,00055610690982888141	0,20019848716549856	0,000433129113	-0,21702543889039674	0,0080975109188066637	0,89589816193492326
1	1	0	0	0	0	2	40240,2128	0,200000003	2,16582203	0,00055611076899038426	0,20019987646363699	0,000433597306	-0,1908882639283033	0,0071222977791654694	0,92203533689701696
1	1	0	0	0	0	2	40710,2128	0,200000003	2,166641	0,00055611198436965542	0,20020031400017379	0,000433762209	-0,16475107937627683	0,0061470842817109811	0,94817252144904346
1	1	0	0	0	0	2	41180,2128	0,200000003	2,17311645	0,0005561078314218256	0,20019881893895786	0,00043505535	-0,13861379669732421	0,005171867123008944	0,97430980412799603
1	1	0	0	0	0	2	41650,2128	0,200000003	2,1778779	0,0005561084770725833	0,20019905137323018	0,000436009082	-0,1124765996859279	0,004196653160678615	1,0004470011393925
1	1	0	0	0	0	2	42120,2128	0,200000003	2,17780185	0,00055611149209737779	0,20020013678215418	0,000435996219	-0,086339284622524211	0,0032214347936691686	1,0265843162027965
1	1	0	0	0	0	2	42590,2128	0,200000003	2,18014431	0,00055611656794697056	0,20020196408800416	0,000436469185	-0,060201936920579034	0,0022462152088718557	1,0527216639047419
1	1	0	0	0	0	2	43060,2128	0,200000003	2,18570566	0,00055610902248819667	0,20019924772285062	0,000437576615	-0,034064626954119981	0,0012709970320362659	1,0788589738712011
1	1	0	0	0	0	2	43530,2128	0,200000003	2,19002914	0,00055610765133301421	0,20019875410698586	0,000438441115	-0,0079274330752358592	0,0002957831865841785	1,1049961677500853
1	1	0	0	0	0	2	44000,2128	0,200000003	2,19461918	0,00055612084601571162	0,2002035041927481	0,000439370458	0,018209720900330371	-0,00067942917002146803	1,1311333217256518
1	1	0	0	0	0	2	44470,2128	0,200000003	2,19863796	0,00055611379126956064	0,2002009644841385	0,000440169446	0,044346867656131706	-0,0016546412572479789	1,157270468481453
1	1	0	0	0	0	2	44940,2128	0,200000003	2,20692277	0,00055610813684430394	0,20019892889104986	0,000441823562	0,070484152859342656	-0,0026298585101334877	1,1834077536846642
1	1	0	0	0	0	2	45410,2128	0,200000003	2,21410322	0,00055611234506881901	0,20020044385187248	0,000443264435	0,096621499546575142	-0,0036050780570705056	1,2095451003718965
1	1	0	0	0	0	2	45880,2128	0,200000003	2,2227881	0,00055611482423792282	0,20020133635274819	0,000445005135	0,1227588189420535	-0,0045802965857154835	1,235682419767375
1	1	0	0	0	0	2	46350,2128	0,200000003	2,23036814	0,00055612478838447072	0,20020492344549872	0,00044653067	0,14889642729198934	-0,0055555258956397728	1,2618200281173107
1	1	0	0	0	0	2	46820,2128	0,200000003	2,24469066	0,00055611301260524326	0,2002006841649847	0,000449388608	0,17503379017035574	-0,0065307460466897664	1,2879573909956765
1	1	0	0	0	0	2	47290,2128	0,200000003	2,26632667	0,00055610512917902726	0,20019784613155229	0,000453713728	0,20117100235073357	-0,0075059605749951898	1,3140946031760539
1	1	0	0	0	0	2	47760,2128	0,200000003	2,31251287	0,00055611304201020134	0,20020069475076963	0,00046296668	0,22730839444120806	-0,0084811818159882138	1,3402319952665296
1	1	0	0	0	0	2	48230,2128	0,200000003	2,71357989	0,00055612200752149018	0,20020392233482762	0,000543269329	0,25344589531217843	-0,0094564071157277939	1,3663694961374998
1	0	0	1	0	0	1	48680,8450	-0,200000003	2,38770604	-0,0005520390892276903	-0,19873407175179744	0,000474518543	0,27739536335274835	-0,010349993968723706	0,0005520390892276903
1	0	0	1	0	0	1	49150,8450	-0,200000003	2,13087296	-0,00055480867401427693	-0,19973112227311149	0,00042560164	0,25131980958899712	-0,0093770799988432422	0,026627592852979046
1	0	0	1	0	0	1	49620,8450	-0,200000003	2,11935019	-0,00055478474245303213	-0,19972250691107939	0,000423281948	0,22524476741575731	-0,0084041851170926016	0,05270263502621897
1	0	0	1	0	0	1	50090,8450	-0,200000003	2,10203767	-0,00055479348374903206	-0,19972565377763354	0,000419830845	0,19916975768015235	-0,0074312914456337293	0,078777644761823949
1	0	0	1	0	0	1	50560,8450	-0,200000003	2,09116244	-0,00055479153857380154	-0,19972495351455187	0,000417657313	0,17309470086546691	-0,0064583960175910656	0,10485270157650938
1	0	0	1	0	0	1	51030,8450	-0,200000003	2,07152629	-0,00055479768006255226	-0,19972716445049798	0,000413740083	0,147019288365352	-0,0054854873184468045	0,1309281140766243
1	0	0	1	0	0	1	51500,8450	-0,200000003	2,05145192	-0,00055480135758055584	-0,1997284883569768	0,000409733388	0,12094365347847202	-0,0045125703217533363	0,15700374896350429
1	0	0	1	0	0	1	51970,8450	-0,200000003	2,02958727	-0,0005547860426248775	-0,19972297497294288	0,000405355211	0,094868569381026163	-0,0035396738757541997	0,18307883306095014
1	0	0	1	0	0	1	52440,8450	-0,200000003	2,00711322	-0,00055478986210707155	-0,19972434998653018	0,00040086938	0,068793629336979034	-0,0025667828045810512	0,20915377310499725
1	0	0	1	0	0	1	52910,8450	-0,200000003	1,97921109	-0,0005547943580001593	-0,19972596850803875	0,000395299838	0,042718373447544262	-0,0015938799487918317	0,23522902899443216
1	0	0	1	0	0	1	53380,8450	-0,200000003	1,94207168	-0,00055479092604087462	-0,19972473300269856	0,000387879758	0,016643253929250176	-0,00062098218119322342	0,26130414851272627
1	0	0	1	0	0	1	53850,8450	-0,200000003	1,9029516	-0,00055479049836264717	-0,19972457903853696	0,000380066194	-0,0094319657020616141	0,0003519193217566784	0,28737936814403798
1	0	0	1	0	0	1	54320,8450	-0,200000003	1,89139068	-0,00055478667716268032	-0,19972320340655149	0,000377754594	-0,035507473524315264	0,0013248315774980976	0,31345487596629171
1	0	0	1	0	0	1	54790,8450	-0,200000003	1,88857198	-0,00055479177053272723	-0,19972503701976496	0,000377195101	-0,061582894367731059	0,0022977405879421328	0,33953029680970765
1	0	0	1	0	0	1	55260,8450	-0,200000003	1,88765776	-0,00055481138647513261	-0,19973209875901773	0,000377025834	-0,08765860937989399	0,0032706605742176371	0,36560601182187059
1	0	0	1	0	0	1	55730,8450	-0,200000003	1,8892386	-0,00055480837812274694	-0,19973101575216086	0,000377339544	-0,1137343934134417	0,0042435831357738086	0,39168179585541837
1	0	0	1	0	0	1	56200,8450	-0,200000003	1,88653409	-0,00055479318738645978	-0,19972554708710768	0,000376789045	-0,1398101496532285	0,0052165046603073901	0,41775755209520486
1	0	0	1	0	0	1	56670,8450	-0,200000003	1,88508654	-0,00055479667127049632	-0,1997268012853585	0,000376502314	-0,16588564486312029	0,0061894164454646323	0,4438330473050967
1	0	0	1	0	0	1	57140,8450	-0,200000003	1,88205826	-0,00055479827631430502	-0,19972737910112858	0,000375898555	-0,19196110420593034	0,0071623268923728294	0,46990850664790675
1	0	0	1	0	0	1	57610,8450	-0,200000003	1,87752533	-0,00055480490786747802	-0,1997297664602664	0,000374997704	-0,21803655601711728	0,0081352370582660416	0,49598395845909363
1	0	0	1	0	0	1	58080,8450	-0,200000003	1,87289727	-0,00055480224289248384	-0,1997288070692703	0,000374071533	-0,24411197296374365	0,0091081459233156237	0,52205937540572
1	0	0	1	0	0	1	58550,8450	-0,200000003	1,86950707	-0,0005548068788424135	-0,19973047601124182	0,000373397546	-0,27018730835469552	0,010081051745413338	0,54813471079667187
1	0	0	1	0	0	1	59020,8450	-0,200000003	1,86796439	-0,00055480342844625306	-0,1997292338686264	0,000373087096	-0,29626286303208416	0,011053965749382842	0,57421026547406061
1	0	0	1	0	0	1	59490,8450	-0,200000003	1,8610698	-0,0005548076122825344	-0,1997307400496849	0,000371712842	-0,32233846929539642	0,012026881678092514	0,6002858717373728
1	0	0	1	0	0	1	59960,8450	-0,200000003	1,85630834	-0,00055480728128469651	-0,19973062089046349	0,000370761612	-0,34841407599237549	0,012999797622982877	0,62636147843435187
1	0	0	1	0	0	1	60430,8450	-0,200000003	1,85190868	-0,00055480181678136192	-0,19972865366926669	0,000369879242	-0,37448985026899885	0,013972719820495078	0,65243725271097485
1	0	0	1	0	0	1	60900,8450	-0,200000003	1,84491897	-0,00055480093003809453	-0,19972833444169104	0,000368482579	-0,40056547848050778	0,014945636568121478	0,67851288092248384
1	0	0	1	0	0	1	61370,8450	-0,200000003	1,83770061	-0,00055479866904185869	-0,19972752048304762	0,000367039378	-0,42664124203390381	0,015918558365535658	0,70458864447587955
1	0	0	1	0	0	1	61840,8450	-0,200000003	1,82987273	-0,00055480161176621914	-0,19972857986381539	0,00036547787	-0,45271691586575245	0,016891476815318266	0,73066431830772851
1	0	0	1	0	0	1	62310,8450	-0,200000003	1,82396853	-0,00055480231735193062	-0,19972883387467107	0,000364299107	-0,47879269031319942	0,017864399019204131	0,75674009275517555
1	0	0	1	0	0	1	62780,8450	-0,200000003	1,81219816	-0,00055479615513649248	-0,19972661547711747	0,0003619442	-0,50486852170561427	0,018837323347783309	0,78281592414759014
1	0	0	1	0	0	1	63250,8450	-0,200000003	1,80296099	-0,00055479388355712096	-0,19972579770854525	0,000360097823	-0,53094364960709818	0,01981022142817	0,80889105204907405
1	0	0	1	0	0	1	63720,8450	-0,200000003	1,79052389	-0,0005547788599158327	-0,19972038919769155	0,00035760412	-0,55701844718111392	0,020783107183594726	0,83496584962308979
1	0	0	1	0	0	1	64190,8450	-0,200000003	1,77804887	-0,00055478645234803366	-0,19972312247327882	0,00035511746	-0,58309329064315213	0,021755994651163264	0,86104069308512794
1	0	0	1	0	0	1	64660,8450	-0,200000003	1,76073623	-0,00055477389890452224	-0,1997186032336231	0,000351651775	-0,6091680852819008	0,022728880297069226	0,88711548772387674
1	0	0	1	0	0	1	65130,8450	-0,200000003	1,74191892	-0,0005547698960238032	-0,19971716219656698	0,000347891095	-0,63524282328436941	0,023701763829799434	0,91319022572634534
1	0	0	1	0	0	1	65600,8462	-0,200000003	1,71828306	-0,00055479032835033203	-0,19972057123257088	0,000343176478	-0,66131749055326822	0,02467464472336505	0,93926489299524416
1	0	0	1	0	0	1	66070,8555	-0,200000003	1,68451476	-0,000554784050097896	-0,19971831067856301	0,000336428435	-0,68739293878940518	0,025647554755868339	0,96534034123138112
1	0	0	1	0	0	1	66540,8648	-0,200000003	1,63368142	-0,00055478589521182906	-0,19971897477160134	0,000326277164	-0,71346799133452083	0,026620450024607613	0,99141539377649664
1	0	0	1	0	0	1	67004,2453	-0,200000003	1,49996078	-0,00018703682946330973	-0,19971903186857955	0,000299570704	-0,7391753493594889	0,027579626116429638	1,0171227518014645
1	1	0	0	0	0	2	67464,2550	0,200000003	2,10190415	0,0005561363170883721	0,2002051177842185	0,000420811964	-0,71359310525981824	0,02662511819337792	0,025582244099670816
1	1	0	0	0	0	2	67934,2642	0,200000003	2,08904815	0,00055612844391498291	0,20020228349547776	0,000418232201	-0,68745506075583027	0,025649872609959533	0,051720288603659309
1	1	0	0	0	0	2	68404,2735	0,200000003	2,08765793	0,00055612168791476218	0,200199851383752	0,000417948817	-0,6613171893204311	0,024674633483962886	0,07785816003905815
1	1	0	0	0	0	2	68874,2828	0,200000003	2,10483718	0,00055611477529009178	0,20019736248689994	0,000421382865	-0,63517955356231808	0,023699403151402653	0,10399579579717168
1	1	0	0	0	0	2	69344,2921	0,200000003	2,09851408	0,00055612755067149798	0,20020196119071261	0,000420126627	-0,60904188863296064	0,02272417173042407	0,13013346072652934
1	1	0	0	0	0	2	69814,3014	0,200000003	2,1048944	0,00055612406027317043	0,20020070467215018	0,000421401346	-0,58290387986705638	0,021748927480441635	0,15627146949243373
1	1	0	0	0	0	2	70284,3107	0,200000003	2,10959864	0,00055612692366457645	0,20020173547035165	0,0004223453	-0,55676587993027603	0,020773683559885683	0,18240946942921389
1	1	0	0	0	0	2	70754,3200	0,200000003	2,11717892	0,00055611718882703123	0,20019823108200278	0,000423855468	-0,53062802263966656	0,019798444961650157	0,20854732671982374
1	1	0	0	0	0	2	71224,3293	0,200000003	2,11975002	0,0005561160745198528	0,20019783036001382	0,000424369355	-0,5044903156279248	0,018823211970521235	0,2346850337315656
1	1	0	0	0	0	2	71694,3386	0,200000003	2,12344503	0,00055612134946882726	0,20019972954766237	0,000425113132	-0,47835259898102342	0,017847978619891555	0,26082275037846691
1	1	0	0	0	0	2	72164,3478	0,200000003	2,12637806	0,00055612209125442637	0,20019999658520096	0,000425700884	-0,45221461385265562	0,016872735251857382	0,28696073550683475
1	1	0	0	0	0	2	72634,3571	0,200000003	2,12974906	0,00055612084547181933	0,20019954811232496	0,000426374812	-0,42607677287667072	0,015897497262342435	0,31309857648281965
1	1	0	0	0	0	2	73104,3664	0,200000003	2,13847208	0,00055613454738590451	0,20020448048717027	0,000428131694	-0,39993870500054438	0,014922250806878141	0,33923664435894598
1	1	0	0	0	0	2	73574,3757	0,200000003	2,14294791	0,00055612771463311379	0,20020202032526643	0,000429022504	-0,37380064815607578	0,013947004763019824	0,36537470120341459
1	1	0	0	0	0	2	74044,3850	0,200000003	2,14323354	0,00055611943620112211	0,20019904003911472	0,00042907329	-0,34766274991986483	0,012971764637048854	0,39151259943962554
1	1	0	0	0	0	2	74514,3943	0,200000003	2,14479542	0,00055612482821527456	0,20020098112584349	0,000429390144	-0,32152482801519328	0,011996523627975798	0,41765052134429709
1	1	0	0	0	0	2	74984,4036	0,200000003	2,14748073	0,00055613744693911731	0,20020552377664003	0,0004299375	-0,29538660440932787	0,011021271362025557	0,44378874495016243
1	1	0	0	0	0	2	75454,4129	0,200000003	2,15553713	0,00055613358139329485	0,2002041325222847	0,000431547436	-0,2692485948051015	0,010046027080764194	0,46992675455438886
1	1	0	0	0	0	2	75924,4222	0,200000003	2,15490866	0,00055612687854054912	0,20020171996249523	0,000431416411	-0,2431105757717209	0,0090707824476884096	0,49606477358776954
1	1	0	0	0	0	2	76394,4314	0,200000003	2,16585994	0,00055613239306459821	0,20020370516124486	0,000433613197	-0,2169725467310175	0,0080955374412259584	0,52220280262847283
1	1	0	0	0	0	2	76864,4407	0,200000003	2,16092706	0,0005561338761465417	0,20020423906252448	0,000432626752	-0,19083436776029149	0,0071202868406727808	0,54834098159919917
1	1	0	0	0	0	2	77334,4500	0,200000003	2,16854548	0,0005561264465658201	0,20020156442902918	0,000434146204	-0,16469639388283325	0,0061450438924251725	0,57447895547665754
1	1	0	0	0	0	2	77804,4593	0,200000003	2,16486955	0,00055613719401756922	0,20020543302267514	0,000433418638	-0,13855815026205587	0,005169790879691655	0,60061719909743475
1	1	0	0	0	0	2	78274,4686	0,200000003	2,16534567	0,00055613295842210458	0,20020390794041357	0,000433510664	-0,11241999546801026	0,004194541181202928	0,62675535389148019
1	1	0	0	0	0	2	78744,4779	0,200000003	2,16904068	0,00055612960979921952	0,20020270245971034	0,000434247806	-0,086281948120655053	0,0032192954916946835	0,65289340123883571
1	1	0	0	0	0	2	79214,4872	0,200000003	2,29700971	0,0005561241708621383	0,20020074448339174	0,000459863048	-0,060143998291967424	0,0022440534407390422	0,67903135106752333
1	1	0	0	0	0	2	79684,4965	0,200000003	2,27522111	0,0005561253889153401	0,20020118310439123	0,000455501955	-0,034006056065636134	0,0012688116734375368	0,70516929329385472
1	1	0	0	0	0	2	80154,5058	0,200000003	2,25394702	0,00055612485071768365	0,20020098976724986	0,000451242435	-0,0078679301862772134	0,00029356305379464634	0,73130741917321357
1	1	0	0	0	0	2	80624,5150	0,200000003	2,23450112	0,00055612826178057338	0,20020221792838595	0,000447352068	0,018270070167819907	-0,00068168088233195571	0,75744541952731098
1	1	0	0	0	0	2	81094,5243	0,200000003	2,2244451	0,00055614316439297466	0,20020758276749418	0,000445350772	0,044408616974017094	-0,0016569452073211238	0,78358396633350835
1	1	0	0	0	0	2	81564,5336	0,200000003	2,22377849	0,00055613467068887411	0,20020452509211174	0,00044521052	0,070547106702842893	-0,0026322074026768243	0,80972245606233421
1	1	0	0	0	0	2	82034,5429	0,200000003	2,21779799	0,000556125014907784	0,20020104881392224	0,000444005476	0,096685259251589837	-0,003607457017390439	0,8358606086110816
1	1	0	0	0	0	2	82504,5522	0,200000003	2,21918845	0,00055613055456512499	0,20020304263630205	0,000444288278	0,12282325965164298	-0,0045827009552317222	0,86199860901113459
1	1	0	0	0	0	2	82974,5615	0,200000003	2,22124529	0,00055613405275262067	0,20020430189132147	0,000444702862	0,14896140923370115	-0,0055579504592541901	0,88813675859319283
1	1	0	0	0	0	2	83444,5708	0,200000003	2,2253592	0,00055613935490200922	0,20020621062737459	0,000445530721	0,17509971006456048	-0,0065332056065727859	0,91427505942405235
1	1	0	0	0	0	2	83914,5801	0,200000003	2,23170137	0,00055612506571494867	0,20020106662170566	0,000446788996	0,20123811243884128	-0,0075084645426129613	0,94041346179833331
1	1	0	0	0	0	2	84384,5894	0,200000003	2,23434877	0,00055612517649680371	0,20020110686828966	0,000447319093	0,22737605352931491	-0,0084837062675340915	0,96655140288880704
1	1	0	0	0	0	2	84854,5986	0,200000003	2,2392056	0,00055613078141709171	0,20020312498193843	0,000448295963	0,25351396171797085	-0,0094589467648441651	0,99268931107746291
1	1	0	0	0	0	2	85324,6079	0,200000003	2,24926162	0,0005561317207341392	0,20020346312706262	0,000450309977	0,27965210926407507	-0,010434196192902454	1,0188274586235672
1	1	0	0	0	0	2	85794,6172	0,200000003	2,26286054	0,00055613870381232762	0,20020597698582397	0,000453038199	0,30579023361561472	-0,011409444755540352	1,0449655829751075
1	1	0	0	0	0	2	86264,6265	0,200000003	2,28114438	0,00055613067274954579	0,20020308578548438	0,000456692156	0,3319284398620784	-0,012384696373787976	1,071103789221572
1	1	0	0	0	0	2	86734,6358	0,200000003	2,31927419	0,00055612715028226374	0,20020181730514307	0,000464322919	0,3580666260072624	-0,013359947242029829	1,0972419753667562
1	1	0	0	0	0	2	87204,6451	0,200000003	2,40520883	0,00055613097649978266	0,2002031944645191	0,0004815305	0,38420449257747936	-0,014335186186499986	1,1233798419369731
1	1	0	0	0	0	2	87674,6544	0,200000003	3,36768985	0,0005561332532597913	0,20020401407959158	0,000674225041	0,41034278503622886	-0,01531044102144391	1,1495181343957226
1	0	0	1	0	0	1	88128,8871	-0,200000003	2,12470222	-0,00055479299987687002	-0,19972153314446979	0,000424348778	0,39005505808271149	-0,014553478651669181	0,022744329953773955
1	0	0	1	0	0	1	88598,8964	-0,200000003	2,10615158	-0,0005547904031864471	-0,1997205983543905	0,000420641853	0,3639795488168631	-0,013580566342065302	0,048819839219622285
1	0	0	1	0	0	1	89068,9056	-0,200000003	2,09059119	-0,00055479664063619238	-0,19972284378960038	0,000417538831	0,33790394550281946	-0,012607650523396805	0,074895442533666022
1	0	0	1	0	0	1	89538,9149	-0,200000003	2,07063103	-0,00055480795237173632	-0,199726915701416	0,000413560745	0,31182832583863219	-0,01163473409468247	0,10097106219785326
1	0	0	1	0	0	1	90008,9242	-0,200000003	2,05573726	-0,00055480637274185811	-0,1997263466297097	0,000410584878	0,28575269269859382	-0,010661817163166013	0,12704669533789157
1	0	0	1	0	0	1	90478,9335	-0,200000003	2,04069114	-0,00055479692510598234	-0,19972294545501482	0,000407572836	0,25967719162774189	-0,0096889051593284685	0,15312219640874374
1	0	0	1	0	0	1	90948,9428	-0,200000003	2,03114915	-0,00055480763602753485	-0,1997268013105616	0,000405674917	0,23360155953813949	-0,0087159882670051878	0,17919782849834621
1	0	0	1	0	0	1	91418,9521	-0,200000003	2,00538015	-0,0005548020765334368	-0,19972479992991907	0,00040052415	0,207525796149884	-0,0077430664757526272	0,2052735918866017
1	0	0	1	0	0	1	91888,9614	-0,200000003	1,96987855	-0,00055480002673715354	-0,19972406235293971	0,000393432158	0,18144964478699552	-0,0067701302086448717	0,23134974324949018
1	0	0	1	0	0	1	92358,9707	-0,200000003	1,9285872	-0,00055480299963802099	-0,19972513298502054	0,000385187333	0,15537374744815645	-0,0057972034195159411	0,25742564058832918
1	0	0	1	0	0	1	92828,9800	-0,200000003	1,88914335	-0,00055480435635315046	-0,19972562139514048	0,000377310324	0,12929777721235494	-0,0048242739105033286	0,2835016108241305
1	0	0	1	0	0	1	93298,9892	-0,200000003	1,85377526	-0,00055481902874095571	-0,19973090335037066	0,000370256195	0,10322167971002651	-0,0038513396530054854	0,30957770832645901
1	0	0	1	0	0	1	93768,9985	-0,200000003	1,85508943	-0,00055483178666647936	-0,19973549606397014	0,00037052721	0,077145306312616627	-0,002878395101491209	0,33565408172386906
1	0	0	1	0	0	1	94239,0078	-0,200000003	1,85807955	-0,00055481742013990874	-0,19973032379837872	0,000371114817	0,051068702035383334	-0,0019054419355402998	0,36173068600110221
1	0	0	1	0	0	1	94709,0171	-0,200000003	1,86257434	-0,00055481084930234477	-0,19972795806430445	0,000372008159	0,024992417927355523	-0,00093250071553291891	0,38780697010913018
1	0	0	1	0	0	1	95179,0264	-0,200000003	1,86527896	-0,00055480936305473248	-0,19972742302806432	0,000372547365	-0,0010839869026590179	4,0445008774099142E-005	0,41388337493914477
1	0	0	1	0	0	1	95649,0357	-0,200000003	1,86838341	-0,00055481763308826419	-0,19973040018129139	0,000373172952	-0,027160457359476109	0,0010133931817053565	0,43995984539596186
1	0	0	1	0	0	1	96119,0450	-0,200000003	1,87009752	-0,00055481650951670278	-0,1997299958500063	0,000373514573	-0,053237091303098419	0,001986347454549127	0,46603647933958419
1	0	0	1	0	0	1	96589,0543	-0,200000003	1,87253535	-0,00055482633243087264	-0,19973353244774493	0,000374008087	-0,079313610847087258	0,002959297458988761	0,49211299888357299
1	0	0	1	0	0	1	97059,0636	-0,200000003	1,87607789	-0,00055481404329422445	-0,19972910862385146	0,000374707364	-0,10539004425635011	0,0039322442496259584	0,51818943229283622
1	0	0	1	0	0	1	97529,0728	-0,200000003	1,87607789	-0,00055482211170759462	-0,19973201319642838	0,000374712807	-0,1314663162762505	0,0049051850186090522	0,54426570431273645
1	0	0	1	0	0	1	97999,0821	-0,200000003	1,87543035	-0,00055481941945023008	-0,19973104400292992	0,000374581665	-0,1575427910106695	0,0058781333511433882	0,57034217904715533
1	0	0	1	0	0	1	98469,0914	-0,200000003	1,87428761	-0,00055480082891798682	-0,1997243512645697	0,000374340889	-0,18361876822026486	0,0068510631203576256	0,59641815625675046
1	0	0	1	0	0	1	98939,1007	-0,200000003	1,87324011	-0,00055481317706240544	-0,19972879608786547	0,000374139985	-0,20969468967744221	0,007823990809374185	0,62249407771392755
1	0	0	1	0	0	1	99409,1100	-0,200000003	1,87522078	-0,00055481312387519411	-0,19972877689434579	0,000374535564	-0,23577078497934925	0,0087969249847713485	0,64857017301583475
1	0	0	1	0	0	1	99879,1193	-0,200000003	1,87573504	-0,00055481678677433069	-0,19973009551197203	0,000374640746	-0,26184709702526022	0,009769867247178711	0,6746464850617463
1	0	0	1	0	0	1	100349,1286	-0,200000003	1,87184966	-0,00055482150486939482	-0,19973179399494931	0,000373867893	-0,28792355531315238	0,010742814966071019	0,70072294334963866
1	0	0	1	0	0	1	100819,1379	-0,200000003	1,86583126	-0,00055482129021816787	-0,19973171710335744	0,000372665672	-0,31399991694982656	0,011715759078776435	0,72679930498631283
1	0	0	1	0	0	1	101289,1472	-0,200000003	1,8637172	-0,0005548218440504537	-0,19973191683943661	0,000372243812	-0,34007633531417178	0,012688705308067528	0,75287572335065805
1	0	0	1	0	0	1	101759,1564	-0,200000003	1,85059452	-0,00055481214545087686	-0,19972842541287571	0,000369616318	-0,36615262271314016	0,013661646650864323	0,77895201074962611
1	0	0	1	0	0	1	102229,1657	-0,200000003	1,83269155	-0,00055481900257203309	-0,19973089392741958	0,000366045133	-0,39222911253625395	0,01463459554637815	0,80502850057274048
1	0	0	1	0	0	1	102699,1750	-0,200000003	1,80894136	-0,0005548021489290727	-0,19972482664517392	0,000361290498	-0,41830549581463059	0,015607540466564582	0,83110488385111706
1	0	0	1	0	0	1	103169,1843	-0,200000003	1,78774321	-0,00055480919562280179	-0,1997273629955696	0,000357061246	-0,44438138286627002	0,016580466871864266	0,85718077090275597
1	0	0	1	0	0	1	103639,1936	-0,200000003	1,71367395	-0,00055480821779039181	-0,19972701073872557	0,000342266983	-0,47045726932157011	0,017553393254913725	0,88325665735805542
1	0	0	1	0	0	1	104109,2029	-0,200000003	1,6178354	-0,00055480716365410227	-0,19972663125745251	0,000323124812	-0,49653311048265165	0,018526317947974992	0,90933249851913626
1	1	0	0	0	0	2	104560,2746	0,200000003	2,21267462	0,00055612949652638688	0,20020266242926019	0,00044298335	-0,51378182298553587	0,019169890602598208	0,0038928849917468096
1	1	0	0	0	0	2	105030,2839	0,200000003	2,17978263	0,00055612840707186195	0,20020227023454691	0,000436397444	-0,48764393127591341	0,01819465072014303	0,030030776701369216
1	1	0	0	0	0	2	105500,2932	0,200000003	2,17896366	0,00055612816063811386	0,2002021814548935	0,000436233269	-0,46150599148423885	0,017219409043681843	0,056168716493043654
1	1	0	0	0	0	2	105970,3024	0,200000003	2,17448783	0,0005561157393968768	0,20019770947691347	0,000435327471	-0,43536851934566842	0,016244184815986736	0,082306188631614093
1	1	0	0	0	0	2	106440,3117	0,200000003	2,18084908	0,0005561154068774647	0,20019758950893763	0,000436600734	-0,40923094170272589	0,015268956651781651	0,10844376627455658
1	1	0	0	0	0	2	106910,3210	0,200000003	2,18530583	0,00055612075865020365	0,20019951610904381	0,000437497161	-0,38309338937887123	0,014293729432265779	0,13458131859841115
1	1	0	0	0	0	2	107380,3303	0,200000003	2,1941812	0,00055611946523851814	0,20019905049237072	0,00043927299	-0,35695567645114304	0,013318496220403451	0,1607190315261393
1	1	0	0	0	0	2	107850,3396	0,200000003	2,2039516	0,000556123427791728	0,20020047715113402	0,000441232172	-0,33081797923171155	0,012343263594638794	0,18685672874557069
1	1	0	0	0	0	2	108320,3489	0,200000003	2,21124625	0,00055612902861668	0,20020249381845523	0,000442697026	-0,30467990564758035	0,011368016926201162	0,21299480232970176
1	1	0	0	0	0	2	108790,3582	0,200000003	2,22602582	0,00055613703643033894	0,2002053767398785	0,000445662328	-0,27854168702358384	0,010392764846131146	0,2391330209536985
1	1	0	0	0	0	2	109260,3675	0,200000003	2,22760653	0,00055613078559852314	0,20020312648489338	0,000445973797	-0,2524036757107505	0,00941752050111936	0,26527103226653181
1	1	0	0	0	0	2	109730,3768	0,200000003	2,25674677	0,00055613208275039994	0,20020359345034106	0,000451808824	-0,22626555610568278	0,008442272115578711	0,29140915187159942
1	1	0	0	0	0	2	110200,3860	0,200000003	2,25627065	0,0005561260766097241	0,20020143098643875	0,00045170862	-0,20012722602397229	0,0074670158768715302	0,31754748195331002
1	1	0	0	0	0	2	110670,3953	0,200000003	2,27383089	0,00055611602460675763	0,20019781191738506	0,000455215981	-0,17398931963552982	0,0064917754467298419	0,34368538834175258
1	1	0	0	0	0	2	111140,4046	0,200000003	2,27615452	0,00055612253587527398	0,20020015589742355	0,000455686502	-0,14785129838971155	0,0055165307311050342	0,36982340958757075
1	1	0	0	0	0	2	111610,4139	0,200000003	2,28249669	0,00055613330283098752	0,2002040319251608	0,000456965034	-0,12171317832576515	0,0045412823284430035	0,39596152965151731
1	1	0	0	0	0	2	112080,4232	0,200000003	2,28558207	0,00055613374866627987	0,20020419242240246	0,000457583112	-0,095574997652304973	0,0035660316643585242	0,42209971032497747
1	1	0	0	0	0	2	112550,4325	0,200000003	2,30594206	0,00055613234746207795	0,20020368840205914	0,000461658114	-0,069436664353692954	0,002590775305624423	0,4482380436235895
1	1	0	0	0	0	2	113020,4418	0,200000003	2,31965518	0,0005561302231715785	0,20020292401752506	0,000464401761	-0,043298288212264864	0,0016155173483672506	0,47437641976501766
1	1	0	0	0	0	2	113490,4511	0,200000003	2,31272244	0,00055612471312367251	0,20020094043947754	0,000463009201	-0,01716019660377945	0,0006402700074167287	0,5005145113735031
1	1	0	0	0	0	2	113960,4604	0,200000003	2,32264519	0,00055612678369548589	0,20020168582826963	0,000464997487	0,0089776771833786125	-0,00033496920632720608	0,52665238516066106
1	1	0	0	0	0	2	114430,4696	0,200000003	2,3576324	0,00055612564880649254	0,2002012771644367	0,000472001004	0,035115644159201658	-0,001310211897065525	0,55279035213648422
1	1	0	0	0	0	2	114900,4789	0,200000003	2,31335092	0,00055611967395742739	0,20019912584410614	0,000463130826	0,061253481612962688	-0,0022854497551615658	0,57892818959024512
1	1	0	0	0	0	2	115370,4882	0,200000003	2,31028461	0,00055612132399280864	0,20019971963068957	0,000462518336	0,087391501490078554	-0,0032606944197182458	0,60506620946736115
1	1	0	0	0	0	2	115840,4975	0,200000003	2,31215096	0,0005561103839808039	0,20019578130421005	0,000462882861	0,11352929748934477	-0,0042359307310913485	0,63120400546662707
1	1	0	0	0	0	2	116310,5068	0,200000003	2,31714106	0,00055611667824288205	0,20019804719144163	0,000463887118	0,13966692137510958	-0,0052111606206783053	0,65734162935239168
1	1	0	0	0	0	2	116780,5161	0,200000003	2,33022547	0,00055613506994893152	0,20020466828917482	0,000466522004	0,16580490352590509	-0,0061864038776152499	0,68347961150318733
1	1	0	0	0	0	2	117250,5254	0,200000003	2,34618592	0,00055613150545706355	0,20020338550765421	0,000469714374	0,19194295472702675	-0,0071616497109127014	0,70961766270430925
1	1	0	0	0	0	2	117720,5347	0,200000003	2,35447073	0,00055613271566314829	0,20020382129675853	0,000471374049	0,21808105948967773	-0,0081368975426628262	0,73575576746696038
1	1	0	0	0	0	2	118190,5440	0,200000003	2,41345572	0,00055613426875323053	0,20020438039813942	0,000483184413	0,24421924432645446	-0,0091121483620862451	0,76189395230373696
1	1	0	0	0	0	2	118660,5532	0,200000003	2,43301582	0,00055612194654593869	0,20019994448884429	0,000487089623	0,27035762723531293	-0,010087406571845344	0,78803233521259558
1	1	0	0	0	0	2	119130,5625	0,200000003	2,42553091	0,0005561378080132935	0,20020565416893014	0,000485605007	0,29649576830054067	-0,011062655758093418	0,81417047627782298
1	1	0	0	0	0	2	119600,5718	0,200000003	2,48424911	0,00055613579050285952	0,20020492746904272	0,000497358909	0,32263409047742822	-0,012037911701861026	0,84030879845471078
1	1	0	0	0	0	2	120070,5811	0,200000003	2,58155417	0,00055613223119576781	0,20020364614614611	0,000516836531	0,34877253134360467	-0,013013172074085581	0,86644723932088691
1	0	0	1	0	0	1	120523,6896	-0,200000003	2,04465246	-0,00055478587359438336	-0,19971896773114618	0,000408355874	0,36508346702689037	-0,013621755014715235	0,0044355896353435629
1	0	0	1	0	0	1	120993,6989	-0,200000003	1,98867679	-0,00055479488602777325	-0,19972221214537683	0,000397182914	0,33900827710538144	-0,012648854620278026	0,030510779556852627
1	0	0	1	0	0	1	121463,7082	-0,200000003	1,96237457	-0,00055479568646351488	-0,1997225002965495	0,000391930342	0,31293269912364621	-0,011675939746792018	0,056586357538587891
1	0	0	1	0	0	1	121933,7175	-0,200000003	1,90468466	-0,00055480290023734176	-0,19972509703407882	0,000380413316	0,28685707360175373	-0,010703023099518826	0,082661983060480371
1	0	0	1	0	0	1	122403,7268	-0,200000003	1,81935942	-0,00055481690590414733	-0,1997301385655576	0,00036338091	0,26078115915005197	-0,0097300956718859763	0,10873789751218211
1	0	0	1	0	0	1	122873,7360	-0,200000003	1,72096848	-0,00055479942127896678	-0,19972384405720298	0,00034371845	0,23470570473646662	-0,0087571854088937805	0,13481335192576752
1	0	0	1	0	0	1	123343,7453	-0,200000003	1,54370904	-0,00055480771788623597	-0,19972683077911155	0,000308320101	0,2086303145002553	-0,007784277540445696	0,16088874216197885
1	1	0	0	0	0	2	123800,6734	0,200000003	2,29045773	0,0005561357200104329	0,20020490283807738	0,000458560855	0,22216322031456432	-0,0082892084515629478	0,019464662714218931
1	1	0	0	0	0	2	124270,6827	0,200000003	2,30649447	0,0005561422913190391	0,20020726846475779	0,000461776945	0,24830167135861715	-0,0092644692035377574	0,04560311375827177
1	1	0	0	0	0	2	124740,6920	0,200000003	2,31308436	0,00055613464438087411	0,20020451562608016	0,000463089935	0,27443996282559318	-0,010239724001477277	0,071741405225248
1	1	0	0	0	0	2	125210,7013	0,200000003	2,33245397	0,00055614341355115181	0,20020767233680883	0,00046697518	0,3005783601018919	-0,011214982747304888	0,097879802501546842
1	1	0	0	0	0	2	125680,7106	0,200000003	2,30108547	0,00055613276741902035	0,20020383938779734	0,000460686133	0,32671673034823373	-0,012190240484608466	0,12401817274788848
1	1	0	0	0	0	2	126150,7199	0,200000003	2,31152248	0,00055613880918754477	0,20020601417521565	0,000462780707	0,35285522236674291	-0,013165502765395331	0,15015666476639763
1	1	0	0	0	0	2	126620,7292	0,200000003	2,31274152	0,00055612657048222093	0,2002016083295473	0,000463014585	0,37899352214403962	-0,014140757873404088	0,17629496454369434
1	1	0	0	0	0	2	127090,7385	0,200000003	2,45095706	0,00055613162270519469	0,20020342708920816	0,000490689999	0,40513165693066765	-0,015116006825389165	0,20243309933032262
1	1	0	0	0	0	2	127560,7477	0,200000003	2,37835431	0,00055612526138623552	0,20020113727872262	0,000476149231	0,43126989102873018	-0,016091259482817389	0,22857133342838531
1	1	0	0	0	0	2	128030,7570	0,200000003	2,94188213	0,00055612687145339123	0,20020171731794445	0,000588969851	0,45740807144858106	-0,017066510137439363	0,25470951384823603
1	0	0	1	0	0	1	128484,1563	-0,200000003	1,84888041	-0,00055479607672906592	-0,19972264044323242	0,000369263289	0,44707279517796582	-0,016680887083855978	0,017750738446284269
1	0	0	1	0	0	1	128954,1656	-0,200000003	1,65331769	-0,0005547940733151303	-0,19972191882827459	0,000330203795	0,42099783670937126	-0,015707995325238189	0,043825696914878746
1	1	0	0	0	0	2	129409,4145	0,200000003	2,42025518	0,0005561330877956416	0,20020395480296509	0,000484544667	0,42240392139293018	-0,015760458235282736	0,013347222300507126
1	1	0	0	0	0	2	129879,4238	0,200000003	2,38067794	0,000556137604734136	0,20020558127858941	0,00047662502	0,4485423061050615	-0,016735716512324368	0,039485607012638624
1	1	0	0	0	0	2	130349,4331	0,200000003	2,40002847	0,00055613736305468608	0,2002054943246505	0,000480498886	0,47468052769481805	-0,01771096870305088	0,065623828602395149
1	1	0	0	0	0	2	130819,4424	0,200000003	2,4884963	0,0005561402477448185	0,20020653279257642	0,000498213223	0,50081900153620154	-0,018686230305624746	0,091762302443778381
1	1	0	0	0	0	2	131289,4473	0,200000003	2,94508195	0,0005561293694757753	0,20020654168652464	0,000589624688	0,52695727559264506	-0,019661484453953888	0,11790057650022211
1	1	0	0	0	0	2	131759,4474	0,200000003	2,51129413	0,00055612322953426176	0,2002043313079256	0,000502771989	0,55309524766113715	-0,020636727334706538	0,1440385485687141
1	1	0	0	0	0	2	132229,4475	0,200000003	2,71763659	0,00055612104243785146	0,20020354395334109	0,000544080453	0,5792329860289152	-0,021611961495771328	0,17017628693649174
1	0	0	1	0	0	1	132686,0732	-0,200000003	1,95028043	-0,00055477690660622381	-0,19971965512966541	0,00038950934	0,59018507750123366	-0,022020598753847126	0,0072093554277933722
1	0	0	1	0	0	1	133155,0928	-0,200000003	1,50017023	-0,0005003861050970025	-0,1997194661286383	0,000299613195	0,56416473918913958	-0,021049744946705955	0,03322969373988695
1	1	0	0	0	0	2	133615,0935	0,200000003	2,41962671	0,00055611287617352275	0,20020060409864272	0,000484410732	0,58974605138041498	-0,022004218099002486	0,025581312191275258
1	1	0	0	0	0	2	134085,0936	0,200000003	2,39842868	0,00055612857914302086	0,20020625716677757	0,000480180432	0,61588385199916659	-0,022979454582734797	0,051719112810027283
1	1	0	0	0	0	2	134555,0937	0,200000003	2,87775493	0,00055612676212439936	0,20020560304017619	0,000576142687	0,64202192386790963	-0,023954701187168995	0,077857184678770611
1	0	0	1	0	0	1	135010,9323	-0,200000003	1,67348731	-0,0005547593557627664	-0,19971333682700934	0,000334217737	0,63515628122769997	-0,023698534829308064	0,016085662994630394
1	1	0	0	0	0	2	135464,7710	0,200000003	2,3966763	0,00055613835909797082	0,2002097779500087	0,000479838025	0,64774936842932864	-0,024168399844386646	0,018908393452022637
1	1	0	0	0	0	2	135934,7711	0,200000003	2,44459581	0,00055613257905426944	0,20020769713460176	0,000489426893	0,67388742336065216	-0,025143645816862944	0,045046448383346189
1	1	0	0	0	0	2	136404,7711	0,200000003	3,08173585	0,00055612898158778752	0,20020640204687088	0,00061698322	0,7000254002413216	-0,026118888877164403	0,07118442526401577
1	0	0	1	0	0	1	136858,7846	-0,200000003	1,61956847	-0,00055476407197531718	-0,19971503466326198	0,000323452172	0,69861281297145626	-0,026066183346881942	0,013311652126703304
1	1	0	0	0	0	2	137316,2187	0,200000003	2,41494131	0,00055613795689245062	0,20020963315604403	0,000483494514	0,71545018472621722	-0,026694408325139165	0,021133088889001146
1	1	0	0	0	0	2	137786,2188	0,200000003	2,95287156	0,0005561227101302809	0,20020414432252173	0,000591177144	0,74158823279233574	-0,027669654041465437	0,047271136955119667
1	1	0	0	0	0	2	138231,3704	0,200000003	2,69367695	0,0005561279737386439	0,20020603922123594	0,000539290369	0,74303920164208077	-0,027723791640097792	0,0016683824330452416
1	1	0	0	0	0	2	138701,3705	0,200000003	3,14548206	0,00055612335841606067	0,20020437770536595	0,000629739254	0,76917720883935232	-0,028699035831552432	0,027806389630316864
1	1	0	0	0	0	2	139133,4006	0,200000003	2,42492127	0,00055613879902329715	0,20020993632310134	0,000485493336	0,7752981002269687	-0,028927414518850394	0,012791061669616235
1	1	0	0	0	0	2	139603,4006	0,200000003	2,97046995	0,00055613425276511245	0,20020829967041091	0,000594712736	0,8014362610275552	-0,029902664441451238	0,038929222470203187
1	1	0	0	0	0	2	140046,1391	0,200000003	3,26059508	0,00055613206180350643	0,20020751092435619	0,000652795599	0,82386276051385651	-0,030739427290034387	0,0016684064335690605
1	1	0	0	0	0	2	140059,6657	0,200000003	3,50003934	0,00019612459496243133	0,20020655344217472	0,00070073083	0,82461501794152243	-0,030767495026081472	0,0024206638612349827