File: Experimentelles/Ausgewaehlte_Daten/LAGP/CV/LAGP_Korrosion_08_CV_C02.txt
EC-Lab ASCII FILE
Nb header lines : 67

Cyclic Voltammetry

Run on channel : 2 (SN 6986)
Grouped channel(s) : 2
User :
CE vs. WE compliance from -10 V to 10 V
Electrode connection : standard
Ewe ctrl range : min = 0,00 V, max = 5,00 V
Acquisition started on : 08.27.2015 14:25:34
Saved on :
	File : LAGP_Korrosion_08_CV_C02.mpr
	Directory : C:\Gielisch\NeueZelle\LiS-Test\Paul\
	Host : 192.168.0.2
Device : VMP3 (SN 0324)
Address : 192.168.0.1
EC-Lab for windows v10.33 (software)
Internet server v10.33 (firmware)
Command interpretor v10.32 (firmware)
Electrode material :
Initial state :
Electrolyte :
Comments :
Mass of active material : 0,001 mg
 at x = 0,000
Molecular weight of active material (at x = 0) : 0,001 g/mol
Atomic weight of intercalated ion : 0,001 g/mol
Acquisition started at : xo = 0,000
Number of e- transfered per intercalated ion : 1
for DX = 1, DQ = 26,801 mA.h
Battery capacity : 0,000 A.h
Electrode surface area : 0,001 cm²
Characteristic mass : 0,001 g
Ei (V)              0,000
vs.                 Eoc
dE/dt               10,000
dE/dt unit          mV/s
E1 (V)              4,000
vs.                 Ref
Step percent        50
N                   10
E range min (V)     0,000
E range max (V)     5,000
I Range             Auto
Bandwidth           5
E2 (V)              1,200
vs.                 Ref
nc cycles           0
Reverse Scan        1
Ef (V)              0,000
vs.                 Eoc

Modify on : 08.27.2015 17:18
E2 (V)              0,500

Number of loops : 7
Loop 0 from point number 0 to 5601
Loop 1 from point number 5602 to 11203
Loop 2 from point number 11204 to 16804
Loop 3 from point number 16805 to 22406
Loop 4 from point number 22407 to 28007
Loop 5 from point number 28008 to 33608
Loop 6 from point number 33609 to 40608

mode	ox/red	error	control changes	counter inc.	time/s	control/V	Ewe/V	<I>/mA	cycle number	(Q-Qo)/C	P/W
2	1	0	0	0	6929,0153	1,5094049	1,50994015	0,0091616204008460045	1	0	1,38334981E-005
2	1	0	1	0	6936,8118	1,58737004	1,58803308	0,016792966472676806	1	0,0001112518	2,66677871E-005
2	1	0	0	0	6944,6135	1,66538644	1,66603029	0,019724071474090611	1	0,000259127468	3,28609021E-005
2	1	0	0	0	6952,4151	1,7434026	1,74403107	0,021188514934490531	1	0,000422751211	3,69534282E-005
2	1	0	0	0	6960,2167	1,82141864	1,82204974	0,022017103481899837	1	0,000595276884	4,01162579E-005
2	1	0	0	0	6968,0183	1,89943445	1,9001931	0,022715757353041542	1	0,000773146865	4,31643239E-005
2	1	0	0	0	6975,8199	1,97745073	1,97815382	0,022981994576251939	1	0,000954540214	4,54619221E-005
2	1	0	0	0	6983,6215	2,05546689	2,05622125	0,023152830889793363	1	0,00113812077	4,76073437E-005
2	1	0	0	0	6991,4231	2,13348246	2,13412404	0,023262028239615539	1	0,00132266129	4,96440553E-005
2	1	0	0	0	6999,2247	2,21149874	2,21221375	0,023367785947845722	1	0,0015079577	5,16945365E-005
2	1	0	0	0	7007,0263	2,28951478	2,29016566	0,023523956356156173	1	0,00169415353	5,38737586E-005
2	1	0	0	0	7014,8279	2,36753082	2,36801052	0,023766698220882787	1	0,00188184262	5,62797904E-005
2	1	0	0	0	7022,6295	2,44554687	2,44615388	0,024026150716020099	1	0,00207241205	5,87716604E-005
2	1	0	0	0	7030,4311	2,52356291	2,52417278	0,024802256811030819	1	0,0022666005	6,26051842E-005
2	1	0	0	0	7038,2327	2,60157871	2,60230684	0,025491192259963658	1	0,00246585952	6,63359024E-005
2	1	0	0	0	7046,0343	2,67959499	2,6801784	0,026496034451863853	1	0,00267201848	7,10140957E-005
2	1	0	0	0	7053,8359	2,7576108	2,75822377	0,027966804112549149	1	0,00288781105	7,71387058E-005
2	1	0	0	0	7061,6375	2,83562684	2,83628702	0,029848694038163373	1	0,00311584072	8,4659463E-005
2	1	0	0	0	7069,4391	2,91364288	2,91429186	0,03132547907255312	1	0,00335791195	9,12915857E-005
2	1	0	0	0	7077,2407	2,99165916	2,99221277	0,033714220609032954	1	0,00361577608	0,000100880119
2	1	0	0	0	7085,0423	3,06967473	3,07033801	0,035986639248828141	1	0,00389137515	0,00011049115
2	1	0	0	0	7092,8439	3,14769125	3,14844131	0,037568553450034458	1	0,00418273872	0,000118282383
2	1	0	0	0	7100,6455	3,22570705	3,22636676	0,03666494360314343	1	0,00447755679	0,000118294556
2	1	0	0	0	7108,4471	3,30372262	3,30423784	0,033969324289096781	1	0,00475792401	0,000112242727
2	1	0	0	0	7116,2487	3,38173914	3,38247037	0,03191748887938617	1	0,00501763262	0,000107959961
2	1	0	0	0	7124,0503	3,45975494	3,46040893	0,031378615289685082	1	0,00526722986	0,000108582841
2	1	0	0	0	7131,8519	3,53777122	3,53848982	0,031505514212228717	1	0,00551594514	0,000111481939
2	1	0	0	0	7139,6535	3,61578703	3,61637878	0,031665336306172384	1	0,00576579478	0,000114513852
2	1	0	0	0	7147,4551	3,69380331	3,69450426	0,032183654192421222	1	0,00601800857	0,000118902644
2	1	0	0	0	7155,2567	3,77181935	3,77245212	0,033376510181740262	1	0,00627601286	0,000125911291
2	1	0	0	0	7163,0583	3,84983516	3,85062194	0,035298443407992928	1	0,00654647127	0,000135920956
2	1	0	0	0	7170,8599	3,9278512	3,92852497	0,038856659511414618	1	0,00683907792	0,000152649358
2	0	0	1	0	7178,5721	3,99506497	3,99574184	-0,0035020137629881293	1	0,00713817589	1,39931426E-005
2	0	0	1	0	7186,4137	3,91664886	3,91728711	-0,018258301185495763	1	0,00702513941	7,15230053E-005
2	0	0	1	0	7194,2153	3,8386333	3,83926415	-0,021153331044371475	1	0,00686527928	8,12132275E-005
2	0	0	1	0	7202,0169	3,76061678	3,76117444	-0,021617321638148973	1	0,00669379067	8,13065199E-005
2	0	0	1	0	7209,8185	3,6826005	3,68353391	-0,021210217544446797	1	0,00652303779	7,81285562E-005
2	0	0	1	0	7217,6201	3,60458469	3,60543537	-0,021340181557375382	1	0,00635383232	7,6940647E-005
2	0	0	1	0	7225,4217	3,52656889	3,52729654	-0,021101963242809107	1	0,00618439633	7,4432879E-005
2	0	0	1	0	7233,2233	3,44855261	3,44920683	-0,021295466156314278	1	0,00601465302	7,34524656E-005
2	0	0	1	0	7241,0249	3,3705368	3,37116599	-0,020933203597518602	1	0,00584681099	7,05693019E-005
2	0	0	1	0	7248,8265	3,29252052	3,29320931	-0,020720952556951443	1	0,00568124652	6,82384343E-005
2	0	0	1	0	7256,6281	3,21450424	3,21519542	-0,021038137816099645	1	0,00551533746	6,76417258E-005
2	0	0	1	0	7264,4297	3,13648844	3,13711429	-0,021764951742995862	1	0,00534511171	6,82791433E-005
2	0	0	1	0	7272,2313	3,05847263	3,05908728	-0,021904276291563773	1	0,00517008174	6,70070949E-005
2	0	0	1	0	7280,0329	2,98045635	2,98091698	-0,022125773459534899	1	0,00499441009	6,59550933E-005
2	0	0	1	0	7287,8345	2,90244055	2,90319252	-0,022140811206083133	1	0,00481857732	6,42790401E-005
2	0	0	1	0	7295,6361	2,82442474	2,82514691	-0,02233570149056263	1	0,00464122789	6,31016374E-005
2	0	0	1	0	7303,4377	2,74640846	2,7469728	-0,022689805305735277	1	0,00446192035	6,23282758E-005
2	0	0	1	0	7311,2393	2,66839242	2,66889191	-0,023025913754719574	1	0,00428020954	6,14536766E-005
2	0	0	1	0	7319,0409	2,59037662	2,59094453	-0,023321801442997862	1	0,00409618858	6,04254928E-005
2	0	0	1	0	7326,8425	2,51236033	2,51308656	-0,023818447023923328	1	0,00390900578	5,9857819E-005
2	0	0	1	0	7334,6441	2,43434453	2,43509436	-0,024628246241869994	1	0,00371666835	5,99721025E-005
2	0	0	1	0	7342,4457	2,35632873	2,35711122	-0,026055770706281901	1	0,00351601141	6,14163509E-005
2	0	0	1	0	7350,2473	2,27831244	2,2789104	-0,027709158879049235	1	0,00330319908	6,31466901E-005
2	0	0	1	0	7358,0489	2,20029616	2,20099831	-0,029957360721675987	1	0,0030739184	6,59361031E-005
2	0	0	1	0	7365,8505	2,1222806	2,12305093	-0,03158732066448361	1	0,00282914145	6,706149E-005
2	0	0	1	0	7373,6521	2,04426455	2,04513931	-0,032615543312945082	1	0,00257555069	6,6703331E-005
2	0	0	1	0	7381,4537	1,96624827	1,96691585	-0,03423870273831264	1	0,00231184508	6,73446484E-005
2	0	0	1	0	7389,2554	1,88823128	1,88880289	-0,036554762348071424	1	0,00203228998	6,90447414E-005
2	0	0	1	0	7397,0569	1,81021631	1,81092787	-0,039464306745988666	1	0,00173239072	7,14670095E-005
2	0	0	1	0	7404,8585	1,73220026	1,73269558	-0,042186216304630707	1	0,00141095102	7,30958709E-005
2	0	0	1	0	7412,6602	1,65418327	1,65476048	-0,044452357601184378	1	0,00106989569	7,35580034E-005
2	0	0	1	0	7420,4618	1,57616794	1,57686293	-0,047185624431645203	1	0,000709180138	7,44052595E-005
2	0	0	1	0	7428,2634	1,49815214	1,49857712	-0,050923084049510957	1	0,000324365508	7,63121716E-005
2	0	0	1	0	7436,0650	1,42013681	1,42072856	-0,058952633108673702	1	-0,000103677732	8,37556872E-005
2	0	0	0	0	7443,8667	1,34212017	1,34278071	-0,075239234115169421	1	-0,000624526467	0,000101029793
2	0	0	0	0	7451,7083	1,26370418	1,26428151	-0,1066330390016511	1	-0,00132535712	0,000134814181
2	1	0	0	1	7459,3303	1,21259356	1,21321118	-0,099926154301674061	1	-0,00232731062	0,000121231526
2	1	0	0	1	7467,1719	1,29100978	1,29153693	-0,0091296408079667994	1	-0,00265778112	1,17912687E-005
2	1	0	0	1	7475,0535	1,36982596	1,37042761	0,012222354583813043	1	-0,00262567215	1,67498529E-005
2	1	0	0	1	7482,8551	1,44784188	1,44845068	0,02032998996286617	1	-0,00249082688	2,94469883E-005
2	1	0	1	0	7490,5077	1,52375746	1,52437305	0,024204372702149146	2	3,3719647E-005	3,68964938E-005
2	1	0	1	0	7498,3093	1,60177338	1,60231149	0,026780348357365146	2	0,000237081578	4,29104584E-005
2	1	0	1	0	7506,1109	1,67978954	1,68055713	0,028212767120243827	2	0,000455172238	4,74131666E-005
2	1	0	1	0	7513,9125	1,75780559	1,75854897	0,029094235492973632	2	0,000682591344	5,1163639E-005
2	1	0	1	0	7521,7141	1,83582139	1,83654082	0,02993803194517047	2	0,00091659429	5,49824181E-005
2	1	0	1	0	7529,5157	1,91383767	1,91452372	0,030618917947221158	2	0,00115530484	5,86206443E-005
2	1	0	1	0	7537,3173	1,99185359	1,99252021	0,030773486342729581	2	0,00139712309	6,1316794E-005
2	1	0	1	0	7545,1189	2,06986952	2,07057881	0,031082927503761069	2	0,00164252939	6,43596504E-005
2	1	0	1	0	7552,9205	2,1478858	2,1485393	0,031075407142957869	2	0,00188798155	6,67667337E-005
2	1	0	1	0	7560,7221	2,22590184	2,22659826	0,031264939461834842	2	0,00213428913	6,96144634E-005
2	1	0	1	0	7568,5237	2,30391765	2,30457664	0,031278674219114176	2	0,0023814973	7,20841053E-005
2	1	0	1	0	7576,3253	2,38193369	2,38268447	0,031655208414627546	2	0,00263093389	7,54243738E-005
2	1	0	1	0	7584,1269	2,45994997	2,46072078	0,032236472380140768	2	0,00288388436	7,93249565E-005
2	1	0	1	0	7591,9285	2,53796554	2,53861904	0,032786029033121331	2	0,00314074778	8,32312362E-005
2	1	0	1	0	7599,7301	2,61598182	2,61670876	0,033526096609421197	2	0,00340247294	8,77280327E-005
2	1	0	1	0	7607,5317	2,69399786	2,6946919	0,034576207994379936	2	0,00367113552	9,31722243E-005
2	1	0	1	0	7615,3333	2,77201366	2,77259469	0,035987963033322637	2	0,00394955557	9,9780038E-005
2	1	0	1	0	7623,1349	2,85002995	2,85077357	0,037771635162816506	2	0,00424038013	0,000107678381
2	1	0	1	0	7630,9365	2,92804575	2,92876101	0,039580282177431283	2	0,00454492681	0,00011592119
2	1	0	1	0	7638,7381	3,00606155	3,00680208	0,041566450312664666	2	0,00486498745	0,000124982093
2	1	0	1	0	7646,5397	3,08407807	3,08476257	0,043597368777867686	2	0,00520118093	0,000134487535
2	1	0	1	0	7654,3413	3,16209364	3,16274095	0,04395231489885465	2	0,00554802921	0,00013900979
2	1	0	1	0	7662,1429	3,24010944	3,24081349	0,042038168551253254	2	0,0058891899	0,000136237868
2	1	0	1	0	7669,9445	3,31812501	3,31885719	0,03846352877627737	2	0,00620692875	0,000127654959
2	1	0	1	0	7677,7462	3,39614177	3,39671135	0,035959422415754323	2	0,0064997999	0,000122143785
2	1	0	0	0	7685,5479	3,47415853	3,47480273	0,035240800446913024	2	0,0067803734	0,000122454832
2	1	0	0	0	7693,3495	3,55217433	3,55273581	0,035015023654085318	2	0,00705728494	0,000124399128
2	1	0	0	0	7701,1511	3,63019013	3,63100386	0,034890900805799539	2	0,00733301463	0,000126688989
2	1	0	0	0	7708,9527	3,7082057	3,70904946	0,035519059290419539	2	0,00761075644	0,000131741952
2	1	0	0	0	7716,7543	3,78622222	3,78681827	0,036783817771787795	2	0,00789515767	0,000139293639
2	1	0	0	0	7724,5559	3,86423802	3,86492157	0,039305652224424173	2	0,00819434319	0,000151913264
2	1	0	0	0	7732,3575	3,94225383	3,94285107	0,042969740991894586	2	0,00851948094	0,000169423292
2	0	0	0	0	7740,0295	3,98106194	3,98172283	-0,0082901827247243776	2	0,0087752277	3,30092116E-005
2	0	0	0	0	7747,8711	3,90264606	3,90320134	-0,018153556040488182	2	0,00865863077	7,0856986E-005
2	0	0	0	0	7755,6727	3,82462978	3,82505751	-0,020772498407125222	2	0,00850139838	7,94560037E-005
2	0	0	0	0	7763,4743	3,74661398	3,74723911	-0,021208381398874141	2	0,00833292864	7,94728767E-005
2	0	0	0	0	7771,2759	3,6685977	3,66920757	-0,021120816344153747	2	0,00816462934	7,74966611E-005
2	0	0	0	0	7779,0775	3,59058189	3,59129119	-0,021033473720308448	2	0,00799710397	7,55373258E-005
2	0	0	0	0	7786,8791	3,51256609	3,51325941	-0,021096490330011062	2	0,00782901142	7,41174445E-005
2	0	0	0	0	7794,6807	3,43454981	3,4351697	-0,021048888945303434	2	0,00766066834	7,23065023E-005
2	0	0	0	0	7802,4823	3,35653424	3,3571384	-0,020651791836476307	2	0,00749457022	6,93309266E-005
2	0	0	0	0	7810,2840	3,27851701	3,27908731	-0,020602372993389683	2	0,00733057735	6,75569827E-005
2	0	0	1	0	7818,0857	3,20050049	3,20104122	-0,020805090601500307	2	0,00716607971	6,65979533E-005
2	0	0	1	0	7825,8873	3,1224854	3,12314796	-0,021511033775072963	2	0,00699696736	6,71821399E-005
2	0	0	1	0	7833,6889	3,04446983	3,04500937	-0,021995337965036554	2	0,0068231374	6,6976012E-005
2	0	0	1	0	7841,4905	2,96645355	2,96718287	-0,021985127655358205	2	0,0066482462	6,52338931E-005
2	0	0	1	0	7849,2921	2,88843751	2,88915515	-0,022193837117541693	2	0,00647214847	6,41214356E-005
2	0	0	1	0	7857,0937	2,81042194	2,81111479	-0,022652328559801149	2	0,00629356736	6,36782934E-005
2	0	0	1	0	7864,8953	2,73240566	2,73308253	-0,023119272207151405	2	0,00611239532	6,31868825E-005
2	0	0	1	0	7872,6969	2,65438962	2,65510392	-0,023363152320531267	2	0,00592837436	6,20315986E-005
2	0	0	1	0	7880,4985	2,57637382	2,57699656	-0,023672393620169485	2	0,00574173033	6,10036768E-005
2	0	0	1	0	7888,3001	2,49835777	2,49910259	-0,024113745409219178	2	0,00555180339	6,02627224E-005
2	0	0	1	0	7896,1017	2,42034149	2,42096376	-0,025146660601927162	2	0,00535642682	6,08791524E-005
2	0	0	1	0	7903,9033	2,34232569	2,34298539	-0,026319741370604886	2	0,00515259476	6,16667676E-005
2	0	0	1	0	7911,7049	2,26430964	2,26495337	-0,028152978862635792	2	0,00493637612	6,37651829E-005
2	0	0	1	0	7919,5065	2,18629336	2,18704152	-0,030450981748462835	2	0,00470389286	6,65975604E-005
2	0	0	1	0	7927,3081	2,10827732	2,10899615	-0,031985085599848762	2	0,00445643067	6,74564217E-005
2	0	0	1	0	7935,1097	2,03026152	2,03101754	-0,033177696957459981	2	0,00419932045	6,73844843E-005
2	0	0	1	0	7942,9113	1,95224559	1,95281208	-0,034733880419042483	2	0,00393153308	6,78287397E-005
2	0	0	1	0	7950,7129	1,87422955	1,87486029	-0,037012555196674515	2	0,00364832976	6,93933689E-005
2	0	0	1	0	7958,5145	1,79621351	1,79689062	-0,039760598304888429	2	0,00334558706	7,14454436E-005
2	0	0	1	0	7966,3161	1,71819746	1,7188319	-0,042331032506707642	2	0,00302216853	7,27599254E-005
2	0	0	1	0	7974,1177	1,6401813	1,64081335	-0,044960250655465158	2	0,00267828	7,37713781E-005
2	0	0	1	0	7981,9193	1,56216538	1,56265247	-0,048675631151396781	2	0,00230999128	7,60630937E-005
2	0	0	1	0	7989,7209	1,48414934	1,48471391	-0,053241708531493018	2	0,00190960255	7,90487029E-005
2	0	0	1	0	7997,5225	1,40613329	1,40683341	-0,062256557409893005	2	0,00145798875	8,75846017E-005
2	0	0	1	0	8005,3241	1,32811737	1,32860124	-0,077282072700284198	2	0,000915136014	0,000102677055
2	0	0	1	0	8013,1657	1,24970114	1,25051594	-0,1090589957829151	2	0,000200299721	0,000136380011
2	1	0	1	1	8020,7878	1,22659564	1,22738147	-0,064207046205275725	2	-0,000699291646	7,88065372E-005
2	1	0	0	1	8028,6695	1,30541253	1,30612135	-0,00045571760286596678	2	-0,000888429175	5,95222502E-007
2	1	0	0	1	8036,5111	1,38382876	1,38443375	0,015383398078416544	2	-0,000816539454	2,12972955E-005
2	1	0	0	1	8044,3127	1,4618448	1,46238112	0,021837957766062288	2	-0,000664754654	3,19354185E-005
2	1	0	0	0	8052,0053	1,53826046	1,53888643	0,025352727690780694	3	7,04491031E-005	3,90149689E-005
2	1	0	0	0	8059,8069	1,6162765	1,61686027	0,027491518102275846	3	0,000280952954	4,44499419E-005
2	1	0	0	0	8067,6085	1,69429255	1,69494569	0,028931594440817056	3	0,000504487252	4,90374805E-005
2	1	0	0	0	8075,4101	1,77230859	1,77295113	0,02982834488567376	3	0,000737019291	5,28841992E-005
2	1	0	0	0	8083,2117	1,85032451	1,85097396	0,030442979747291488	3	0,000975539442	5,63491631E-005
2	1	0	0	0	8091,0134	1,92834139	1,92909586	0,031048872620366374	3	0,0012184981	5,98962506E-005
2	1	0	1	0	8098,8151	2,00635719	2,0071671	0,031249190835607008	3	0,00146464549	6,2722349E-005
2	1	0	1	0	8106,6167	2,084373	2,08498478	0,031460538396903334	3	0,00171340397	6,55947442E-005
2	1	0	1	0	8114,4183	2,16238904	2,16308427	0,031522427479248883	3	0,0019622182	6,81856691E-005
2	1	0	1	0	8122,2199	2,24040461	2,2409513	0,031540892311130387	3	0,00221215258	7,06816063E-005
2	1	0	1	0	8130,0215	2,31842089	2,31906796	0,031818485607531091	3	0,0024631191	7,37892333E-005
2	1	0	1	0	8137,8231	2,39643669	2,3972156	0,032172142838438221	3	0,00271634269	7,71235646E-005
2	1	0	1	0	8145,6247	2,4744525	2,47514939	0,032632660715737338	3	0,00297294091	8,07707111E-005
2	1	0	1	0	8153,4263	2,55246902	2,55313683	0,033327129100346022	3	0,00323331589	8,50887227E-005
2	1	0	1	0	8161,2279	2,63048482	2,63112426	0,034087815248683482	3	0,00349879335	8,96892743E-005
2	1	0	1	0	8169,0295	2,70850062	2,70898294	0,034943844735001562	3	0,00377133	9,46622822E-005
2	1	0	1	0	8176,8311	2,7865169	2,78712153	0,036559097214464013	3	0,00405389862	0,00010189465
2	1	0	1	0	8184,6327	2,86453295	2,86519766	0,038193758180434022	3	0,00434880331	0,000109432665
2	1	0	1	0	8192,4343	2,94254851	2,94305182	0,040081772535039027	3	0,00465721264	0,000117962736
2	1	0	1	0	8200,2359	3,02056503	3,02120805	0,042071006092656794	3	0,00498097204	0,000127105261
2	1	0	1	0	8208,0374	3,09858131	3,09928036	0,043657391056142304	3	0,00532023143	0,000135306502
2	1	0	1	0	8215,8390	3,17659688	3,17721009	0,043917934336975437	3	0,00566731207	0,000139536511
2	1	0	1	0	8223,6406	3,25461292	3,25525975	0,041308019711222138	3	0,00600459473	0,000134468341
2	1	0	1	0	8231,4422	3,3326292	3,33327365	0,037874687014630483	3	0,00631673262	0,000126246698
2	1	0	1	0	8239,2438	3,41064501	3,41130972	0,035823495308351386	3	0,00660661003	0,000122205034
2	1	0	1	0	8247,0454	3,48866081	3,48923087	0,035213082726975872	3	0,00688665733	0,000122866579
2	1	0	1	0	8254,8470	3,56667686	3,56743646	0,034990686457604282	3	0,0071635521	0,000124827056
2	1	0	1	0	8262,6486	3,6446929	3,64546824	0,035030954293216896	3	0,00743971346	0,000127704232
2	1	0	1	0	8270,4502	3,72270918	3,72324204	0,035613577636131155	3	0,0077187242	0,000132597968
2	1	0	1	0	8278,2518	3,80072498	3,8013227	0,037298130513927494	3	0,00800570659	0,000141782235
2	1	0	1	0	8286,0534	3,87874126	3,87938118	0,040008060772110016	3	0,00830958784	0,000155206522
2	1	0	1	0	8293,8550	3,95675707	3,95737362	0,043546325816013862	3	0,00864108186	0,000172329077
2	0	0	0	0	8301,6172	3,9656589	3,9663322	-0,011408087810397965	3	0,00881911907	4,52482673E-005
2	0	0	0	0	8309,4188	3,8876431	3,88831806	-0,018735391825127136	3	0,00869136211	7,2849165E-005
2	0	0	0	0	8317,2204	3,80962658	3,81030846	-0,021014131241288259	3	0,00853109825	8,00703201E-005
2	0	0	0	0	8325,0220	3,73161054	3,73221445	-0,020752332832974758	3	0,00836222805	7,74521541E-005
2	0	0	0	0	8332,8236	3,65359497	3,65421772	-0,021086349820338691	3	0,00819418114	7,70541155E-005
2	0	0	0	0	8340,6252	3,57557869	3,57608795	-0,021151447774307718	3	0,00802654587	7,56394365E-005
2	0	0	0	0	8348,4268	3,49756289	3,49827456	-0,021145043743739754	3	0,00785840861	7,39711686E-005
2	0	0	0	0	8356,2284	3,41954708	3,42032671	-0,020942127528272694	3	0,00769031793	7,16289214E-005
2	0	0	0	0	8364,0300	3,34153056	3,34221029	-0,02065967018845384	3	0,00752465706	6,90489614E-005
2	0	0	0	0	8371,8316	3,26351452	3,26423216	-0,020342184444113328	3	0,00736120855	6,64016115E-005
2	0	0	0	0	8379,6332	3,18549871	3,18614221	-0,020856486269083181	3	0,00719698146	6,64517283E-005
2	0	0	0	0	8387,4348	3,10748291	3,10812354	-0,021571095739663731	3	0,00702790264	6,70456284E-005
2	0	0	0	0	8395,2364	3,02946663	3,03009152	-0,021811111834486698	3	0,00685436791	6,60896621E-005
2	0	0	0	0	8403,0380	2,95145082	2,95209527	-0,022027621412201325	3	0,00667990465	6,50276343E-005
2	0	0	0	0	8410,8396	2,87343454	2,87416577	-0,022302665450196435	3	0,00650367513	6,41015577E-005
2	0	0	0	0	8418,6412	2,7954185	2,79616046	-0,022674605608227955	3	0,00632463675	6,34018361E-005
2	0	0	0	0	8426,4428	2,7174027	2,71800852	-0,023096576164890483	3	0,00614262931	6,27766931E-005
2	0	0	0	0	8434,2444	2,63938665	2,64001632	-0,023440340924059526	3	0,00595768169	6,18828853E-005
2	0	0	0	0	8442,0460	2,56137037	2,56202459	-0,023896549017754966	3	0,00576993497	6,12235453E-005
2	0	0	0	0	8449,8476	2,48335457	2,48397017	-0,024318507564236813	3	0,00557860779	6,0406448E-005
2	0	0	0	0	8457,6492	2,40533876	2,40593386	-0,025178408146732403	3	0,0053813355	6,05775858E-005
2	0	0	0	0	8465,4508	2,32732224	2,32796001	-0,026759658370994781	3	0,00517519657	6,22954176E-005
2	0	0	0	0	8473,2524	2,24930644	2,25005722	-0,028586341960666006	3	0,00495623937	6,43209059E-005
2	0	0	0	0	8481,0540	2,17129064	2,17191386	-0,030751594135330682	3	0,00472087692	6,6789813E-005
2	0	0	0	0	8488,8557	2,09327364	2,09383678	-0,032202530090558125	3	0,00447125779	6,74268449E-005
2	0	0	0	0	8496,6573	2,01525784	2,01591659	-0,033522143254262061	3	0,00421219086	6,75778429E-005
2	0	0	0	0	8504,4589	1,9372431	1,93787193	-0,035137918213704435	3	0,00394199882	6,80927842E-005
2	0	0	1	0	8512,2606	1,85922635	1,85983968	-0,037310159657392038	3	0,00365637126	6,93909169E-005
2	0	0	1	0	8520,0622	1,7812103	1,78182542	-0,039838493974120538	3	0,00335158128	7,09852393E-005
2	0	0	1	0	8527,8638	1,70319426	1,70373571	-0,042616277907250656	3	0,00302637462	7,26068756E-005
2	0	0	1	0	8535,6654	1,62517822	1,62585938	-0,045351409784483379	3	0,00268013543	7,37350128E-005
2	0	0	1	0	8543,4670	1,54716241	1,54778755	-0,049446353757822803	3	0,00230672723	7,65324512E-005
2	0	0	1	0	8551,2686	1,46914625	1,46961761	-0,055022799944574042	3	0,00189741887	8,08624754E-005
2	0	0	1	0	8559,0702	1,39113033	1,39181268	-0,064421577103159987	3	0,00143043522	8,9662768E-005
2	0	0	1	0	8566,8718	1,31311417	1,31370509	-0,080285951978078362	3	0,000868272735	0,000105472063
2	0	0	1	0	8574,7134	1,23469818	1,23543727	-0,11762489245652574	3	0,000115314266	0,000145318176
2	1	0	1	1	8582,3754	1,24199951	1,24267399	-0,04082515950883847	3	-0,000668777036	5,07323639E-005
2	1	0	1	1	8590,2170	1,32041574	1,32112408	0,0049656169651791859	3	-0,00076498714	6,5601962E-006
2	1	0	1	1	8598,0586	1,39883173	1,3993386	0,017263077024836051	3	-0,000667827495	2,41568905E-005
2	1	0	1	1	8605,8602	1,47684777	1,47744191	0,02291468455223361	3	-0,000505320902	3,38551145E-005
2	1	0	0	0	8613,6090	1,55346358	1,5541029	0,025976131213138963	4	0,000109390086	4,03695813E-005
2	1	0	0	0	8621,4106	1,63147962	1,63212597	0,027887835645944685	4	0,000323485787	4,55164627E-005
2	1	0	0	0	8629,2122	1,70949554	1,71009552	0,029195411751667846	4	0,000549455755	4,99269445E-005
2	1	0	0	0	8637,0138	1,78751171	1,78811407	0,030102794381996922	4	0,000783742697	5,38272288E-005
2	1	0	0	0	8644,8154	1,86552775	1,86623502	0,030669290727625254	4	0,00102375972	5,72361059E-005
2	1	0	0	0	8652,6170	1,94354355	1,94428051	0,031052674024572794	4	0,00126778428	6,03751105E-005
2	1	0	0	0	8660,4186	2,02155972	2,02222776	0,031344779206577773	4	0,00151461142	6,33862801E-005
2	1	0	0	0	8668,2202	2,09957576	2,10019732	0,03134557721636233	4	0,00176295976	6,58318968E-005
2	1	0	0	0	8676,0218	2,17759156	2,17821598	0,031616030873178771	4	0,00201242347	6,88665459E-005
2	1	0	0	0	8683,8234	2,25560784	2,25629234	0,031701360109124224	4	0,00226285239	7,15275382E-005
2	1	0	0	0	8691,6250	2,33362389	2,33435988	0,031950252893794605	4	0,0025145954	7,45833895E-005
2	1	0	0	0	8699,4266	2,41163945	2,41230726	0,032438587712089459	4	0,0027688744	7,825184E-005
2	1	0	0	0	8707,2282	2,48965597	2,49036598	0,032816440548264826	4	0,00302655669	8,17249456E-005
2	1	0	0	0	8715,0298	2,56767201	2,56834435	0,033370920413829107	4	0,0032880553	8,57080158E-005
2	1	0	0	0	8722,8314	2,64568782	2,64625645	0,034220397166252525	4	0,00355495932	9,055595E-005
2	1	0	0	0	8730,6330	2,72370386	2,72439504	0,035337579048549229	4	0,00382952928	9,62735285E-005
2	1	0	0	0	8738,4346	2,8017199	2,80233812	0,036894277772969722	4	0,00411465159	0,000103390244
2	1	0	0	0	8746,2362	2,87973595	2,8803606	0,038480814089308646	4	0,00441224081	0,00011083862
2	1	0	0	0	8754,0378	2,95775199	2,95833945	0,040314878513864115	4	0,00472356146	0,000119265096
2	1	0	0	0	8761,8394	3,03576827	3,03639364	0,042505740955540883	4	0,00505038956	0,000129064167
2	1	0	0	0	8769,6410	3,11378407	3,11442518	0,0440011434343264	4	0,00539208809	0,000137038267
2	1	0	0	0	8777,4426	3,19179988	3,19245768	0,043491052657676166	4	0,00573866768	0,000138843345
2	1	0	0	0	8785,2442	3,26981592	3,27048039	0,040619314329146835	4	0,00607162528	0,000132844667
2	1	0	0	0	8793,0458	3,34783196	3,3484056	0,037492463973143763	4	0,00637829909	0,000125539969
2	1	0	0	0	8800,8475	3,42584872	3,42646098	0,035672071270440922	4	0,00666530384	0,000122228957
2	1	0	0	0	8808,6491	3,50386429	3,50452304	0,03508381906326048	4	0,00694434624	0,000122952057
2	1	0	1	0	8816,4508	3,58187985	3,58246613	0,034776050955298733	4	0,00722055743	0,000124584025
2	1	0	1	0	8824,2524	3,65989614	3,66052008	0,035164184777790554	4	0,00749658793	0,000128719199
2	1	0	1	0	8832,0540	3,73791242	3,73853874	0,035705362114606899	4	0,00777615933	0,000133485883
2	1	0	1	0	8839,8556	3,81592774	3,81654382	0,037478536897752826	4	0,00806548912	0,000143038473
2	1	0	1	0	8847,6572	3,89394403	3,89462924	0,040748625804014752	4	0,00837366655	0,000158700786
2	1	0	1	0	8855,4588	3,97196031	3,97260332	0,044200383398371373	4	0,00870971289	0,000175590583
2	0	0	1	0	8863,2009	3,95065594	3,95123601	-0,013761354438144163	4	0,00880011264	5,4374359E-005
2	0	0	0	0	8871,0026	3,87263894	3,87328839	-0,019316604546253766	4	0,00866309367	7,48187813E-005
2	0	0	0	0	8878,8042	3,79462337	3,79514003	-0,021021271452631997	4	0,008500183	7,97786706E-005
2	0	0	0	0	8886,6058	3,71660757	3,71742511	-0,021209100706640781	4	0,00833137985	7,88432444E-005
2	0	0	0	0	8894,4074	3,63859153	3,63928223	-0,020969538285431437	4	0,00816323515	7,63140706E-005
2	0	0	0	0	8902,2090	3,56057596	3,56120563	-0,021011475751745613	4	0,00799560267	7,48261882E-005
2	0	0	0	0	8910,0106	3,48255968	3,48338246	-0,021169765214263197	4	0,0078273844	7,37423907E-005
2	0	0	0	0	8917,8122	3,4045434	3,40508819	-0,020702280600003286	4	0,00765975658	7,04930935E-005
2	0	0	0	0	8925,6138	3,32652807	3,32710981	-0,020437351921659462	4	0,00749498419	6,79973164E-005
2	0	0	0	0	8933,4154	3,24851155	3,24927759	-0,020409500112118986	4	0,00733198132	6,63161336E-005
2	0	0	0	0	8941,2170	3,17049527	3,17126822	-0,020844277518335731	4	0,00716759171	6,61027952E-005
2	0	0	0	0	8949,0186	3,09247971	3,09311152	-0,021711899709232486	4	0,00699806027	6,71573289E-005
2	0	0	0	0	8956,8202	3,01446342	3,01509762	-0,021793716878164781	4	0,0068248515	6,57101846E-005
2	0	0	0	0	8964,6218	2,93644762	2,93707013	-0,022004566226516643	4	0,00665057963	6,46289554E-005
2	0	0	0	0	8972,4234	2,85843158	2,85912251	-0,022378673574335344	4	0,0064741848	6,3983367E-005
2	0	0	0	0	8980,2250	2,78041553	2,78106403	-0,022773421153909069	4	0,00629464956	6,33343443E-005
2	0	0	0	0	8988,0266	2,70239949	2,70309877	-0,023196649685915949	4	0,00611201813	6,27028348E-005
2	0	0	0	0	8995,8282	2,62438345	2,62520051	-0,023518677186479597	4	0,0059262705	6,17412443E-005
2	0	0	0	0	9003,6298	2,54636765	2,54692388	-0,023849835640888762	4	0,00573761808	6,07437141E-005
2	0	0	0	0	9011,4314	2,4683516	2,46901202	-0,024652755771832678	4	0,00554512162	6,08679511E-005
2	0	0	0	0	9019,2330	2,39033532	2,39104271	-0,025533745893173808	4	0,00534623116	6,10522766E-005
2	0	0	0	0	9027,0346	2,31231952	2,31263661	-0,026974073313693946	4	0,00513778999	6,23812302E-005
2	0	0	0	0	9034,8362	2,23430324	2,23502755	-0,029013065259075904	4	0,00491599506	6,48450005E-005
2	0	0	0	0	9042,6378	2,15628719	2,1569736	-0,031101911492576794	4	0,00467777066	6,70860027E-005
2	0	0	0	0	9050,4394	2,07827139	2,07896805	-0,032494914411843046	4	0,00442626514	6,75558913E-005
2	0	0	0	0	9058,2410	2,00025535	2,00078487	-0,033649935788061082	4	0,00416512322	6,73262839E-005
2	0	0	0	0	9066,0426	1,92223918	1,92283738	-0,035349328946149562	4	0,00389286177	6,79710138E-005
2	0	0	0	0	9073,8442	1,84422338	1,84483659	-0,037735561835924525	4	0,00360474759	6,96159477E-005
2	0	0	0	0	9081,6458	1,76620734	1,76666677	-0,040108778798538912	4	0,00329771242	7,08588486E-005
2	0	0	0	0	9089,4474	1,68819118	1,6887418	-0,042728032041513434	4	0,00297045964	7,21566103E-005
2	0	0	0	0	9097,2490	1,61017525	1,61078107	-0,04598954848134551	4	0,00262138061	7,40790929E-005
2	0	0	0	0	9105,0506	1,53215921	1,53275371	-0,050220254920767866	4	0,00224278239	7,69752805E-005
2	0	0	0	0	9112,8522	1,45414329	1,45465934	-0,056480246018273619	4	0,00182516093	8,21595168E-005
2	0	0	0	0	9120,6538	1,37612724	1,37666285	-0,066391846389268096	4	0,00134519674	9,13991898E-005
2	0	0	0	0	9128,4554	1,29811108	1,29878676	-0,08381009092381984	4	0,000763658085	0,00010885144
2	0	0	0	0	9136,2970	1,21969509	1,22029638	-0,12973126287882498	4	-4,11457804E-005	0,000158310591
2	1	0	1	1	9143,9592	1,25700271	1,25771689	-0,025150983417406736	4	-0,000673714268	3,16328151E-005
2	1	0	1	1	9151,8008	1,33541882	1,33590913	0,0087892636990916134	4	-0,000706357707	1,17416575E-005
2	1	0	1	1	9159,6424	1,41383493	1,41447496	0,018837654579396262	4	-0,000589810486	2,66453899E-005
2	1	0	1	1	9167,4440	1,49185097	1,49245799	0,023629979323164573	4	-0,000418487762	3,52667521E-005
2	1	0	1	0	9175,1086	1,5680666	1,56865633	0,02648890302602752	5	0,000147944083	4,15519862E-005
2	1	0	1	0	9182,9102	1,64608264	1,64676809	0,028331961745775792	5	0,000365267275	4,66561723E-005
2	1	0	1	0	9190,7118	1,72409868	1,72461319	0,02935894883962137	5	0,000593464007	5,06328288E-005
2	1	0	1	0	9198,5134	1,80211473	1,80273855	0,030040161382338003	5	0,000829266617	5,4154556E-005
2	1	0	1	0	9206,3150	1,88013065	1,88098419	0,03078651712362279	5	0,0010704525	5,79089501E-005
2	1	0	1	0	9214,1167	1,95814729	1,958763	0,031120256286197798	5	0,00131532107	6,09572053E-005
2	1	0	0	0	9221,9184	2,03616333	2,03681755	0,031320877988548045	5	0,00156272808	6,37949124E-005
2	1	0	0	0	9229,7200	2,11417913	2,11473393	0,031454619507076454	5	0,001811433	6,65181506E-005
2	1	0	0	0	9237,5216	2,19219446	2,19284058	0,031553779524854496	5	0,00206122105	6,9192407E-005
2	1	0	0	0	9245,3232	2,27021074	2,27096581	0,031747862550050547	5	0,00231182971	7,2098308E-005
2	1	0	0	0	9253,1248	2,34822702	2,34883308	0,031968346447683757	5	0,0025639357	7,50883119E-005
2	1	0	0	0	9260,9264	2,42624259	2,42686081	0,03239169456409641	5	0,002818726	7,86101373E-005
2	1	0	0	0	9268,7280	2,50425887	2,50483012	0,032799082640041056	5	0,00307697197	8,21561334E-005
2	1	0	0	0	9276,5296	2,58227491	2,5828712	0,033459511400131373	5	0,00333935767	8,64216054E-005
2	1	0	0	0	9284,3312	2,66029072	2,66098309	0,034363356039480045	5	0,00360745587	9,14403063E-005
2	1	0	0	0	9292,1328	2,738307	2,7390461	0,035692547663563334	5	0,00388385681	9,77635355E-005
2	1	0	0	0	9299,9344	2,8163228	2,8169446	0,037073239214131968	5	0,00417115167	0,00010443326
2	1	0	0	0	9307,7360	2,89433861	2,89501214	0,038877491679697894	5	0,00447114091	0,000112550813
2	1	0	0	0	9315,5376	2,97235513	2,97296834	0,040760140680638976	5	0,00478485832	0,000121178608
2	1	0	0	0	9323,3392	3,05037093	3,05101871	0,042750555672682822	5	0,00511434535	0,000130432745
2	1	0	0	0	9331,1408	3,1283865	3,12894773	0,04411661069133088	5	0,00545746507	0,000138038566
2	1	0	0	0	9338,9424	3,20640302	3,20700169	0,043026640718043821	5	0,00580247538	0,000137986513
2	1	0	0	0	9346,7440	3,28441906	3,28517628	0,039823475522334118	5	0,00613023993	0,000130827131
2	1	0	0	0	9354,5456	3,36243486	3,36307454	0,036839674054472525	5	0,00643190509	0,00012389457
2	1	0	0	0	9362,3472	3,44045138	3,44107127	0,03540733187131728	5	0,00671617268	0,000121839155
2	1	0	0	0	9370,1488	3,51846719	3,51928115	0,035075659885209165	5	0,00699417247	0,000123441103
2	1	0	0	0	9377,9504	3,59648275	3,59711742	0,034743239111439507	5	0,00726968935	0,000124975515
2	1	0	0	0	9385,7520	3,67449927	3,67515779	0,035035296804616646	5	0,00754547957	0,00012876025
2	1	0	0	0	9393,5536	3,75251508	3,75311852	0,036013707764343315	5	0,00782562327	0,000135163718
2	1	0	0	0	9401,3552	3,83053088	3,83131552	0,037878171200174227	5	0,00811686739	0,000145123224
2	1	0	0	0	9409,1568	3,90854716	3,90918684	0,041365583690262995	5	0,00842893496	0,000161705801
2	1	0	0	0	9416,9584	3,98656344	3,98729444	0,044882903798241779	5	0,00876873825	0,00017896136
2	0	0	1	0	9424,7406	3,93565273	3,93643332	-0,015144739328038496	5	0,00877010729	5,96162572E-005
2	0	0	1	0	9432,5422	3,85763693	3,85831237	-0,020004414416487315	5	0,00862549152	7,71832783E-005
2	0	0	1	0	9440,3438	3,77962065	3,78034282	-0,021195581152655715	5	0,00846034661	8,01265633E-005
2	0	0	1	0	9448,1454	3,70160437	3,70215988	-0,021029539626195235	5	0,00829151645	7,78547183E-005
2	0	0	1	0	9455,9470	3,62358856	3,62451482	-0,021076398492032022	5	0,00812381506	7,63917196E-005
2	0	0	1	0	9463,7486	3,54557252	3,54628277	-0,020912913385675165	5	0,00795613788	7,41631011E-005
2	0	0	1	0	9471,5502	3,46755648	3,46823692	-0,021058383729757267	5	0,00778790331	7,30354659E-005
2	0	0	1	0	9479,3518	3,38954067	3,39019656	-0,020779421447379571	5	0,00762057723	7,04463237E-005
2	0	0	1	0	9487,1534	3,31152439	3,31211567	-0,020444053802984141	5	0,00745615596	6,77130738E-005
2	0	0	1	0	9494,9550	3,23350906	3,23414135	-0,020518088314458061	5	0,00729316706	6,63583996E-005
2	0	0	1	0	9502,7566	3,15549254	3,1560607	-0,020976601179292518	5	0,00712822611	6,6203429E-005
2	0	0	1	0	9510,5582	3,0774765	3,07814026	-0,021591832637096938	5	0,00695802458	6,64626859E-005
2	0	0	1	0	9518,3598	2,99946046	3,00014377	-0,021839545224793366	5	0,00678496435	6,55217736E-005
2	0	0	1	0	9526,1614	2,92144442	2,92201829	-0,022023901927578083	5	0,00661057886	6,43542444E-005
2	0	0	1	0	9533,9630	2,84342837	2,84428477	-0,022463030744499206	5	0,00643374864	6,38912534E-005
2	0	0	1	0	9541,7646	2,76541233	2,76623487	-0,022824341207052845	5	0,00625376543	6,3137486E-005
2	0	0	1	0	9549,5662	2,68739653	2,68800688	-0,023126862880653098	5	0,00607054168	6,21651634E-005
2	0	0	1	0	9557,3679	2,60937977	2,61012578	-0,023684507029566941	5	0,00588411279	6,18195409E-005
2	0	0	1	0	9565,1695	2,53136373	2,53188944	-0,024035918753719411	5	0,0056945621	6,08562877E-005
2	0	0	1	0	9572,9711	2,45334768	2,45414233	-0,024696505138279699	5	0,00550074503	6,06087378E-005
2	0	0	1	0	9580,7727	2,37533259	2,37604022	-0,02591203647573287	5	0,00529995421	6,15680401E-005
2	0	0	1	0	9588,5743	2,29731679	2,2978971	-0,027167364448491994	5	0,00508896541	6,24278109E-005
2	0	0	1	0	9596,3759	2,21930122	2,21998072	-0,029477957072022445	5	0,00486401981	6,54404939E-005
2	0	0	0	0	9604,1776	2,14128423	2,14194822	-0,031405181356671251	5	0,00462277327	6,72682727E-005
2	0	0	0	0	9611,9792	2,06326818	2,0639205	-0,03269393986556679	5	0,00436904188	6,74776893E-005
2	0	0	0	0	9619,7808	1,98525226	1,9859823	-0,033939871057454163	5	0,00410590321	6,74039838E-005
2	0	0	0	0	9627,5824	1,90723622	1,90787446	-0,035656421307336486	5	0,00383117469	6,80279772E-005
2	0	0	0	0	9635,3840	1,82922018	1,8298471	-0,03787123810724119	5	0,00354028819	6,92985777E-005
2	0	0	0	0	9643,1856	1,75120413	1,75182402	-0,040589087440080384	5	0,00323043345	7,11049361E-005
2	0	0	0	0	9650,9872	1,67318821	1,67384565	-0,043140071767589107	5	0,00290058553	7,22098193E-005
2	0	0	0	0	9658,7888	1,59517217	1,59557331	-0,046656712549048794	5	0,00254759705	7,44442077E-005
2	0	0	0	0	9666,5904	1,51715612	1,5177995	-0,051113537469603123	5	0,0021632167	7,75801018E-005
2	0	0	0	0	9674,3920	1,43914008	1,43972766	-0,057966927394133005	5	0,00173628423	8,34565872E-005
2	0	0	0	0	9682,1936	1,36112404	1,36186481	-0,068626410577929011	5	0,001242336	9,34598938E-005
2	0	0	0	0	9689,9952	1,28310812	1,28368151	-0,088306183452476762	5	0,000636870798	0,000113357019
2	0	0	0	0	9697,8368	1,20469201	1,20537364	-0,1463578215248329	5	-0,000240209483	0,000176415866
2	1	0	0	1	9705,4988	1,2720058	1,27263963	-0,014052650686439642	5	-0,000689008913	1,788396E-005
2	1	0	0	1	9713,3804	1,35082197	1,35142374	0,011613265518530245	5	-0,000674935116	1,56944425E-005
2	1	0	0	1	9721,1820	1,4288379	1,42953134	0,020333239905691344	5	-0,000543127768	2,90670032E-005
2	1	0	0	1	9728,9836	1,50685394	1,50741196	0,024602549025547552	5	-0,000363762374	3,70861781E-005
2	1	0	1	0	9736,7126	1,58416975	1,58490527	0,027065400642135805	6	0,000190644132	4,28960957E-005
2	1	0	1	0	9744,5142	1,66218579	1,66285276	0,028625770083939184	6	0,000411437097	4,76004425E-005
2	1	0	1	0	9752,3158	1,74020183	1,74075103	0,029605984618818298	6	0,000642221945	5,15366482E-005
2	1	0	1	0	9760,1174	1,81821799	1,81877398	0,030273399604657024	6	0,000880020962	5,50604709E-005
2	1	0	1	0	9767,9190	1,89623392	1,89697063	0,031031970508155091	6	0,0011227387	5,88667353E-005
2	1	0	1	0	9775,7206	1,97425008	1,97495377	0,03126103023963936	6	0,00136890507	6,17390906E-005
2	1	0	1	0	9783,5222	2,05226612	2,05287433	0,031447260985495776	6	0,00161733315	6,45572727E-005
2	1	0	1	0	9791,3238	2,13028169	2,1309998	0,031643766280332666	6	0,00186680816	6,74328621E-005
2	1	0	1	0	9799,1254	2,20829821	2,20903635	0,031729560461826662	6	0,0021172578	7,00917517E-005
2	1	0	1	0	9806,9270	2,28631425	2,28709483	0,031908774058575949	6	0,00236879243	7,29783933E-005
2	1	0	1	0	9814,7286	2,36433005	2,3648777	0,032118159721398368	6	0,00262187351	7,59555187E-005
2	1	0	1	0	9822,5302	2,4423461	2,44311452	0,032545189511168858	6	0,00287773996	7,95116284E-005
2	1	0	1	0	9830,3318	2,52036214	2,52094579	0,033162217130194624	6	0,0031370623	8,36001491E-005
2	1	0	1	0	9838,1334	2,59837818	2,59920478	0,03366526620272825	6	0,00340087945	8,75029218E-005
2	1	0	1	0	9845,9350	2,67639422	2,6770277	0,034574269446440819	6	0,00367082073	9,25562781E-005
2	1	0	1	0	9853,7366	2,75441003	2,75507283	0,035954461773616051	6	0,00394952623	9,90571643E-005
2	1	0	1	0	9861,5382	2,83242607	2,83314896	0,03750173856193817	6	0,00423958758	0,000106248015
2	1	0	1	0	9869,3398	2,91044259	2,91123033	0,039320263727050778	6	0,00454250025	0,000114470342
2	1	0	1	0	9877,1414	2,9884584	2,98915529	0,041165320879641645	6	0,00485937716	0,00012304954
2	1	0	1	0	9884,9430	3,0664742	3,06706262	0,043191172605104576	6	0,0051921159	0,000132470028
2	1	0	1	0	9892,7446	3,14449048	3,14517879	0,044163225813665165	6	0,00553704845	0,000138901247
2	1	0	1	0	9900,5462	3,22250628	3,22297049	0,04248717322479911	6	0,00587974163	0,000136934905
2	1	0	1	0	9908,3478	3,30052185	3,30128312	0,039053447070290125	6	0,00620193966	0,000128926491
2	1	0	1	0	9916,1494	3,37853837	3,37911916	0,036408569305893728	6	0,00649868837	0,000123028891
2	1	0	1	0	9923,9510	3,45655417	3,4572444	0,035145155730246291	6	0,00678086607	0,000121505393
2	1	0	0	0	9931,7528	3,53457093	3,53536582	0,034840597791394592	6	0,0070579336	0,000123174264
2	1	0	0	0	9939,5544	3,61258698	3,6132462	0,034751665055939782	6	0,00733298156	0,000125566323
2	1	0	0	0	9947,3560	3,69060278	3,69140315	0,035096688996190003	6	0,00760890543	0,000129556021
2	1	0	0	0	9955,1576	3,76861858	3,76926541	0,036261049078398112	6	0,00788998138	0,000136677525
2	1	0	0	0	9962,9592	3,84663439	3,84724355	0,038604315180607443	6	0,00818370096	0,000148520208
2	1	0	0	0	9970,7608	3,92465067	3,92529798	0,041987750834474899	6	0,00850094389	0,000164814439
2	0	0	0	0	9978,4528	3,99846601	3,99907541	0,013235979964654866	6	0,0088365972	5,29316821E-005
2	0	0	0	0	9986,3344	3,9196496	3,9202733	-0,016769664058099597	6	0,00874579325	6,57416676E-005
2	0	0	0	0	9994,1360	3,84163356	3,84234834	-0,020437257629560528	6	0,00859460887	7,85270604E-005
2	0	0	0	0	10001,9376	3,76361775	3,7642231	-0,021190094004850765	6	0,00842762087	7,97642424E-005
2	0	0	0	0	10009,7392	3,68560123	3,68620396	-0,020938455972268595	6	0,00825897511	7,71834166E-005
2	0	0	0	0	10017,5408	3,60758519	3,60819006	-0,021047748830083187	6	0,00809139758	7,59442773E-005
2	0	0	0	0	10025,3424	3,52956963	3,53026485	-0,021059837610529818	6	0,00792355929	7,43468045E-005
2	0	0	0	0	10033,1440	3,45155334	3,4522419	-0,021061565765800602	6	0,0077553154	7,27096194E-005
2	0	0	0	0	10040,9456	3,37353706	3,37418365	-0,020682320345831312	6	0,00758861285	6,97859505E-005
2	0	0	0	0	10048,7472	3,29552174	3,29630733	-0,020585496228671203	6	0,00742488261	6,78561191E-005
2	0	0	0	0	10056,5488	3,21750522	3,21821308	-0,020578214693900698	6	0,00726199523	6,62250823E-005
2	0	0	0	0	10064,3504	3,13948894	3,1400609	-0,021079505233231987	6	0,00709629804	6,61909289E-005
2	0	0	0	0	10072,1520	3,06147337	3,06203365	-0,021630797377804768	6	0,00692550978	6,62342281E-005
2	0	0	0	0	10079,9536	2,98345709	2,98396158	-0,021838047729236032	6	0,00675254688	6,51638984E-005
2	0	0	0	0	10087,7552	2,90544128	2,90614343	-0,021978156093542534	6	0,00657809293	6,38716738E-005
2	0	0	0	0	10095,5568	2,82742524	2,82808447	-0,022474965535501018	6	0,00640060613	6,35610995E-005
2	0	0	0	0	10103,3584	2,7494092	2,75005698	-0,022904015663597315	6	0,00621984527	6,29873466E-005
2	0	0	0	0	10111,1600	2,67139316	2,67209625	-0,023363627124732861	6	0,00603568694	6,24298627E-005
2	0	0	0	0	10118,9616	2,59337711	2,59400654	-0,023791888689932762	6	0,00584851671	6,17163168E-005
2	0	0	0	0	10126,7632	2,51536131	2,51612139	-0,024223177122486893	6	0,00565799931	6,09484523E-005
2	0	0	0	0	10134,5648	2,43734527	2,4380362	-0,024939275812357664	6	0,00546279363	6,08028568E-005
2	0	0	0	0	10142,3664	2,35932899	2,35994625	-0,026213865636640883	6	0,00525998371	6,1863313E-005
2	0	0	0	0	10150,1680	2,28131318	2,28193212	-0,02779335614414552	6	0,00504637649	6,34225507E-005
2	0	0	0	0	10157,9696	2,2032969	2,2039268	-0,029894155553645549	6	0,00481789978	6,58845311E-005
2	0	0	0	0	10165,7712	2,12528086	2,12595725	-0,031715932849760045	6	0,00457348581	6,74267139E-005
2	0	0	0	0	10173,5729	2,04726386	2,04798698	-0,032886772503069875	6	0,00431756256	6,73516843E-005
2	0	0	0	0	10181,3745	1,96924818	1,96992385	-0,034245866208894138	6	0,00405219849	6,74617477E-005
2	0	0	0	0	10189,1761	1,89123189	1,89178872	-0,036062381822486502	6	0,00377468206	6,82224054E-005
2	0	0	0	0	10196,9777	1,81321597	1,81389582	-0,03833999072359168	6	0,00348062557	6,95447525E-005
2	0	0	0	0	10204,7793	1,73520052	1,73586428	-0,04098419718265367	6	0,00316758314	7,11430039E-005
2	0	0	0	0	10212,5809	1,6571852	1,65779293	-0,043783354921932858	6	0,00283443509	7,25837381E-005
2	0	0	1	0	10220,3826	1,5791688	1,5796268	-0,047358677654906701	6	0,00247664377	7,48090388E-005
2	0	0	1	0	10228,1842	1,50115287	1,50179088	-0,052244699955745434	6	0,00208554044	7,84606164E-005
2	0	0	1	0	10235,9858	1,42313695	1,42367435	-0,059621304195994906	6	0,00164795644	8,48813215E-005
2	0	0	1	0	10243,7874	1,34512091	1,34556687	-0,071222046554019648	6	0,00113815558	9,58340243E-005
2	0	0	1	0	10251,5890	1,26710474	1,26764619	-0,094264902002005619	6	0,000502826471	0,000119494543
2	1	0	0	1	10259,2509	1,20959294	1,21037626	-0,091908170897527514	6	-0,000393956812	0,000111243469
2	1	0	1	1	10267,0926	1,28800905	1,28862596	-0,0055173242564908051	6	-0,00067959266	7,10976747E-006
2	1	0	1	1	10274,9742	1,36682522	1,36743259	0,014067656241995477	6	-0,000627415895	1,92365715E-005
2	1	0	1	1	10282,7758	1,44484127	1,44539738	0,021460373314632186	6	-0,000481796946	3,10187679E-005
2	1	0	0	0	10290,5167	1,52175736	1,52235281	0,02527371589218641	7	2,25306594E-005	3,84755112E-005
2	1	0	0	0	10298,3183	1,59977293	1,60045946	0,027341309607893466	7	0,000231899627	4,37586568E-005
2	1	0	0	0	10306,1199	1,67778826	1,67825508	0,028744632700862304	7	0,000455333386	4,8240825E-005
2	1	0	0	0	10313,9215	1,75580406	1,75638115	0,029833195015422586	7	0,00068806886	5,239846E-005
2	1	0	0	0	10321,7231	1,83382058	1,83445263	0,030540406669170803	7	0,000927140354	5,60249282E-005
2	1	0	0	0	10329,5247	1,91183627	1,91245329	0,031083784354055565	7	0,00117104047	5,94462872E-005
2	1	0	1	0	10337,3264	1,98985326	1,99044168	0,031339041254897005	7	0,00141816947	6,23785309E-005
2	1	0	1	0	10345,1280	2,06786942	2,06854033	0,03164737573738585	7	0,00166729279	6,54638716E-005
2	1	0	1	0	10352,9296	2,14588499	2,14660811	0,031738485218267168	7	0,00191727676	6,8130088E-005
2	1	0	1	0	10360,7312	2,22390127	2,22459531	0,031730349119580173	7	0,00216813735	7,05871862E-005
2	1	0	1	0	10368,5328	2,30191755	2,30249381	0,031858231467022464	7	0,00241990993	7,33533816E-005
2	1	0	1	0	10376,3344	2,37993336	2,38056588	0,032215836354427706	7	0,00267353421	7,66919184E-005
2	1	0	1	0	10384,1360	2,4579494	2,45863771	0,032526229753986778	7	0,00293005793	7,99702175E-005
2	1	0	1	0	10391,9376	2,53596544	2,53664732	0,033171713567787296	7	0,00319012883	8,41449364E-005
2	1	0	1	0	10399,7392	2,61398149	2,61462593	0,033815056922052333	7	0,00345495925	8,84137262E-005
2	1	0	1	0	10407,5408	2,69199753	2,69260859	0,034760580708583456	7	0,00372616015	9,35966382E-005
2	1	0	1	0	10415,3424	2,77001357	2,77070761	0,036284935065648755	7	0,00400657905	0,000100534948
2	1	0	1	0	10423,1440	2,84802938	2,84873986	0,037822264388927885	7	0,00429887837	0,000107745793
2	1	0	1	0	10430,9456	2,92604542	2,92661095	0,039544358776227014	7	0,00460409652	0,000115730953
2	1	0	1	0	10438,7472	3,00406146	3,00475883	0,041590654028200224	7	0,00492406636	0,000124969883
2	1	0	1	0	10446,5488	3,0820775	3,08280897	0,043383083263136115	7	0,00525958976	0,000133741763
2	1	0	1	0	10454,3504	3,16009331	3,1608181	0,043947767768124205	7	0,00560526736	0,000138910895
2	1	0	1	0	10462,1520	3,23810935	3,23868561	0,041822553275980832	7	0,00594511442	0,0001354501
2	1	0	1	0	10469,9536	3,31612539	3,31692243	0,038284030984397363	7	0,00626181811	0,000126985164
2	1	0	1	0	10477,7552	3,39414144	3,39468765	0,036043155287323546	7	0,00655444013	0,000122355254
2	1	0	1	0	10485,5568	3,47215796	3,47273231	0,035108570574300115	7	0,00683501735	0,000121922669
2	1	0	1	0	10493,3584	3,55017352	3,55085373	0,034747346011162918	7	0,00711122015	0,00012338275
2	1	0	1	0	10501,1600	3,62818933	3,62887645	0,034761712200836013	7	0,00738573074	0,000126145955
2	1	0	1	0	10508,9616	3,70620584	3,70695305	0,035394200115223149	7	0,00766177149	0,000131204637
2	1	0	1	0	10516,7632	3,78422189	3,78482008	0,036538147703847776	7	0,00794408377	0,000138290314
2	1	0	1	0	10524,5648	3,86223769	3,86294556	0,038878046872991123	7	0,00824061502	0,000150183783
2	1	0	1	0	10532,3664	3,94025397	3,9409194	0,042358087944901587	7	0,00856200419	0,000166929807
2	0	0	1	0	10540,0384	3,98306298	3,98360562	-0,0076852106204914406	7	0,00882452168	3,06148468E-005
2	0	0	0	0	10547,8802	3,90464568	3,90531802	-0,017802983396343315	7	0,00871120114	6,95263152E-005
2	0	0	1	0	10555,6817	3,82663059	3,82729697	-0,020502168802181821	7	0,008555362	7,8467885E-005
2	0	0	1	0	10563,4833	3,74861455	3,74925184	-0,021277295370910339	7	0,00838715583	7,97739413E-005
2	0	0	1	0	10571,2849	3,67059851	3,67131853	-0,020951507168359306	7	0,00821869168	7,69196558E-005
2	0	0	1	0	10579,0865	3,5925827	3,59325004	-0,02097734405421961	7	0,0080512194	7,537684E-005
2	0	0	1	0	10586,8881	3,5145669	3,51525903	-0,02113796622402192	7	0,00788336433	7,43054261E-005
2	0	0	0	0	10594,6898	3,43655014	3,43724799	-0,021003037850648416	7	0,00771516655	7,21926481E-005
2	0	0	0	0	10602,4914	3,35853434	3,3593092	-0,020611488695808256	7	0,00754886586	6,92403628E-005
2	0	0	0	0	10610,2930	3,28051805	3,28114367	-0,020348114388374029	7	0,00738563063	6,67650893E-005
2	0	0	0	0	10618,0946	3,20250225	3,20313406	-0,020497826676108653	7	0,00722277723	6,56572884E-005
2	0	0	0	0	10625,8962	3,12448645	3,12498641	-0,02130246880524625	7	0,00705638528	6,65699263E-005
2	0	0	0	0	10633,6978	3,04646993	3,04699039	-0,021533524013917782	7	0,00688526686	6,56124394E-005
2	0	0	0	0	10641,4994	2,96845412	2,96907854	-0,021681672024661389	7	0,00671245391	6,4374588E-005
2	0	0	0	0	10649,3010	2,89043808	2,89121604	-0,022159240012384784	7	0,00653769262	6,40671497E-005
2	0	0	0	0	10657,1026	2,81242204	2,81308174	-0,022555794396558358	7	0,00635964889	6,34512908E-005
2	0	0	0	0	10664,9042	2,73440599	2,73501396	-0,023033752147091078	7	0,00617837068	6,29976348E-005
2	0	0	0	0	10672,7058	2,65639019	2,65708923	-0,023421466436789018	7	0,00599371362	6,22329244E-005
2	0	0	0	0	10680,5074	2,57837415	2,57896805	-0,023924254788586006	7	0,00580587424	6,16998877E-005
2	0	0	0	0	10688,3090	2,50035787	2,50086021	-0,024335702102959101	7	0,00561451074	6,08601877E-005
2	0	0	0	0	10696,1106	2,4223423	2,42293525	-0,025179463283469206	7	0,00541784847	6,10082097E-005
2	0	0	0	0	10703,9122	2,34432602	2,34509015	-0,026365565562931126	7	0,00521311862	6,18296253E-005
2	0	0	0	0	10711,7138	2,26630974	2,26698256	-0,02820108007398192	7	0,0049968157	6,39313585E-005
2	0	0	0	0	10719,5154	2,18829393	2,18897748	-0,030186175183324115	7	0,00476523628	6,60768565E-005
2	0	0	0	0	10727,3170	2,11027789	2,11091876	-0,03202621344718393	7	0,00451814244	6,76047348E-005
2	0	0	0	0	10735,1186	2,03226185	2,03291798	-0,033044152392971258	7	0,00426041475	6,71760499E-005
2	0	0	0	0	10742,9202	1,95424581	1,95505095	-0,034435845169894118	7	0,00399330258	6,73238319E-005
2	0	0	0	0	10750,7218	1,87622988	1,87693441	-0,036528044250897286	7	0,00371339731	6,85607447E-005
2	0	0	0	0	10758,5234	1,79821372	1,79881775	-0,038767468779244365	7	0,00341650308	6,97356081E-005
2	0	0	0	0	10766,3250	1,72019768	1,72077239	-0,041229922798703686	7	0,00310070603	7,09473097E-005
2	0	0	0	0	10774,1266	1,64218163	1,6426959	-0,044638560205284339	7	0,00276461733	7,3327581E-005
2	0	0	0	0	10781,9282	1,56416559	1,56479311	-0,048054877603943808	7	0,00240227464	7,51959378E-005
2	0	0	0	0	10789,7298	1,48614979	1,4866811	-0,053260638921832109	7	0,00200497615	7,91815837E-005
2	0	0	0	0	10797,5314	1,40813375	1,40872037	-0,061072997955812173	7	0,00155761314	8,60347791E-005
2	0	0	0	0	10805,3330	1,3301177	1,33072853	-0,07347352689787479	7	0,00103309751	9,77733216E-005
2	0	0	0	0	10813,1746	1,25170171	1,25223386	-0,10143101170521102	7	0,000361347193	0,000127015344
2	0	0	0	0	10820,9762	1,17368567	1,17428195	-0,19473061020727494	7	-0,000725829857	0,000228668636
2	0	0	0	0	10828,7778	1,09566963	1,09636128	-0,4493002221678135	7	-0,00311621092	0,000492595369
2	0	0	0	0	10836,5794	1,01765358	1,01812911	-0,86676540129162662	7	-0,00818421692	0,000882479071
2	0	0	0	0	10844,4210	0,939237416	0,939936876	-1,3177424768606834	7	-0,0167731512	0,00123859476
2	0	0	0	0	10852,2226	0,861221492	0,861847103	-1,6927838874635981	7	-0,0286022481	0,00145892089
2	0	0	0	0	10860,0242	0,78320545	0,783721626	-1,9808923640736822	7	-0,0429828614	0,00155246817
2	0	0	0	0	10867,8258	0,705189407	0,705769837	-2,1762349500700182	7	-0,0592294447	0,00153592101
2	0	0	0	0	10875,6275	0,62717247	0,627839863	-2,2448581949076925	7	-0,0765004531	0,00140941143
2	0	0	0	0	10883,4291	0,549157083	0,549839556	-2,3595419444495072	7	-0,094454512	0,00129736948
2	1	0	1	1	10891,1012	0,527552903	0,528093934	-1,5235454525660614	7	-0,111404769	0,000804575102
2	1	0	1	1	10898,9428	0,605969071	0,606522083	-0,2751415746493473	7	-0,117867418	0,000166879443
2	1	0	1	1	10906,8244	0,684785247	0,685470879	0,40695433415196723	7	-0,117132269	0,000278955355
2	1	0	1	1	10914,6261	0,762801886	0,763449788	0,80698185429120397	7	-0,112264983	0,000616090139
2	1	0	1	1	10922,4677	0,841216683	0,841752112	1,0517499082945747	7	-0,104887813	0,000885312678
2	1	0	0	1	10930,2694	0,919233382	0,919775665	1,1902250110827128	7	-0,0960633606	0,00109474
2	1	0	0	1	10938,0710	0,997249365	0,997954607	1,2326914884701914	7	-0,086563766	0,00123017014
2	1	0	0	1	10945,8726	1,07526541	1,07582188	1,1933512352406979	7	-0,0770398751	0,00128383341
2	1	0	0	1	10953,6742	1,15328145	1,15408528	1,0700256872784237	7	-0,0681687519	0,0012349009
2	1	0	0	1	10961,4758	1,23129749	1,23188579	0,89789307959101722	7	-0,0604705811	0,00110610167
2	1	0	0	1	10969,2774	1,30931342	1,3099978	0,71914599070118618	7	-0,0541612692	0,000942079641
2	1	0	0	1	10977,0790	1,38732946	1,38792288	0,55738514234070547	7	-0,049194824	0,000773607579
2	1	0	0	1	10984,9206	1,46574557	1,46631551	0,4253493918588873	7	-0,04535513	0,000623696425
2	1	0	1	1	10989,6314	1,5129056	1,51338494	0,36244200418392755	7	-0,0435038134	0,000548514246