File: Experimentelles/Ausgewaehlte_Daten/LAGP/CV/LAGP_Korrosion_02_CV_C02.txt
EC-Lab ASCII FILE
Nb header lines : 64

Cyclic Voltammetry

Run on channel : 2 (SN 6986)
Grouped channel(s) : 2
User :
CE vs. WE compliance from -10 V to 10 V
Electrode connection : standard
Ewe ctrl range : min = 0,00 V, max = 5,00 V
Acquisition started on : 08.27.2015 14:25:34
Saved on :
	File : LAGP_Korrosion_02_CV_C02.mpr
	Directory : C:\Gielisch\NeueZelle\LiS-Test\Paul\
	Host : 192.168.0.2
Device : VMP3 (SN 0324)
Address : 192.168.0.1
EC-Lab for windows v10.33 (software)
Internet server v10.33 (firmware)
Command interpretor v10.32 (firmware)
Electrode material :
Initial state :
Electrolyte :
Comments :
Mass of active material : 0,001 mg
 at x = 0,000
Molecular weight of active material (at x = 0) : 0,001 g/mol
Atomic weight of intercalated ion : 0,001 g/mol
Acquisition started at : xo = 0,000
Number of e- transfered per intercalated ion : 1
for DX = 1, DQ = 26,801 mA.h
Battery capacity : 0,000 A.h
Electrode surface area : 0,001 cm²
Characteristic mass : 0,001 g
Ei (V)              0,000
vs.                 Eoc
dE/dt               10,000
dE/dt unit          mV/s
E1 (V)              4,000
vs.                 Ref
Step percent        50
N                   10
E range min (V)     0,000
E range max (V)     5,000
I Range             Auto
Bandwidth           5
E2 (V)              1,200
vs.                 Ref
nc cycles           0
Reverse Scan        1
Ef (V)              0,000
vs.                 Eoc

Number of loops : 7
Loop 0 from point number 0 to 5600
Loop 1 from point number 5601 to 11202
Loop 2 from point number 11203 to 16804
Loop 3 from point number 16805 to 22406
Loop 4 from point number 22407 to 28007
Loop 5 from point number 28008 to 33609
Loop 6 from point number 33610 to 39210

mode	ox/red	error	control changes	counter inc.	time/s	control/V	Ewe/V	<I>/mA	cycle number	(Q-Qo)/C	P/W
2	1	1	0	0	0,0508	2,99561048	2,99594879	-0,0041857114993035795	1	0	1,25401775E-005
2	1	0	1	0	7,5472	3,07057476	3,07089138	0,017441573947305834	1	0,000127718376	5,35611798E-005
2	1	0	1	0	15,0488	3,14559007	3,14583421	0,018196415203554518	1	0,00026444238	5,72429053E-005
2	1	0	1	0	22,5504	3,22060561	3,22092438	0,018935572306401322	1	0,000406930631	6,09900453E-005
2	1	0	0	0	30,0519	3,29562163	3,29597902	0,019931526762926874	1	0,000555535953	6,56938937E-005
2	1	0	0	0	37,5534	3,37063646	3,3709619	0,021070659563756032	1	0,000712431967	7,1028393E-005
2	1	0	0	0	45,0550	3,44565177	3,44594097	0,022558022950155133	1	0,000879014959	7,77336172E-005
2	1	0	0	0	52,5566	3,52066731	3,52092862	0,024317897761378506	1	0,00105821935	8,56215847E-005
2	1	0	1	0	60,0580	3,59568262	3,59604096	0,027119417778319664	1	0,00125426182	9,75225339E-005
2	1	0	1	0	67,5596	3,67069769	3,67086864	0,03002531526834473	1	0,00147132506	0,000110218985
2	1	0	1	0	75,0612	3,74571347	3,74593616	0,033340385916677427	1	0,0017118362	0,000124890954
2	1	0	0	0	82,5627	3,82072926	3,82084417	0,036701637235341478	1	0,0019777033	0,000140231234
2	1	0	0	0	90,0642	3,89574432	3,8960762	0,040796889733798912	1	0,00227154931	0,000158947791
2	1	0	0	0	97,5658	3,97075963	3,97099805	0,043005467677075027	1	0,00259087072	0,000170774627
2	0	0	0	0	105,0278	3,9546566	3,95485115	-0,014076561222922141	1	0,00268169353	5,56707055E-005
2	0	0	1	0	112,5293	3,87964082	3,8798182	-0,019694400590604371	1	0,0025478194	7,64106953E-005
2	0	0	1	0	120,0308	3,80462575	3,8048265	-0,021600244663811011	1	0,00238859328	8,21851863E-005
2	0	0	1	0	127,5324	3,72961044	3,72981668	-0,021288368876816515	1	0,00222199108	7,94017105E-005
2	0	0	1	0	135,0340	3,6545949	3,65473509	-0,021434021775214058	1	0,00205712556	7,83356736E-005
2	0	0	0	0	142,5354	3,57957959	3,57984996	-0,021009409789392656	1	0,00189505843	7,52105334E-005
2	0	0	0	0	150,0370	3,50456405	3,50490212	-0,020692086371127517	1	0,00173542299	7,25237405E-005
2	0	0	0	0	157,5386	3,42954874	3,42986989	-0,020348185112837702	1	0,00157755171	6,97916257E-005
2	0	0	1	0	165,0401	3,35453272	3,35464168	-0,020385423844475254	1	0,00142142293	6,83857943E-005
2	0	0	1	0	172,5416	3,27951789	3,27964091	-0,020408731482112474	1	0,00126492302	6,69333094E-005
2	0	0	1	0	180,0432	3,20450234	3,20472431	-0,020691409562628147	1	0,00110768178	6,63102619E-005
2	0	0	1	0	187,5448	3,12948704	3,12974548	-0,020729166078295059	1	0,000949245994	6,48770147E-005
2	0	0	0	0	195,0462	3,05447173	3,05465531	-0,020725503811802464	1	0,000790483376	6,33092714E-005
2	0	0	0	0	202,5478	2,97945642	2,97976112	-0,021248360821994522	1	0,000629765389	6,33150412E-005
2	0	0	0	0	210,0494	2,90444088	2,90468431	-0,021575082184022461	1	0,00046533873	6,26688052E-005
2	0	0	1	0	217,5508	2,82942629	2,82962132	-0,02241122906559681	1	0,000297258521	6,34152893E-005
2	0	0	1	0	225,0524	2,75441003	2,75482011	-0,023934350368411517	1	0,000120403856	6,59348298E-005
2	0	0	1	0	232,5540	2,67939472	2,6796453	-0,026470601705282467	1	-7,10343957E-005	7,09318265E-005
2	0	0	1	0	240,0556	2,60437918	2,60468006	-0,02956006535829081	1	-0,000283865636	7,69945109E-005
2	0	0	0	0	247,5570	2,52936387	2,52979922	-0,032708153917661242	1	-0,00052001694	8,2745064E-005
2	0	0	0	0	255,0586	2,45434856	2,45478463	-0,036259263387398374	1	-0,000781595008	8,90086812E-005
2	0	0	0	0	262,5602	2,37933326	2,37949872	-0,040029572999898291	1	-0,00107122178	9,52503178E-005
2	0	0	1	0	270,0617	2,304317	2,30457711	-0,043841967550538816	1	-0,00138951407	0,000101037193
2	0	0	1	0	277,5632	2,22930217	2,22964764	-0,046984003214338042	1	-0,00173394417	0,000104757775
2	0	0	1	0	285,0648	2,15428686	2,1545043	-0,049967663483349357	1	-0,00210053497	0,000107655549
2	0	0	1	0	292,5664	2,07927132	2,07969904	-0,054268669725085261	1	-0,00249428651	0,000112862501
2	0	0	0	0	300,0678	2,00425625	2,00444889	-0,057687701364220301	1	-0,00291689485	0,00011563205
2	0	0	0	0	307,5694	1,92924058	1,92947006	-0,061672845967459149	1	-0,00336723891	0,000118995908
2	0	0	0	0	315,0710	1,85422516	1,85461116	-0,066025069880264461	1	-0,00384997553	0,000122450831
2	0	0	1	0	322,5725	1,77920949	1,77946317	-0,069099674305926003	1	-0,00436096918	0,000122960322
2	0	0	1	0	330,0740	1,70419431	1,70456028	-0,072139499674516608	1	-0,0048938524	0,000122966128
2	0	0	1	0	337,5756	1,62917888	1,62948787	-0,076207803743374208	1	-0,00545267435	0,000124179685
2	0	0	1	0	345,0772	1,55416346	1,55440223	-0,081014631255702298	1	-0,00604501227	0,00012592932
2	0	0	0	0	352,5786	1,47914803	1,47942781	-0,089044179896720538	1	-0,00668078521	0,000131734443
2	0	0	0	0	360,1202	1,40373278	1,40397286	-0,10370916053997709	1	-0,0074119335	0,000145604849
2	0	0	0	0	367,6218	1,32871735	1,32904279	-0,12372492046819784	1	-0,00826186407	0,000164435711
2	0	0	1	0	375,1233	1,25370157	1,25414431	-0,1599472066133112	1	-0,00931124296	0,000200596885
2	1	0	0	1	382,4454	1,21959484	1,22010183	-0,12457532668486149	1	-0,0106202643	0,00015199458
2	1	0	0	1	389,9870	1,29501045	1,29536104	-0,024472164498918093	1	-0,011088375	3,17002887E-005
2	1	0	1	1	397,5285	1,37042582	1,37069166	0,0029681723470724314	1	-0,0111491298	4,06844902E-006
2	1	0	1	1	405,0700	1,44584143	1,44626665	0,013716539363721736	1	-0,0110788783	1,98377729E-005
2	1	0	1	1	412,5716	1,52085686	1,52125895	0,019694562779342784	1	-0,0109484084	2,9960529E-005
2	1	0	1	1	420,0732	1,59587216	1,59633112	0,023610045421971981	1	-0,0107816486	3,76894495E-005
2	1	0	0	1	427,5746	1,67088759	1,67121196	0,026170562478472214	1	-0,010591412	4,37365561E-005
2	1	0	0	1	435,0762	1,7459029	1,7462709	0,028124984957415776	1	-0,0103845904	4,91138417E-005
2	1	0	0	1	442,5778	1,82091832	1,82124078	0,029359596289901312	1	-0,0101657016	5,34708925E-005
2	1	0	1	1	450,0793	1,89593303	1,89624524	0,03025665088492352	1	-0,00993860699	5,7374029E-005
2	1	0	1	1	457,5808	1,97094917	1,97133636	0,030812047327075302	1	-0,00970612187	6,07409092E-005
2	1	0	1	1	465,0824	2,04596472	2,04650664	0,031122107757255488	1	-0,0094705252	6,36916011E-005
2	1	0	1	1	472,5840	2,12098002	2,12118745	0,031284399908380947	1	-0,00923347287	6,63600731E-005
2	1	0	0	1	480,0854	2,19599557	2,19615293	0,031364987988059309	1	-0,00899551809	6,88823129E-005
2	1	0	0	1	487,5870	2,27101088	2,27146125	0,031638136810484883	1	-0,00875614211	7,18648007E-005
2	1	0	0	1	495,0886	2,34602642	2,34640431	0,031937738121659898	1	-0,00851480477	7,49388491E-005
2	1	0	0	1	502,5902	2,42104173	2,42133904	0,032663947815927405	1	-0,00826957356	7,90904887E-005
2	1	0	1	1	510,0916	2,49605703	2,49648666	0,033427234195793574	1	-0,00801846012	8,34506427E-005
2	1	0	1	1	517,5932	2,5710721	2,57147408	0,034263977091069651	1	-0,00776117947	8,8108929E-005
2	1	0	1	1	525,0948	2,64608788	2,64638186	0,035260343074764224	1	-0,00749763101	9,33123301E-005
2	1	0	0	1	532,5962	2,72110295	2,7213695	0,036796419751934042	1	-0,00722426409	0,000100136655
2	1	0	0	1	540,0978	2,79611874	2,79645085	0,038845197142412301	1	-0,00693745725	0,000108628687
2	1	0	0	1	547,5994	2,8711338	2,87135839	0,041328239293458579	1	-0,00663392013	0,000118668184
2	1	0	1	1	555,1009	2,94614863	2,94648337	0,043834736828419315	1	-0,00631100172	0,000129158318
2	1	0	0	0	562,5522	3,01976466	3,02028632	0,045335190810470214	2	0,000108413173	0,000136925257
2	1	0	0	0	570,0538	3,09478021	3,09521627	0,046789135516586752	2	0,000457469199	0,000144822494
2	1	0	1	0	577,5553	3,16979527	3,17039537	0,046947411153126618	2	0,000812823768	0,000148841849
2	1	0	1	0	585,0568	3,24481058	3,24533892	0,04516983685014697	2	0,00116191362	0,000146591425
2	1	0	1	0	592,5584	3,31982613	3,3203795	0,042720160830800435	2	0,00149453827	0,000141847151
2	1	0	1	0	600,0600	3,39484143	3,39526463	0,041327491743248704	2	0,00181231683	0,000140317774
2	1	0	0	0	607,5614	3,46985698	3,47052026	0,041206456181869133	2	0,00212492747	0,000143007841
2	1	0	0	0	615,0630	3,54487228	3,54548502	0,041950904561586342	2	0,00244017248	0,000148736304
2	1	0	0	0	622,5646	3,61988759	3,62041068	0,04271753572565673	2	0,00276073883	0,000154655019
2	1	0	1	0	630,0661	3,69490266	3,69531822	0,043931720578424429	2	0,00308842491	0,00016234169
2	1	0	1	0	637,5676	3,76991844	3,77045751	0,045615668188676902	2	0,00342699932	0,000171991938
2	1	0	1	0	645,0692	3,84493375	3,84542751	0,047947728760644128	2	0,00378112751	0,000184379518
2	1	0	1	0	652,5708	3,91994929	3,92050385	0,051342742086422534	2	0,00415662257	0,000201289411
2	1	0	0	0	660,0722	3,9949646	3,99558091	0,053699577572168922	2	0,00455417577	0,000214561005
2	0	0	0	0	667,5142	3,93065119	3,93123889	-0,012340715450355422	2	0,00455253199	4,85142991E-005
2	0	0	0	0	675,0158	3,85563588	3,85609531	-0,018250381610683888	2	0,00443119742	7,03752085E-005
2	0	0	0	0	682,5174	3,78062034	3,78104496	-0,020521333822721811	2	0,00428122189	7,75920853E-005
2	0	0	1	0	690,0188	3,70560503	3,70602608	-0,021052092406467645	2	0,0041227499	7,8019606E-005
2	0	0	1	0	697,5204	3,63058949	3,63112259	-0,021281344277128854	2	0,00396145601	7,72751664E-005
2	0	0	1	0	705,0220	3,55557418	3,55598426	-0,021555829597033392	2	0,00379760214	7,66521916E-005
2	0	0	0	0	712,5235	3,48055959	3,48111773	-0,021535350448742275	2	0,00363201206	7,49670871E-005
2	0	0	0	0	720,0250	3,40554333	3,40592861	-0,021414182640405206	2	0,00346720731	7,29351741E-005
2	0	0	0	0	727,5266	3,33052802	3,33100724	-0,021228931305274701	2	0,00330396858	7,07137224E-005
2	0	0	0	0	735,0282	3,25551224	3,25600648	-0,021470881593241174	2	0,00314085931	6,99093289E-005
2	0	0	1	0	742,5296	3,18049717	3,18100119	-0,021998001001688973	2	0,00297502289	6,99756638E-005
2	0	0	1	0	750,0312	3,10548186	3,10595083	-0,022645620657217286	2	0,00280412403	7,03361875E-005
2	0	0	1	0	757,5328	3,03046679	3,03088331	-0,02250749325698792	2	0,00263155019	6,82175887E-005
2	0	0	1	0	765,0344	2,95545053	2,95601511	-0,022463083883953184	2	0,00245962129	6,64012186E-005
2	0	0	0	0	772,5358	2,88043594	2,88100576	-0,022855383667370611	2	0,00228671916	6,58464924E-005
2	0	0	0	0	780,0374	2,80542016	2,80597782	-0,02324565233774817	2	0,00211078511	6,52267845E-005
2	0	0	0	0	787,5390	2,73040509	2,73102546	-0,023836544249206838	2	0,00193095987	6,50982111E-005
2	0	0	1	0	795,0404	2,65538931	2,65577984	-0,024364990458168422	2	0,00174732995	6,47080524E-005
2	0	0	1	0	802,5420	2,58037424	2,58097887	-0,024940891898478534	2	0,0015597957	6,43719177E-005
2	0	0	1	0	810,0436	2,5053587	2,50588894	-0,02564925127835191	2	0,00136721181	6,42741725E-005
2	0	0	0	0	817,5451	2,43034363	2,43072796	-0,026868535977997155	2	0,00116749178	6,53101015E-005
2	0	0	0	0	825,0466	2,35532784	2,35590458	-0,028483915397104154	2	0,000956877717	6,71053858E-005
2	0	0	0	0	832,5482	2,28031254	2,28087687	-0,030740571083259507	2	0,00073159067	7,01154568E-005
2	0	0	0	0	840,0498	2,20529699	2,20568419	-0,033212527990582496	2	0,000488174875	7,32563494E-005
2	0	0	1	0	847,5512	2,13028169	2,13078117	-0,034896325966757344	2	0,000229102399	7,43564378E-005
2	0	0	1	0	855,0528	2,05526638	2,05583334	-0,036664720848892371	2	-4,18129239E-005	7,53765562E-005
2	0	0	1	0	862,5544	1,98025095	1,98082328	-0,038975383073125869	2	-0,000327913644	7,72033454E-005
2	0	0	1	0	870,0560	1,90523553	1,90587127	-0,042460162778971354	2	-0,000636042678	8,0923608E-005
2	0	0	0	0	877,5574	1,8302201	1,83093679	-0,046195104407767526	2	-0,000971854839	8,45803152E-005
2	0	0	0	0	885,0590	1,7552048	1,75571787	-0,050022876847328422	2	-0,00133622752	8,78260616E-005
2	0	0	0	0	892,5606	1,68018937	1,68075681	-0,053724104754143686	2	-0,00172851502	9,02971515E-005
2	0	0	1	0	900,0620	1,60517395	1,60576904	-0,058367143074671718	2	-0,00215153582	9,37241493E-005
2	0	0	1	0	907,5636	1,53015876	1,53067017	-0,063471743871492237	2	-0,00261096237	9,7154305E-005
2	0	0	1	0	915,0652	1,45514321	1,45562005	-0,071667099837213978	2	-0,00311755436	0,000104320068
2	0	0	0	0	922,5667	1,38012731	1,38068545	-0,084968773378121037	2	-0,00370491762	0,000117315147
2	0	0	0	0	930,1082	1,3047123	1,30535519	-0,10551253211236045	2	-0,00442152983	0,000137731331
2	0	0	0	0	937,6098	1,22969687	1,23035419	-0,15193766172699376	2	-0,00536002778	0,000186937134
2	1	0	0	1	944,9318	1,24359989	1,2440263	-0,058392968468574694	2	-0,00630483497	7,26423896E-005
2	1	0	0	1	952,5134	1,31941533	1,32001543	-0,0035801868636756026	2	-0,00649081636	4,72590182E-006
2	1	0	0	1	960,0550	1,39483082	1,39545715	0,012298057480991165	2	-0,00644601556	1,7161412E-005
2	1	0	0	1	967,5566	1,46984625	1,4704982	0,019631916350961008	2	-0,00631989492	2,8868697E-005
2	1	0	1	1	975,0581	1,54486263	1,54523301	0,023930664117429334	2	-0,00615199469	3,69784539E-005
2	1	0	1	1	982,5596	1,61987698	1,62045598	0,026699637343106653	2	-0,005957969	4,3265587E-005
2	1	0	1	1	990,0612	1,69489241	1,69533694	0,028688384737405536	2	-0,00574701233	4,8636477E-005
2	1	0	1	1	997,5628	1,76990783	1,77036905	0,02997247213325305	2	-0,00552353635	5,30623365E-005
2	1	0	0	1	1005,0642	1,84492326	1,84563291	0,031132861708842771	2	-0,00529119931	5,74598344E-005
2	1	0	0	1	1012,5658	1,91993868	1,92055368	0,031573357715926618	2	-0,00505275326	6,06383292E-005
2	1	0	0	1	1020,0674	1,99495411	1,99545693	0,032068717228766144	2	-0,00481045805	6,39917416E-005
2	1	0	1	1	1027,5688	2,06996942	2,07062697	0,032192710036825779	2	-0,00456623826	6,66590931E-005
2	1	0	1	1	1035,0704	2,14498472	2,14546776	0,03216438092015417	2	-0,00432205247	6,90076413E-005
2	1	0	1	1	1042,5720	2,22000003	2,22058058	0,032135588457566477	2	-0,00407779729	7,13596601E-005
2	1	0	1	1	1050,0736	2,29501557	2,29564381	0,032190202724843853	2	-0,00383320893	7,38972376E-005
2	1	0	0	1	1057,5750	2,37003112	2,37047148	0,032611158736809088	2	-0,00358710811	7,73038191E-005
2	1	0	0	1	1065,0766	2,44504642	2,44550776	0,033031549925605363	2	-0,00333770318	8,07789111E-005
2	1	0	0	1	1072,5782	2,52006197	2,52052259	0,033818831059357344	2	-0,00308369659	8,52411249E-005
2	1	0	1	1	1080,0796	2,59507728	2,59559894	0,034328289998315942	2	-0,00282516377	8,91024756E-005
2	1	0	1	1	1087,5812	2,67009282	2,67050219	0,035277924737548096	2	-0,00256116758	9,42097759E-005
2	1	0	1	1	1095,0828	2,74510813	2,74563241	0,036728856395240262	2	-0,00228809798	0,000100843936
2	1	0	0	1	1102,5843	2,82012248	2,82057452	0,03855099639879289	2	-0,00200261688	0,000108735956
2	1	0	0	1	1110,0858	2,89513898	2,895679	0,040719551206738982	2	-0,00170222868	0,000117910749
2	1	0	0	1	1117,5874	2,97015452	2,97066236	0,042732368693342291	2	-0,00138612115	0,000126943443
2	1	0	0	0	1124,9503	3,04266906	3,04303694	0,04473548200570576	3	0,000208051104	0,000136131726
2	1	0	0	0	1132,4518	3,1176846	3,11818981	0,046018098739700083	3	0,000553093851	0,000143493162
2	1	0	0	0	1139,9534	3,19269991	3,19321322	0,045822654514470093	3	0,000902515545	0,000146321501
2	1	0	0	0	1147,4550	3,26771545	3,26825881	0,043169859460451514	3	0,00124028046	0,000141090277
2	1	0	1	0	1154,9564	3,34273076	3,34319782	0,040435720946536416	3	0,00155643804	0,000135184615
2	1	0	1	0	1162,4580	3,41774631	3,41819429	0,038989457806261952	3	0,00185674615	0,000133273541
2	1	0	1	0	1169,9596	3,49276161	3,49327993	0,03919933740636	3	0,00215286366	0,000136934264
2	1	0	0	0	1177,4611	3,5677774	3,56829047	0,039627597457173037	3	0,00245165825	0,000141402779
2	1	0	0	0	1184,9626	3,64279222	3,64338899	0,040271941098143194	3	0,00275452156	0,00014672635
2	1	0	0	0	1192,4642	3,71780801	3,71828771	0,041502498900862938	3	0,00306411809	0,00015431823
2	1	0	0	0	1199,9658	3,79282308	3,79334664	0,043386720405477638	3	0,00338523602	0,000164580866
2	1	0	1	0	1207,4672	3,86783862	3,86819172	0,046477105231369274	3	0,00372480857	0,00017978235
2	1	0	1	0	1214,9688	3,94285393	3,94329071	0,050196312273059264	3	0,00409146538	0,000197938658
2	0	0	1	0	1222,3808	3,98306227	3,98355532	-0,0021338933441223152	3	0,00439860346	8,50048218E-006
2	0	0	1	0	1229,9224	3,90764642	3,90814018	-0,015382814354573728	3	0,00431781542	6,01181964E-005
2	0	0	0	0	1237,4238	3,83263111	3,83295679	-0,01945065747929256	3	0,00418123649	7,4553529E-005
2	0	0	0	0	1244,9254	3,75761557	3,75816536	-0,020789038995712106	3	0,00402561855	7,81286435E-005
2	0	0	0	0	1252,4270	3,68260026	3,68312335	-0,020992575644481011	3	0,00386568205	7,73182473E-005
2	0	0	1	0	1259,9285	3,60758424	3,60804582	-0,021354902637864291	3	0,00370372436	7,70494662E-005
2	0	0	1	0	1267,4300	3,53256941	3,53305483	-0,021456016615654051	3	0,00353954523	7,58052847E-005
2	0	0	1	0	1274,9316	3,45755434	3,45812511	-0,021601589090466749	3	0,00337441359	7,47009981E-005
2	0	0	0	0	1282,4331	3,38253903	3,3829329	-0,021175896772135418	3	0,00321078347	7,16366412E-005
2	0	0	0	0	1289,9346	3,30752325	3,308038	-0,02106599091483216	3	0,00304907397	6,96870993E-005
2	0	0	0	0	1297,4362	3,23250771	3,23313046	-0,021288874261598701	3	0,00288698985	6,88297077E-005
2	0	0	0	0	1304,9378	3,1574924	3,15800047	-0,021794686936859709	3	0,00272237021	6,88276341E-005
2	0	0	1	0	1312,4392	3,08247709	3,08291912	-0,022224511257027846	3	0,00255326251	6,85163686E-005
2	0	0	1	0	1319,9408	3,00746202	3,00783825	-0,021989763684191366	3	0,0023836582	6,61416489E-005
2	0	0	1	0	1327,4424	2,93244648	2,93271255	-0,022298034302096973	3	0,00221440522	6,53937241E-005
2	0	0	1	0	1334,9440	2,85743117	2,85801816	-0,022507952409796451	3	0,00204365607	6,43281383E-005
2	0	0	0	0	1342,4454	2,78241563	2,78297305	-0,023108010387255018	3	0,0018696707	6,43089734E-005
2	0	0	0	0	1349,9470	2,70740032	2,70790958	-0,02343259028728223	3	0,00169185759	6,34533353E-005
2	0	0	0	0	1357,4486	2,63238478	2,63288593	-0,023919119958817514	3	0,00151052966	6,29763163E-005
2	0	0	1	0	1364,9500	2,55736947	2,55779171	-0,024431851513562973	3	0,00132583897	6,24915847E-005
2	0	0	1	0	1372,4516	2,48235393	2,48293734	-0,02507828886586208	3	0,00113666756	6,22678199E-005
2	0	0	1	0	1379,9532	2,40733862	2,40774941	-0,026328029852636269	3	0,000940518454	6,33913005E-005
2	0	0	0	0	1387,4547	2,33232403	2,33282018	-0,027977502291116285	3	0,000733918452	6,52664821E-005
2	0	0	0	0	1394,9562	2,25730777	2,25782681	-0,030248094979604454	3	0,000512736384	6,82949612E-005
2	0	0	0	0	1402,4578	2,18229222	2,18269253	-0,032376092582665325	3	0,000274377962	7,06670544E-005
2	0	0	0	0	1409,9594	2,10727692	2,10764265	-0,033870771975704845	3	2,22794843E-005	7,13874833E-005
2	0	0	1	0	1417,4608	2,03226161	2,03269482	-0,035552841115363526	3	-0,000240969704	7,22680779E-005
2	0	0	1	0	1424,9624	1,95724618	1,95784509	-0,037927238986379066	3	-0,000519860885	7,42556585E-005
2	0	0	1	0	1432,4640	1,88223076	1,88271487	-0,041258446061638534	3	-0,000820180634	7,76778907E-005
2	0	0	0	0	1439,9655	1,80721605	1,80764294	-0,044726786130966202	3	-0,00114597345	8,08500627E-005
2	0	0	0	0	1447,4670	1,73220003	1,73273504	-0,048313056347305427	3	-0,0014980433	8,37137268E-005
2	0	0	0	0	1454,9686	1,6571846	1,6578362	-0,051893965763695315	3	-0,00187565433	8,60316941E-005
2	0	0	0	0	1462,4702	1,58216918	1,58271956	-0,056163792946824166	3	-0,0022829785	8,8891531E-005
2	0	0	1	0	1469,9716	1,50715399	1,50782537	-0,061391174663893018	3	-0,00272602797	9,25671702E-005
2	0	0	1	0	1477,4732	1,43213856	1,43262398	-0,070016057377129242	3	-0,00321971904	0,000100306686
2	0	0	1	0	1484,9748	1,35712326	1,35766733	-0,083789480418932749	3	-0,00379584776	0,000113758237
2	0	0	1	0	1492,5164	1,28170776	1,28204322	-0,10687347346295917	3	-0,0045089242	0,00013701641
2	0	0	0	0	1500,0178	1,20669234	1,20726919	-0,16936267669209216	3	-0,00550355343	0,000204466342
2	1	0	1	1	1507,3800	1,26700473	1,26763225	-0,028255961076528947	3	-0,00611246563	3,58181678E-005
2	1	0	1	1	1514,9216	1,3424201	1,34301591	0,0055530987678880442	3	-0,00617064489	7,45790021E-006
2	1	0	0	1	1522,4630	1,41783559	1,41834652	0,016448177069563613	3	-0,00608027261	2,33292139E-005
2	1	0	0	1	1529,9646	1,49285102	1,4934411	0,022142036539864685	3	-0,00593079394	3,30678267E-005
2	1	0	0	1	1537,4662	1,56786644	1,5683707	0,025882905055941264	3	-0,00574773178	4,059399E-005
2	1	0	0	1	1544,9678	1,64288187	1,64347887	0,027733294875361024	3	-0,00554391043	4,55790832E-005
2	1	0	1	1	1552,4692	1,7178973	1,71852446	0,029324144711372902	3	-0,00532644754	5,03942611E-005
2	1	0	1	1	1559,9708	1,79291248	1,79363656	0,030396279934966189	3	-0,00509860693	5,45198782E-005
2	1	0	1	1	1567,4724	1,86792803	1,8685931	0,031349499528813773	3	-0,00486327522	5,85794587E-005
2	1	0	0	1	1574,9738	1,94294345	1,94357634	0,031862932908417741	3	-0,00462291343	6,19280399E-005
2	1	0	0	1	1582,4754	2,01795888	2,01834631	0,032314465730451162	3	-0,00437920773	6,52217859E-005
2	1	0	0	1	1589,9770	2,09297395	2,09349442	0,031522568638643642	3	-0,00413410645	6,59923244E-005
2	1	0	0	1	1597,4786	2,16798925	2,16843724	0,032301162197082125	3	-0,00388899236	7,00430464E-005
2	1	0	1	1	1604,9800	2,2430048	2,2435143	0,032298311435927968	3	-0,00364366989	7,24617203E-005
2	1	0	1	1	1612,4816	2,31802011	2,31853747	0,032389007694156883	3	-0,00339777488	7,50951294E-005
2	1	0	1	1	1619,9832	2,39303565	2,39357877	0,032788890073317312	3	-0,00314994156	7,84827935E-005
2	1	0	0	1	1627,4846	2,46805096	2,46855664	0,033346269939945158	3	-0,00289862137	8,23171576E-005
2	1	0	0	1	1634,9862	2,5430665	2,54372311	0,033972424416181869	3	-0,00264299707	8,64164394E-005
2	1	0	0	1	1642,4878	2,61808181	2,61864424	0,034490142552251027	3	-0,00238330266	9,0317415E-005
2	1	0	0	1	1649,9894	2,69309735	2,69357419	0,035682473450833114	3	-0,0021173798	9,61133919E-005
2	1	0	1	1	1657,4908	2,76811266	2,76862407	0,03709997577351257	3	-0,00184186036	0,000102715887
2	1	0	1	1	1664,9924	2,84312797	2,84360719	0,038916057825122976	3	-0,00155364512	0,000110661982
2	1	0	1	1	1672,4940	2,91814351	2,9185729	0,04089587908324416	3	-0,00125104422	0,000119357603
2	1	0	0	1	1679,9955	2,99315953	2,99376607	0,043033643991549466	3	-0,000932606054	0,00012883266
2	1	0	1	0	1687,3484	3,06587386	3,06637192	0,045015757217899853	4	0,00031047684	0,000138035059
2	1	0	1	0	1694,8500	3,14088941	3,14127517	0,045841211353911507	4	0,000655304117	0,00014399986
2	1	0	0	0	1702,3514	3,21590447	3,21641827	0,044605853600875987	4	0,000999376876	0,000143471087
2	1	0	0	0	1709,8530	3,29092026	3,29138446	0,041530623678462912	4	0,00132663886	0,000136693256
2	1	0	0	0	1717,3546	3,36593533	3,36644316	0,03899326193560343	4	0,00163141848	0,000131268593
2	1	0	1	0	1724,8561	3,44095159	3,44160581	0,037978372562391782	4	0,00192258146	0,000130706583
2	1	0	1	0	1732,3576	3,51596618	3,51651621	0,03831948228697801	4	0,0022125484	0,000134751084
2	1	0	1	0	1739,8592	3,59098148	3,59144616	0,038584473698089427	4	0,00250381115	0,000138574062
2	1	0	1	0	1747,3608	3,66599655	3,66660333	0,039275467322483923	4	0,00279853703	0,000144007558
2	1	0	0	0	1754,8622	3,74101233	3,74141312	0,04055898547327769	4	0,00310056051	0,000151747925
2	1	0	0	0	1762,3638	3,8160274	3,81648517	0,042751258924706989	4	0,00341603695	0,000163159551
2	1	0	0	0	1769,8654	3,89104295	3,89151287	0,046263392712851821	4	0,00375220389	0,000180034593
2	1	0	1	0	1777,3668	3,96605825	3,96646953	0,049486271881808736	4	0,00411788793	0,000196285793
2	0	0	1	0	1784,7588	3,96005726	3,96053243	-0,0096314868898373094	4	0,00428567594	3,81458158E-005
2	0	0	1	0	1792,3004	3,88464212	3,8850503	-0,017541229164365789	4	0,00417620502	6,81485544E-005
2	0	0	1	0	1799,8020	3,80962658	3,81008959	-0,020346125725794765	4	0,00402938016	7,75205626E-005
2	0	0	0	0	1807,3034	3,73461127	3,73505759	-0,02088699261097368	4	0,0038704949	7,80141199E-005
2	0	0	0	0	1814,8050	3,65959573	3,66010976	-0,021068086233248627	4	0,00370972231	7,71115083E-005
2	0	0	0	0	1822,3066	3,58458042	3,58511734	-0,021335119286690019	4	0,00354705262	7,64889046E-005
2	0	0	1	0	1829,8081	3,50956464	3,51008964	-0,021521354087980528	4	0,00338255148	7,55418805E-005
2	0	0	1	0	1837,3096	3,43454957	3,43504	-0,021434591460058938	4	0,0032177968	7,3628682E-005
2	0	0	1	0	1844,8112	3,35953403	3,36008334	-0,021088171293269149	4	0,00305509288	7,08580119E-005
2	0	0	1	0	1852,3128	3,28451872	3,28493977	-0,02104311439432895	4	0,00289420062	6,91253663E-005
2	0	0	0	0	1859,8142	3,20950317	3,21000099	-0,021226777192808826	4	0,00273308717	6,81379752E-005
2	0	0	0	0	1867,3158	3,13448787	3,13493776	-0,021867619387598458	4	0,00256834459	6,85536288E-005
2	0	0	0	0	1874,8174	3,05947256	3,06013227	-0,022016927207544141	4	0,00239992887	6,73747127E-005
2	0	0	1	0	1882,3188	2,98445821	2,98492289	-0,021940876303601309	4	0,00223161164	6,54918258E-005
2	0	0	1	0	1889,8204	2,90944171	2,91006327	-0,022012662291268096	4	0,00206314982	6,40582366E-005
2	0	0	1	0	1897,3220	2,8344264	2,83494234	-0,022617676383729469	4	0,00189235201	6,41198058E-005
2	0	0	1	0	1904,8236	2,7594111	2,75993252	-0,023087140927263827	4	0,00171820528	6,37189514E-005
2	0	0	0	0	1912,3250	2,68439579	2,68485999	-0,023510055832081962	4	0,00154044956	6,31212097E-005
2	0	0	0	0	1919,8266	2,60938025	2,60996103	-0,023930148506123126	4	0,00135929394	6,24567547E-005
2	0	0	0	0	1927,3282	2,53436494	2,53484869	-0,02434255748435297	4	0,0011748398	6,17046971E-005
2	0	0	1	0	1934,8297	2,45934868	2,45998096	-0,02518540150969928	4	0,000985693536	6,19556085E-005
2	0	0	1	0	1942,3312	2,38433409	2,38495827	-0,02643871679470904	4	0,000788943667	6,30552386E-005
2	0	0	1	0	1949,8328	2,30931854	2,30987668	-0,028135176989491363	4	0,000581124797	6,49887879E-005
2	0	0	1	0	1957,3344	2,234303	2,23496914	-0,030441621098563853	4	0,00035836501	6,80360827E-005
2	0	0	0	0	1964,8358	2,15928769	2,15974092	-0,032359401613508256	4	0,000119013261	6,9887923E-005
2	0	0	0	0	1972,3374	2,08427238	2,08490443	-0,033790298828130669	4	-0,000132335801	7,04495469E-005
2	0	0	0	0	1979,8389	2,00925708	2,0097878	-0,035447853889005786	4	-0,000395163632	7,12426627E-005
2	0	0	1	0	1987,3404	1,93424153	1,93474638	-0,038123146242965254	4	-0,000674044772	7,37586161E-005
2	0	0	1	0	1994,8419	1,85922623	1,85977674	-0,041235775035736973	4	-0,000974477851	7,66893354E-005
2	0	0	1	0	2002,3435	1,78421092	1,78471327	-0,044461950664063642	4	-0,00129916472	7,93518338E-005
2	0	0	1	0	2009,8451	1,70919549	1,7096988	-0,047697751149017754	4	-0,00164824422	8,15487874E-005
2	0	0	0	0	2017,3465	1,63418007	1,63478243	-0,051179760980798906	4	-0,00202210573	8,36677718E-005
2	0	0	0	0	2024,8481	1,55916464	1,55974114	-0,055800645836387328	4	-0,00242638425	8,70345611E-005
2	0	0	0	0	2032,3497	1,48414922	1,48473561	-0,061465609870437222	4	-0,00286800903	9,12601827E-005
2	0	0	1	0	2039,8512	1,40913355	1,40960038	-0,070969996664518758	4	-0,00336583029	0,000100039331
2	0	0	1	0	2047,3527	1,33411849	1,33465791	-0,085759689996915302	4	-0,00395242963	0,00011445985
2	0	0	1	0	2054,8943	1,25870299	1,25923848	-0,11445750213331658	4	-0,00469505275	0,000144129284
2	1	0	1	1	2062,2164	1,21459341	1,21526146	-0,099354458113710016	4	-0,00569230318	0,000120741643
2	1	0	1	1	2069,7579	1,29000938	1,29032576	-0,011325756756209338	4	-0,00602199091	1,46139155E-005
2	1	0	1	1	2077,3395	1,36582494	1,3661902	0,010777390365816514	4	-0,00600533327	1,47239653E-005
2	1	0	1	1	2084,8411	1,44084036	1,44136035	0,019143431106823818	4	-0,00588607043	2,75925831E-005
2	1	0	0	1	2092,3426	1,51585507	1,51635218	0,023747236527645654	4	-0,00572064565	3,60091726E-005
2	1	0	0	1	2099,8441	1,59087098	1,59144258	0,026598227874341434	4	-0,00552774686	4,23295533E-005
2	1	0	0	1	2107,3457	1,6658864	1,66655052	0,028510888223536256	4	-0,00531775225	4,75148372E-005
2	1	0	0	1	2114,8473	1,74090183	1,74144042	0,029733670168314739	4	-0,00509569002	5,17794142E-005
2	1	0	1	1	2122,3487	1,81591725	1,81655717	0,030922934921734259	4	-0,00486476254	5,61732777E-005
2	1	0	1	1	2129,8503	1,89093268	1,89148688	0,031521734406447341	4	-0,00462742383	5,96229474E-005
2	1	0	1	1	2137,3519	1,9659481	1,9665283	0,032094284115979974	4	-0,00438551698	6,31143193E-005
2	1	0	0	1	2144,8534	2,04096341	2,04149842	0,032293813935400538	4	-0,00414089113	6,59277721E-005
2	1	0	0	1	2152,3549	2,11597896	2,11643243	0,032296315288274842	4	-0,00389538822	6,83529724E-005
2	1	0	0	1	2159,8565	2,19099426	2,19154024	0,032333447447012166	4	-0,00364966691	7,08600492E-005
2	1	0	0	1	2167,3581	2,26600981	2,26664829	0,032302334305347347	4	-0,0034037577	7,32180342E-005
2	1	0	1	1	2174,8595	2,34102511	2,34160042	0,032694466157678458	4	-0,0031569819	7,65573786E-005
2	1	0	1	1	2182,3611	2,41604066	2,41662836	0,033010757485128717	4	-0,00290777464	7,97747343E-005
2	1	0	1	1	2189,8627	2,4910562	2,49161172	0,0336158118271096	4	-0,00265488215	8,37575499E-005
2	1	0	0	1	2197,3641	2,56607103	2,56665111	0,034048845280268083	4	-0,00239802874	8,73915051E-005
2	1	0	0	1	2204,8657	2,64108682	2,64172912	0,034754320362548218	4	-0,00213685189	9,18114965E-005
2	1	0	0	1	2212,3673	2,71610212	2,71661901	0,03591993780530711	4	-0,00186886778	9,75807852E-005
2	1	0	0	1	2219,8689	2,79111767	2,79152703	0,037451182780959936	4	-0,00159027218	0,000104545987
2	1	0	1	1	2227,3703	2,86613274	2,86659002	0,039451771394211578	4	-0,00129875541	0,000113092057
2	1	0	1	1	2234,8719	2,94114852	2,94169784	0,041414075177508058	4	-0,000991847715	0,000121827696
2	1	0	1	0	2242,2490	3,01446247	3,01493096	0,04336684145073888	5	7,83190189E-005	0,000130748027
2	1	0	1	0	2249,7505	3,08947873	3,08995581	0,04516424733662505	5	0,000414111302	0,00013955553
2	1	0	1	0	2257,2521	3,16449404	3,16494298	0,045420549572790291	5	0,000758478243	0,000143753452
2	1	0	1	0	2264,7537	3,23950911	3,24010444	0,043327630618242298	5	0,00109650672	0,000140386051
2	1	0	0	0	2272,2551	3,31452465	3,31513691	0,040320025144696794	5	0,00141390145	0,000133666399
2	1	0	0	0	2279,7567	3,38953996	3,38995099	0,038041519936760416	5	0,00170987612	0,000128958884
2	1	0	0	0	2287,2583	3,4645555	3,46516109	0,037598543403739194	5	0,00199557655	0,000130285014
2	1	0	0	0	2294,7599	3,53957129	3,54005957	0,037627276263113088	5	0,00228050142	0,000133202804
2	1	0	1	0	2302,2613	3,61458635	3,61514091	0,03802880677998208	5	0,00256751501	0,000137479496
2	1	0	1	0	2309,7629	3,68960166	3,6901865	0,038788754355024352	5	0,00285858358	0,000143137731
2	1	0	1	0	2317,2645	3,7646172	3,76506782	0,040261056287110822	5	0,0031579819	0,000151585613
2	1	0	0	0	2324,7659	3,83963251	3,84006476	0,042961281991598208	5	0,0034730183	0,000164974103
2	1	0	0	0	2332,2675	3,91464806	3,91512752	0,047069627011229242	5	0,00381287909	0,000184283592
2	1	0	0	0	2339,7691	3,98966336	3,99024034	0,051094377154691226	5	0,00418509124	0,000203878852
2	0	0	0	0	2347,2411	3,93565202	3,93605018	-0,013096482367944696	5	0,00420266483	5,15484135E-005
2	0	0	1	0	2354,7425	3,86063719	3,86108065	-0,018992153386230781	5	0,00407485617	7,33302368E-005
2	0	0	1	0	2362,2441	3,78562117	3,78610563	-0,02072440639043368	5	0,00392138725	7,84647928E-005
2	0	0	1	0	2369,7457	3,7106061	3,71108222	-0,02100078797580121	5	0,00376126845	7,79356487E-005
2	0	0	1	0	2377,2473	3,63559031	3,63614368	-0,021106673359301773	5	0,00359982974	7,67468955E-005
2	0	0	0	0	2384,7487	3,56057525	3,56111097	-0,021330101008061318	5	0,00343697472	7,59588584E-005
2	0	0	0	0	2392,2503	3,4855597	3,48603868	-0,021550962281051133	5	0,00327249616	7,51274856E-005
2	0	0	0	0	2399,7519	3,4105444	3,41090465	-0,021234506389764179	5	0,00310857384	7,24288766E-005
2	0	0	1	0	2407,2534	3,3355279	3,33589745	-0,021024454140716352	5	0,00294697611	7,0135422E-005
2	0	0	1	0	2414,7549	3,26051378	3,26091981	-0,02087533880990969	5	0,00278706942	6,80728044E-005
2	0	0	1	0	2422,2565	3,185498	3,18588328	-0,021270751547827178	5	0,00262612966	6,77661301E-005
2	0	0	1	0	2429,7581	3,11048293	3,11089563	-0,021789883414317869	5	0,00246095308	6,77860517E-005
2	0	0	0	0	2437,2595	3,03546762	3,03598356	-0,021962274859780141	5	0,00229318556	6,66771084E-005
2	0	0	0	0	2444,7611	2,96045208	2,96075106	-0,021902802516706288	5	0,00212560128	6,48487476E-005
2	0	0	0	0	2452,2627	2,88543677	2,88615036	-0,022214282623112758	5	0,00195720349	6,41137594E-005
2	0	0	1	0	2459,7641	2,81042123	2,81099319	-0,02263046129761881	5	0,00178600312	6,36140758E-005
2	0	0	1	0	2467,2657	2,73540592	2,73600578	-0,023031668148986717	5	0,0016113153	6,3014777E-005
2	0	0	1	0	2474,7673	2,66039062	2,6608758	-0,02360859249839209	5	0,0014331101	6,28195339E-005
2	0	0	1	0	2482,2689	2,58537507	2,58593273	-0,023815540163519002	5	0,00125178474	6,1585386E-005
2	0	0	0	0	2489,7703	2,51035976	2,5108068	-0,02455722056415488	5	0,00106694922	6,16584366E-005
2	0	0	0	0	2497,2719	2,43534446	2,43593049	-0,025392097472730525	5	0,000876843929	6,18533813E-005
2	0	0	0	0	2504,7735	2,36032891	2,36078691	-0,026677578773901382	5	0,000678462093	6,29800779E-005
2	0	0	1	0	2512,2749	2,28531384	2,28589225	-0,028532443934603219	5	0,000468286074	6,52220915E-005
2	0	0	1	0	2519,7765	2,21029806	2,21098471	-0,030770933307293421	5	0,000242461509	6,803406E-005
2	0	0	1	0	2527,2781	2,13528299	2,13579679	-0,032517566970825421	5	1,35210735E-006	6,94509145E-005
2	0	0	1	0	2534,7797	2,06026721	2,06089377	-0,033739859821723117	5	-0,000250629411	6,95342678E-005
2	0	0	0	0	2542,2811	1,9852519	1,98583031	-0,035801934716464198	5	-0,000514491461	7,10965687E-005
2	0	0	0	0	2549,7827	1,91023648	1,91082489	-0,038399353558714867	5	-0,000795364438	7,33744382E-005
2	0	0	0	0	2557,2843	1,83522129	1,8357302	-0,041449358035741235	5	-0,00109774468	7,60898401E-005
2	0	0	1	0	2564,7857	1,76020586	1,76079595	-0,044557392191900691	5	-0,00142344297	7,84564763E-005
2	0	0	1	0	2572,2873	1,68519044	1,68575466	-0,047586387282030573	5	-0,00177238521	8,02189752E-005
2	0	0	1	0	2579,7889	1,61017501	1,61081159	-0,051363058491713306	5	-0,00214620959	8,27362092E-005
2	0	0	1	0	2587,2905	1,53515971	1,53580165	-0,055905554452220992	5	-0,00255210744	8,58598432E-005
2	0	0	0	0	2594,7919	1,46014428	1,46071577	-0,062652856732408282	5	-0,00299814274	9,15180135E-005
2	0	0	0	0	2602,2935	1,38512897	1,38560808	-0,07278670305903584	5	-0,00350648211	0,000100853846
2	0	0	0	0	2609,7951	1,31011343	1,31062472	-0,089755471683694131	5	-0,00411356241	0,00011763574
2	0	0	1	0	2617,3366	1,2346971	1,23536479	-0,12817807817026238	5	-0,00491259247	0,00015834668
2	1	0	0	1	2624,6587	1,2385987	1,23914409	-0,052541131809077824	5	-0,00576333376	6,51060327E-005
2	1	0	0	1	2632,2403	1,31441426	1,31504858	0,00015294677025415824	5	-0,00591320079	2,01132437E-007
2	1	0	1	1	2639,7818	1,38982964	1,39049852	0,014709163707271766	5	-0,00584589085	2,04530697E-005
2	1	0	1	1	2647,2833	1,4648453	1,46538448	0,021246590198845562	5	-0,0057050474	3,11344229E-005
2	1	0	1	1	2654,7849	1,53986073	1,54043472	0,02497528351981343	5	-0,00552725838	3,84727937E-005
2	1	0	1	1	2662,2865	1,61487591	1,61530662	0,027388037100468944	5	-0,00532680657	4,42400778E-005
2	1	0	0	1	2669,7879	1,68989134	1,69044566	0,028862181688762451	5	-0,00511207199	4,87899488E-005
2	1	0	0	1	2677,2895	1,76490676	1,76559377	0,030285057534153114	5	-0,0048867967	5,34711071E-005
2	1	0	0	1	2684,7911	1,83992219	1,84054124	0,031101318378070451	5	-0,00465393765	5,72432582E-005
2	1	0	1	1	2692,2926	1,91493762	1,91536903	0,031691770905281894	5	-0,00441553025	6,07014372E-005
2	1	0	1	1	2699,7941	1,98995304	1,99050331	0,03206729232678551	5	-0,00417328626	6,3830048E-005
2	1	0	1	1	2707,2957	2,06496835	2,06551361	0,032185223802958682	5	-0,00392879359	6,64790205E-005
2	1	0	1	1	2714,7973	2,13998365	2,1404388	0,032279409429368883	5	-0,00368367671	6,90921006E-005
2	1	0	0	1	2722,2987	2,2149992	2,21552444	0,032212130734007187	5	-0,00343813817	7,13667614E-005
2	1	0	0	1	2729,8003	2,29001451	2,29061007	0,032497986875198336	5	-0,00319214701	7,44402132E-005
2	1	0	0	1	2737,3019	2,36503029	2,36554432	0,032688792027463885	5	-0,00294492743	7,73267893E-005
2	1	0	1	1	2744,8033	2,44004512	2,4406476	0,033118709643564947	5	-0,00269545848	8,08311015E-005
2	1	0	1	1	2752,3049	2,51506114	2,51554227	0,03341044368291335	5	-0,00244214037	8,40453868E-005
2	1	0	1	1	2759,8065	2,59007621	2,59040523	0,034146472505569683	5	-0,00218476891	8,84531983E-005
2	1	0	1	1	2767,3081	2,66509199	2,66568685	0,035032209763476096	5	-0,00192226609	9,33849005E-005
2	1	0	0	1	2774,8095	2,74010706	2,74064779	0,036239966513002682	5	-0,00165163248	9,93209833E-005
2	1	0	0	1	2782,3111	2,81512237	2,81558657	0,038010489872518707	5	-0,00136984233	0,000107021828
2	1	0	0	1	2789,8127	2,89013791	2,89073896	0,039832224198444346	5	-0,00107488257	0,000115144561
2	1	0	1	1	2797,3142	2,96515393	2,96574521	0,041900128306450944	5	-0,000765731791	0,000124265105
2	1	0	0	0	2804,7553	3,03896832	3,03947258	0,043795252822477318	6	0,000182788863	0,000133114474
2	1	0	0	0	2812,2569	3,11398387	3,11447859	0,045181545019322035	6	0,000520479691	0,000140716947
2	1	0	1	0	2819,7583	3,18899894	3,18946576	0,044742895635189626	6	0,000862129382	0,000142705932
2	1	0	1	0	2827,2599	3,26401472	3,26459146	0,042011964898039213	6	0,00119221129	0,000137151903
2	1	0	1	0	2834,7615	3,33902979	3,33956146	0,039082303255175507	6	0,00149944471	0,000130517757
2	1	0	0	0	2842,2630	3,41404486	3,41451263	0,037258979835510074	6	0,00178798917	0,000127221254
2	1	0	0	0	2849,7645	3,48906064	3,48964381	0,036976575622921446	6	0,00206928141	0,000129035077
2	1	0	0	0	2857,2661	3,56407595	3,56461382	0,037127335896474099	6	0,00235036947	0,000132344619
2	1	0	0	0	2864,7677	3,63909101	3,63967657	0,037458713050000147	6	0,002633258	0,000136337607
2	1	0	1	0	2872,2691	3,7141068	3,71454024	0,038469009972350035	6	0,00292078755	0,000142894685
2	1	0	1	0	2879,7707	3,78912187	3,78971529	0,04005250080781808	6	0,00321799726	0,000151787579
2	1	0	1	0	2887,2723	3,86413765	3,86460495	0,043026900595847462	6	0,0035323787	0,00016628197
2	1	0	1	0	2894,7739	3,93915391	3,93974853	0,047203915542999962	6	0,00387428049	0,000185971556
2	0	0	1	0	2902,1559	3,98706293	3,98763227	-0,0025161099035715466	6	0,00418141671	1,00333209E-005
2	0	0	0	0	2909,6973	3,91164756	3,91223502	-0,016124702841302157	6	0,00409523165	6,30836294E-005
2	0	0	0	0	2917,1989	3,83663225	3,83720303	-0,019843194209021974	6	0,00395475561	7,61423653E-005
2	0	0	0	0	2924,7005	3,76161671	3,7619791	-0,021032011401580896	6	0,00379717839	7,91219863E-005
2	0	0	1	0	2932,2019	3,68660164	3,68719268	-0,020956541870674915	6	0,0036364391	7,72708081E-005
2	0	0	1	0	2939,7035	3,61158586	3,61215472	-0,021228206673792214	6	0,00347471959	7,66795638E-005
2	0	0	1	0	2947,2051	3,53657055	3,53717184	-0,021427119241303021	6	0,003311523	7,57914022E-005
2	0	0	1	0	2954,7067	3,461555	3,4621613	-0,021361922868958579	6	0,0031473625	7,39584211E-005
2	0	0	0	0	2962,2081	3,3865397	3,38696003	-0,021132940795117322	6	0,00298449001	7,15764254E-005
2	0	0	0	0	2969,7097	3,31152415	3,3119235	-0,02084318972710103	6	0,00282412465	6,9031048E-005
2	0	0	0	0	2977,2113	3,23650885	3,23707819	-0,020896397671162096	6	0,00266474532	6,76432755E-005
2	0	0	1	0	2984,7128	3,16149211	3,16206288	-0,02173945323119096	6	0,00250330567	6,87415159E-005
2	0	0	1	0	2992,2143	3,08647823	3,08709812	-0,02190847380552441	6	0,00233773398	6,76336058E-005
2	0	0	1	0	2999,7159	3,01146269	3,01189733	-0,021838423446752131	6	0,00217045983	6,57750861E-005
2	0	0	1	0	3007,2175	2,93644738	2,9368782	-0,02194789295214128	6	0,00200322061	6,44582906E-005
2	0	0	0	0	3014,7189	2,86143184	2,86188149	-0,022250228656317984	6	0,00183449767	6,36775148E-005
2	0	0	0	0	3022,2205	2,78641653	2,78694701	-0,02264583622821159	6	0,00166263513	6,31127477E-005
2	0	0	0	0	3029,7221	2,71140122	2,71191502	-0,023236900229541642	6	0,00148723437	6,30165014E-005
2	0	0	1	0	3037,2235	2,63638568	2,63688707	-0,023487969070966064	6	0,0013085024	6,19351194E-005
2	0	0	1	0	3044,7251	2,56137037	2,5619483	-0,024090114620910928	6	0,00112669996	6,17176265E-005
2	0	0	1	0	3052,2267	2,48635483	2,48682261	-0,024635172811233395	6	0,000941153965	6,12633012E-005
2	0	0	0	0	3059,7282	2,41134024	2,4116981	-0,025896445238347942	6	0,000749357976	6,24544045E-005
2	0	0	0	0	3067,2297	2,33632398	2,33682489	-0,027109011408389949	6	0,000548388402	6,33490126E-005
2	0	0	0	0	3074,7313	2,26130867	2,26181054	-0,029004777147848717	6	0,000334949087	6,5603308E-005
2	0	0	0	0	3082,2329	2,18629313	2,18687177	-0,031087935535685786	6	0,000105699364	6,79853256E-005
2	0	0	1	0	3089,7343	2,11127806	2,11179018	-0,032591913080843066	6	-0,000137549578	6,88272848E-005
2	0	0	1	0	3097,2359	2,03626251	2,0368073	-0,03421401970209216	6	-0,00039109221	6,96873685E-005
2	0	0	1	0	3104,7375	1,96124721	1,9616102	-0,036130867527659763	6	-0,000657346274	7,08746811E-005
2	0	0	1	0	3112,2391	1,88623178	1,88689399	-0,03872323509184983	6	-0,000941121194	7,30666361E-005
2	0	0	0	0	3119,7405	1,81121635	1,8117547	-0,041844703054435034	6	-0,00124632486	7,58123351E-005
2	0	0	0	0	3127,2421	1,73620093	1,73668718	-0,044700907526055155	6	-0,00157397706	7,76314919E-005
2	0	0	0	0	3134,7437	1,66118538	1,66177952	-0,047792842766890778	6	-0,00192409218	7,94211664E-005
2	0	0	1	0	3142,2451	1,58616996	1,58664036	-0,051731540640402195	6	-0,00230056024	8,20793502E-005
2	0	0	1	0	3149,7467	1,51115477	1,51162601	-0,056886300634316806	6	-0,00271066581	8,59908105E-005
2	0	0	1	0	3157,2483	1,43613935	1,4367274	-0,064251796532146304	6	-0,00316593586	9,23123152E-005
2	0	0	1	0	3164,7499	1,36112404	1,36172187	-0,075791103532538035	6	-0,00369036361	0,000103206403
2	0	0	0	0	3172,2513	1,28610861	1,28656936	-0,095888569131838349	6	-0,00432846555	0,000123367296
2	0	0	0	0	3179,7929	1,21069312	1,2113992	-0,15067705496524803	6	-0,00522055337	0,000182530057
2	1	0	0	1	3187,1549	1,26300383	1,263551	-0,025424039702758861	6	-0,00580955995	3,21245716E-005
2	1	0	0	1	3194,6965	1,33841932	1,33897936	0,0072509705507265574	6	-0,00585052744	9,7088996E-006
2	1	0	0	1	3202,2381	1,41383481	1,41444767	0,017659028489746266	6	-0,00574878836	2,49777713E-005
2	1	0	0	1	3209,7397	1,48885024	1,48928857	0,022794484018555162	6	-0,00559167424	3,39475628E-005
2	1	0	1	1	3217,2411	1,56386542	1,56456101	0,026073858085847258	6	-0,00540383533	4,07941407E-005
2	1	0	1	1	3224,7427	1,63888085	1,63940656	0,027895664507350704	6	-0,00519713806	4,57323367E-005
2	1	0	1	1	3232,2443	1,71389627	1,71449649	0,029488583720565062	6	-0,00497816224	5,0558072E-005
2	1	0	0	1	3239,7457	1,7889117	1,78947091	0,030499029831305562	6	-0,00474998495	5,45771254E-005
2	1	0	0	1	3247,2473	1,86392713	1,86447656	0,031343727971910042	6	-0,00451520039	5,84396475E-005
2	1	0	0	1	3254,7489	1,93894255	1,93954897	0,031800274327569766	6	-0,0042756903	6,16781908E-005
2	1	0	0	1	3262,2505	2,01395822	2,01449656	0,032044560258712774	6	-0,00403288286	6,45536566E-005
2	1	0	1	1	3269,7519	2,08897352	2,08938169	0,032185453787894394	6	-0,0037882328	6,72476963E-005
2	1	0	1	1	3277,2535	2,16398859	2,1645875	0,032186094645617875	6	-0,00354329753	6,96696152E-005
2	1	0	1	1	3284,7551	2,23900437	2,23952198	0,032355730223504019	6	-0,00329780485	7,2461371E-005
2	1	0	0	1	3292,2565	2,31401944	2,31450105	0,032475307307861382	6	-0,00305182301	7,51641346E-005
2	1	0	0	1	3299,7581	2,38903499	2,38951087	0,032836605324754714	6	-0,00280471868	7,84634249E-005
2	1	0	0	1	3307,2597	2,46405029	2,4648056	0,033281631353828698	6	-0,00255402457	8,2032755E-005
2	1	0	1	1	3314,7612	2,53906488	2,53958392	0,033772714760915315	6	-0,00229947316	8,57686464E-005
2	1	0	1	1	3322,2627	2,61408114	2,6146431	0,034360751962392576	6	-0,00204091519	8,98411017E-005
2	1	0	1	1	3329,7643	2,68909645	2,68960404	0,035263597439215699	6	-0,00177630957	9,48451125E-005
2	1	0	1	1	3337,2659	2,764112	2,76485443	0,036772798091449069	6	-0,00150272693	0,00010167143
2	1	0	0	1	3344,7673	2,8391273	2,83956194	0,038440496785807629	6	-0,0012174875	0,000109154171
2	1	0	0	1	3352,2689	2,91414261	2,91472316	0,040194678840365357	6	-0,000919067883	0,000117156364
2	1	0	0	1	3359,7705	2,98915815	2,98980021	0,042474470653191712	6	-0,000606196932	0,000126990184
2	1	0	0	0	3367,1595	3,06247306	3,06290054	0,044108415384673139	7	0,000283923961	0,00013509969
2	1	0	0	0	3374,6611	3,13748813	3,13797736	0,045029927006301818	7	0,000622815627	0,000141302895
2	1	0	0	0	3382,1627	3,21250367	3,21300507	0,043843840602440179	7	0,000961143698	0,000140870485
2	1	0	1	0	3389,6642	3,2875185	3,28800559	0,040722723030233946	7	0,00128249463	0,000133896538
2	1	0	1	0	3397,1657	3,36253452	3,36309171	0,038060243017281613	7	0,00158065581	0,000128000087
2	1	0	1	0	3404,6673	3,43754983	3,43808842	0,036778658710385754	7	0,00186344935	0,000126448285
2	1	0	1	0	3412,1689	3,51256537	3,51320505	0,036706795066560717	7	0,00214182748	0,000128958491
2	1	0	0	0	3419,6703	3,58758068	3,58807278	0,03675478382501751	7	0,00242012017	0,000131878842
2	1	0	0	0	3427,1719	3,66259623	3,66310906	0,037214943380267539	7	0,0027004478	0,0001363224
2	1	0	0	0	3434,6735	3,73761153	3,73810601	0,038225171242461274	7	0,00298635592	0,000142889738
2	1	0	1	0	3442,1750	3,8126266	3,8132484	0,040301837345233267	7	0,0032839831	0,000153680914
2	1	0	1	0	3449,6765	3,88764238	3,88824606	0,043642998858424045	7	0,00360106979	0,000169694715
2	1	0	1	0	3457,1781	3,96265793	3,96337605	0,047749590878892467	7	0,00394804589	0,000189249578
2	0	0	1	0	3464,6501	3,96265793	3,96332312	-0,0096995505629348595	7	0,00412166724	3,84424529E-005
2	0	0	1	0	3472,1517	3,88764238	3,88808179	-0,017845973710926166	7	0,00400832668	6,93866023E-005
2	0	0	0	0	3479,6531	3,81262779	3,81295586	-0,020528078171467354	7	0,00385929854	7,82726565E-005
2	0	0	0	0	3487,1547	3,73761153	3,73799896	-0,020927157283208742	7	0,00369941304	7,82256902E-005
2	0	0	0	0	3494,6563	3,66259623	3,66321182	-0,021092964495808179	7	0,00353848771	7,72679996E-005
2	0	0	0	0	3502,1579	3,58758116	3,58802414	-0,021212845456493267	7	0,00337646739	7,61121992E-005
2	0	0	1	0	3509,6593	3,51256561	3,51313853	-0,021380750212335488	7	0,00321314577	7,51135376E-005
2	0	0	1	0	3517,1609	3,43755031	3,43811083	-0,02127598783139279	7	0,00304931053	7,31492037E-005
2	0	0	1	0	3524,6625	3,36253476	3,3629806	-0,020885358277829059	7	0,00288754771	7,02370526E-005
2	0	0	0	0	3532,1640	3,28751874	3,28789449	-0,020717387538064624	7	0,00272810063	6,81165839E-005
2	0	0	0	0	3539,6655	3,21250391	3,21289372	-0,020769458546527482	7	0,00256907986	6,67300628E-005
2	0	0	0	0	3547,1671	3,13748884	3,13803482	-0,021530002657393162	7	0,00240712683	6,75619012E-005
2	0	0	0	0	3554,6687	3,06247354	3,06297183	-0,021817357803229242	7	0,00224105804	6,68259527E-005
2	0	0	1	0	3562,1701	2,98745799	2,98790836	-0,021866510272957386	7	0,00207432406	6,53351308E-005
2	0	0	1	0	3569,6717	2,91244268	2,91286731	-0,021881500763508198	7	0,00190707005	6,37379053E-005
2	0	0	1	0	3577,1733	2,83742714	2,83796859	-0,022293095250562278	7	0,00173776958	6,32671072E-005
2	0	0	0	0	3584,6747	2,76241183	2,76289678	-0,02281865044144904	7	0,00156513089	6,30455761E-005
2	0	0	0	0	3592,1763	2,68739629	2,68796182	-0,023174122385508227	7	0,00138901582	6,22911539E-005
2	0	0	0	0	3599,6779	2,61238074	2,61289406	-0,023766890385929773	7	0,00120961037	6,21003637E-005
2	0	0	0	0	3607,1795	2,53736544	2,53784847	-0,024124912615796467	7	0,00102712971	6,12253716E-005
2	0	0	1	0	3614,6809	2,46235013	2,46294546	-0,024908808353184541	7	0,000840330496	6,13490338E-005
2	0	0	1	0	3622,1825	2,38733459	2,38785529	-0,025942609391037098	7	0,000646707893	6,19471975E-005
2	0	0	1	0	3629,6841	2,31231952	2,31288528	-0,027485074984185731	7	0,000443106052	6,35698234E-005
2	0	0	0	0	3637,1856	2,23730278	2,23780298	-0,029575506923014752	7	0,000225893222	6,6184155E-005
2	0	0	0	0	3644,6871	2,16228867	2,162745	-0,031489923009993926	7	-7,20544085E-006	6,81046731E-005
2	0	0	0	0	3652,1887	2,08727312	2,08777523	-0,033030680372138298	7	-0,000252726168	6,89606386E-005
2	0	0	0	0	3659,6903	2,01225781	2,01283646	-0,034448705104834995	7	-0,000508636644	6,93396069E-005
2	0	0	1	0	3667,1917	1,93724227	1,93778658	-0,036670275325714349	7	-0,000777792302	7,10591703E-005
2	0	0	1	0	3674,6933	1,86222684	1,86288309	-0,039385129736426048	7	-0,00106519635	7,33698907E-005
2	0	0	1	0	3682,1949	1,78721154	1,78779745	-0,042111668295951309	7	-0,00137376203	7,52871347E-005
2	0	0	0	0	3689,6963	1,71219611	1,71272075	-0,045004372959266848	7	-0,00170392834	7,70799234E-005
2	0	0	0	0	3697,1979	1,63718069	1,63782656	-0,048144963203446464	7	-0,00205665012	7,88530961E-005
2	0	0	0	0	3704,6995	1,56216526	1,56274521	-0,05270116546846615	7	-0,00243795919	8,23584924E-005
2	0	0	0	0	3712,2011	1,48714983	1,4877131	-0,058069350327261568	7	-0,00285540405	8,63905298E-005
2	0	0	1	0	3719,7025	1,41213441	1,41260958	-0,066422522576801318	7	-0,00332344673	9,38290905E-005
2	0	0	1	0	3727,2041	1,33711898	1,33769739	-0,079437332452033216	7	-0,00386916776	0,000106263113
2	0	0	1	0	3734,7457	1,26170349	1,26232708	-0,10521067128758178	7	-0,00455450546	0,000132810281
2	1	0	1	1	3742,0677	1,21159327	1,21215141	-0,097542342350438682	7	-0,00548897684	0,000118236087
2	1	0	1	1	3749,6093	1,28700864	1,28761077	-0,009638842887296855	7	-0,00580350822	1,24110775E-005
2	1	0	1	1	3757,1909	1,36282432	1,36345756	0,011830158234159978	7	-0,00577625772	1,61299195E-005
2	1	0	0	1	3764,6923	1,43783975	1,43842745	0,019876301484786237	7	-0,00565025723	2,85906171E-005
2	1	0	0	1	3772,1939	1,51285517	1,51337969	0,024195554769701366	7	-0,00548028806	3,66170607E-005
2	1	0	0	1	3779,6955	1,58787036	1,58835852	0,026810175717670192	7	-0,00528441602	4,25841718E-005
2	1	0	1	1	3787,1970	1,66288579	1,66359925	0,028636505432149517	7	-0,00507273292	4,76396708E-005
2	1	0	1	1	3794,6985	1,73790121	1,73852527	0,0298114740548448	7	-0,00485022878	5,18279994E-005
2	1	0	1	1	3802,2001	1,81291664	1,8134594	0,030900918839809722	7	-0,00461978139	5,60375629E-005
2	1	0	1	1	3809,7017	1,88793206	1,88875437	0,031234989421338675	7	-0,00438344711	5,89952215E-005
2	1	0	0	1	3817,2031	1,96294761	1,96354628	0,031873766250942906	7	-0,00414302945	6,25856119E-005
2	1	0	0	1	3824,7047	2,03796291	2,03849411	0,03210574044863232	7	-0,0038997482	6,54473624E-005
2	1	0	0	1	3832,2063	2,11297822	2,11353493	0,032057486875500115	7	-0,0036553808	6,77546195E-005
2	1	0	1	1	3839,7078	2,187994	2,18845582	0,032238241064849485	7	-0,00341041875	7,05519633E-005
2	1	0	1	1	3847,2093	2,26300907	2,26358628	0,032319139115753734	7	-0,00316502363	7,31571636E-005
2	1	0	1	1	3854,7109	2,33802462	2,33854294	0,032609221521178675	7	-0,00291873422	7,62580676E-005
2	1	0	1	1	3862,2125	2,41303992	2,41359711	0,032908483123820666	7	-0,00267016818	7,94278167E-005
2	1	0	0	1	3869,7139	2,48805547	2,48858953	0,033445060084987834	7	-0,00241828011	8,32310252E-005
2	1	0	0	1	3877,2155	2,56307077	2,56358624	0,033870444714988678	7	-0,00216283742	8,68298084E-005
2	1	0	0	1	3884,7171	2,63808632	2,63855171	0,034563045314926989	7	-0,00190297025	9,11963798E-005
2	1	0	1	1	3892,2186	2,7131021	2,71371365	0,035693212211435066	7	-0,00163637602	9,68611566E-005
2	1	0	1	1	3899,7201	2,78811693	2,78877616	0,03714650901275929	7	-0,00135977648	0,000103593302
2	1	0	1	1	3907,2217	2,86313224	2,86375952	0,038994964229425997	7	-0,00107110105	0,000111672198
2	1	0	1	1	3914,7233	2,93814778	2,93859148	0,040933061787789549	7	-0,000769244216	0,000120285549
2	1	0	1	1	3920,6647	2,99761081	2,99817228	0,043145365153367642	7	-0,000519722176	0,000129357242