File: Experimentelles/Rohdaten/Batterietests/AlteZelle/Studenten_Batterietests/LLTO_LP30_Li CV/ZView-Export/LLTO_LP30_Li_05_GCPL_C01_loop1.txt
EC-Lab ASCII FILE
Nb header lines : 3
mode	ox/red	error	control changes	Ns changes	counter inc.	Ns	time/s	control/V/mA	Ewe/V	dq/mA.h	<I>/mA	P/W	(Q-Qo)/mA.h	x	Capacity/mA.h
1	0	0	1	1	0	1	14748,41	-0,100000001	4,18800926	0	0	0	0	0	0
1	0	0	1	0	0	1	14768,41	-0,100000001	3,42791724	-0,0002777333513978455	-0,099984007713750118	0,000342736894	-0,00055409367967106579	2,0673980175403088E-005	0,00055409367967106579
1	0	0	1	0	0	1	14788,41	-0,100000001	2,81857967	-0,00027773394091841248	-0,099984219941156787	0,000281813496	-0,001109561494203071	4,1399231170011795E-005	0,001109561494203071
1	0	0	1	0	0	1	14808,41	-0,100000001	2,28879166	-0,00027773375322338608	-0,099984152370946458	0,000228842895	-0,0016650294788678422	6,2124488512502746E-005	0,0016650294788678422
1	0	0	1	0	0	1	14828,41	-0,100000001	1,90290248	-0,00027773393822047446	-0,099984218969899098	0,000190260223	-0,0022204971942735978	8,2849735808577805E-005	0,0022204971942735978
1	0	0	1	0	0	1	14848,41	-0,100000001	1,63453531	-0,00027773354253959328	-0,099984076524780147	0,00016342751	-0,0027759644303441811	0,0001035749652200131	0,0027759644303441811
1	0	0	1	0	0	1	14868,41	-0,100000001	1,4990952	-0,00027773320760867661	-0,099983955949648678	0,000149885469	-0,0033314310598038067	0,000124300171997978	0,0033314310598038067
1	0	0	1	0	0	1	14888,41	-0,100000001	1,45531058	-0,00027773326251117718	-0,099983975714549133	0,000145507744	-0,003886897377076656	0,0001450253671278345	0,003886897377076656
1	0	0	1	0	0	1	14908,41	-0,100000001	1,42945611	-0,00027773290979613859	-0,099983848737133683	0,000142922523	-0,0044423634056486125	0,00016575055148587254	0,0044423634056486125
1	0	0	1	0	0	1	14928,41	-0,100000001	1,40910089	-0,00027773326562386422	-0,099983976835116467	0,00014088751	-0,0049978301170244749	0,00018647576132024237	0,0049978301170244749
1	0	0	1	0	0	1	14948,41	-0,100000001	1,39124715	-0,00027773311156324214	-0,099983921373291853	0,00013910234	-0,0055532967492197056	0,00020720096820027635	0,0055532967492197056
1	0	0	1	0	0	1	14968,41	-0,100000001	1,37503564	-0,00027773363677163917	-0,099984110448317069	0,000137481722	-0,0061087640604724416	0,00022792620041685888	0,0061087640604724416
1	0	0	1	0	0	1	14988,41	-0,100000001	1,35947323	-0,00027773378982063798	-0,099984165545957312	0,000135925802	-0,0066642317020040358	0,00024865144495658966	0,0066642317020040358
1	0	0	1	0	0	1	15008,41	-0,100000001	1,34440732	-0,00027773444023107491	-0,09998439969371744	0,000134419752	-0,0072197000920540698	0,00026937671742454976	0,0072197000920540698
1	0	0	1	0	0	1	15028,41	-0,100000001	1,33004797	-0,00027773471200052237	-0,099984497530719706	0,000132984176	-0,0077751694810067558	0,00029010202716291098	0,0077751694810067558
1	0	0	1	0	0	1	15048,41	-0,100000001	1,31798005	-0,00027773477480601933	-0,099984520140698893	0,000131777604	-0,0083306388893044608	0,00031082733762306074	0,0083306388893044608
1	0	0	1	0	0	1	15068,41	-0,100000001	1,31320632	-0,0002777344930349953	-0,099984418703129011	0,00013130017	-0,0088861081435816934	0,00033155264233649965	0,0088861081435816934
1	0	0	1	0	0	1	15088,41	-0,100000001	1,30873811	-0,00027773461252409549	-0,099984461719205594	0,00013085347	-0,0094415776093299981	0,00035227795494020851	0,0094415776093299981
1	0	0	1	0	0	1	15108,41	-0,100000001	1,30255127	-0,0002777344176409145	-0,099984391561259584	0,000130234796	-0,0099970468884992051	0,00037300326058240051	0,0099970468884992051
1	0	0	1	0	0	1	15128,41	-0,100000001	1,29388225	-0,00027773474168073802	-0,099984508215597466	0,000129368185	-0,010552516492812163	0,00039372857835614298	0,010552516492812163
1	0	0	1	0	0	1	15148,41	-0,100000001	1,28305542	-0,0002777349065732625	-0,099984567576907008	0,000128285741	-0,011107986398930758	0,00041445390739065946	0,011107986398930758
1	0	0	1	0	0	1	15168,41	-0,100000001	1,27127385	-0,00027773504455635946	-0,099984617250822502	0,000127107836	-0,0116634563473136	0,00043517923800211187	0,0116634563473136
1	0	0	1	0	0	1	15188,41	-0,100000001	1,25861394	-0,000277734934249272	-0,099984577540270541	0,00012584198	-0,012218925977343894	0,00045590455673540275	0,012218925977343894
1	0	0	1	0	0	1	15208,41	-0,100000001	1,24580121	-0,00027773430920516448	-0,09998435252438912	0,000124560625	-0,01277439466197871	0,00047662984019471718	0,01277439466197871
1	0	0	1	0	0	1	15228,41	-0,100000001	1,23274028	-0,00027773408828013475	-0,099984272991377446	0,000123254635	-0,013329863057704845	0,00049735511287446029	0,013329863057704845
1	0	0	1	0	0	1	15248,41	-0,100000001	1,2195648	-0,00027773458161618976	-0,099984450592359398	0,000121937519	-0,013885331748883338	0,00051808039657792813	0,013885331748883338
1	0	0	1	0	0	1	15268,41	-0,100000001	1,20614111	-0,00027773482679906819	-0,09998453885819671	0,000120595461	-0,014440801256936864	0,00053880571076010176	0,014440801256936864
1	0	0	1	0	0	1	15288,41	-0,100000001	1,19256461	-0,0002777347488229473	-0,099984510786792832	0,000119237986	-0,014996270835353261	0,0005595310275676087	0,014996270835353261
1	0	0	1	0	0	1	15308,41	-0,100000001	1,17851079	-0,00027773429160730707	-0,099984346189160371	0,000117832627	-0,015551739613748256	0,00058025631452524134	0,015551739613748256
1	0	0	1	0	0	1	15328,41	-0,100000001	1,16420877	-0,00027773424318681165	-0,099984328757781811	0,000116402633	-0,016107207898574979	0,00060098158306717837	0,016107207898574979
1	0	0	1	0	0	1	15348,41	-0,100000001	1,14925742	-0,0002777341609783471	-0,099984299162734208	0,0001149077	-0,016662676110697699	0,00062170684889643123	0,016662676110697699
1	0	0	1	0	0	1	15368,41	-0,100000001	1,13373327	-0,00027773403642036848	-0,099984254321861363	0,000113355476	-0,017218144396254582	0,00064243211746561139	0,017218144396254582
1	0	0	1	0	0	1	15388,41	-0,100000001	1,11746442	-0,00027773417644037139	-0,099984304729063027	0,000111728907	-0,017773612513222208	0,00066315737974449984	0,017773612513222208
1	0	0	1	0	0	1	15408,41	-0,100000001	1,10062265	-0,00027773407605704333	-0,099984268591064474	0,000110044952	-0,018329080745841475	0,00068388264633850637	0,018329080745841475
1	0	0	1	0	0	1	15428,41	-0,100000001	1,08294082	-0,0002777341378289792	-0,099984290828961664	0,000108277069	-0,018884549541806592	0,00070460793395170406	0,018884549541806592
1	0	0	1	0	0	1	15448,41	-0,100000001	1,06451416	-0,00027773443535384208	-0,0999843979379136	0,000106434811	-0,019440018296672237	0,00072533322003142502	0,019440018296672237
1	0	0	1	0	0	1	15468,41	-0,100000001	1,0455339	-0,00027773412993840045	-0,09998428798835328	0,000104536964	-0,019995486396241933	0,00074605848166117325	0,019995486396241933
1	0	0	1	0	0	1	15488,41	-0,100000001	1,02638173	-0,00027773404954580797	-0,099984259047019635	0,00010262202	-0,02055095462804039	0,00076678374822455424	0,02055095462804039
1	0	0	1	0	0	1	15508,41	-0,100000001	1,00799334	-0,000277733975176596	-0,099984232274103002	0,000100783443	-0,021106422883848346	0,00078750901568376205	0,021106422883848346
1	0	0	1	0	0	1	15528,41	-0,100000001	0,991552532	-0,00027773583837226032	-0,099984903024550285	9,91402849E-005	-0,021661892475452269	0,00080823433298331341	0,021661892475452269
1	0	0	1	0	0	1	15548,41	-0,100000001	0,977689624	-0,00027773573475248285	-0,099984865721429939	9,7754164E-005	-0,02221736411782809	0,00082895972679992141	0,02221736411782809
1	0	0	1	0	0	1	15568,41	-0,100000001	0,966862857	-0,00027773592471662493	-0,099984934108521907	9,66717198E-005	-0,022772835992460445	0,00084968512928233306	0,022772835992460445
1	0	0	1	0	0	1	15588,41	-0,100000001	0,958021879	-0,00027773569834522077	-0,099984852614815437	9,57876764E-005	-0,023328307223591946	0,00087041050775486259	0,023328307223591946
1	0	0	1	0	0	1	15608,41	-0,100000001	0,950880408	-0,00027773606160572832	-0,099984983388599731	9,50737594E-005	-0,023883779449361059	0,00089113592333865882	0,023883779449361059
1	0	0	1	0	0	1	15628,41	-0,100000001	0,945018232	-0,00027773588341102003	-0,099984919238503987	9,44875719E-005	-0,024439250813798352	0,00091186130678500659	0,024439250813798352
1	0	0	1	0	0	1	15648,41	-0,100000001	0,940282702	-0,00027773559922724963	-0,099984816932345382	9,40139944E-005	-0,024994721973095494	0,00093258668257729971	0,024994721973095494
1	0	0	1	0	0	1	15668,41	-0,100000001	0,93621552	-0,00027773556373351152	-0,099984804154599514	9,36073266E-005	-0,025550193402985312	0,00095331206846576934	0,025550193402985312
1	0	0	1	0	0	1	15688,41	-0,100000001	0,932797492	-0,00027773590741554899	-0,099984927880134502	9,32656912E-005	-0,026105665171138109	0,00097403746697528538	0,026105665171138109
1	0	0	1	0	0	1	15708,41	-0,100000001	0,929627776	-0,00027773628704498214	-0,099985064546732083	9,29488961E-005	-0,026661137476416093	0,00099476288552566451	0,026661137476416093
1	0	0	1	0	0	1	15728,41	-0,100000001	0,926247954	-0,00027773566964475645	-0,099984842282648154	9,26107532E-005	-0,027216608964535094	0,0010154882735867434	0,027216608964535094
1	0	0	1	0	0	1	15748,41	-0,100000001	0,922849059	-0,00027773577226077517	-0,099984879224415347	9,22709514E-005	-0,027772080395976285	0,0010362136595330966	0,027772080395976285
1	0	0	1	0	0	1	15768,41	-0,100000001	0,919163764	-0,00027773610296224557	-0,099984998276946112	9,19025842E-005	-0,028327552582117827	0,0010569390736383349	0,028327552582117827
1	0	0	1	0	0	1	15788,41	-0,100000001	0,915535748	-0,00027773586977645754	-0,099984914330061414	9,15397613E-005	-0,028883024418835008	0,0010776644747060803	0,028883024418835008
1	0	0	1	0	0	1	15808,41	-0,100000001	0,911468506	-0,00027773549386072493	-0,099984779000396032	9,11329771E-005	-0,029438495641659936	0,0010983898528686806	0,029438495641659936
1	0	0	1	0	0	1	15828,41	-0,100000001	0,907305837	-0,00027773534841131834	-0,099984726638609024	9,07167268E-005	-0,029993966644045376	0,0011191152228063869	0,029993966644045376
1	0	0	1	0	0	1	15848,41	-0,100000001	0,903124034	-0,00027773575758851235	-0,099984873942400666	9,02987449E-005	-0,030549438138043712	0,0011398406110868317	0,030549438138043712
1	0	0	1	0	0	1	15868,41	-0,100000001	0,898522139	-0,00027773546297475699	-0,09998476788144745	8,9838526E-005	-0,031104908831130707	0,0011605659694841974	0,031104908831130707
1	0	0	1	0	0	1	15888,41	-0,100000001	0,894263983	-0,00027773593105127414	-0,099984936388995648	8,94129262E-005	-0,031660380301807898	0,0011812913568944986	0,031660380301807898
1	0	0	1	0	0	1	15908,41	-0,100000001	0,889547527	-0,0002777356942312585	-0,099984851133788992	8,89412768E-005	-0,03221585196451511	0,0012020167514696981	0,03221585196451511
1	0	0	1	0	0	1	15928,41	-0,100000001	0,885136604	-0,00027773642491549254	-0,099985114180116442	8,85004847E-005	-0,032771324700124141	0,0012227421860763072	0,032771324700124141
1	0	0	1	0	0	1	15948,41	-0,100000001	0,880382001	-0,00027773567506132854	-0,099984844232614131	8,80248554E-005	-0,033326796440718483	0,00124346758355758	0,033326796440718483
1	0	0	1	0	0	1	15968,41	-0,100000001	0,875761032	-0,00027773601633020573	-0,099984967089411405	8,75629412E-005	-0,033882268271056723	0,001264192984387319	0,033882268271056723
1	0	0	1	0	0	1	15988,41	-0,100000001	0,87094909	-0,00027773648040369155	-0,099985134155868326	8,7081964E-005	-0,034437740635269632	0,0012849184051366392	0,034437740635269632
1	0	0	1	0	0	1	16008,41	-0,100000001	0,866289973	-0,00027773645316685242	-0,099985124350606106	8,66161135E-005	-0,03499321344505664	0,0013056438425109282	0,03499321344505664
1	0	0	1	0	0	1	16028,41	-0,100000001	0,861478031	-0,0002777361287938224	-0,099985007576313894	8,6134889E-005	-0,035548686069093229	0,0013263692729546194	0,035548686069093229
1	0	0	1	0	0	1	16048,41	-0,100000001	0,856532454	-0,00027773632542168096	-0,099985078362343846	8,56404658E-005	-0,036104158663420211	0,0013470947022898053	0,036104158663420211
1	0	0	1	0	0	1	16068,41	-0,100000001	0,851586878	-0,00027773624713677501	-0,099985050179777357	8,51459554E-005	-0,036659631192711488	0,0013678201291984214	0,036659631192711488
1	0	0	1	0	0	1	16088,41	-0,100000001	0,846660376	-0,00027773576575476266	-0,099984876882250803	8,46532348E-005	-0,0372151031000432	0,0013885455329008901	0,0372151031000432
1	0	0	1	0	0	1	16108,41	-0,100000001	0,841695726	-0,00027773571249345939	-0,099984857708181402	8,41568253E-005	-0,037770574495452147	0,0014092709175028318	0,037770574495452147
1	0	0	1	0	0	1	16128,41	-0,100000001	0,83663559	-0,00027773558740690349	-0,099984812677020723	8,36508552E-005	-0,038326045613920941	0,0014299962917717642	0,038326045613920941
1	0	0	1	0	0	1	16148,41	-0,100000001	0,831632674	-0,00027773549009693997	-0,099984777645433421	8,31506113E-005	-0,038881516596622771	0,001450721660975049	0,038881516596622771
1	0	0	1	0	0	1	16168,41	-0,100000001	0,826629817	-0,00027773552517799869	-0,09998479027461472	8,26504111E-005	-0,03943698753035607	0,0014714470283512518	0,03943698753035607
1	0	0	1	0	0	1	16188,41	-0,100000001	0,821493328	-0,00027773537907583846	-0,099984737677836416	8,21367939E-005	-0,039992458177232915	0,0014921723850244547	0,039992458177232915
1	0	0	1	0	0	1	16208,41	-0,100000001	0,816337705	-0,00027773551691861613	-0,099984787301236966	8,16213505E-005	-0,040547929035058042	0,0015128977495684214	0,040547929035058042
1	0	0	1	0	0	1	16228,41	-0,100000001	0,811220229	-0,00027773564047780304	-0,099984831782544806	8,11097198E-005	-0,041103400480145389	0,0015336231360239315	0,041103400480145389
1	0	0	1	0	0	1	16248,41	-0,100000001	0,806083739	-0,00027773548613033363	-0,09998477621745513	8,05961026E-005	-0,041658871776338669	0,0015543485169240032	0,041658871776338669
1	0	0	1	0	0	1	16268,41	-0,100000001	0,800794423	-0,00027773570513269965	-0,099984855058307866	8,00673151E-005	-0,042214343089996525	0,0015750738984757024	0,042214343089996525
1	1	0	0	1	0	2	16271,23	0,100000001	0,812123239	5,488672604163488E-009	0,032932036456914144	2,67448722E-005	-0,042292536890021626	0,001577991414287321	5,488672604163488E-009
1	1	0	0	0	0	2	16291,23	0,100000001	0,839837134	0,00027780865371268656	0,1000111165474211	8,39930508E-005	-0,041736920321712058	0,0015572606130892698	0,0005556220569821696
1	1	0	0	0	0	2	16311,23	0,100000001	0,849518239	0,00027780867711123491	0,10001112497089862	8,4961277E-005	-0,041181302927600422	0,0015365297810794333	0,0011112394510938062
1	1	0	0	0	0	2	16331,23	0,100000001	0,858168244	0,00027780886885109875	0,10001119399725042	8,5826432E-005	-0,040625685273563277	0,0015157989393714262	0,0016668571051309507
1	1	0	0	0	0	2	16351,23	0,100000001	0,866226256	0,00027780850340508752	0,10001106243668478	8,6632208E-005	-0,040070068122582714	0,001495068116433137	0,0022224742561115162
1	1	0	0	0	0	2	16371,23	0,100000001	0,873978794	0,00027780853494463693	0,10001107379092272	8,74075558E-005	-0,03951445085131584	0,0014743372890068035	0,0027780915273783936
1	1	0	0	0	0	2	16391,23	0,100000001	0,881425798	0,0002778090053651896	0,10001124314232371	8,81524902E-005	-0,038958832860465261	0,0014536064347318346	0,0033337095182289677
1	1	0	0	0	0	2	16411,23	0,100000001	0,888681889	0,00027780876836884352	0,10001115782363811	8,88781069E-005	-0,038403215165874605	0,0014328755915107218	0,0038893272128196224
1	1	0	0	0	0	2	16431,23	0,100000001	0,895766079	0,00027780868659747978	0,10001112838594678	8,95865742E-005	-0,037847597711147117	0,0014121447572392264	0,0044449446675471123
1	1	0	0	0	0	2	16451,23	0,100000001	0,902659357	0,00027780877694570355	0,10001116091130776	9,02760075E-005	-0,037291980262023706	0,0013914139231768261	0,0050005621166705242
1	1	0	0	0	0	2	16471,23	0,100000001	0,909571707	0,00027780908457562326	0,10001127165808019	9,096742E-005	-0,036736362370763802	0,0013706830726177195	0,0055561800079304288
1	1	0	0	0	0	2	16491,23	0,100000001	0,916216731	0,0002778091599096855	0,10001129877834291	9,16320278E-005	-0,036180744165333606	0,0013499522103364966	0,0061117982133606221
1	1	0	0	0	0	2	16511,23	0,100000001	0,922785401	0,00027780899587025248	0,10001123972414632	9,22889085E-005	-0,035625125916644102	0,0013292213464412106	0,0066674164620501286
1	1	0	0	0	0	2	16531,23	0,100000001	0,929201245	0,00027780908959897024	0,10001127346648512	9,2930597E-005	-0,035069507762133248	0,0013084904860598566	0,0072230346165609843
1	1	0	0	0	0	2	16551,23	0,100000001	0,935521662	0,00027780910901725293	0,10001128045706698	9,35627177E-005	-0,034513889870830298	0,001287759635499144	0,0077786525078639386
1	1	0	0	0	0	2	16571,23	0,100000001	0,941918492	0,00027780859709862205	0,10001109616635762	9,42023034E-005	-0,033958272554623174	0,0012670288063960291	0,0083342698240710618
1	1	0	0	0	0	2	16591,23	0,100000001	0,947933376	0,00027780889376542637	0,10001120296640848	9,48039597E-005	-0,033402654804993421	0,0012462979611213338	0,0088898875737008115
1	1	0	0	0	0	2	16611,23	0,100000001	0,953986466	0,0002778091833016111	0,10001130719943624	9,54094357E-005	-0,032847036854313894	0,0012255671083452006	0,0094455055243803379
1	1	0	0	0	0	2	16631,23	0,100000001	0,959829509	0,00027780881123161981	0,10001117325423774	9,59936733E-005	-0,032291419132449978	0,0012048362641064861	0,010001123246244256
1	1	0	0	0	0	2	16651,23	0,100000001	0,965557992	0,00027780886068898768	0,1000111910588904	9,6566604E-005	-0,031735801236743731	0,00118410541338148	0,010556741141950504
1	1	0	0	0	0	2	16671,23	0,100000001	0,971210063	0,0002778089715014729	0,10001123095138557	9,71319168E-005	-0,031180183353780045	0,001163374563131916	0,011112359024914186
1	1	0	0	0	0	2	16691,23	0,100000001	0,977568686	0,0002778087634398705	0,10001115604920781	9,77677773E-005	-0,030624565244459034	0,001142643704436656	0,0116679771342352
1	1	0	0	0	0	2	16711,23	0,100000001	0,986142278	0,00027780905419877834	0,10001126072241589	9,8625329E-005	-0,030068947283334618	0,0011219128512708102	0,012223595095359613
1	1	0	0	0	0	2	16731,23	0,100000001	0,998744905	0,0002778087987812857	0,10001116877211742	9,98856485E-005	-0,029513329562086202	0,0011011820070550606	0,01277921281660803
1	1	0	0	0	0	2	16751,23	0,100000001	1,01699972	0,0002778077562087112	0,10001079344598605	0,000101710946	-0,028957713226995123	0,001080451214558705	0,01333482915169911
1	1	0	0	0	0	2	16771,23	0,100000001	1,03787041	0,00027780828809738157	0,10001098492590971	0,00010379844	-0,028402097100148602	0,0010597204298322334	0,013890445278545634
1	1	0	0	0	0	2	16791,23	0,100000001	1,05856931	0,0002778082494110697	0,10001097099883728	0,000105868545	-0,027846480801611315	0,0010389896386997488	0,014446061577082918
1	1	0	0	0	0	2	16811,23	0,100000001	1,07802701	0,00027780875253056483	0,10001115212185771	0,000107814725	-0,027290863573126912	0,0010182588128696872	0,015001678805567322
1	1	0	0	0	0	2	16831,23	0,100000001	1,09616721	0,00027780870390600627	0,10001113461701642	0,000109628927	-0,02673524593240561	0,00099752797165851213	0,015557296446288621
1	1	0	0	0	0	2	16851,23	0,100000001	1,11331439	0,0002778085421456231	0,10001107638327776	0,000111343768	-0,026179628414481878	0,00097679713502907994	0,016112913964212352
1	1	0	0	0	0	2	16871,23	0,100000001	1,12952602	0,00027780874116470419	0,10001114803014782	0,000112965194	-0,025624011306927024	0,00095606631371106202	0,016668531071767206
1	1	0	0	0	0	2	16891,23	0,100000001	1,14512646	0,00027780883539219699	0,10001118195204565	0,00011452545	-0,025068393658366883	0,00093533547220740954	0,017224148720327347
1	1	0	0	0	0	2	16911,23	0,100000001	1,1600014	0,00027780893032997846	0,10001121612964739	0,000116013151	-0,024512775735807088	0,0009146046204804617	0,017779766642887142
1	1	0	0	0	0	2	16931,23	0,100000001	1,17460907	0,00027780928802531629	0,10001134489997056	0,000117474236	-0,023957157279262112	0,00089387374882980877	0,018335385099432118
1	1	0	0	0	0	2	16951,23	0,100000001	1,18881559	0,0002778085147593584	0,10001106652422237	0,000118894714	-0,02340153994812113	0,00087314291916949171	0,018891002430573101
1	1	0	0	0	0	2	16971,23	0,100000001	1,20309865	0,0002778088038853473	0,10001117060957962	0,000120323304	-0,02284592250292376	0,00085241208525357773	0,01944661987577047
1	1	0	0	0	0	2	16991,23	0,100000001	1,21743894	0,00027780875845460422	0,10001115425451194	0,000121757475	-0,022290305249781245	0,00083168125850348851	0,020002237128912986
1	1	0	0	0	0	2	17011,23	0,100000001	1,23176014	0,00027780921883342995	0,10001131999089117	0,000123189951	-0,021734687193142042	0,00081095040177385766	0,020557855185552189
1	1	0	0	0	0	2	17031,23	0,100000001	1,24631047	0,00027780931263996493	0,10001135376124419	0,000124645201	-0,021179068895848259	0,00079021953606508083	0,021113473482845971
1	1	0	0	0	0	2	17051,23	0,100000001	1,26086068	0,00027780865856342845	0,10001111829368819	0,000126100087	-0,020623451388495251	0,00076948869983005632	0,021669090990198979
1	1	0	0	0	0	2	17071,23	0,100000001	1,27581203	0,00027780864758003088	0,10001111433966502	0,000127595384	-0,020067833991825168	0,00074875786772476058	0,022224708386869062
1	1	0	0	0	0	2	17091,23	0,100000001	1,29051518	0,00027780884820967907	0,10001118656633926	0,000129065957	-0,019512216644427843	0,00072802703745789773	0,022780325734266387
1	1	0	0	0	0	2	17111,23	0,100000001	1,3055619	0,00027780835387441846	0,1000110086056433	0,000130570566	-0,018956599616010986	0,0007072962190926249	0,023335942762683245
1	1	0	0	0	0	2	17131,23	0,100000001	1,32083786	0,00027780865088022416	0,10001111552773462	0,000132098474	-0,018400982286508714	0,00068656538949345062	0,02389156009218552
1	1	0	0	0	0	2	17151,23	0,100000001	1,33615196	0,00027780881632905866	0,10001117508931578	0,000133630121	-0,017845364720214157	0,00066583455105923776	0,024447177658480074
1	1	0	0	0	0	2	17171,23	0,100000001	1,35156155	0,00027780892419194182	0,10001121391995418	0,000135171314	-0,017289746778003043	0,00064510369859907264	0,02500279560069119
1	1	0	0	0	0	2	17191,23	0,100000001	1,36658919	0,00027780861241163478	0,10001110167904229	0,000136674091	-0,016734129387171315	0,00062437286671161382	0,025558412991522915
1	1	0	0	0	0	2	17211,23	0,100000001	1,37014091	0,0002778089300091896	0,10001121601416339	0,000137029463	-0,016178511686403302	0,00060364202326001549	0,026114030692290928
1	1	0	0	0	0	2	17231,23	0,100000001	1,36714303	0,00027780880079790947	0,10001116949810198	0,000136729577	-0,015622893947153866	0,00058291117837262349	0,026669648431540362
1	1	0	0	0	0	2	17251,23	0,100000001	1,36798322	0,00027780902250111101	0,1000112493112555	0,000136813716	-0,015067275870188653	0,00056218032088460179	0,027225266508505574
1	1	0	0	0	0	2	17271,23	0,100000001	1,37151575	0,00027780877431647645	0,10001115996478597	0,000137166877	-0,014511658235567309	0,00054144947990102458	0,027780884143126922
1	1	0	0	0	0	2	17291,23	0,100000001	1,37772155	0,00027780880029540922	0,10001116931720189	0,000137787545	-0,013956040506865826	0,00052071863540719091	0,028336501871828403
1	1	0	0	0	0	2	17311,23	0,100000001	1,38742173	0,00027780884188496403	0,10001118428944181	0,000138757692	-0,01340042291898156	0,00049998779616743693	0,028892119459712672
1	1	0	0	0	0	2	17331,23	0,100000001	1,40130377	0,0002778093327474263	0,10001136099993037	0,000140146294	-0,012844804584623624	0,00047925692907574669	0,029447737794070611
1	1	0	0	0	0	2	17351,23	0,100000001	1,4184128	0,0002778087230796615	0,10001114151953238	0,00014185709	-0,012289186879465976	0,00045852608546036518	0,030003355499228256
1	1	0	0	0	0	2	17371,23	0,100000001	1,43840516	0,0002778086753711105	0,10001112434445379	0,000143856523	-0,011733569597704955	0,00043779525764248115	0,03055897278098928
1	1	0	0	0	0	2	17391,23	0,100000001	1,46267486	0,00027780819947024186	0,10001095302013904	0,000146283506	-0,011177952758305603	0,00041706444632970554	0,03111458962038864
1	1	0	0	0	0	2	17411,23	0,100000001	1,49994802	0,00027780838812763491	0,10001102093680136	0,000150011329	-0,010622336196302539	0,00039633364536695859	0,031670206182391699
1	1	0	0	0	0	2	17431,23	0,100000001	1,69171822	0,0002778082839834193	0,10001098344488328	0,000169190404	-0,010066719718528706	0,00037560284754691744	0,032225822660165536
1	1	0	0	0	0	2	17451,23	0,100000001	2,15026331	0,00027780880919636957	0,10001117252154765	0,000215050357	-0,0095111024079620851	0,00035487201865425766	0,032781439970732147
1	1	0	0	0	0	2	17471,23	0,100000001	2,48897529	0,00027780947649147773	0,1000114127477895	0,000248925935	-0,008955483524157769	0,00033414113106198419	0,033337058854536467
1	1	0	0	0	0	2	17491,23	0,100000001	2,74778748	0,0002778093901073767	0,10001138164951275	0,000274810009	-0,0083998647344915405	0,00031341024698212941	0,033892677644202694
1	1	0	0	0	0	2	17511,23	0,100000001	2,95454717	0,00027780904354568986	0,10001125688730398	0,000295487989	-0,0078442466087092954	0,00029267938767267866	0,034448295769984941
1	1	0	0	0	0	2	17531,23	0,100000001	3,12239146	0,00027780968080833555	0,10001148630185922	0,00031227502	-0,0072886274826617702	0,00027194849104198538	0,035003914896032467
1	1	0	0	0	0	2	17551,23	0,100000001	3,25678134	0,00027780893189873958	0,10001121669440141	0,000325714675	-0,0067330091290262848	0,00025121762323102384	0,035559533249667949
1	1	0	0	0	0	2	17571,23	0,100000001	3,3581562	0,00027780946013828122	0,10001140686063869	0,000335853925	-0,0061773906598678899	0,00023048675110974726	0,036115151718826342
1	1	0	0	0	0	2	17591,23	0,100000001	3,43510866	0,00027780910672123235	0,10001127963049955	0,000343549618	-0,0056217723760116442	0,00020975588590234298	0,036670770002682586
1	1	0	0	0	0	2	17611,23	0,100000001	3,49842739	0,00027780980349787408	0,10001153047009362	0,000349883077	-0,0050661528468140314	0,00018902497422957792	0,037226389531880205
1	1	0	0	0	0	2	17631,23	0,100000001	3,5525806	0,00027780951147609286	0,1000114253422511	0,00035529866	-0,0045105336970268864	0,00016829407671312752	0,037782008681667354
1	1	0	0	0	0	2	17651,23	0,100000001	3,60121536	0,00027780952616242896	0,10001143062933218	0,000360162696	-0,0039549147968664774	0,00014756318851058627	0,038337627581827763
1	1	0	0	0	0	2	17671,23	0,100000001	3,64914346	0,00027780943264895014	0,10001139696447939	0,000364955922	-0,0033992961133283885	0,00012683230839051507	0,038893246265365856
1	1	0	0	0	0	2	17691,23	0,100000001	3,69919133	0,00027780910528782346	0,10001127911447235	0,00036996085	-0,002843678016173344	0,0001061014501491836	0,039448864362520896
1	1	0	0	0	0	2	17711,23	0,100000001	3,75126314	0,0002778091449638208	0,10001129339783157	0,000375168689	-0,0022880595048786048	8,5370576455743347E-005	0,040004482873815642
1	1	0	0	0	0	2	17731,23	0,100000001	3,802953	0,00027780949848641952	0,10001142066596864	0,000380338723	-0,001732440763257031	6,46396941684992E-005	0,040560101615437216
1	1	0	0	0	0	2	17751,23	0,100000001	3,85267615	0,00027780904566662179	0,1000112576508395	0,000385310996	-0,0011768224233368214	4,390882686927305E-005	0,041115719955357427
1	1	0	0	0	0	2	17771,23	0,100000001	3,90029883	0,000277809390089992	0,10001138164325427	0,000390074274	-0,00062120383660412608	2,3177950361141213E-005	0,041671338542090125
1	1	0	0	0	0	2	17791,23	0,100000001	3,94584012	0,00027780943706921405	0,10001139855577442	0,000394628994	-6,5584874422187098E-005	2,4470598444932976E-006	0,042226957504272064
1	1	0	0	0	0	2	17811,23	0,100000001	3,990484	0,00027780924818126694	0,10001133055611262	0,000399093609	0,00049003379151887251	-1,8283819619009107E-005	0,042782576170213126
1	1	0	0	0	0	2	17831,23	0,100000001	4,03449821	0,00027780953396649821	0,10001143343879714	0,000403495942	0,0010456528707548136	-3,9014714503099219E-005	0,043338195249449069
1	1	0	0	0	0	2	17851,23	0,100000001	4,07946634	0,00027780935128861002	0,10001136767475658	0,000407993008	0,0016012713973079277	-5,9745588765849971E-005	0,043893813776002182
1	1	0	0	0	0	2	17871,23	0,100000001	4,12498856	0,00027780878467940618	0,10001116369544074	0,000412544905	0,0021568894442340554	-8,0476445133072986E-005	0,044449431822928314
1	1	0	0	0	0	2	17891,23	0,100000001	4,16837215	0,00027780890915418659	0,10001120850636224	0,000416883937	0,0027125069686190934	-0,00010120728200358538	0,04500504934731335
1	1	0	0	0	0	2	17907,37	0,100000001	4,20000076	0,00017049162346455789	0,10001138209251459	0,000420047872	0,0031608073823985933	-0,00011793397318801539	0,045453349761092851