File: Experimentelles/Rohdaten/Batterietests/AlteZelle/Studenten_Batterietests/LLTO_LP30_Li CV/ZView-Export/LLTO_LP30_Li_02_CV_C01_loop0.txt
EC-Lab ASCII FILE
Nb header lines : 3
mode	ox/red	error	control changes	counter inc.	time/s	control/V	Ewe/V	<I>/mA	cycle number	(Q-Qo)/C	P/W
2	0	0	1	0	600,06	2,10843253	2,10868692	-0,0013518956257030366	1	0	2,85072474E-006
2	0	0	0	0	601,43	2,09473109	2,09505272	-0,014875477165332973	1	-1,81263003E-005	3,11649092E-005
2	0	0	0	0	602,78	2,08122993	2,08187056	-0,015335079073944739	1	-3,8862021E-005	3,19256505E-005
2	0	0	1	0	604,13	2,06772876	2,06816697	-0,015594942000461741	1	-6,01068641E-005	3,22529449E-005
2	0	0	1	0	605,48	2,05422783	2,0547843	-0,015863571291750611	1	-8,17279652E-005	3,25962174E-005
2	0	0	0	0	606,83	2,04072666	2,04128122	-0,016226041872869232	1	-0,000103733924	3,31219162E-005
2	0	0	0	0	608,18	2,02722573	2,02784848	-0,016387026470814246	1	-0,000126075873	3,3230408E-005
2	0	0	1	0	609,53	2,0137248	2,01415491	-0,016721247287932726	1	-0,000148806328	3,36791818E-005
2	0	0	1	0	610,88	2,00022364	2,00072193	-0,016986145948370336	1	-0,000171910695	3,39845537E-005
2	0	0	0	0	612,23	1,98672259	1,98725903	-0,017397625764715514	1	-0,000195418994	3,45735898E-005
2	0	0	0	0	613,58	1,97322154	1,97361577	-0,017667431175747693	1	-0,000219369686	3,48687208E-005
2	0	0	1	0	614,93	1,95972061	1,96021283	-0,018003750369340848	1	-0,000243790695	3,52911811E-005
2	0	0	1	0	616,28	1,94622016	1,94684076	-0,018401603642627162	1	-0,000268724631	3,58249927E-005
2	0	0	0	0	617,63	1,93271852	1,93345749	-0,018755892917397434	1	-0,000294181955	3,6263722E-005
2	0	0	1	0	618,98	1,91921759	1,91959345	-0,01933664686415193	1	-0,000320235034	3,71185015E-005
2	0	0	1	0	620,33	1,90571654	1,90622079	-0,019713000151871997	1	-0,00034689426	3,75773307E-005
2	0	0	0	0	621,68	1,89221549	1,8925873	-0,020101502042962403	1	-0,000374223455	3,80438469E-005
2	0	0	0	0	623,03	1,87871432	1,87934506	-0,020641701402685923	1	-0,000402244303	3,87928812E-005
2	0	0	1	0	624,38	1,86521327	1,86571181	-0,021365394403498355	1	-0,000431066728	3,98616685E-005
2	0	0	1	0	625,73	1,85171235	1,85217857	-0,022040719108190442	1	-0,000460740906	4,08233464E-005
2	0	0	0	0	627,08	1,8382113	1,83881593	-0,022710646711251171	1	-0,000491365499	4,17607007E-005
2	0	0	0	0	628,43	1,82471025	1,82525265	-0,023562960229658752	1	-0,000522997929	4,30083564E-005
2	0	0	1	0	629,78	1,81120932	1,81149912	-0,024382444632162048	1	-0,000555768725	4,41687771E-005
2	0	0	1	0	631,13	1,79770827	1,79801595	-0,02547825097766096	1	-0,00058974151	4,58103023E-005
2	0	0	0	0	632,48	1,78420722	1,78462338	-0,026405311179890646	1	-0,000625064247	4,71235362E-005
2	0	0	0	0	633,83	1,77070618	1,77127063	-0,027625399331251853	1	-0,00066180079	4,89320591E-005
2	0	0	1	0	635,18	1,75720501	1,75778747	-0,028703890314015325	1	-0,000700142817	5,04553391E-005
2	0	0	1	0	636,53	1,74370408	1,74422443	-0,030103158283357837	1	-0,000740192598	5,25066644E-005
2	0	0	0	0	637,88	1,73020303	1,7306813	-0,031559303441705805	1	-0,000782125338	5,46190968E-005
2	0	0	0	0	639,23	1,71670198	1,71717811	-0,033080910264591981	1	-0,000826095289	5,68058131E-005
2	0	0	1	0	640,58	1,70320094	1,7037853	-0,034826539747882662	1	-0,000872272009	5,93369477E-005
2	0	0	1	0	641,93	1,68970001	1,6903826	-0,036571136801891558	1	-0,000920796883	6,18192134E-005
2	0	0	0	0	643,28	1,67619896	1,67666924	-0,03860348132244937	1	-0,000971811649	6,47252673E-005
2	0	0	0	0	644,63	1,66269791	1,66286528	-0,040368621635328282	1	-0,00102537381	6,71275775E-005
2	0	0	1	0	645,98	1,64919674	1,64958286	-0,042205654501837414	1	-0,00108150637	6,96217248E-005
2	0	0	1	0	647,33	1,6356957	1,63622022	-0,044146759852689568	1	-0,001140301	7,22338227E-005
2	0	0	0	0	648,68	1,62219477	1,62253654	-0,046345938268738509	1	-0,00120190659	7,51979751E-005
2	0	0	0	0	650,03	1,60869372	1,60926402	-0,048923818084100736	1	-0,00126663665	7,87313402E-005
2	0	0	1	0	651,38	1,59519267	1,59554064	-0,051681779402618624	1	-0,00133491575	8,24603776E-005
2	0	0	1	0	652,73	1,58169174	1,58213758	-0,055122951278463226	1	-0,00140736683	8,72120945E-005
2	0	0	0	0	654,08	1,56819069	1,5684042	-0,059111168064797875	1	-0,00148475647	9,2710201E-005
2	0	0	0	0	655,43	1,55468976	1,55527198	-0,064389572265402765	1	-0,00156835781	0,000100143297
2	0	0	1	0	656,79	1,54118872	1,54160857	-0,07094984763534784	1	-0,00165983965	0,000109376895
2	0	0	0	0	658,14	1,52768755	1,52820587	-0,079584738312599821	1	-0,00176162075	0,000121621866
2	0	0	0	0	659,49	1,5141865	1,51452243	-0,090884276646344627	1	-0,00187671219	0,000137646275
2	0	0	1	0	660,88	1,50028563	1,50082898	-0,10553188237827315	1	-0,0020131967	0,000158385301
2	0	0	1	0	662,23	1,48678458	1,48721552	-0,12335727053384016	1	-0,00216760393	0,000183458847
2	0	0	0	0	663,58	1,47328341	1,47371244	-0,14457987113079696	1	-0,00234847632	0,000213069157
2	0	0	0	0	664,93	1,45978236	1,46010935	-0,16946004435885741	1	-0,00256046746	0,000247430202
2	0	0	1	0	666,28	1,44628131	1,44678652	-0,19740574403355549	1	-0,00280820508	0,000285603979
2	0	0	1	0	667,63	1,43278039	1,4333638	-0,22844741656445011	1	-0,00309573347	0,000327448244
2	0	0	0	0	668,98	1,41927934	1,41959012	-0,26159330201335341	1	-0,0034266545	0,000371355272
2	0	0	0	0	670,33	1,40577841	1,40610719	-0,29658303766821971	1	-0,00380373118	0,000417027535
2	0	0	1	0	671,68	1,39227724	1,39281464	-0,33306318242102931	1	-0,00422935002	0,000463895267
2	0	0	1	0	673,03	1,37877631	1,37937164	-0,37082478877467475	1	-0,00470503932	0,000511505175
2	0	0	0	0	674,38	1,36527526	1,36573827	-0,40898747959484627	1	-0,00523198955	0,000558569853
2	0	0	0	0	675,73	1,3517741	1,35246587	-0,44759427399064224	1	-0,00581074692	0,000605356006
2	0	0	1	0	677,08	1,33827317	1,33861196	-0,48603929067030637	1	-0,00644163461	0,000650617993
2	0	0	1	0	678,43	1,32477212	1,32500863	-0,52436787898962758	1	-0,00712430011	0,000694791961
2	0	0	0	0	679,78	1,31127107	1,31164598	-0,5623629085409152	1	-0,00785848964	0,000737621041
2	0	0	0	0	681,13	1,29777014	1,29832339	-0,59981484261031066	1	-0,00864347816	0,00077875366
2	0	0	1	0	682,48	1,28426909	1,28473008	-0,63649714815740838	1	-0,00947855227	0,000817727007
2	0	0	1	0	683,83	1,27076805	1,27131724	-0,6722203933944329	1	-0,0103626736	0,000854605401
2	0	0	0	0	685,18	1,25726712	1,25766385	-0,70807997680579866	1	-0,011294974	0,000890526571
2	0	0	0	0	686,53	1,24376583	1,24419081	-0,74511592990408371	1	-0,0122760814	0,000927066372
2	0	0	1	0	687,88	1,2302649	1,23088837	-0,78489112419386496	1	-0,0133092273	0,000966113352
2	0	0	1	0	689,23	1,21676385	1,21740532	-0,82619745532671552	1	-0,0143970121	0,0010058172
2	0	0	0	0	690,58	1,20326293	1,20370173	-0,86748430319130419	1	-0,0155409137	0,00104419235
2	0	0	0	0	691,93	1,18976188	1,19011867	-0,90713608389099315	1	-0,0167393759	0,00107959961
2	0	0	1	0	693,28	1,17626083	1,17665565	-0,94390675394485517	1	-0,0179896448	0,00111065316
2	0	0	1	0	694,63	1,16275978	1,16334307	-0,97801014501601818	1	-0,0192878023	0,00113776128
2	0	0	0	0	696,01	1,14895868	1,14927864	-1,0097981768970747	1	-0,0206604935	0,00116053945
2	0	0	1	0	697,36	1,13545787	1,13602686	-1,0378852926417696	1	-0,0220437162	0,00117906556
2	0	0	1	0	698,71	1,12195671	1,12253308	-1,0629959062983603	1	-0,0234628096	0,00119324808
2	0	0	0	0	700,06	1,10845566	1,1088897	-1,0850534768154248	1	-0,0249137562	0,00120320462
2	0	0	0	0	701,41	1,09495473	1,09552717	-1,1041340613737685	1	-0,0263922792	0,00120960886
2	0	0	1	0	702,76	1,08145356	1,08195388	-1,1205439968034589	1	-0,0278950129	0,00121237698
2	0	0	1	0	704,11	1,06795251	1,06834054	-1,1346698102230803	1	-0,0294180941	0,00121221377
2	0	0	0	0	705,46	1,05445147	1,05467713	-1,1461994955316221	1	-0,0309585184	0,00120887044
2	0	0	0	0	706,81	1,04095042	1,04130447	-1,1554016123215317	1	-0,0325127579	0,00120312488
2	0	0	1	0	708,16	1,02744949	1,02795172	-1,161791549374664	1	-0,0340777077	0,00119426567
2	0	0	1	0	709,51	1,01394844	1,01419806	-1,1657450155665491	1	-0,0356495418	0,00118229631
2	0	0	0	0	710,86	1,00044739	1,00092566	-1,1668261339267088	1	-0,037225008	0,00116790622
2	0	0	0	0	712,21	0,986946464	0,987342358	-1,1650050847480715	1	-0,0387997851	0,00115025882
2	0	0	1	0	713,56	0,973445415	0,973799229	-1,1602185148124882	1	-0,0403702073	0,0011298199
2	0	0	1	0	714,91	0,959944308	0,9602862	-1,1517255551492198	1	-0,0419314913	0,00110598619
2	0	0	0	0	716,26	0,946443379	0,946933448	-1,140603856183592	1	-0,0434796624	0,00108007598
2	0	0	0	0	717,61	0,932942212	0,933350325	-1,1257503150651739	1	-0,0450100228	0,00105071941
2	0	0	1	0	718,96	0,919441283	0,919767082	-1,1085130274295843	1	-0,0465190336	0,00101957377
2	0	0	1	0	720,31	0,905940175	0,906264007	-1,0893388896559672	1	-0,0480031595	0,000987228588
2	0	0	0	0	721,66	0,892439187	0,893051684	-1,0706625245511514	1	-0,0494617783	0,00095615699
2	0	0	0	0	723,01	0,878938138	0,879368246	-1,0547712765013166	1	-0,0508963801	0,000927532383
2	0	0	1	0	724,36	0,86543715	0,86583513	-1,0456002730255314	1	-0,0523138158	0,000905317429
2	0	0	1	0	725,71	0,851936042	0,852522492	-1,0474249990657008	1	-0,0537259169	0,000892953365
2	0	0	0	0	727,06	0,838435113	0,838738859	-1,0618073955799128	1	-0,0551490895	0,000890579133
2	0	0	0	0	728,41	0,824934006	0,825175643	-1,089740848168736	1	-0,0566004924	0,000899227627
2	0	0	1	0	729,76	0,811433017	0,811662495	-1,1295881078889032	1	-0,0580980405	0,000916844292
2	0	0	1	0	731,11	0,79793191	0,798309863	-1,1789466875294856	1	-0,0596558787	0,000941164792
2	0	0	0	0	732,46	0,784430921	0,784856915	-1,2336847642436597	1	-0,0612848885	0,000968266046
2	0	0	0	0	733,81	0,770929933	0,77155441	-1,2912020400787422	1	-0,0629898459	0,000996232615
2	0	0	1	0	735,16	0,757428885	0,757740557	-1,3486951502660914	1	-0,064772822	0,00102196098
2	0	0	0	0	736,51	0,743927896	0,744257629	-1,4045972889289269	1	-0,066632472	0,00104538223
2	0	0	0	0	737,86	0,730426848	0,730804622	-1,4576870491728205	1	-0,0685654134	0,00106528448
2	0	0	1	0	739,21	0,716925859	0,717311621	-1,507509438941881	1	-0,0705681145	0,00108135398
2	0	0	1	0	740,56	0,703424811	0,703798592	-1,5542562172437718	1	-0,0726355836	0,0010938833
2	0	0	0	0	741,91	0,689923763	0,690225363	-1,5982262250036035	1	-0,074764505	0,00110313622
2	0	0	0	0	743,26	0,676422715	0,676712394	-1,6388835571706365	1	-0,0769503862	0,0011090528
2	0	0	1	0	744,61	0,662921667	0,663189173	-1,6769255002339741	1	-0,0791899264	0,00111211883
2	0	0	1	0	745,96	0,649420619	0,649595916	-1,7133265913774576	1	-0,0814795271	0,00111296994
2	0	0	0	0	747,31	0,635919631	0,636343539	-1,7488528912266118	1	-0,0838178396	0,00111287122
2	0	0	0	0	748,66	0,622418582	0,622660041	-1,7828871278713178	1	-0,0862025023	0,00111013255
2	0	0	1	0	750,01	0,608917594	0,609277308	-1,816537577658888	1	-0,088633202	0,00110677513
2	0	0	1	0	751,36	0,595416546	0,595814347	-1,8498497921973466	1	-0,0911085829	0,00110216707
2	0	0	0	0	752,71	0,581915498	0,582281172	-1,8841314719369072	1	-0,093629919	0,00109709427
2	0	0	0	0	754,06	0,568414509	0,568607807	-1,9192065416524819	1	-0,0961975232	0,00109127583
2	0	0	1	0	755,41	0,554913402	0,555174887	-1,9551572290559632	1	-0,0988134146	0,00108545425
2	0	0	1	0	756,76	0,541412354	0,541711926	-1,9930679326256141	1	-0,1014788	0,00107966864
2	0	0	0	0	758,11	0,527911365	0,528479576	-2,0323584290842192	1	-0,104196891	0,00107405987
2	0	0	0	0	759,46	0,514410377	0,514745951	-2,0738444291055213	1	-0,106968932	0,00106750301
2	0	0	1	0	760,81	0,500909328	0,501242936	-2,1169387648502963	1	-0,109798722	0,00106110063
2	1	0	0	0	762,08	0,511810184	0,512239814	-1,9246804981182138	1	-0,112371325	0,000985897961
2	1	0	0	0	763,43	0,525311172	0,525642633	-1,7339069352795706	1	-0,114837505	0,00091141538
2	1	0	1	0	764,78	0,53881216	0,53926599	-1,5621944476539901	1	-0,11706017	0,000842438312
2	1	0	1	0	766,13	0,552313268	0,552658737	-1,4044462582096466	1	-0,119060293	0,000776179484
2	1	0	0	0	767,48	0,565814316	0,565981328	-1,2581225313867179	1	-0,120855644	0,000712073874
2	1	0	0	0	768,83	0,579315305	0,579634726	-1,1209820670386126	1	-0,12245971	0,000649760128
2	1	0	1	0	770,18	0,592816293	0,593288183	-0,99268046393990874	1	-0,123884998	0,000588945579
2	1	0	1	0	771,53	0,606317341	0,606851339	-0,87170037068427136	1	-0,125141531	0,000528992561
2	1	0	0	0	772,88	0,619818389	0,620264173	-0,75708269343400896	1	-0,126239672	0,000469591265
2	1	0	0	0	774,23	0,633319438	0,633967757	-0,6484417224613344	1	-0,127187133	0,00041109114
2	1	0	1	0	775,58	0,646820426	0,647069752	-0,54533547038833139	1	-0,127991989	0,000352870091
2	1	0	1	0	776,97	0,660721481	0,66092366	-0,44467709337671654	1	-0,128678888	0,00029389761
2	1	0	0	0	778,32	0,674222529	0,674607158	-0,3512315056286752	1	-0,129215136	0,000236943291
2	1	0	0	0	779,67	0,687723577	0,68813026	-0,26194071164354816	1	-0,129628018	0,000180249335
2	1	0	1	0	781,03	0,701224625	0,701723516	-0,17653738230001203	1	-0,129923135	0,00012388044
2	1	0	1	0	782,38	0,714725614	0,715246618	-0,094735389711180006	1	-0,130105287	6,7759167E-005
2	1	0	0	0	783,77	0,728626728	0,72917062	-0,013740361357728658	1	-0,130179584	1,00190682E-005
2	1	0	0	0	785,12	0,742127717	0,7425735	0,062381354121801677	1	-0,130145788	4,63227407E-005
2	1	0	1	0	786,51	0,756028831	0,756457448	0,13784925763805722	1	-0,130005613	0,000104277096
2	1	0	1	0	787,86	0,769529819	0,769800067	0,20896744045118522	1	-0,129770622	0,000160863143
2	1	0	0	0	789,21	0,783030748	0,783413351	0,27802849141880826	1	-0,129440963	0,000217811234
2	1	0	1	0	790,56	0,796531856	0,796946466	0,34541550060423789	1	-0,129019275	0,000275277649
2	1	0	1	0	791,91	0,810032845	0,810499668	0,41119699242214394	1	-0,128507778	0,000333275035
2	1	0	0	0	793,26	0,823533952	0,823952615	0,47564774953449709	1	-0,127908349	0,000391911221
2	1	0	0	0	794,61	0,837035	0,83725512	0,5388576875751223	1	-0,127222732	0,000451161352
2	1	0	1	0	795,96	0,850535989	0,850958645	0,60095663446312026	1	-0,126452491	0,000511389226
2	1	0	1	0	797,31	0,864036977	0,864582002	0,6619389244976119	1	-0,125599399	0,000572300458
2	1	0	0	0	798,66	0,877538025	0,878085077	0,72187014265606566	1	-0,12466453	0,000633863383
2	1	0	0	0	800,01	0,891039014	0,891648233	0,78073334709431002	1	-0,12364959	0,000696139527
2	1	0	1	0	801,36	0,904540122	0,904750228	0,83855535803983373	1	-0,122555733	0,000758683134
2	1	0	1	0	802,71	0,91804105	0,918543935	0,89552649886657677	1	-0,121384524	0,000822580419
2	1	0	0	0	804,06	0,931542218	0,932137251	0,95154048874973901	1	-0,120137006	0,000886966358
2	1	0	0	0	805,44	0,945343256	0,945951104	1,0081533392270358	1	-0,118784562	0,000953663781
2	1	0	1	0	806,79	0,958844244	0,959404051	1,0618401666482314	1	-0,117386229	0,00101873372
2	1	0	1	0	808,14	0,972345352	0,972706616	1,1144758046915086	1	-0,115916483	0,00108405796
2	1	0	0	0	809,49	0,985846341	0,986169636	1,1663719490170461	1	-0,114375919	0,00115024066
2	1	0	0	0	810,84	0,999347389	0,99978286	1,2174730608239805	1	-0,112766095	0,00121720869
2	1	0	1	0	812,19	1,01284838	1,01321566	1,2677028225734786	1	-0,11108771	0,00128445635
2	1	0	1	0	813,54	1,02634931	1,02647805	1,3173029363776245	1	-0,109342135	0,00135218259
2	1	0	0	0	814,89	1,03985035	1,04029191	1,3665779915948688	1	-0,107529595	0,00142164005
2	1	0	0	0	816,24	1,0533514	1,05376494	1,4153901611765232	1	-0,105651259	0,00149148854
2	1	0	1	0	817,59	1,06685245	1,06712759	1,4626700077205824	1	-0,103707388	0,00156085554
2	1	0	1	0	818,94	1,08035362	1,08086121	1,5084201050922208	1	-0,101701103	0,00163039274
2	1	0	0	0	820,29	1,09385455	1,09429407	1,5487222792580698	1	-0,0996359959	0,00169475761
2	1	0	0	0	821,64	1,10735548	1,10769689	1,5813554059714006	1	-0,0975215286	0,00175166246
2	1	0	1	0	822,99	1,12085652	1,12111974	1,6031197849661075	1	-0,0953698903	0,00179728924
2	1	0	1	0	824,34	1,13435769	1,13460267	1,6130545617391654	1	-0,0931972116	0,00183017598
2	1	0	0	0	825,69	1,1478585	1,14817595	1,6113216045002083	1	-0,0910187811	0,00185008068
2	1	0	0	0	827,04	1,16136038	1,16179931	1,5991312439756947	1	-0,0888499469	0,00185786956
2	1	0	1	0	828,39	1,17486072	1,17537248	1,5776101772983856	1	-0,0867042318	0,00185427954
2	1	0	0	0	829,74	1,18836176	1,18886542	1,5508751018593686	1	-0,0845913291	0,00184378179
2	1	0	0	0	831,09	1,20186293	1,20245862	1,5218039741739638	1	-0,0825167969	0,00182990625
2	1	0	1	0	832,44	1,21536374	1,2158314	1,4924364254499469	1	-0,0804811493	0,00181455107
2	1	0	1	0	833,79	1,22886467	1,22945476	1,4626979424307722	1	-0,07848607	0,00179832091
2	1	0	0	0	835,14	1,24236584	1,24270713	1,4333772932489666	1	-0,0765304863	0,00178126816
2	1	0	0	0	836,49	1,25586689	1,25621033	1,4072864974538461	1	-0,0746130124	0,0017678478
2	1	0	1	0	837,84	1,26936793	1,26979351	1,3857212405030986	1	-0,0727276132	0,00175957987
2	1	0	1	0	839,19	1,28286898	1,28347695	1,3702468648552912	1	-0,0708676353	0,00175868021
2	1	0	0	0	840,54	1,29636991	1,29677951	1,3600233749796957	1	-0,0690244958	0,00176365045
2	1	0	0	0	841,89	1,30987108	1,31043291	1,3537646618982154	1	-0,0671927035	0,00177401782
2	1	0	1	0	843,24	1,32337201	1,32359517	1,3509129586939928	1	-0,0653664246	0,00178806181
2	1	0	1	0	844,59	1,33687294	1,33733869	1,3503656033426523	1	-0,0635428056	0,00180589617
2	1	0	0	0	845,94	1,3503741	1,35076165	1,3506014794111251	1	-0,0617189966	0,00182434067
2	1	0	0	0	847,29	1,36387515	1,36417449	1,3515839626391734	1	-0,0598946027	0,00184379634
2	1	0	1	0	848,64	1,3773762	1,37784791	1,3522325018420816	1	-0,0580688342	0,00186317076
2	1	0	1	0	849,99	1,39087725	1,39145124	1,3532908375685437	1	-0,0562421978	0,0018830382
2	1	0	0	0	851,34	1,40437818	1,40481389	1,3536079199984651	1	-0,0544143096	0,00190156722
2	1	0	0	0	852,69	1,41787922	1,4184072	1,3538441965356434	1	-0,05258644	0,0019203024
2	1	0	1	0	854,04	1,43138039	1,43167973	1,3530052000035813	1	-0,050758712	0,00193707016
2	1	0	1	0	855,39	1,4448812	1,44519269	1,352322310209276	1	-0,0489321165	0,00195436622
2	1	0	0	0	856,74	1,45838225	1,45878601	1,3532762092848571	1	-0,0471054167	0,00197414029
2	1	0	0	0	858,09	1,47188342	1,4722389	1,3595478674396899	1	-0,0452744365	0,00200157915
2	1	0	1	0	859,44	1,48538435	1,48564172	1,3710241165632962	1	-0,0434310175	0,00203685067
2	1	0	1	0	860,79	1,49888551	1,49925506	1,3864575807626026	1	-0,0415693745	0,00207865355
2	1	0	0	0	862,14	1,51238644	1,51275814	1,4043028072143571	1	-0,0396848246	0,00212437054
2	1	0	0	0	863,49	1,52588749	1,52649164	1,4227304387216738	1	-0,0377757475	0,00217178604
2	1	0	1	0	864,84	1,53938854	1,53989446	1,4390450790524429	1	-0,0358427763	0,00221597753
2	1	0	1	0	866,19	1,55288959	1,55326724	1,4501258314897587	1	-0,0338914469	0,00225243298
2	1	0	0	0	867,54	1,5663904	1,5668503	1,4539596180741939	1	-0,0319296718	0,00227813702
2	1	0	0	0	868,89	1,5798918	1,58031273	1,4486356855738566	1	-0,0299686734	0,00228929752
2	1	0	1	0	870,24	1,59339261	1,59383631	1,4318974092602712	1	-0,0280221533	0,00228221016
2	1	0	0	0	871,59	1,60689294	1,60744798	1,3978010583876443	1	-0,0261096414	0,00224689255
2	1	0	0	0	872,94	1,62039471	1,62099302	1,3466096787403003	1	-0,0242548417	0,00218284479
2	1	0	1	0	874,29	1,63389564	1,63440573	1,2784818631286381	1	-0,0224805586	0,00208955817
2	1	0	1	0	875,64	1,64739668	1,6477083	1,1925280146921704	1	-0,0208103023	0,00196493836
2	1	0	0	0	876,99	1,66089773	1,66144192	1,0901193208992482	1	-0,0192675795	0,0018111699
2	1	0	0	0	878,34	1,67439878	1,67480457	0,9766650879755616	1	-0,0178714711	0,00163572317
2	1	0	1	0	879,69	1,68789971	1,68846798	0,85670730564743104	1	-0,0166328643	0,00144652289
2	1	0	1	0	881,04	1,70140088	1,70188069	0,72272133873775693	1	-0,0155643523	0,0012299855
2	1	0	0	0	882,39	1,71490192	1,71545398	0,5671543107988928	1	-0,014691378	0,000972927141
2	1	0	0	0	883,78	1,72880292	1,72927785	0,41543553521235667	1	-0,0140127381	0,000718403491
2	1	0	1	0	885,13	1,74230385	1,7426306	0,31094485715341882	1	-0,0135273151	0,000541862042
2	1	0	1	0	886,48	1,75580502	1,75626385	0,24878142424859085	1	-0,0131534468	0,000436925824
2	1	0	0	0	887,83	1,76930606	1,76972687	0,21511774859391152	1	-0,0128420983	0,000380699668
2	1	0	0	0	889,18	1,78280711	1,78331006	0,19383689210129251	1	-0,0125665488	0,000345671288
2	1	0	1	0	890,53	1,79630816	1,79681301	0,1776524285475407	1	-0,0123158032	0,000319208193
2	1	0	1	0	891,88	1,80980909	1,81028616	0,16436727577820397	1	-0,012084824	0,0002975518
2	1	0	0	0	893,23	1,82331014	1,82383907	0,15295742110659715	1	-0,0118703982	0,000278969732
2	1	0	0	0	894,58	1,83681118	1,83726203	0,14326337515376509	1	-0,0116702691	0,000263212365
2	1	0	1	0	895,93	1,85031211	1,85085535	0,13454725919291378	1	-0,0114825396	0,000249027507
2	1	0	1	0	897,28	1,86381316	1,86444867	0,12698946776799869	1	-0,0113058249	0,000236765351
2	1	0	0	0	898,63	1,87731433	1,87793159	0,1201403750261909	1	-0,0111387735	0,000225615411
2	1	0	0	0	899,98	1,89081538	1,8913343	0,11406571809978483	1	-0,0109804161	0,000215736407
2	1	0	1	0	901,33	1,90431643	1,9049778	0,10866728921731283	1	-0,0108297616	0,000207008779
2	1	0	1	0	902,68	1,91781735	1,91850078	0,10372493222045365	1	-0,0106860818	0,000198996364
2	1	0	0	0	904,03	1,9313184	1,93177342	0,099224226432852442	1	-0,0105486289	0,00019167873
2	1	0	0	0	905,38	1,94481945	1,94544673	0,095232316894301453	1	-0,0104168663	0,000185269397
2	1	0	1	0	906,73	1,95832038	1,9586792	0,091802402903946778	1	-0,0102902045	0,000179811454
2	1	0	1	0	908,08	1,97182226	1,97243345	0,088436179739943834	1	-0,0101682078	0,000174434477
2	1	0	0	0	909,43	1,98532248	1,98549497	0,085517839761450893	1	-0,0100504141	0,000169795239
2	1	0	1	0	910,79	1,998824	1,99918902	0,082769454239652096	1	-0,00993648916	0,000165471778
2	1	0	1	0	912,14	2,01232457	2,01282167	0,080243327538482624	1	-0,00982605014	0,000161515505
2	1	0	0	0	913,49	2,0258255	2,0263648	0,078039815531422362	1	-0,00971883163	0,000158137133
2	1	0	0	0	914,84	2,03932667	2,03973746	0,075849644277089395	1	-0,00961457472	0,000154713358
2	1	0	1	0	916,19	2,0528276	2,05341101	0,073999938749087283	1	-0,00951307919	0,000151952292
2	1	0	1	0	917,54	2,06632876	2,06676364	0,072095289302523955	1	-0,00941411313	0,000149003929
2	1	0	0	0	918,89	2,07982993	2,08050728	0,070549620043796723	1	-0,00931749307	0,000146778999
2	1	0	0	0	920,24	2,09333062	2,09386992	0,068853677405665395	1	-0,00922311377	0,000144170641
2	1	0	1	0	921,59	2,10683155	2,10723281	0,067455666993434304	1	-0,00913071632	0,000142144796
2	1	0	1	0	922,94	2,12033296	2,12069559	0,066128144486962586	1	-0,00904019363	0,000140237666
2	1	0	0	0	924,29	2,13383365	2,13424873	0,064806825112706522	1	-0,00895139482	0,000138313888
2	1	0	0	0	925,64	2,14733481	2,14775181	0,06382841106581783	1	-0,00886422023	0,000137087583
2	1	0	1	0	926,99	2,16083574	2,1613853	0,062672632571775027	1	-0,00877849851	0,000135459704
2	1	0	1	0	928,34	2,17433691	2,17496824	0,061589887016452736	1	-0,00869415514	0,000133956055
2	1	0	0	0	929,69	2,18783808	2,18854165	0,060716345052545357	1	-0,00861101691	0,000132880246
2	1	0	0	0	931,04	2,20133901	2,20214462	0,06003203149884928	1	-0,00852904562	0,000132199217
2	1	0	1	0	932,39	2,21483994	2,2153573	0,059276635700371008	1	-0,00844808202	0,000131318928
2	1	0	1	0	933,74	2,22834086	2,22877002	0,058522099532031693	1	-0,00836813916	0,000130432294
2	1	0	0	0	935,09	2,24184203	2,24232316	0,057899031788110733	1	-0,00828911923	0,000129828346
2	1	0	0	0	936,44	2,25534296	2,2557261	0,057198954377478464	1	-0,00821101014	0,000129025168
2	1	0	1	0	937,79	2,26884389	2,26960993	0,056807574757840595	1	-0,0081336787	0,000128931031
2	1	0	1	0	939,14	2,28234529	2,28279233	0,056219448044430464	1	-0,00805708393	0,000128337328
2	1	0	0	0	940,49	2,29584622	2,29632545	0,055799885303713382	1	-0,00798109733	0,000128134692
2	1	0	0	0	941,84	2,30934739	2,30971813	0,05539810560488423	1	-0,00790567789	0,000127954016
2	1	0	1	0	943,19	2,32284832	2,32324123	0,055054525146260749	1	-0,00783073157	0,000127904947
2	1	0	1	0	944,54	2,33634925	2,3368144	0,054813789494801203	1	-0,00775620062	0,000128089654
2	1	0	0	0	945,89	2,34985018	2,35021734	0,054472460101048115	1	-0,00768203055	0,000128022119
2	1	0	0	0	947,24	2,36335158	2,36368179	0,054390950192867885	1	-0,00760814687	0,000128562897
2	1	0	1	0	948,59	2,37685227	2,37743378	0,054159686823064934	1	-0,00753451325	0,000128761065
2	1	0	0	0	949,94	2,39035392	2,39053822	0,054201499336200666	1	-0,00746102538	0,000129570763
2	1	0	0	0	951,29	2,40385437	2,40429974	0,054092943998208934	1	-0,00738764601	0,000130055647
2	1	0	1	0	952,64	2,41735554	2,4180336	0,054034238087124045	1	-0,0073142238	0,000130656597
2	1	0	1	0	953,99	2,4308567	2,43128538	0,054133684626625043	1	-0,00724069355	0,000131614433
2	1	0	0	0	955,34	2,44435763	2,44502926	0,054356104306255706	1	-0,00716690207	0,000132902263
2	1	0	0	0	956,69	2,45785856	2,45828176	0,054756586614530534	1	-0,00709279161	0,000134607122
2	1	0	1	0	958,04	2,47135949	2,47180486	0,054944425433252922	1	-0,00701827975	0,000135811904
2	1	0	1	0	959,39	2,48486042	2,48526764	0,055296752039187878	1	-0,00694343215	0,000137427225
2	1	0	0	0	960,74	2,49836183	2,49896121	0,055443453136831411	1	-0,00686826091	0,00013855104
2	1	0	0	0	962,09	2,51186252	2,51236391	0,055703731700001978	1	-0,00679292902	0,000139948039
2	1	0	1	0	963,44	2,52536368	2,52576685	0,055797698519503117	1	-0,00671730516	0,000140931981
2	1	0	1	0	964,79	2,53886485	2,5394001	0,05602534943803511	1	-0,00664147502	0,000142270772
2	1	0	0	0	966,14	2,55236602	2,55264282	0,056187516544014214	1	-0,00656533381	0,00014342666
2	1	0	0	0	967,49	2,56586671	2,56638622	0,056457800441421344	1	-0,00648888294	0,000144892518
2	1	0	1	0	968,84	2,57936788	2,57999969	0,056851065116158451	1	-0,00641202321	0,000146675724
2	1	0	1	0	970,19	2,5928688	2,59326196	0,057122042441430042	1	-0,00633473322	0,000148132414
2	1	0	0	0	971,54	2,60636973	2,60686517	0,057541801400172397	1	-0,00625697896	0,000150003718
2	1	0	0	0	972,89	2,6198709	2,62028813	0,05787283284977696	1	-0,00617872411	0,0001516435
2	1	0	1	0	974,24	2,63337207	2,63371086	0,05836629304879648	1	-0,00609994121	0,000153719942
2	1	0	1	0	975,59	2,646873	2,64758492	0,058780556932712448	1	-0,00602057343	0,00015562652
2	1	0	0	0	976,94	2,66037393	2,66074705	0,059131525476307917	1	-0,00594061939	0,000157334027
2	1	0	0	0	978,29	2,67387509	2,67424011	0,059548272188597811	1	-0,00586001063	0,000159246381
2	1	0	1	0	979,64	2,68737602	2,68760276	0,060073665188004275	1	-0,00577871036	0,000161454154
2	1	0	1	0	980,99	2,70087719	2,70121598	0,060757979265569421	1	-0,00569666363	0,000164120429
2	1	0	0	0	982,34	2,71437812	2,71472931	0,061241571384016307	1	-0,00561388116	0,000166254293
2	1	0	0	0	983,69	2,72787929	2,72828245	0,06192021937264736	1	-0,00553032523	0,000168935847
2	1	0	1	0	985,04	2,74138021	2,74190593	0,062420504613934554	1	-0,00544600375	0,000171151158
2	1	0	1	0	986,39	2,75488138	2,75556922	0,063033201828754163	1	-0,00536090648	0,000173692344
2	1	0	0	0	987,74	2,76838231	2,7688818	0,063639880934109325	1	-0,0052750255	0,00017621131
2	1	0	0	0	989,09	2,78188229	2,78209281	0,064141914135898125	1	-0,00518836919	0,000178448754
2	1	0	1	0	990,44	2,79538441	2,79586768	0,064832985459361165	1	-0,00510093896	0,000181264448
2	1	0	1	0	991,79	2,8088851	2,80924964	0,065261222393527168	1	-0,00501270453	0,000183335069
2	1	0	0	0	993,14	2,82238626	2,82273364	0,066085649537853901	1	-0,0049236659	0,00018654218
2	1	0	1	0	994,49	2,83588815	2,8363173	0,066574245469728154	1	-0,00483379932	0,000188825681
2	1	0	1	0	995,84	2,8493886	2,8500905	0,067261576148060224	1	-0,00474311225	0,000191701576
2	1	0	0	0	997,19	2,86288953	2,86326241	0,06782095013962441	1	-0,00465158094	0,000194189182
2	1	0	0	0	998,54	2,8763907	2,8767457	0,068460282927844672	1	-0,00455920491	0,000196942827
2	1	0	1	0	999,89	2,88989162	2,89051938	0,069186294664784102	1	-0,00446594413	0,000199984323
2	1	0	1	0	1001,24	2,90339255	2,90397215	0,069802175101358221	1	-0,00437178742	0,000202703566
2	1	0	0	0	1002,59	2,91689372	2,91751528	0,07034257605361449	1	-0,0042767413	0,000205225544
2	1	0	0	0	1003,94	2,93039465	2,93084812	0,071086145394171238	1	-0,00418068888	0,000208342695
2	1	0	1	0	1005,29	2,94389558	2,94424081	0,072009731976625741	1	-0,00408363016	0,000212013998
2	1	0	1	0	1006,64	2,95739675	2,95774388	0,072726412540456858	1	-0,00398552837	0,000215106105
2	1	0	0	0	1007,99	2,97089791	2,97129703	0,073499424092005722	1	-0,00388639723	0,000218388624
2	1	0	0	0	1009,34	2,98439908	2,98475003	0,074340934496527782	1	-0,00378617062	0,000221889102
2	1	0	1	0	1010,69	2,99789977	2,99830317	0,075184970356834522	1	-0,00368478615	0,000225427342
2	1	0	1	0	1012,04	3,0114007	3,01182604	0,076255560658561536	1	-0,00358214951	0,000229668483
2	1	0	0	0	1013,39	3,02490187	3,02518868	0,077171599298405005	1	-0,00347822206	0,000233458646
2	1	0	0	0	1014,74	3,0384028	3,0388422	0,078346231719478963	1	-0,00337286503	0,000238081833
2	1	0	1	0	1016,09	3,05190396	3,0524354	0,07941821077838551	1	-0,00326601439	0,000242418959
2	1	0	1	0	1017,44	3,06540489	3,06593847	0,080667265749071014	1	-0,00315759215	0,000247320888
2	1	0	0	0	1018,79	3,07890582	3,07940149	0,081939870064767437	1	-0,00304749911	0,000252325757
2	1	0	0	0	1020,14	3,09240723	3,093045	0,083163955229489715	1	-0,00293570408	0,000257229869
2	1	0	1	0	1021,49	3,10590816	3,10628724	0,084575900963197222	1	-0,00282209436	0,000262717047
2	1	0	1	0	1022,84	3,11940908	3,12000084	0,085947148909326426	1	-0,00270660524	0,000268155185
2	1	0	0	0	1024,19	3,13290977	3,13365412	0,087697053095325606	1	-0,00258904393	0,000274812221
2	1	0	0	0	1025,54	3,14641094	3,14694667	0,089227321053234394	1	-0,00246932451	0,000280793611
2	1	0	1	0	1026,89	3,15991187	3,16042972	0,090946352148118195	1	-0,00234723301	0,000287429546
2	1	0	1	0	1028,24	3,17341304	3,17378211	0,092846234781208678	1	-0,00222262763	0,000294673722
2	1	0	0	0	1029,59	3,18691421	3,18737578	0,095063327365399462	1	-0,00209523714	0,00030300254
2	1	0	1	0	1030,94	3,20041609	3,2009294	0,097480332277496192	1	-0,00196483522	0,000312027667
2	1	0	1	0	1032,29	3,2139163	3,21436167	0,099937522124188608	1	-0,00183115643	0,000321235333
2	1	0	0	0	1033,64	3,22741771	3,22808528	0,10283487982279688	1	-0,00169386878	0,000331959774
2	1	0	0	0	1034,99	3,24091816	3,24129748	0,10587395657785232	1	-0,00155259436	0,000343168998
2	1	0	1	0	1036,34	3,25441909	3,25470042	0,10940519867775333	1	-0,00140692969	0,000356081146
2	1	0	1	0	1037,69	3,26792026	3,26842403	0,11315911678442125	1	-0,00125637301	0,000369851972
2	1	0	0	0	1039,04	3,28142118	3,28169632	0,11743445399527718	1	-0,0011004	0,000385384221
2	1	0	0	0	1040,39	3,29492235	3,29532957	0,12201127301280669	1	-0,000938416517	0,000402067351
2	1	0	1	0	1041,75	3,30842352	3,30856204	0,12716740102041491	1	-0,000769834907	0,000420741242
2	1	0	1	0	1043,10	3,32192421	3,3224864	0,13289559384187034	1	-0,000593998353	0,000441543816
2	1	0	0	0	1044,45	3,33542562	3,33578873	0,13898648034470717	1	-0,00041016005	0,00046362952
2	1	0	0	0	1045,80	3,34892631	3,349262	0,14580265692590365	1	-0,000217613284	0,000488331309
2	1	0	1	0	1047,15	3,36242747	3,36295533	0,15313313684115792	1	-1,55289435E-005	0,000514979882
2	1	0	1	0	1048,50	3,3759284	3,37618756	0,16130442474968733	1	0,000196956142	0,000544594019
2	1	0	0	0	1049,85	3,38942957	3,38983107	0,17001727359214093	1	0,000420889148	0,000576329825
2	1	0	0	0	1051,20	3,4029305	3,40352464	0,17944351292680861	1	0,000657146389	0,00061074039
2	1	0	1	0	1052,55	3,41643167	3,41675687	0,18958546194092688	1	0,000906762492	0,000647767447
2	1	0	1	0	1053,90	3,42993283	3,43046021	0,20030556518274058	1	0,00117046072	0,000687140273
2	1	0	0	0	1055,25	3,44343352	3,44372296	0,21177179707835059	1	0,0014491356	0,000729283376
2	1	0	0	0	1056,60	3,45693469	3,45740652	0,22349437512457283	1	0,00174334215	0,00077271089
2	1	0	1	0	1057,95	3,47043562	3,47085929	0,23584486280257466	1	0,00205382961	0,000818584347
2	1	0	1	0	1059,30	3,48393679	3,48430181	0,24867803851763392	1	0,00238127285	0,000866469345
2	1	0	0	0	1060,65	3,49743772	3,4978857	0,26226797117851674	1	0,00272658048	0,000917383411
2	1	0	0	0	1062,00	3,51093888	3,51137853	0,27629137900657773	1	0,00309043634	0,000970163615
2	1	0	1	0	1063,35	3,52443957	3,52484155	0,2908840546539664	1	0,00347374752	0,00102532015
2	1	0	1	0	1064,70	3,53794098	3,5385251	0,30614341275455994	1	0,00387711264	0,00108329614
2	1	0	0	0	1066,05	3,55144215	3,55186749	0,32168529368937018	1	0,00430134125	0,00114258355
2	1	0	0	0	1067,40	3,56494355	3,56569242	0,33796412051181069	1	0,00474699354	0,00120507611
2	1	0	1	0	1068,75	3,578444	3,57918429	0,35444167147700947	1	0,00521471957	0,0012686121
2	1	0	0	0	1070,10	3,59194636	3,59243846	0,37145360544197459	1	0,00570509722	0,00133442425
2	1	0	0	0	1071,45	3,6054461	3,60575938	0,38861360408676096	1	0,00621846085	0,00140124711
2	1	0	1	0	1072,80	3,61894703	3,61948276	0,40605564105393734	1	0,00675526401	0,00146971142
2	1	0	1	0	1074,15	3,6324482	3,63271523	0,42357052039975949	1	0,00731568038	0,00153871113
2	1	0	1	0	1075,50	3,64594841	3,64620733	0,4408168925795568	1	0,00789966341	0,00160730979
2	1	0	0	0	1076,85	3,65945005	3,65979171	0,45770543053125222	1	0,00850679632	0,00167510659
2	1	0	1	0	1078,20	3,67295146	3,67345548	0,47369907749816774	1	0,00913629122	0,00174011244
2	1	0	1	0	1079,55	3,68645215	3,68687797	0,4888859555746112	1	0,00978665985	0,00180246285
2	1	0	0	0	1080,90	3,69995332	3,70043087	0,50237392866983923	1	0,0104564605	0,00185899995
2	1	0	0	0	1082,25	3,71345425	3,71393394	0,51430392358452026	1	0,0111433323	0,0019100908
2	1	0	1	0	1083,60	3,72695541	3,72736692	0,52459745636830669	1	0,0118453186	0,00195536716
2	1	0	1	0	1084,95	3,7404561	3,74105048	0,53309147447968461	1	0,0125598805	0,00199432205
2	1	0	0	0	1086,30	3,75395751	3,75433302	0,54043424796934093	1	0,0132852402	0,00202897005
2	1	0	0	0	1087,65	3,76745868	3,76780581	0,5462849922478199	1	0,0140192891	0,00205829577
2	1	0	1	0	1089,00	3,78095937	3,78164983	0,551265460594248	1	0,0147608249	0,00208469294
2	1	0	1	0	1090,35	3,79446054	3,79494238	0,55538606100405286	1	0,0155083332	0,00210765819
2	1	0	0	0	1091,70	3,80796146	3,80862594	0,55915434487785018	1	0,0162612088	0,0021296097
2	1	0	0	0	1093,05	3,82146263	3,82201838	0,56232494829843386	1	0,0170186125	0,00214921637
2	1	0	1	0	1094,40	3,83496356	3,83542132	0,56528954192375027	1	0,0177802872	0,00216812361
2	1	0	1	0	1095,75	3,84846473	3,84879398	0,5681718524234953	1	0,0185458045	0,00218677637
2	1	0	0	0	1097,10	3,86196542	3,86234736	0,57084810951103558	1	0,0193151832	0,00220481376
2	1	0	0	0	1098,45	3,87546659	3,87589025	0,57354312622920166	1	0,0200880058	0,00222299015
2	1	0	1	0	1099,80	3,88896799	3,88943362	0,57589228094244762	1	0,0208643489	0,00223989482
2	1	0	1	0	1101,15	3,90246868	3,90300655	0,57812230009585613	1	0,0216437671	0,00225641509
2	1	0	0	0	1102,50	3,91596985	3,91670012	0,58030962198972698	1	0,0224263854	0,0022728988
2	1	0	0	0	1103,85	3,92947078	3,93000269	0,58265561548372262	1	0,0232119244	0,00228983816
2	1	0	1	0	1105,20	3,94297194	3,94344568	0,58486698350558618	1	0,0240005758	0,00230639125
2	1	0	1	0	1106,55	3,95647287	3,95682859	0,5871019903570409	1	0,0247921702	0,00232306193
2	1	0	0	0	1107,90	3,96997404	3,97078228	0,5895352798203639	1	0,0255869776	0,00234091631
2	1	0	0	0	1109,25	3,98347449	3,9839747	0,59167843257009434	1	0,0263847336	0,00235723192
2	1	0	1	0	1110,60	3,9969759	3,99763823	0,59411568893119693	1	0,027185671	0,00237505953
2	1	0	0	0	1111,95	4,01047802	4,01103115	0,59626954073059315	1	0,0279897396	0,0023916557
2	1	0	0	0	1113,30	4,02397823	4,02451372	0,59859172332411072	1	0,0287966542	0,0024090407
2	1	0	1	0	1114,65	4,03747988	4,03795719	0,60071714003593702	1	0,029606767	0,00242567016
2	1	0	1	0	1116,00	4,05098009	4,05166054	0,60305313734958515	1	0,0304197744	0,00244336668
2	1	0	0	0	1117,35	4,06448126	4,06516361	0,60537774814292787	1	0,0312360637	0,0024609596
2	1	0	0	0	1118,70	4,07798195	4,07850647	0,60777489887550387	1	0,0320553333	0,00247881375
2	1	0	1	0	1120,05	4,09148312	4,09199905	0,60994236947347738	1	0,0328777917	0,0024958835
2	1	0	1	0	1121,40	4,10498428	4,10542202	0,61170233770584038	1	0,0337028317	0,00251129619
2	1	0	0	0	1122,75	4,11848497	4,11922598	0,6134086322660233	1	0,034530282	0,00252676872
2	1	0	0	0	1124,10	4,13198614	4,13253832	0,61446230501557325	1	0,035359472	0,00253928895
2	1	0	1	0	1125,45	4,14548731	4,14617157	0,61521250288933517	1	0,0361900851	0,00255077658
2	1	0	1	0	1126,80	4,158988	4,159482	0,61543961699377011	1	0,0370213836	0,00255991006
2	1	0	0	0	1128,15	4,17248917	4,17310762	0,61564255117749389	1	0,0378530882	0,00256914273
2	1	0	0	0	1129,50	4,18598938	4,18678999	0,61582906822702554	1	0,0386848226	0,00257834699
2	1	0	1	0	1130,85	4,1994915	4,20006323	0,61587685051684864	1	0,0395168215	0,00258672168
2	0	0	1	1	1132,13	4,18769121	4,18846607	0,50271792866235462	1	0,040225096	0,00210561696
2	0	0	0	1	1133,48	4,17418957	4,17488194	0,42421530497570893	1	0,0408477187	0,00177104876
2	0	0	0	1	1134,83	4,16068935	4,16145992	0,36472974158902803	1	0,0413780771	0,00151780818
2	0	0	1	1	1136,18	4,14718723	4,14761543	0,31756049511022707	1	0,0418369919	0,00131711876
2	0	0	0	1	1137,53	4,13368607	4,13430262	0,27924868186314854	1	0,0422385857	0,00115449855
2	0	0	0	1	1138,88	4,12018538	4,12047911	0,24787471381326486	1	0,0425933301	0,00102136261
2	0	0	1	1	1140,23	4,10668421	4,10734653	0,22171600838191808	1	0,0429092869	0,000910664501
2	0	0	1	1	1141,58	4,09318352	4,09367323	0,19934490990514586	1	0,0431924425	0,000816052896
2	0	0	0	1	1142,93	4,07968235	4,08033085	0,18000120033199562	1	0,043447677	0,00073446444
2	0	0	0	1	1144,28	4,06618118	4,06681776	0,16334010482144858	1	0,0436786823	0,000664274441
2	0	0	1	1	1145,63	4,05268002	4,05316401	0,1487068838905543	1	0,0438886434	0,000602733402
2	0	0	1	1	1146,98	4,03917933	4,0396409	0,13575877823556493	1	0,0440799892	0,00054841669
2	0	0	0	1	1148,33	4,02567816	4,02627802	0,12430260613715882	1	0,0442549363	0,000500476861
2	0	0	0	1	1149,68	4,01217747	4,01267529	0,11382432126750518	1	0,04441512	0,000456740032
2	0	0	1	1	1151,03	3,9986763	3,99905181	0,1047036985789116	1	0,044562161	0,000418715528
2	0	0	1	1	1152,38	3,98517489	3,98548865	0,096249447378795699	1	0,0446972884	0,000383601087
2	0	0	0	1	1153,73	3,97167373	3,97213578	0,0886785085701072	1	0,0448216535	0,000352243078
2	0	0	0	1	1155,08	3,95817304	3,95875311	0,081727455273115085	1	0,0449362248	0,000323538814
2	0	0	1	1	1156,43	3,94467187	3,94515991	0,075412390947652506	1	0,0450419113	0,000297513936
2	0	0	1	1	1157,78	3,93117094	3,93152642	0,069748715381137805	1	0,0451394469	0,00027421891
2	0	0	0	1	1159,13	3,91767025	3,91821408	0,064415345201268352	1	0,0452296026	0,000252393103
2	0	0	0	1	1160,48	3,90416884	3,90458059	0,059711437517156173	1	0,045312956	0,000233148123
2	0	0	1	1	1161,83	3,89066768	3,89118814	0,055118983456244109	1	0,0453900844	0,000214478336
2	0	0	1	1	1163,18	3,87716651	3,87758446	0,051192125751792109	1	0,0454614833	0,000198501788
2	0	0	0	1	1164,57	3,86326551	3,86394095	0,04744131087985193	1	0,0455295034	0,000183310418
2	0	0	1	1	1165,93	3,84976363	3,85041666	0,04406292018683047	1	0,0455906577	0,000169660605
2	0	0	1	1	1167,28	3,83626366	3,83657432	0,040696686841935501	1	0,0456473418	0,000156135866
2	0	0	0	1	1168,63	3,82276344	3,82324266	0,037862523767185408	1	0,045699954	0,000144757621
2	0	0	0	1	1169,98	3,80926156	3,80981898	0,035050774749834093	1	0,0457487218	0,000133537105
2	0	0	1	1	1171,33	3,79576087	3,79630566	0,032568575009160326	1	0,045793958	0,00012364026
2	0	0	1	1	1172,68	3,78225946	3,78269243	0,030132037762086842	1	0,0458358452	0,000113980233
2	0	0	0	1	1174,03	3,7687583	3,76904893	0,027826238084041248	1	0,0458745994	0,000104878454
2	0	0	0	1	1175,38	3,75525761	3,75562596	0,025712633486061008	1	0,0459103398	9,65670333E-005
2	0	0	1	1	1176,73	3,74175644	3,74217319	0,023546169085117642	1	0,0459432155	8,81138403E-005
2	0	0	1	1	1178,08	3,72825551	3,72876024	0,02170604082736337	1	0,045973286	8,09366247E-005
2	0	0	0	1	1179,43	3,71475434	3,7155478	0,01935632218373945	1	0,0460006297	7,19193413E-005
2	0	0	0	1	1180,78	3,70125341	3,70172429	0,017429307612474022	1	0,046025198	6,45184919E-005
2	0	0	1	1	1182,13	3,68775225	3,68823099	0,015375251357909293	1	0,0460470319	5,67074785E-005
2	0	0	1	1	1183,48	3,67425156	3,67481852	0,013403923667889728	1	0,0460661389	4,92569852E-005
2	0	0	0	1	1184,83	3,66075039	3,66123533	0,011395662666473045	1	0,0460825078	4,17222036E-005
2	0	0	0	1	1186,18	3,64724898	3,64778209	0,0092699633338876595	1	0,0460961573	3,38148056E-005
2	0	0	1	1	1187,53	3,63374782	3,63408875	0,0074365198161104038	1	0,0461071134	2,7024973E-005
2	0	0	1	1	1188,88	3,62024713	3,62089634	0,0056725227223069011	1	0,0461155027	2,05396173E-005
2	0	0	0	1	1190,27	3,60634613	3,60663152	0,003554252155784823	1	0,046121493	1,28188776E-005
2	0	0	0	1	1191,62	3,59284496	3,59353924	0,0017210088250673507	1	0,0461248606	6,18451259E-006
2	0	0	1	1	1192,97	3,57934403	3,58004665	0,00016635250355534483	1	0,0461259596	5,9554975E-007
2	0	0	1	1	1194,32	3,56584334	3,56623268	-0,0014164527259102507	1	0,0461249799	5,05139997E-006
2	0	0	0	1	1195,67	3,55234218	3,55288005	-0,0027772663973640518	1	0,0461220182	9,86729447E-006
2	0	0	0	1	1197,02	3,53884101	3,53926659	-0,0042154868400151398	1	0,0461172573	1,49197322E-005
2	0	0	1	1	1198,37	3,5253396	3,52570367	-0,005310965175643424	1	0,0461108051	1,87248897E-005
2	0	0	1	1	1199,72	3,51183891	3,51231098	-0,0064367582017439334	1	0,0461028293	2,26078973E-005
2	0	0	0	1	1201,07	3,49833775	3,49887776	-0,0074169100504756698	1	0,0460933857	2,59508615E-005
2	0	0	0	1	1202,42	3,48483682	3,48529458	-0,0083717014422290854	1	0,0460826233	2,91778451E-005
2	0	0	1	1	1203,77	3,47133565	3,47170115	-0,0093615073686426637	1	0,0460706018	3,25003566E-005
2	0	0	1	1	1205,16	3,45743465	3,45803738	-0,0099806037304315251	1	0,0460570157	3,45133012E-005
2	0	0	0	1	1206,51	3,44393396	3,44430447	-0,010757329100063843	1	0,046042677	3,70515154E-005
2	0	0	1	1	1207,86	3,43043232	3,43101311	-0,011472498723155616	1	0,0460272655	3,9362294E-005
2	0	0	1	1	1209,21	3,41693163	3,41741848	-0,012335142111017731	1	0,0460108556	4,21543409E-005
2	0	0	0	1	1210,56	3,40343022	3,40399575	-0,01293741238866164	1	0,0459934697	4,40388976E-005
2	0	0	0	1	1211,91	3,38992953	3,39042234	-0,013480717878943949	1	0,0459751822	4,57053284E-005
2	0	0	1	1	1213,26	3,3764286	3,37677884	-0,014073470927542075	1	0,045955997	4,75229972E-005
2	0	0	1	1	1214,61	3,36292744	3,36335635	-0,014844442024089686	1	0,0459359735	4,99271482E-005
2	0	0	0	1	1215,96	3,34942675	3,34998322	-0,015476143501776618	1	0,0459150821	5,18448214E-005
2	0	0	0	1	1217,31	3,33592534	3,33642006	-0,01600480827619321	1	0,0458934158	5,33987622E-005
2	0	0	1	1	1218,66	3,32242465	3,32303739	-0,016651077380326189	1	0,0458709449	5,53321515E-005
2	0	0	1	1	1220,01	3,30892348	3,30940437	-0,017144805329735446	1	0,0458476879	5,67390925E-005
2	0	0	0	1	1221,36	3,29542232	3,29582119	-0,017778746070689523	1	0,0458237901	5,85955677E-005
2	0	0	0	1	1222,71	3,28192115	3,2822175	-0,018310472213973638	1	0,0457990989	6,00989515E-005
2	0	0	1	1	1224,06	3,26842022	3,26894522	-0,018632552077178899	1	0,0457737073	6,09087911E-005
2	0	0	1	1	1225,41	3,25491929	3,25542188	-0,019289314339403037	1	0,0457477719	6,27948539E-005
2	0	0	0	1	1226,76	3,24141812	3,2419591	-0,019872931079589651	1	0,0457209647	6,44272295E-005
2	0	0	0	1	1228,11	3,22791743	3,22830582	-0,020486681237040726	1	0,0456934199	6,61372687E-005
2	0	0	1	1	1229,46	3,21441627	3,21486282	-0,020794587083704102	1	0,0456652232	6,68517459E-005
2	0	0	1	1	1230,81	3,20091534	3,20143986	-0,021406260726507754	1	0,0456363745	6,85308551E-005
2	0	0	0	1	1232,16	3,18741417	3,18788695	-0,021786827807469933	1	0,0456069037	6,94539413E-005
2	0	0	0	1	1233,51	3,173913	3,17425346	-0,022378689958713949	1	0,0455767997	7,10356326E-005
2	0	0	1	1	1234,86	3,16041183	3,16079068	-0,022715909954664938	1	0,045546107	7,18002339E-005
2	0	0	1	1	1236,21	3,14691091	3,14750767	-0,023029144824249677	1	0,045514822	7,24844067E-005
2	0	0	0	1	1237,56	3,13341022	3,13372421	-0,023352129307265094	1	0,0454830155	7,31791297E-005
2	0	0	0	1	1238,91	3,11990929	3,12017131	-0,023752992541024726	1	0,0454506688	7,41134063E-005
2	0	0	1	1	1240,26	3,10640812	3,10679841	-0,02424195025135601	1	0,0454178117	7,53148561E-005
2	0	0	1	1	1241,61	3,09290695	3,09348607	-0,024528266978450189	1	0,0453844555	7,58778551E-005
2	0	0	0	1	1242,96	3,07940602	3,08011341	-0,024988497685020205	1	0,045350641	7,69674079E-005
2	0	0	1	1	1244,31	3,06590438	3,06651855	-0,025215878496655296	1	0,0453163609	7,73249558E-005
2	0	0	1	1	1245,66	3,05240393	3,05252576	-0,025661290089677379	1	0,0452816822	7,83317519E-005
2	0	0	0	1	1247,01	3,03890371	3,03923488	-0,02587304564187337	1	0,0452465676	7,86342644E-005
2	0	0	0	1	1248,36	3,02540183	3,02582049	-0,026187066677569648	1	0,0452110916	7,92373612E-005
2	0	0	0	1	1249,71	3,01190162	3,01225829	-0,026336060998687642	1	0,045175232	7,93310173E-005
2	0	0	1	1	1251,06	2,99839997	2,9990952	-0,026637314838202086	1	0,0451390594	7,98878464E-005
2	0	0	0	1	1252,41	2,98489881	2,98515105	-0,026996954130785066	1	0,0451025181	8,05899836E-005
2	0	0	0	1	1253,76	2,97139788	2,97159791	-0,027146778748525974	1	0,0450656712	8,06693133E-005
2	0	0	1	1	1255,11	2,95789647	2,9581449	-0,027439397429892099	1	0,0450285152	8,116971E-005
2	0	0	1	1	1256,46	2,94439578	2,94485211	-0,027546404201226947	1	0,0449910685	8,1120088E-005
2	0	0	0	1	1257,81	2,93089485	2,93152976	-0,027809806924779078	1	0,0449533612	8,15252788E-005
2	0	0	0	1	1259,16	2,91739345	2,91783619	-0,027994777046842611	1	0,0449153893	8,16841712E-005
2	0	0	1	1	1260,51	2,90389252	2,90447354	-0,028060769759273776	1	0,0448772348	8,15017629E-005
2	0	0	1	1	1261,86	2,89039183	2,89088035	-0,028132877836469562	1	0,0448388271	8,13287843E-005
2	0	0	0	1	1263,21	2,87689066	2,87737727	-0,028263770558017763	1	0,0448002219	8,13255319E-005
2	0	0	0	1	1264,56	2,86338949	2,86367369	-0,028573742951266522	1	0,0447614044	8,18258777E-005
2	0	0	1	1	1265,91	2,84988832	2,85057163	-0,028615494869882352	1	0,0447224267	8,15705207E-005
2	0	0	1	1	1267,26	2,8363874	2,83683801	-0,028836608088264851	1	0,0446832664	8,18047847E-005
2	0	0	0	1	1268,61	2,82288647	2,8234148	-0,028857430113324282	1	0,0446439907	8,14764935E-005
2	0	0	0	1	1269,96	2,80938554	2,80994225	-0,028992800662914931	1	0,0446045622	8,14680971E-005
2	0	0	1	1	1271,31	2,79588437	2,7962687	-0,029086569983822643	1	0,0445650369	8,13338629E-005
2	0	0	1	1	1272,66	2,7823832	2,78285599	-0,02912340229765209	1	0,0445253812	8,1046237E-005
2	0	0	0	1	1274,01	2,76888251	2,76926255	-0,029294523284382426	1	0,0444856398	8,1124228E-005
2	0	0	0	1	1275,36	2,75538135	2,75600028	-0,029210173563721299	1	0,0444458053	8,05032469E-005
2	0	0	1	1	1276,71	2,74188018	2,7424171	-0,02944127736069879	1	0,0444058999	8,07402612E-005
2	0	0	1	1	1278,06	2,72837925	2,72861314	-0,029356737970374579	1	0,0443659164	8,01031783E-005
2	0	0	0	1	1279,41	2,71487832	2,71544099	-0,029472699204537434	1	0,0443258807	8,00313719E-005
2	0	0	0	1	1280,76	2,70137715	2,70177746	-0,029438820822785261	1	0,0442857854	7,95371452E-005
2	0	0	1	1	1282,11	2,68787622	2,68834448	-0,029472647545238342	1	0,0442456342	7,92326318E-005
2	0	0	1	1	1283,46	2,67437506	2,67477131	-0,029600606144716493	1	0,0442054383	7,91748535E-005
2	0	0	0	1	1284,81	2,66087389	2,66114807	-0,029550356965046349	1	0,0441651717	7,86378732E-005
2	0	0	0	1	1286,16	2,64737415	2,64775681	-0,029474622677333363	1	0,0441248752	7,80416303E-005
2	0	0	1	1	1287,51	2,63387203	2,63448262	-0,029523265635362003	1	0,0440844968	7,77785317E-005
2	0	0	0	1	1288,86	2,62037086	2,62080932	-0,029739917003704819	1	0,044044055	7,79426482E-005
2	0	0	0	1	1290,21	2,60686994	2,60727644	-0,029752850018364198	1	0,044003509	7,75739027E-005
2	0	0	1	1	1291,56	2,59336901	2,59383345	-0,029849111141326598	1	0,0439628884	7,7423625E-005
2	0	0	1	1	1292,91	2,57986784	2,58042026	-0,029966316680656749	1	0,0439221151	7,73256907E-005
2	0	0	0	1	1294,26	2,56636691	2,56690741	-0,030033187242224922	1	0,0438812152	7,70924089E-005
2	0	0	0	1	1295,61	2,55286574	2,55309367	-0,030289023551934854	1	0,0438401289	7,73307111E-005
2	0	0	1	1	1296,97	2,53936458	2,53973079	-0,030368479512010938	1	0,0437988639	7,71277628E-005
2	0	0	1	1	1298,32	2,52586389	2,52643824	-0,030599433045911898	1	0,043757353	7,73075808E-005
2	0	0	0	1	1299,67	2,51236296	2,51300573	-0,030761112847054963	1	0,0437155925	7,73028514E-005
2	0	0	0	1	1301,02	2,49886155	2,49946237	-0,03092818639318784	1	0,0436735936	7,7303841E-005
2	0	0	1	1	1302,37	2,48536062	2,48571873	-0,031256622974372819	1	0,0436312817	7,76951711E-005
2	0	0	1	1	1303,72	2,47185969	2,47236586	-0,03144901248742832	1	0,0435886346	7,7753466E-005
2	0	0	0	1	1305,07	2,45835853	2,45882297	-0,031770064883554938	1	0,0435456149	7,81169656E-005
2	0	0	0	1	1306,42	2,4448576	2,44528985	-0,0319552788278088	1	0,0435022451	7,81399212E-005
2	0	0	1	1	1307,77	2,43135643	2,43175697	-0,032403704720006086	1	0,0434584729	7,8797937E-005
2	0	0	1	1	1309,12	2,4178555	2,41837406	-0,03259587343200121	1	0,0434143171	7,88290126E-005
2	0	0	0	1	1310,47	2,40435457	2,40483069	-0,032788846903713446	1	0,0433697328	7,88516263E-005
2	0	0	0	1	1311,82	2,39085364	2,39127779	-0,03308516097604297	1	0,0433247574	7,91158091E-005
2	0	0	1	1	1313,17	2,37735248	2,37786508	-0,033480090098843674	1	0,0432793014	7,96111344E-005
2	0	0	1	1	1314,52	2,36385131	2,36429143	-0,033907582440103168	1	0,0432333983	8,01674032E-005
2	0	0	0	1	1315,87	2,35035038	2,35081863	-0,034196199179859834	1	0,0431870073	8,03890653E-005
2	0	0	0	1	1317,22	2,33684945	2,33716536	-0,034648892663729837	1	0,0431401432	8,09801932E-005
2	0	0	1	1	1318,57	2,32334828	2,32379246	-0,034945011934420787	1	0,0430927761	8,12049548E-005
2	0	0	1	1	1319,92	2,30984735	2,31037974	-0,035483797439762157	1	0,0430449136	8,19810448E-005
2	0	0	0	1	1321,27	2,29634643	2,29680657	-0,03577142694848601	1	0,0429965146	8,21600479E-005
2	0	0	0	1	1322,62	2,28284526	2,2832334	-0,036207771627232435	1	0,0429476239	8,2670791E-005
2	0	0	1	1	1323,97	2,26934409	2,26992083	-0,036519050510832947	1	0,0428981781	8,28953562E-005
2	0	0	1	1	1325,32	2,25584245	2,25643754	-0,036934752905260602	1	0,0428481996	8,33409649E-005
2	0	0	0	1	1326,67	2,242342	2,24274421	-0,03740825755327648	1	0,0427976735	8,38971537E-005
2	0	0	1	1	1328,02	2,22884035	2,2292397	-0,037761258976359904	1	0,0427465811	8,41789006E-005
2	0	0	1	1	1329,37	2,21534014	2,2159183	-0,038264814560534278	1	0,0426949337	8,47917036E-005
2	0	0	0	1	1330,72	2,20183897	2,20219493	-0,038609956866518246	1	0,0426427126	8,50266515E-005
2	0	0	0	1	1332,07	2,18833804	2,18865204	-0,039157129901772019	1	0,042589929	8,57013292E-005
2	0	0	1	1	1333,42	2,17483687	2,17534924	-0,039512858483552352	1	0,0425365157	8,59542633E-005
2	0	0	1	1	1334,77	2,16133595	2,16178608	-0,039873101525396858	1	0,0424825363	8,6197113E-005
2	0	0	0	1	1336,12	2,14783478	2,1481328	-0,040269011224154381	1	0,0424279273	8,65031834E-005
2	0	0	0	1	1337,47	2,13433385	2,1348002	-0,040720935290058272	1	0,0423727073	8,69310607E-005
2	0	0	1	1	1338,82	2,12083268	2,12117672	-0,041351680314013261	1	0,0423168167	8,77142229E-005
2	0	0	1	1	1340,06	2,10843253	2,10876703	-0,041968170760406387	1	0,0422649756	8,85010959E-005