File: Experimentelles/Rohdaten/Batterietests/AlteZelle/Studenten_Batterietests/LLTO_LP30_Li CV/ZView-Export/LLTO_LP30_Li_05_GCPL_C01_loop2.txt
EC-Lab ASCII FILE
Nb header lines : 3
mode	ox/red	error	control changes	Ns changes	counter inc.	Ns	time/s	control/V/mA	Ewe/V	dq/mA.h	<I>/mA	P/W	(Q-Qo)/mA.h	x	Capacity/mA.h
1	0	0	1	1	0	1	17907,42	-0,100000001	4,18802834	0	0	0	0	0	0
1	0	0	1	0	0	1	17927,42	-0,100000001	3,43672013	-0,00027773308079317213	-0,099983910296066509	0,000343616732	-0,00055409249347371226	2,067393591678497E-005	0,00055409249347371226
1	0	0	1	0	0	1	17947,42	-0,100000001	2,82104301	-0,00027773416422059142	-0,099984300329942182	0,000282060006	-0,0011095601749553187	4,139918194710441E-005	0,0011095601749553187
1	0	0	1	0	0	1	17967,42	-0,100000001	2,2782321	-0,00027773446609907683	-0,099984409006198246	0,000227787692	-0,0016650289570499366	6,2124469042775091E-005	0,0016650289570499366
1	0	0	1	0	0	1	17987,42	-0,100000001	1,88827586	-0,00027773349680006506	-0,099984060058549786	0,000188797494	-0,0022204965367243261	8,2849711274530394E-005	0,0022204965367243261
1	0	0	1	0	0	1	18007,42	-0,100000001	1,62265837	-0,0002777341064272655	-0,099984279524344602	0,000162240322	-0,0027759642247289158	0,00010357495754823112	0,0027759642247289158
1	0	0	1	0	0	1	18027,42	-0,100000001	1,49514258	-0,00027773419985464874	-0,099984313158202982	0,000149490807	-0,0033314323735084538	0,00012430022101406467	0,0033314323735084538
1	0	0	1	0	0	1	18047,42	-0,100000001	1,4534775	-0,00027773388007697133	-0,099984198038237696	0,000145324782	-0,0038869004322204064	0,00014502548111935552	0,0038869004322204064
1	0	0	1	0	0	1	18067,42	-0,100000001	1,42800486	-0,00027773413137305114	-0,099984288504827533	0,000142778052	-0,0044423682724122112	0,00016575073307136586	0,0044423682724122112
1	0	0	1	0	0	1	18087,42	-0,100000001	1,40785968	-0,00027773397782651914	-0,099984233228075341	0,000140763776	-0,004997836010626263	0,00018647598121844912	0,004997836010626263
1	0	0	1	0	0	1	18107,42	-0,100000001	1,39017785	-0,00027773415319704352	-0,099984296361464883	0,000138995951	-0,0055533040727721056	0,00020720124145186298	0,0055533040727721056
1	0	0	1	0	0	1	18127,42	-0,100000001	1,37387085	-0,0002777344088227385	-0,099984388386716186	0,000137365641	-0,0061087723942561024	0,0002279265113615321	0,0061087723942561024
1	0	0	1	0	0	1	18147,42	-0,100000001	1,35832751	-0,00027773423472088246	-0,099984325710047258	0,000135811453	-0,0066642408102316723	0,0002486517847968089	0,0066642408102316723
1	0	0	1	0	0	1	18167,42	-0,100000001	1,34331894	-0,00027773374617430899	-0,099984149833278682	0,000134310598	-0,0072197084299318234	0,00026937702852197917	0,0072197084299318234
1	0	0	1	0	0	1	18187,42	-0,100000001	1,32873046	-0,0002777338825464249	-0,099984198927240998	0,000132852045	-0,0077751758356844122	0,00029010226426447821	0,0077751758356844122
1	0	0	1	0	0	1	18207,42	-0,100000001	1,31765544	-0,00027773430464209782	-0,099984350881685094	0,000131744921	-0,0083306443226383539	0,0003108275403480535	0,0083306443226383539
1	0	0	1	0	0	1	18227,42	-0,100000001	1,31333995	-0,0002777337744678888	-0,099984160018967539	0,000131313194	-0,0088861121506347994	0,00033155279184503859	0,0088861121506347994
1	0	0	1	0	0	1	18247,42	-0,100000001	1,30862355	-0,0002777334542199969	-0,099984044729725056	0,000130841479	-0,0094415793616540467	0,00035227802032177485	0,0094415793616540467
1	0	0	1	0	0	1	18267,42	-0,100000001	1,3017875	-0,00027773422320766579	-0,099984321565289216	0,00013015834	-0,0099970475359679667	0,0003730032847403305	0,0099970475359679667
1	0	0	1	0	0	1	18287,42	-0,100000001	1,29279387	-0,00027773396145262656	-0,099984227333473946	0,000129259002	-0,010552515510568659	0,00039372854170731712	0,010552515510568659
1	0	0	1	0	0	1	18307,42	-0,100000001	1,28166151	-0,00027773397370386454	-0,09998423174391968	0,000128145941	-0,011107983371891965	0,00041445379444777222	0,011107983371891965
1	0	0	1	0	0	1	18327,42	-0,100000001	1,2692498	-0,0002777338159436153	-0,099984174950229261	0,000126904895	-0,011663451203966365	0,00043517904609691117	0,011663451203966365
1	0	0	1	0	0	1	18347,42	-0,100000001	1,25660896	-0,0002777339823005928	-0,099984234838741888	0,000125641091	-0,012218918985307272	0,00045590429585311546	0,012218918985307272
1	0	0	1	0	0	1	18367,42	-0,100000001	1,24362445	-0,0002777337385242184	-0,099984147079246042	0,000124342725	-0,012774386644514539	0,00047662954105234938	0,012774386644514539
1	0	0	1	0	0	1	18387,42	-0,100000001	1,23042989	-0,00027773352575384909	-0,099984070481912154	0,00012302339	-0,013329853888691768	0,00049735477076625453	0,013329853888691768
1	0	0	1	0	0	1	18407,42	-0,100000001	1,21733069	-0,00027773369742267664	-0,099984132282690816	0,000121713754	-0,013885321109465067	0,00051807999960692755	0,013885321109465067
1	0	0	1	0	0	1	18427,42	-0,100000001	1,20369697	-0,00027773336820801101	-0,099984013765409754	0,000120350451	-0,014440788175690144	0,00053880522268119872	0,014440788175690144
1	0	0	1	0	0	1	18447,42	-0,100000001	1,18985319	-0,00027773363389405936	-0,099984109412388339	0,000118966411	-0,014996255197872774	0,00055953044411218682	0,014996255197872774
1	0	0	1	0	0	1	18467,42	-0,100000001	1,17553198	-0,00027773374279298717	-0,099984148616002816	0,000117534568	-0,015551722599494013	0,00058025567970053978	0,015551722599494013
1	0	0	1	0	0	1	18487,42	-0,100000001	1,16086709	-0,00027773367964807485	-0,099984125883834112	0,00011606828	-0,016107190181009526	0,00060098092200098982	0,016107190181009526
1	0	0	1	0	0	1	18507,42	-0,100000001	1,14568663	-0,00027773367235643994	-0,099984123258845504	0,000114550472	-0,016662657676471248	0,00062170616109065728	0,016662657676471248
1	0	0	1	0	0	1	18527,42	-0,100000001	1,12972331	-0,00027773366622709568	-0,099984121052281549	0,000112954389	-0,01721812523041423	0,0006424314023623392	0,01721812523041423
1	0	0	1	0	0	1	18547,42	-0,100000001	1,11328256	-0,00027773344000428915	-0,099984039612070208	0,000111310488	-0,01777359253867887	0,00066315663446743181	0,01777359253867887
1	0	0	1	0	0	1	18567,42	-0,100000001	1,09584892	-0,00027773384208687478	-0,099984184361802803	0,000109567562	-0,018329060011595133	0,00068388187271589786	0,018329060011595133
1	0	0	1	0	0	1	18587,42	-0,100000001	1,07772791	-0,0002777339823904137	-0,099984234871077414	0,000107755804	-0,018884528137847843	0,00070460713534122509	0,018884528137847843
1	0	0	1	0	0	1	18607,42	-0,100000001	1,05897665	-0,00027773391719534995	-0,09998421140085417	0,000105880943	-0,019439995822978992	0,00072533238150771392	0,019439995822978992
1	0	0	1	0	0	1	18627,42	-0,100000001	1,03951895	-0,00027773374996292922	-0,09998415119718199	0,000103935417	-0,01999546331343599	0,00074605762041064832	0,01999546331343599
1	0	0	1	0	0	1	18647,42	-0,100000001	1,02019489	-0,00027773388948208755	-0,09998420142407959	0,000102003374	-0,020550931071418502	0,00076678286929531942	0,020550931071418502
1	0	0	1	0	0	1	18667,42	-0,100000001	1,00203562	-0,00027773350228824544	-0,099984062034294746	0,000100187593	-0,02110639830117513	0,00078750809847117248	0,02110639830117513
1	0	0	1	0	0	1	18687,42	-0,100000001	0,986034095	-0,00027773534770889414	-0,09998472638573632	9,85883526E-005	-0,021661868668410157	0,00080823344471056333	0,021661868668410157
1	0	0	1	0	0	1	18707,42	-0,100000001	0,973221421	-0,00027773522925708032	-0,099984683743082816	9,73072383E-005	-0,022217338815554208	0,00082895878273806362	0,022217338815554208
1	0	0	1	0	0	1	18727,42	-0,100000001	0,963215709	-0,00027773511458229686	-0,099984642460160282	9,63067796E-005	-0,022772809075741363	0,00084968412498335411	0,022772809075741363
1	0	0	1	0	0	1	18747,42	-0,100000001	0,955100358	-0,00027773522751323053	-0,099984683115296883	9,54954085E-005	-0,02332827943197768	0,00087040947081236813	0,02332827943197768
1	0	0	1	0	0	1	18767,42	-0,100000001	0,94843626	-0,00027773523020702931	-0,099984684085064461	9,48290981E-005	-0,023883749778373846	0,00089113481627423283	0,023883749778373846
1	0	0	1	0	0	1	18787,42	-0,100000001	0,943166077	-0,00027773532231565978	-0,09998471724417184	9,43021951E-005	-0,024439220144263219	0,0009118601624634153	0,024439220144263219
1	0	0	1	0	0	1	18807,42	-0,100000001	0,938907862	-0,00027773555988156134	-0,099984802767897434	9,38765152E-005	-0,024994691567678896	0,00093258554811032589	0,024994691567678896
1	0	0	1	0	0	1	18827,42	-0,100000001	0,935337126	-0,00027773627612201706	-0,099985060614464614	9,35197386E-005	-0,025550163855528317	0,00095331096601042176	0,025550163855528317
1	0	0	1	0	0	1	18847,42	-0,100000001	0,931880951	-0,00027773584374785424	-0,099984904959764109	9,31740287E-005	-0,026105635717591539	0,00097403636802386227	0,026105635717591539
1	0	0	1	0	0	1	18867,42	-0,100000001	0,928462982	-0,00027773566864472298	-0,099984841922636083	9,28322261E-005	-0,026661107163719482	0,00099476175451819814	0,026661107163719482
1	0	0	1	0	0	1	18887,42	-0,100000001	0,925255001	-0,00027773559334087702	-0,099984814813251226	9,25114509E-005	-0,027216578194852154	0,0010154871255285024	0,027216578194852154
1	0	0	1	0	0	1	18907,42	-0,100000001	0,921894312	-0,00027773586111474368	-0,09998491121184439	9,217552E-005	-0,027772049634373085	0,0010362125117763218	0,027772049634373085
1	0	0	1	0	0	1	18927,42	-0,100000001	0,918037176	-0,00027773579688535798	-0,099984888089265254	9,17898433E-005	-0,028327521245302486	0,0010569379044196216	0,028327521245302486
1	0	0	1	0	0	1	18947,42	-0,100000001	0,914160907	-0,00027773566654117571	-0,099984841165359066	9,14022312E-005	-0,028882992497235597	0,0010776632836682872	0,028882992497235597
1	0	0	1	0	0	1	18967,42	-0,100000001	0,910036385	-0,00027773562618055277	-0,099984826635534643	9,09898299E-005	-0,029438463860235341	0,0010983886670609982	0,029438463860235341
1	0	0	1	0	0	1	18987,42	-0,100000001	0,905682743	-0,00027773609390565088	-0,099984995016572006	9,0554684E-005	-0,029993935869299763	0,0011191140745592512	0,029993935869299763
1	0	0	1	0	0	1	19007,42	-0,100000001	0,90144366	-0,00027773660937696698	-0,099985180586248038	9,0131005E-005	-0,030549408914301606	0,0011398395207097218	0,030549408914301606
1	0	0	1	0	0	1	19027,42	-0,100000001	0,896860898	-0,0002777357609483103	-0,099984875151927949	8,96725251E-005	-0,031104880627164467	0,0011605649171562962	0,031104880627164467
1	0	0	1	0	0	1	19047,42	-0,100000001	0,892239928	-0,00027773568678688672	-0,09998484845381513	8,92104727E-005	-0,031660352150023866	0,0011812903065135856	0,031660352150023866
1	0	0	1	0	0	1	19067,42	-0,100000001	0,887886286	-0,00027773549277376797	-0,09998477860909152	8,87751157E-005	-0,032215823371600826	0,0012020156846296226	0,032215823371600826
1	0	0	1	0	0	1	19087,42	-0,100000001	0,88311255	-0,00027773601071288186	-0,099984965067174771	8,82979803E-005	-0,032771294958134957	0,0012227410763627024	0,032771294958134957
1	0	0	1	0	0	1	19107,42	-0,100000001	0,878472507	-0,00027773567685112358	-0,099984844876940339	8,78339342E-005	-0,033326766156168083	0,001243466453600287	0,033326766156168083
1	0	0	1	0	0	1	19127,42	-0,100000001	0,873584211	-0,00027773589078502522	-0,099984921893145869	8,73452518E-005	-0,033882237380711616	0,0012641918318270106	0,033882237380711616
1	0	0	1	0	0	1	19147,42	-0,100000001	0,868753195	-0,00027773553682863712	-0,099984794468844621	8,68621064E-005	-0,03443770866138617	0,0012849172121480581	0,03443770866138617
1	0	0	1	0	0	1	19167,42	-0,100000001	0,863998592	-0,00027773575964528656	-0,099984874682839386	8,63867899E-005	-0,034993179980832717	0,0013056425939157406	0,034993179980832717
1	0	0	1	0	0	1	19187,42	-0,100000001	0,859091163	-0,00027773540880655251	-0,099984748380893594	8,5896012E-005	-0,03554865095577104	0,0013263679628293584	0,03554865095577104
1	0	0	1	0	0	1	19207,42	-0,100000001	0,8540501	-0,00027773566054056086	-0,099984839005137702	8,53920646E-005	-0,036104122187754394	0,0013470933413336717	0,036104122187754394
1	0	0	1	0	0	1	19227,42	-0,100000001	0,84925729	-0,00027773547968806493	-0,099984773898238374	8,49127973E-005	-0,036659593377792218	0,0013678187182729411	0,036659593377792218
1	0	0	1	0	0	1	19247,42	-0,100000001	0,844292641	-0,00027773536278555786	-0,099984731813335322	8,44163733E-005	-0,037215064171343258	0,001388544080418755	0,037215064171343258
1	0	0	1	0	0	1	19267,42	-0,100000001	0,839232445	-0,00027773537242164211	-0,099984735282325696	8,39104323E-005	-0,037770535033613485	0,0014092694451285747	0,037770535033613485
1	0	0	1	0	0	1	19287,42	-0,100000001	0,834038675	-0,00027773530971010525	-0,099984712706172147	8,33911181E-005	-0,038326005787297715	0,0014299948057869046	0,038326005787297715
1	0	0	1	0	0	1	19307,42	-0,100000001	0,829035819	-0,00027773576087173491	-0,099984875124360806	8,28910415E-005	-0,03888147696279863	0,0014507201821837821	0,03888147696279863
1	0	0	1	0	0	1	19327,42	-0,100000001	0,823937476	-0,00027773536917774211	-0,099984734114521677	8,23811715E-005	-0,039436948225149722	0,0014714455618211565	0,039436948225149722
1	0	0	1	0	0	1	19347,42	-0,100000001	0,818609953	-0,00027773510473387107	-0,099984638914726963	8,18484186E-005	-0,039992418628343322	0,0014921709094022099	0,039992418628343322
1	0	0	1	0	0	1	19367,42	-0,100000001	0,813759863	-0,00027773534330311747	-0,099984724799656704	8,13635561E-005	-0,040547889214385344	0,001512896263805584	0,040547889214385344
1	0	0	1	0	0	1	19387,42	-0,100000001	0,808737934	-0,00027773553342993059	-0,099984793245310246	8,08614932E-005	-0,041103360481035424	0,0015336216436033594	0,041103360481035424
1	0	0	1	0	0	1	19407,42	-0,100000001	0,803429544	-0,00027773597974578541	-0,09998495391901993	8,03308649E-005	-0,041658831799914899	0,0015543470253498835	0,041658831799914899
1	0	0	1	0	0	1	19419,15	-0,100000001	0,800164282	-4,7970531555927462E-005	-0,099984897922237286	8,00043417E-005	-0,041984538188838342	0,0015664995686375149	0,041984538188838342
1	1	0	0	0	0	2	19429,15	0,100000001	0,833745837	0,00027780809804176291	0,10001091650588618	8,33836821E-005	-0,041706724602406688	0,0015561339702034099	0,00027781358643165894
1	1	0	0	0	0	2	19449,15	0,100000001	0,845050037	0,00027780888096864026	0,10001119835956542	8,45144677E-005	-0,041151107169473389	0,0015354031367450848	0,00083343101936495962
1	1	0	0	0	0	2	19469,15	0,100000001	0,853910029	0,00027780889982854326	0,10001120514913059	8,54005702E-005	-0,040595489626319507	0,0015146722991742816	0,0013890485625188386
1	1	0	0	0	0	2	19489,15	0,100000001	0,86213994	0,00027780837854618832	0,10001101748748053	8,62234956E-005	-0,040039872246991482	0,0014939414677160416	0,0019446659418468675
1	1	0	0	0	0	2	19509,15	0,100000001	0,870026171	0,00027780848589829274	0,10001105613423858	8,70122385E-005	-0,039484255050311949	0,0014732106430726624	0,0025002831385263968
1	1	0	0	0	0	2	19529,15	0,100000001	0,877625942	0,00027780829100766115	0,10001098597361038	8,77722341E-005	-0,038928638628497357	0,0014524798473405357	0,0030558995603409907
1	1	0	0	0	0	2	19549,15	0,100000001	0,884843826	0,00027780831941755283	0,1000109962011715	8,8494111E-005	-0,038373022052456166	0,001431749045854007	0,0036115161363821894
1	1	0	0	0	0	2	19569,15	0,100000001	0,892138064	0,0002778080569716791	0,10001090172065581	8,9223533E-005	-0,037817406212617178	0,0014110182718361728	0,0041671319762211706
1	1	0	0	0	0	2	19589,15	0,100000001	0,899222255	0,00027780840813244384	0,10001102813853264	8,99321458E-005	-0,037261789577411334	0,0013902874681421317	0,0047227486114270157
1	1	0	0	0	0	2	19609,15	0,100000001	0,905924559	0,00027780818818178445	0,1000109489562943	9,06023779E-005	-0,036706173067635181	0,001369556669128041	0,0052783651212031642
1	1	0	0	0	0	2	19629,15	0,100000001	0,912722349	0,00027780853180421718	0,1000110726603716	9,1282338E-005	-0,036150556030941146	0,0013488258504539354	0,0058339821578972032
1	1	0	0	0	0	2	19649,15	0,100000001	0,919310093	0,0002778081789828009	0,10001094564466019	9,19410741E-005	-0,035594939644942323	0,0013280950560581432	0,0063895985438960282
1	1	0	0	0	0	2	19669,15	0,100000001	0,92580235	0,00027780870147339174	0,10001113374127517	9,25905406E-005	-0,035039322400589837	0,0013073642296360218	0,006945215788248512
1	1	0	0	0	0	2	19689,15	0,100000001	0,932294667	0,00027780896356080963	0,10001122809274677	9,32399344E-005	-0,034483704566067757	0,0012866333811938795	0,0075008336227705894
1	1	0	0	0	0	2	19709,15	0,100000001	0,938519597	0,00027780822579562666	0,10001096249727766	9,3862247E-005	-0,033928087915487226	0,001265902576926188	0,0080564502733511206
1	1	0	0	0	0	2	19729,15	0,100000001	0,944763601	0,00027780812620247402	0,1000109266437423	9,44866842E-005	-0,033372471805991034	0,0012451717928470806	0,0086120663828473114
1	1	0	0	0	0	2	19749,15	0,100000001	0,950797617	0,00027780796057110029	0,10001086701644702	9,5090094E-005	-0,032816856087285658	0,0012244410233489045	0,0091676821015526822
1	1	0	0	0	0	2	19769,15	0,100000001	0,956965268	0,0002778086243967215	0,10001110599367355	9,57071534E-005	-0,032261238798045498	0,0012037101952519634	0,0097232993907928435
1	1	0	0	0	0	2	19789,15	0,100000001	0,962560058	0,00027780835199770003	0,10001100793002462	9,62666018E-005	-0,031705621985797299	0,0011829793849522342	0,01027891620304104
1	1	0	0	0	0	2	19809,15	0,100000001	0,968326747	0,00027780805838066672	0,10001090222789136	9,68432287E-005	-0,031150005793943635	0,001162248597800259	0,010834532394894706
1	1	0	0	0	0	2	19829,15	0,100000001	0,974131584	0,00027780828477111126	0,10001098372845238	9,74238574E-005	-0,030594389438219418	0,001141517804534053	0,011390148750618923
1	1	0	0	0	0	2	19849,15	0,100000001	0,980929375	0,00027780850816311107	0,1000110641495733	9,81037883E-005	-0,03003877294713719	0,0011207870062174578	0,011945765241701154
1	1	0	0	0	0	2	19869,15	0,100000001	0,990629613	0,00027780866453589664	0,10001112044377677	9,90739791E-005	-0,029483156214299763	0,0011000561988806512	0,012501381974538578
1	1	0	0	0	0	2	19889,15	0,100000001	1,00496984	0,0002778086132730047	0,10001110198913546	0,000100508143	-0,028927539134975155	0,0010793253786159416	0,013056999053863184
1	1	0	0	0	0	2	19909,15	0,100000001	1,02473307	0,00027780838769343162	0,10001102078048816	0,000102484599	-0,028371922153211766	0,0010585945619913726	0,013612616035626576
1	1	0	0	0	0	2	19929,15	0,100000001	1,04566109	0,00027780823023534477	0,10001096409557622	0,000104577572	-0,027816305739652003	0,0010378637665672445	0,014168232449186339
1	1	0	0	0	0	2	19949,15	0,100000001	1,06613088	0,00027780803789653715	0,10001089485360462	0,000106624706	-0,027260689368743498	0,0010171329727344925	0,014723848820094842
1	1	0	0	0	0	2	19969,15	0,100000001	1,08509207	0,0002778080608592265	0,1000109031201729	0,000108521039	-0,026705073212474221	0,00099640218691021862	0,015279464976364122
1	1	0	0	0	0	2	19989,15	0,100000001	1,10283124	0,00027780840243026614	0,10001102608574866	0,000110295281	-0,026149456521268986	0,0009756713811267648	0,015835081667569357
1	1	0	0	0	0	2	20009,15	0,100000001	1,11973023	0,0002778088136911392	0,10001117413966475	0,000111985537	-0,02559383906517431	0,00095494054680425779	0,016390699123664032
1	1	0	0	0	0	2	20029,15	0,100000001	1,13575089	0,00027780896941034326	0,1000112301985789	0,000113587841	-0,025038221196878749	0,00093420969710198131	0,016946316991959594
1	1	0	0	0	0	2	20049,15	0,100000001	1,15093136	0,00027780845374655395	0,10001104455961248	0,000115105846	-0,024482603731693126	0,00091347886244027866	0,017501934457145219
1	1	0	0	0	0	2	20069,15	0,100000001	1,16569173	0,00027780871396760144	0,10001113823919072	0,00011658216	-0,023926986508040838	0,00089274803679050957	0,018057551680797504
1	1	0	0	0	0	2	20089,15	0,100000001	1,18014657	0,00027780876624501411	0,1000111570590595	0,000118027827	-0,023371368959883069	0,00087201719903300454	0,018613169228955274
1	1	0	0	0	0	2	20109,15	0,100000001	1,19439137	0,00027780929930963453	0,10001134896232518	0,000119452692	-0,022815750907534576	0,00085128634246346586	0,01916878728130377
1	1	0	0	0	0	2	20129,15	0,100000001	1,20859802	0,0002778083100517591	0,10001099282948571	0,00012087309	-0,022260133686131536	0,00083055551689761907	0,019724404502706806
1	1	0	0	0	0	2	20149,15	0,100000001	1,2229383	0,00027780853308613107	0,10001107312186058	0,000122307378	-0,021704517008358451	0,00080982471161533709	0,020280021180479891
1	1	0	0	0	0	2	20169,15	0,100000001	1,23727858	0,00027780878697997994	0,10001116452364731	0,000123741673	-0,021148899347866624	0,00078909386966649728	0,020835638840971718
1	1	0	0	0	0	2	20189,15	0,100000001	1,25163794	0,00027780844302516848	0,10001104069991366	0,000125177612	-0,020593282450428486	0,0007683630561882167	0,021391255738409856
1	1	0	0	0	0	2	20209,15	0,100000001	1,26649368	0,00027780880456583366	0,10001117085455472	0,000126663523	-0,020037664912566176	0,00074763221881484902	0,021946873276272166
1	1	0	0	0	0	2	20229,15	0,100000001	1,28112042	0,00027780882978356541	0,10001117993293827	0,000128126369	-0,019482047326167469	0,00072690137963052339	0,022502490862670874
1	1	0	0	0	0	2	20249,15	0,100000001	1,29609084	0,0002778087472141617	0,10001115020795254	0,000129623542	-0,01892643009994473	0,00070617055388484723	0,023058108088893613
1	1	0	0	0	0	2	20269,15	0,100000001	1,31127131	0,00027780916925768058	0,10001130214362118	0,000131141947	-0,018370812125432035	0,00068543970021946675	0,023613726063406307
1	1	0	0	0	0	2	20289,15	0,100000001	1,326509	0,0002778095435404943	0,10001143688543578	0,000132666071	-0,017815193119433648	0,00066470880806796813	0,024169345069404694
1	1	0	0	0	0	2	20309,15	0,100000001	1,34186137	0,00027780930203033821	0,1000113499417785	0,000134201371	-0,017259574578329133	0,00064397793326228518	0,02472496361050921
1	1	0	0	0	0	2	20329,15	0,100000001	1,3573091	0,00027780923768008749	0,10001132677568798	0,00013574629	-0,016703956441716227	0,00062324707354872794	0,025280581747122115
1	1	0	0	0	0	2	20349,15	0,100000001	1,37088561	0,00027780901698354218	0,10001124732493072	0,000137103983	-0,016148338632475626	0,00060251622604987136	0,025836199556362717
1	1	0	0	0	0	2	20369,15	0,100000001	1,36991179	0,00027780938370401661	0,10001137934430309	0,000137006762	-0,015592719865698406	0,00058178534282403635	0,026391818323139936
1	1	0	0	0	0	2	20389,15	0,100000001	1,36788774	0,00027780923572348224	0,10001132607131008	0,000136804272	-0,015037101434357917	0,00056105447211379661	0,026947436754480426
1	1	0	0	0	0	2	20409,15	0,100000001	1,36954892	0,00027780969138236512	0,10001149010850989	0,00013697063	-0,014481482290380986	0,00054032357481413306	0,02750305589845736
1	1	0	0	0	0	2	20429,15	0,100000001	1,37397897	0,00027780968196690083	0,10001148671894272	0,000137413677	-0,013925862965000624	0,00051959267074606374	0,028058675223837718
1	1	0	0	0	0	2	20449,15	0,100000001	1,38102496	0,00027780975858246285	0,10001151430054539	0,000138118397	-0,013370243431072307	0,0004988617588967897	0,028614294757766035
1	1	0	0	0	0	2	20469,15	0,100000001	1,39202368	0,0002778096463460889	0,10001147389545027	0,000139218333	-0,012814624338850005	0,00047813086352816096	0,029169913849988339
1	1	0	0	0	0	2	20489,15	0,100000001	1,4070704	0,00027780959008882445	0,10001145364283482	0,000140723161	-0,012259005168159014	0,00045739996523176	0,029725533020679328
1	1	0	0	0	0	2	20509,15	0,100000001	1,42528701	0,00027780934150268634	0,10001136415182402	0,000142544901	-0,011703386372134128	0,00043666908091465517	0,030281151816704211
1	1	0	0	0	0	2	20529,15	0,100000001	1,44629133	0,00027780938654227389	0,10001138036607574	0,000144645586	-0,01114776763145919	0,00041593819866273133	0,030836770557379149
1	1	0	0	0	0	2	20549,15	0,100000001	1,47290969	0,00027780906521984272	0,1000112646899991	0,000147307554	-0,010592149384088026	0,00039520733481663437	0,031392388804750317
1	1	0	0	0	0	2	20569,15	0,100000001	1,5229001	0,00027780936326293482	0,10001137198551357	0,00015230733	-0,010036530836682394	0,00037447645977584819	0,031948007352155949
1	1	0	0	0	0	2	20589,15	0,100000001	1,8460815	0,00027780937740868998	0,10001137707798547	0,000184629156	-0,009480912189662912	0,00035374558101833523	0,03250362599917543
1	1	0	0	0	0	2	20609,15	0,100000001	2,27473044	0,00027781034639808867	0,10001172591417323	0,000227499724	-0,0089252918300211008	0,00033301463836058061	0,033059246358817242
1	1	0	0	0	0	2	20629,15	0,100000001	2,5854044	0,00027781040446584419	0,10001174681856549	0,000258570799	-0,0083696712305372352	0,00031228368675399648	0,033614866958301107
1	1	0	0	0	0	2	20649,15	0,100000001	2,82773805	0,00027781039275725686	0,10001174260347398	0,000282807014	-0,0078140505501379955	0,00029155273212835091	0,034170487638700339
1	1	0	0	0	0	2	20669,15	0,100000001	3,02271605	0,00027780977744360765	0,1000115210905576	0,000302306435	-0,0072584311446845914	0,00027082182507264864	0,034726107044153741
1	1	0	0	0	0	2	20689,15	0,100000001	3,18107009	0,0002778097825923728	0,10001152294411306	0,000318143662	-0,0067028115710301914	0,00025009091174114109	0,035281726617808134
1	1	0	0	0	0	2	20709,15	0,100000001	3,30610347	0,00027780967827431027	0,1000114853896101	0,000330648327	-0,0061471918453471078	0,00022935999273723894	0,035837346343491219
1	1	0	0	0	0	2	20729,15	0,100000001	3,40058517	0,00027780951207876211	0,10001142555921202	0,00034009738	-0,0055915727711792179	0,00020862909804224461	0,036392965417659117
1	1	0	0	0	0	2	20749,15	0,100000001	3,47547531	0,00027780931590663062	0,10001135493724386	0,000347586989	-0,0050359541791686144	0,00018789822133718691	0,036948584009669715
1	1	0	0	0	0	2	20769,15	0,100000001	3,53904223	0,00027780866751819846	0,10001112151740547	0,000353943586	-0,0044803363185115546	0,00016716737191991325	0,037504201870326778
1	1	0	0	0	0	2	20789,15	0,100000001	3,59508586	0,00027780923462493549	0,10001132567583325	0,000359549304	-0,0039247181903997619	0,00014643651252354394	0,038059819998438573
1	1	0	0	0	0	2	20809,15	0,100000001	3,64904809	0,00027780909061183526	0,10001127383111654	0,00036494594	-0,0033691004293797306	0,00012570566682386178	0,038615437759458605
1	1	0	0	0	0	2	20829,15	0,100000001	3,70465255	0,00027780913429417546	0,1000112895567592	0,00037050707	-0,002813482270132375	0,00010497480626578272	0,039171055918705965
1	1	0	0	0	0	2	20849,15	0,100000001	3,76144075	0,00027780933396062918	0,10001136143668341	0,000376186799	-0,0022578639436546688	8,4243939468114445E-005	0,039726674245183667
1	1	0	0	0	0	2	20869,15	0,100000001	3,81681585	0,00027780959067617856	0,1000114538542823	0,000381725316	-0,0017022449575344285	6,351304805829632E-005	0,04028229323130391
1	1	0	0	0	0	2	20889,15	0,100000001	3,86942244	0,00027780983244006832	0,10001154088928368	0,000386986911	-0,0011466256112498104	4,2782143210261018E-005	0,040837912577588525
1	1	0	0	0	0	2	20909,15	0,100000001	3,91948915	0,00027780977175467542	0,10001151904254198	0,00039199405	-0,00059100602856696243	2,2051229541889914E-005	0,041393532160271379
1	1	0	0	0	0	2	20929,15	0,100000001	3,9674747	0,00027780965598838202	0,10001147736667581	0,00039679301	-3,5386298560886829E-005	1,320310376691112E-006	0,041949151890277446
1	1	0	0	0	0	2	20949,15	0,100000001	4,01412392	0,00027780957092137798	0,10001144674255402	0,000401458354	0,00052023268470247002	-1,9410580926532845E-005	0,0425047708735408
1	1	0	0	0	0	2	20969,15	0,100000001	4,06079149	0,0002778088549131321	0,10001118897958237	0,000406124571	0,0010758501846177322	-4,0141416884045005E-005	0,043060388373456064
1	1	0	0	0	0	2	20989,15	0,100000001	4,10812807	0,00027780891128256915	0,10001120927257997	0,000410858862	0,0016314682395925562	-6,0872273551575718E-005	0,043616006428430886
1	1	0	0	0	0	2	21009,15	0,100000001	4,15407038	0,00027780879726757606	0,10001116822718194	0,000415453425	0,0021870858879411824	-8,1603115047336269E-005	0,044171624076779514
1	1	0	0	0	0	2	21029,15	0,100000001	4,19549465	0,00027780881826455398	0,1000111757860941	0,000419596356	0,0027427035728055178	-0,00010233395790554701	0,044727241761643846
1	1	0	0	0	0	2	21031,44	0,100000001	4,20000076	6,3812649764948416E-005	0,10001111969281706	0,000420046767	0,0028065162225704662	-0,00010471489366529733	0,044791054411408794