File: Experimentelles/Rohdaten/Batterietests/AlteZelle/Studenten_Batterietests/LLTO_LP30_Li CV/ZView-Export/LLTO_LP30_Li_02_CV_C01_loop9.txt
EC-Lab ASCII FILE
Nb header lines : 3
mode	ox/red	error	control changes	counter inc.	time/s	control/V	Ewe/V	<I>/mA	cycle number	(Q-Qo)/C	P/W
2	0	0	1	0	6720,97	2,11243296	2,11333823	-0,053025845438241958	10	0	0,000112061549
2	0	0	0	0	6722,20	2,10013127	2,10053658	-0,043626773083815354	10	-5,51631383E-005	9,16396311E-005
2	0	0	0	0	6723,45	2,08763051	2,08822632	-0,04402335375198167	10	-0,000110207409	9,19307276E-005
2	0	0	1	0	6724,70	2,07512975	2,07558537	-0,044487226055935136	10	-0,000165888516	9,2337039E-005
2	0	0	1	0	6725,95	2,06262851	2,0631249	-0,044986020007248493	10	-0,0002221756	9,28117806E-005
2	0	0	0	0	6727,20	2,05012751	2,05055428	-0,045530124344319802	10	-0,000279055443	9,33619885E-005
2	0	0	0	0	6728,45	2,03762674	2,03812361	-0,046001274022273766	10	-0,000336512428	9,375628E-005
2	0	0	1	0	6729,70	2,02512574	2,02542257	-0,046539214866546221	10	-0,000394572475	9,42615734E-005
2	0	0	1	0	6730,95	2,01262474	2,01309252	-0,046848783938912672	10	-0,000453227782	9,43109335E-005
2	0	0	0	0	6732,20	2,00012398	2,00050163	-0,047359182712777229	10	-0,000512503844	9,47421213E-005
2	0	0	0	0	6733,45	1,98762286	1,98815143	-0,047809173323912602	10	-0,000572381774	9,50518734E-005
2	0	0	1	0	6734,70	1,97512209	1,97582126	-0,048408750211820064	10	-0,000632890675	9,56470394E-005
2	0	0	1	0	6735,95	1,96262085	1,96286952	-0,048934911261313107	10	-0,000694034214	9,60528487E-005
2	0	0	0	0	6737,20	1,95011997	1,95044923	-0,049407073257801357	10	-0,000755835616	9,63659913E-005
2	0	0	0	0	6738,45	1,93761921	1,93815911	-0,049891164778576582	10	-0,00081830495	9,66970183E-005
2	0	0	0	0	6739,70	1,92511725	1,92572773	-0,050463894118074835	10	-0,000881401531	9,71797199E-005
2	0	0	1	0	6740,95	1,91261709	1,91320813	-0,051089952311789146	10	-0,000945196894	9,77457094E-005
2	0	0	1	0	6742,20	1,90011632	1,90063727	-0,051672535521599117	10	-0,00100966485	9,82107449E-005
2	0	0	0	0	6743,45	1,8876152	1,88808656	-0,052240413904655725	10	-0,00107487279	9,86344239E-005
2	0	0	0	0	6744,70	1,87511444	1,87558603	-0,052719211205840333	10	-0,00114079134	9,88794127E-005
2	0	0	1	0	6745,95	1,8626132	1,86298525	-0,053381034347694592	10	-0,00120753853	9,94480797E-005
2	0	0	1	0	6747,20	1,85011232	1,85064495	-0,054096375766675917	10	-0,00127509399	0,000100113182
2	0	0	0	0	6748,45	1,83761156	1,83818448	-0,054829729429911936	10	-0,00134355552	0,000100787154
2	0	0	0	0	6749,70	1,82511032	1,82517254	-0,055673169864652205	10	-0,00141292869	0,000101613143
2	0	0	1	0	6750,95	1,81260955	1,81290257	-0,056373211050716685	10	-0,00148332783	0,000102199141
2	0	0	1	0	6752,20	1,80010867	1,80047226	-0,057241721544414758	10	-0,00155476551	0,000103062135
2	0	0	0	0	6753,45	1,78760755	1,78809202	-0,058250980432300595	10	-0,00162737642	0,000104158113
2	0	0	0	0	6754,70	1,77510679	1,77587187	-0,059258584922645235	10	-0,00170116895	0,000105235653
2	0	0	1	0	6755,95	1,76260555	1,76306069	-0,060450872677999424	10	-0,00177634857	0,000106578555
2	0	0	1	0	6757,20	1,75010467	1,75077057	-0,061537724725591821	10	-0,00185297558	0,000107738437
2	0	0	0	0	6758,45	1,7376039	1,73811984	-0,062771954069224614	10	-0,00193121296	0,000109105182
2	0	0	0	0	6759,70	1,72510266	1,72567916	-0,064249163765149658	10	-0,00201114593	0,000110873443
2	0	0	1	0	6760,95	1,7126019	1,71316862	-0,06575282119835424	10	-0,00209295936	0,00011264567
2	0	0	1	0	6762,20	1,70010102	1,70042729	-0,067456372412076531	10	-0,00217668456	0,000114704657
2	0	0	0	0	6763,45	1,6875999	1,68797684	-0,069072363160860736	10	-0,00226249103	0,00011659255
2	0	0	0	0	6764,70	1,67509913	1,6756767	-0,070837853437600179	10	-0,00235035061	0,00011870134
2	0	0	1	0	6765,95	1,66259813	1,66297567	-0,072511256148572979	10	-0,00244031008	0,000120584453
2	0	0	1	0	6767,20	1,65009701	1,65048516	-0,07429581009394825	10	-0,00253231265	0,000122624129
2	0	0	1	0	6768,45	1,63759625	1,63806486	-0,07621629452046025	10	-0,00262655993	0,00012484724
2	0	0	0	0	6769,70	1,62509501	1,62544394	-0,078299561360230195	10	-0,0027232517	0,000127271545
2	0	0	0	0	6770,95	1,61259425	1,61306345	-0,080506944621447475	10	-0,00282274559	0,000129862805
2	0	0	1	0	6772,20	1,60009336	1,6006031	-0,083213566744234637	10	-0,00292540248	0,00013319189
2	0	0	1	0	6773,45	1,58759224	1,58811247	-0,086540422111283763	10	-0,00303180399	0,000137435927
2	0	0	0	0	6774,70	1,57509148	1,57554185	-0,090512820480701862	10	-0,00314269704	0,000142606732
2	0	0	0	0	6775,95	1,56259048	1,56296098	-0,095663034842194406	10	-0,0032591701	0,000149517597
2	0	0	1	0	6777,24	1,54968953	1,55006945	-0,10217398653427746	10	-0,00338688679	0,000158376773
2	0	0	1	0	6778,49	1,53718841	1,53756881	-0,11057779771120613	10	-0,00351989805	0,000170020969
2	0	0	0	0	6779,74	1,52468753	1,52509844	-0,12121493613813117	10	-0,00366486702	0,000184864708
2	0	0	0	0	6780,99	1,51218653	1,5125376	-0,13482679162795374	10	-0,00382498	0,000203930598
2	0	0	1	0	6782,24	1,49968565	1,50021744	-0,15150987003774707	10	-0,00400401186	0,000227297744
2	0	0	1	0	6783,49	1,48718476	1,48739612	-0,1715744993028543	10	-0,00420591841	0,000255199237
2	0	0	0	0	6784,74	1,47468364	1,47499573	-0,1947462724056097	10	-0,00443487195	0,000287249917
2	0	0	0	0	6785,99	1,46218276	1,46272576	-0,22093281180908288	10	-0,00469473749	0,000323164102
2	0	0	1	0	6787,24	1,44968188	1,45025527	-0,24996133560004365	10	-0,00498939445	0,000362507737
2	0	0	1	0	6788,49	1,43718076	1,4377346	-0,2814692014362663	10	-0,00532179512	0,000404678023
2	0	0	0	0	6789,74	1,42467988	1,42526412	-0,31464443534302336	10	-0,00569471484	0,000448451436
2	0	0	0	0	6790,99	1,41217887	1,41265321	-0,34933186392299834	10	-0,00610996457	0,000493484782
2	0	0	1	0	6792,24	1,39967799	1,40029299	-0,38482577314910848	10	-0,00656930776	0,00053886883
2	0	0	1	0	6793,49	1,38717711	1,38755178	-0,42095438468580506	10	-0,00707337447	0,000584096008
2	0	0	0	0	6794,74	1,37467599	1,37520158	-0,45749137861033427	10	-0,00762302568	0,000629142858
2	0	0	0	0	6795,99	1,36217511	1,36251056	-0,49381922278553338	10	-0,00821797736	0,000672833936
2	0	0	0	0	6797,24	1,34967422	1,35006011	-0,53021170167873331	10	-0,00885850471	0,000715817674
2	0	0	1	0	6798,49	1,3371731	1,33743918	-0,56597559122989517	10	-0,00954417326	0,000756957917
2	0	0	1	0	6799,74	1,32467222	1,32512903	-0,60113168119763482	10	-0,0102741942	0,00079657702
2	0	0	0	0	6800,99	1,31217122	1,31249809	-0,63570976055537677	10	-0,0110480189	0,00083436782
2	0	0	0	0	6802,24	1,29967034	1,29997754	-0,66973303118720653	10	-0,0118646594	0,000870637887
2	0	0	1	0	6803,49	1,28716946	1,28768754	-0,70295464868346842	10	-0,0127233537	0,000905185938
2	0	0	1	0	6804,74	1,27466834	1,27522683	-0,73564718182509376	10	-0,0136230066	0,000938117038
2	0	0	0	0	6805,99	1,26216745	1,26270628	-0,76853739780684416	10	-0,0145635027	0,000970437017
2	0	0	0	0	6807,24	1,24966657	1,25010538	-0,80367451657851571	10	-0,0155464755	0,00100467785
2	0	0	1	0	6808,49	1,23716545	1,23752475	-0,84082982161393011	10	-0,0165749956	0,00104054774
2	0	0	1	0	6809,74	1,22466457	1,22497404	-0,87894796455899904	10	-0,0176504739	0,00107668841
2	0	0	0	0	6810,99	1,21216357	1,21257365	-0,91632016686102349	10	-0,0187734216	0,00111110567
2	0	0	0	0	6812,24	1,19966269	1,20017326	-0,9516311980163063	10	-0,0199417509	0,00114212232
2	0	0	1	0	6813,50	1,1871618	1,18769276	-0,98433628429969216	10	-0,0211528614	0,00116908911
2	0	0	1	0	6814,79	1,17426074	1,17456055	-1,0154214088494608	10	-0,0224437378	0,00119267392
2	0	0	0	0	6816,04	1,16175985	1,16191959	-1,0429862768699696	10	-0,0237314049	0,00121186615
2	0	0	0	0	6817,29	1,14925885	1,14948916	-1,0679603926837435	10	-0,0250516888	0,00122760888
2	0	0	1	0	6818,54	1,13675797	1,13691854	-1,0899179183567541	10	-0,0264014862	0,00123914785
2	0	0	1	0	6819,79	1,12425697	1,12476873	-1,1094161337241539	10	-0,0277769566	0,00124783663
2	0	0	0	0	6821,04	1,11175597	1,11218798	-1,1263401449347552	10	-0,0291754194	0,00125270197
2	0	0	0	0	6822,29	1,09925508	1,09982765	-1,1413368244345002	10	-0,0305933896	0,00125527382
2	0	0	1	0	6823,54	1,08675396	1,0869962	-1,153972545638677	10	-0,0320286974	0,0012543638
2	0	0	1	0	6824,79	1,07425308	1,07455587	-1,1647278343637808	10	-0,0334783271	0,00125156518
2	0	0	1	0	6826,04	1,06175196	1,06210554	-1,1734939506556117	10	-0,0349402055	0,00124637445
2	0	0	0	0	6827,29	1,0492512	1,04957473	-1,1801171647384798	10	-0,0364117436	0,00123862119
2	0	0	0	0	6828,54	1,03675032	1,03697383	-1,1844584935655221	10	-0,0378901996	0,00122825243
2	0	0	1	0	6829,79	1,02424932	1,02468383	-1,187023546857139	10	-0,0393733047	0,00121632381
2	0	0	1	0	6831,04	1,01174831	1,01214314	-1,1872267331928014	10	-0,0408578329	0,00120164338
2	0	0	0	0	6832,29	0,999247432	0,999542415	-1,1849482900773544	10	-0,0423412547	0,00118440611
2	0	0	0	0	6833,54	0,98674649	0,987061739	-1,1801565491283981	10	-0,0438199639	0,00116488733
2	0	0	1	0	6834,79	0,974245548	0,974611342	-1,1726396984110235	10	-0,0452913456	0,00114286796
2	0	0	1	0	6836,04	0,961744666	0,962371469	-1,1625785762444157	10	-0,0467516482	0,0011188325
2	0	0	0	0	6837,29	0,949243605	0,949610114	-1,1505031914760728	10	-0,0481981486	0,00109252951
2	0	0	0	0	6838,54	0,936742663	0,937259912	-1,1363021399204901	10	-0,0496278778	0,00106501044
2	0	0	1	0	6839,79	0,924241722	0,924598932	-1,1211322744687405	10	-0,0510392748	0,00103659765
2	0	0	1	0	6841,04	0,911740839	0,912068307	-1,1059195054694992	10	-0,0524314456	0,00100867415
2	1	0	0	0	6842,24	0,900339961	0,900941014	-1,0861331525569184	10	-0,0537514761	0,00097854191
2	1	0	1	0	6843,49	0,912840843	0,913070679	-0,84787305630743501	10	-0,0549515747	0,000774168002
2	1	0	1	0	6844,74	0,925341785	0,925862014	-0,66132502257824038	10	-0,05588983	0,000612295698
2	1	0	0	0	6845,99	0,937842727	0,938322544	-0,50692410549769741	10	-0,0566165075	0,000475658308
2	1	0	0	0	6847,28	0,950743675	0,951163888	-0,37362820569736275	10	-0,0571816042	0,000355381664
2	1	0	1	0	6848,53	0,963244677	0,963905156	-0,2630975164938727	10	-0,0575771444	0,000253601058
2	1	0	1	0	6849,78	0,975745618	0,976235271	-0,16832996997982285	10	-0,0578447767	0,000164329656
2	1	0	0	0	6851,03	0,98824656	0,988685787	-0,086817666034524506	10	-0,0580023527	8,5835396E-005
2	1	0	0	0	6852,32	1,00114763	1,00151718	-0,013926835124342118	10	-0,0580654964	1,39479644E-005
2	1	0	1	0	6853,57	1,01364851	1,01417804	0,047452497878111789	10	-0,0580430403	4,81252828E-005
2	1	0	1	0	6854,86	1,02654946	1,0271399	0,10313147512109344	10	-0,0579444654	0,000105930456
2	1	0	0	0	6856,11	1,03905046	1,03962028	0,15111157053615942	10	-0,0577842668	0,00015709865
2	1	0	0	0	6857,36	1,05155134	1,05202067	0,19425471332700272	10	-0,0575673543	0,000204359967
2	1	0	1	0	6858,61	1,06405222	1,06458139	0,23371894999096733	10	-0,0572988763	0,000248812838
2	1	0	1	0	6859,86	1,07655346	1,07718229	0,27002713534360144	10	-0,0569832847	0,000290868455
2	1	0	0	0	6861,11	1,08905423	1,08951235	0,30383717501536013	10	-0,0566237234	0,00033103436
2	1	0	0	0	6862,36	1,10155511	1,10202312	0,33594738777416435	10	-0,0562230535	0,000370221795
2	1	0	1	0	6863,61	1,11405635	1,11440372	0,36660283863423469	10	-0,0557831451	0,000408543565
2	1	0	1	0	6864,86	1,12655711	1,12712455	0,39609670918434861	10	-0,055305779	0,000446450314
2	1	0	1	0	6866,11	1,13905799	1,13966513	0,42486073713128826	10	-0,0547920987	0,000484198972
2	1	0	0	0	6867,36	1,151559	1,15185499	0,45259859707827219	10	-0,054243017	0,000521327951
2	1	0	0	0	6868,61	1,16405988	1,16458619	0,48006246332079085	10	-0,0536593795	0,000559074106
2	1	0	1	0	6869,86	1,17656112	1,1769464	0,50714753490562003	10	-0,0530415624	0,000596885453
2	1	0	1	0	6871,11	1,18906188	1,18955731	0,53404291408757312	10	-0,0523901097	0,000635274628
2	1	0	0	0	6872,36	1,20156276	1,20187736	0,56061314108471014	10	-0,0517051704	0,00067378825
2	1	0	0	0	6873,61	1,21406376	1,21451843	0,58709225834657805	10	-0,0509871729	0,000713034358
2	1	0	1	0	6874,86	1,22656476	1,22702897	0,61321056339268762	10	-0,0502363294	0,00075242715
2	1	0	1	0	6876,11	1,23906565	1,23967993	0,63894693134352384	10	-0,0494533964	0,000792089675
2	1	0	0	0	6877,36	1,25156665	1,25212038	0,66386841780816397	10	-0,0486386605	0,000831243175
2	1	0	0	0	6878,61	1,26406753	1,2646811	0,68832800459737702	10	-0,0477931984	0,000870515418
2	1	0	1	0	6879,86	1,27656865	1,27705133	0,71172307136778906	10	-0,046917662	0,000908906921
2	1	0	1	0	6881,11	1,28906953	1,2896322	0,73440460379545766	10	-0,0460133366	0,00094711181
2	1	0	0	0	6882,36	1,30157042	1,3020426	0,75645513227209357	10	-0,0450808369	0,000984936836
2	1	0	0	0	6883,61	1,31407142	1,31431258	0,77750635426491366	10	-0,0441216305	0,00102188636
2	1	0	1	0	6884,86	1,32657242	1,32702374	0,79741700769712589	10	-0,0431367084	0,00105819129
2	1	0	1	0	6886,11	1,3390733	1,33956444	0,81641548189024115	10	-0,0421275757	0,00109364116
2	1	0	0	0	6887,36	1,3515743	1,35207498	0,83431640919297574	10	-0,0410951599	0,0011280583
2	1	0	0	0	6888,61	1,36407518	1,36448538	0,85134490362057843	10	-0,0400411189	0,00116164773
2	1	0	1	0	6889,86	1,3765763	1,37710619	0,86734602600336077	10	-0,0389662087	0,0011944276
2	1	0	1	0	6891,11	1,38907719	1,38956678	0,88258445045600256	10	-0,0378720872	0,00122641004
2	1	0	1	0	6892,36	1,40157783	1,40206802	0,89675792722485786	10	-0,0367594436	0,00125731563
2	1	0	0	0	6893,61	1,41407907	1,41435742	0,91038199017445005	10	-0,0356295258	0,0012876055
2	1	0	0	0	6894,86	1,42658007	1,42690802	0,92352283994356736	10	-0,0344829336	0,00131778209
2	1	0	1	0	6896,11	1,43908095	1,43947887	0,93991459036866893	10	-0,0333182216	0,00135298725
2	1	0	1	0	6897,36	1,45158195	1,4519695	0,96328596336146074	10	-0,0321290307	0,00139866187
2	1	0	0	0	6898,61	1,46408284	1,46475065	0,99356981615225242	10	-0,0309058838	0,00145533204
2	1	0	0	0	6899,89	1,47688389	1,47736156	1,029209366999563	10	-0,0296106488	0,00152051437
2	1	0	1	0	6901,14	1,48938489	1,48961163	1,0638155636067168	10	-0,0283017624	0,00158467202
2	1	0	1	0	6902,39	1,50188589	1,50227249	1,0940052491302304	10	-0,0269523021	0,001643494
2	1	0	0	0	6903,64	1,51438677	1,51461267	1,1184602153177038	10	-0,0255679004	0,00169403397
2	1	0	0	0	6904,89	1,52688777	1,52731383	1,1359835412974136	10	-0,02415758	0,00173500332
2	1	0	1	0	6906,14	1,53938866	1,53984451	1,1452224083865677	10	-0,0227302685	0,00176346442
2	1	0	1	0	6907,39	1,55188966	1,55256569	1,144227353855971	10	-0,02129771	0,00177648815
2	1	0	0	0	6908,64	1,56439054	1,56465518	1,1298578608160206	10	-0,019874284	0,00176783791
2	1	0	0	0	6909,89	1,57689154	1,57734621	1,100183740258215	10	-0,0184783302	0,00173537061
2	1	0	1	0	6911,14	1,58939242	1,58994699	1,0538330040872104	10	-0,0171297546	0,0016755386
2	1	0	1	0	6912,39	1,60189342	1,60249782	0,99076183730115021	10	-0,0158499181	0,0015876937
2	1	0	0	0	6913,64	1,61439431	1,61489797	0,91123380511998771	10	-0,0146591105	0,00147154962
2	1	0	0	0	6914,89	1,62689531	1,62733841	0,81713916547596096	10	-0,0135772806	0,00132976193
2	1	0	1	0	6916,14	1,63939631	1,63963854	0,7126534075165783	10	-0,0126201212	0,001168494
2	1	0	1	0	6917,39	1,65189719	1,65213919	0,60241227084770893	10	-0,0117970807	0,000995268929
2	1	0	0	0	6918,68	1,66479814	1,66513097	0,47214602368573286	10	-0,0111008687	0,000786184974
2	1	0	0	0	6919,93	1,67729926	1,6776216	0,32460882406060864	10	-0,0106014116	0,000544570794
2	1	0	1	0	6921,18	1,68980169	1,69026399	0,19479721416920358	10	-0,0102814566	0,000329258706
2	1	0	1	0	6922,43	1,70230091	1,70278323	0,11972804565448291	10	-0,0100905076	0,000203870906
2	1	0	1	0	6923,68	1,71480215	1,71517336	0,087731706385966387	10	-0,00996356737	0,000150475084
2	1	0	0	0	6924,93	1,72730291	1,72785437	0,073754042930280154	10	-0,00986313913	0,000127436244
2	1	0	0	0	6926,18	1,73980379	1,74013448	0,066015438836378509	10	-0,00977560971	0,000114875744
2	1	0	1	0	6927,43	1,75230503	1,75295579	0,060865631753889152	10	-0,00969591085	0,000106694759
2	1	0	1	0	6928,68	1,76480579	1,76537633	0,057002141780685715	10	-0,00962176919	0,000100630234
2	1	0	0	0	6929,93	1,77730691	1,77791715	0,054110768231718566	10	-0,00955184083	9,62044651E-005
2	1	0	0	0	6931,18	1,7898078	1,79006672	0,051767138337405869	10	-0,00948529597	9,26666326E-005
2	1	0	1	0	6932,43	1,80230856	1,8027277	0,049823107644139328	10	-0,00942144357	8,98174985E-005
2	1	0	1	0	6933,72	1,81520963	1,81547904	0,048102144860119155	10	-0,0093579581	8,73284371E-005
2	1	0	0	0	6934,97	1,82771063	1,82825029	0,046791195782134259	10	-0,00929837301	8,55460166E-005
2	1	0	0	0	6936,22	1,84021163	1,8406806	0,045605184083493786	10	-0,0092404196	8,39445784E-005
2	1	0	1	0	6937,48	1,85271251	1,85326147	0,04459482374174201	10	-0,00918384641	8,26458709E-005
2	1	0	1	0	6938,73	1,86521351	1,86576188	0,04360893798487575	10	-0,00912849326	8,13638908E-005
2	1	0	0	0	6939,98	1,8777144	1,87831271	0,042816753402197037	10	-0,00907414593	8,0423255E-005
2	1	0	0	0	6941,23	1,8902154	1,89082325	0,042133699898840723	10	-0,00902071036	7,96673776E-005
2	1	0	1	0	6942,48	1,9027164	1,90337408	0,041617811327645024	10	-0,00896802731	7,921426E-005
2	1	0	1	0	6943,73	1,91521728	1,91591465	0,041147254708145536	10	-0,00891603809	7,88346297E-005
2	1	0	0	0	6944,98	1,92771828	1,92852557	0,04070397795294409	10	-0,00886460394	7,84986623E-005
2	1	0	0	0	6946,23	1,94021928	1,94081569	0,040254983274887136	10	-0,00881368574	7,81275012E-005
2	1	0	1	0	6947,48	1,95272017	1,95332634	0,039978978088280826	10	-0,00876318011	7,80919945E-005
2	1	0	1	0	6948,73	1,96522117	1,96564639	0,03974400549971824	10	-0,00871303678	7,81226627E-005
2	1	0	1	0	6949,98	1,97772229	1,97830772	0,039637353920184083	10	-0,00866318308	7,8414887E-005
2	1	0	0	0	6951,23	1,99022305	1,99056745	0,039403348511162509	10	-0,00861358363	7,84350195E-005
2	1	0	0	0	6952,48	2,00272417	2,00322556	0,039181000763633344	10	-0,00856416859	7,84883814E-005
2	1	0	1	0	6953,73	2,01522493	2,01559854	0,039005104365060013	10	-0,00851491466	7,86186283E-005
2	1	0	1	0	6954,98	2,02772593	2,0281589	0,03897055100744007	10	-0,00846580602	7,90384729E-005
2	1	0	0	0	6956,23	2,04022694	2,04063988	0,03885664112749504	10	-0,00841683056	7,92924111E-005
2	1	0	0	0	6957,48	2,0527277	2,05315065	0,038906096121839482	10	-0,00836797059	7,98800756E-005
2	1	0	1	0	6958,73	2,0652287	2,06570125	0,03874511689840185	10	-0,00831917301	8,00358393E-005
2	1	0	1	0	6959,98	2,0777297	2,07823181	0,03869103531663609	10	-0,00827044714	8,04089432E-005
2	1	0	0	0	6961,23	2,09023094	2,09065223	0,038678019889630349	10	-0,0082217427	8,08622863E-005
2	1	0	0	0	6962,48	2,1027317	2,10318279	0,038725595465317894	10	-0,00817311648	8,1447004E-005
2	1	0	1	0	6963,73	2,11523247	2,11584401	0,038797177316155264	10	-0,00812441017	8,20887726E-005
2	1	0	1	0	6964,98	2,12773347	2,12819386	0,038786000475132141	10	-0,00807569083	8,25441311E-005
2	1	0	0	0	6966,23	2,14023447	2,1406045	0,038699073202830502	10	-0,00802691188	8,28394113E-005
2	1	0	0	0	6967,48	2,15273547	2,15319538	0,038799877676259034	10	-0,00797807239	8,35437168E-005
2	1	0	1	0	6968,73	2,16523647	2,16571593	0,038883905101101734	10	-0,00792913139	8,42114896E-005
2	1	0	1	0	6969,98	2,17773724	2,17814636	0,039029832318192294	10	-0,00788010377	8,50126889E-005
2	1	0	0	0	6971,23	2,19023824	2,19070721	0,039140883270495866	10	-0,00783093926	8,57462146E-005
2	1	0	0	0	6972,48	2,20273924	2,20317745	0,039166060266628109	10	-0,00778166903	8,62897796E-005
2	1	0	1	0	6973,73	2,21524024	2,21545768	0,039281029894482291	10	-0,00773222046	8,70254589E-005
2	1	0	1	0	6974,98	2,22774124	2,22815871	0,039440418719702054	10	-0,00768262148	8,78795108E-005
2	1	0	0	0	6976,23	2,24024224	2,24050903	0,039607919325741594	10	-0,00763281714	8,8741901E-005
2	1	0	0	0	6977,48	2,25274301	2,25307989	0,039858505614877971	10	-0,0075828433	8,98043945E-005
2	1	0	1	0	6978,73	2,26524472	2,26576257	0,039913855740355245	10	-0,00753263431	9,04353219E-005
2	1	0	1	0	6979,98	2,27774501	2,27816105	0,040006535622523987	10	-0,0074822153	9,11413299E-005
2	1	0	0	0	6981,23	2,29024696	2,29069209	0,040202333070066266	10	-0,00743152667	9,20911698E-005
2	1	0	0	0	6982,48	2,30274701	2,30312228	0,040439355138611635	10	-0,00738061825	9,31367831E-005
2	1	0	0	0	6983,73	2,31524777	2,3158133	0,040665678447112384	10	-0,00732941227	9,41741164E-005
2	1	0	1	0	6984,98	2,32774878	2,32815337	0,040913094708230349	10	-0,0072779404	9,52519622E-005
2	1	0	1	0	6986,23	2,34024978	2,34058404	0,041219305586613267	10	-0,00722614769	9,6477248E-005
2	1	0	0	0	6987,48	2,35275078	2,35336518	0,041497216986802643	10	-0,00717410911	9,76581068E-005
2	1	0	0	0	6988,73	2,36525178	2,36548495	0,04176018711101881	10	-0,00712176319	9,87830936E-005
2	1	0	1	0	6989,98	2,37775254	2,37813592	0,04202210920630023	10	-0,00706914766	9,99342883E-005
2	1	0	1	0	6991,23	2,39025354	2,39061642	0,042309961369028314	10	-0,00701622339	0,000101146885
2	1	0	0	0	6992,48	2,40275455	2,40319705	0,042437099143474624	10	-0,00696298573	0,000101984711
2	1	0	0	0	6993,73	2,41525555	2,41600871	0,042765959098081229	10	-0,00690936623	0,000103322927
2	1	0	1	0	6994,98	2,42775655	2,42837882	0,043073889450170042	10	-0,00685536116	0,00010459972
2	1	0	1	0	6996,23	2,44025755	2,4410398	0,043499621630568806	10	-0,00680091791	0,000106184307
2	1	0	0	0	6997,48	2,45275831	2,45325971	0,04394914896693081	10	-0,00674600806	0,000107818676
2	1	0	0	0	6998,73	2,46525931	2,46562982	0,044270270533161126	10	-0,00669060275	0,000109154098
2	1	0	1	0	6999,98	2,47776031	2,47818041	0,044634787812052877	10	-0,0066346894	0,000110613058
2	1	0	1	0	7001,23	2,49026155	2,49067116	0,045062585491299046	10	-0,00657828012	0,000112236085
2	1	0	0	0	7002,48	2,50276232	2,50320172	0,045337875460972896	10	-0,00652144337	0,000113489848
2	1	0	0	0	7003,73	2,51526308	2,51567221	0,045847761105202611	10	-0,00646416238	0,000115337942
2	1	0	1	0	7004,98	2,52776408	2,52826309	0,04612993485837552	10	-0,00640642131	0,000116628609
2	1	0	1	0	7006,23	2,54026508	2,54073381	0,046409998816670797	10	-0,00634824531	0,000117915457
2	1	0	0	0	7007,48	2,55276608	2,55311394	0,046774558662048864	10	-0,00628960412	0,00011942078
2	1	0	0	0	7008,73	2,56526709	2,56570482	0,047233606688678266	10	-0,00623049354	0,000121187491
2	1	0	0	0	7009,98	2,5777669	2,57841444	0,047612522531442547	10	-0,00617086934	0,000122764817
2	1	0	1	0	7011,23	2,59026885	2,59078622	0,04812996083637696	10	-0,00611074455	0,000124694445
2	1	0	1	0	7012,48	2,60276985	2,60315657	0,048430554830702022	10	-0,00605009124	0,000126072322
2	1	0	0	0	7013,73	2,61527085	2,61576724	0,048867044912185299	10	-0,00598893221	0,000127824809
2	1	0	0	0	7014,98	2,62777185	2,62821794	0,04930729444216311	10	-0,00592721952	0,00012959032
2	1	0	1	0	7016,23	2,64027286	2,64072824	0,049805832871546387	10	-0,00586495828	0,000131523673
2	1	0	1	0	7017,48	2,65277362	2,65323877	0,050333334327054445	10	-0,0058021252	0,00013354636
2	1	0	0	0	7018,73	2,66527462	2,66585994	0,05071282640953223	10	-0,00573871704	0,000135193288
2	1	0	0	0	7019,98	2,67777562	2,67827034	0,051101569357948826	10	-0,00567469327	0,000136863819
2	1	0	1	0	7021,23	2,69027662	2,69070077	0,05161539166389639	10	-0,00561006833	0,000138881573
2	1	0	1	0	7022,48	2,70277762	2,70329142	0,052170010050758496	10	-0,00554481382	0,000141030745
2	1	0	0	0	7023,73	2,71527839	2,71583223	0,052699430748665235	10	-0,00547894603	0,000143122816
2	1	0	0	0	7024,98	2,72777939	2,72820234	0,053193981371199014	10	-0,00541244168	0,000145123951
2	1	0	1	0	7026,23	2,74028039	2,74051261	0,053611459734383859	10	-0,00534531195	0,000146922888
2	1	0	1	0	7027,48	2,75278139	2,75345421	0,054132258829971302	10	-0,0052775396	0,000149050698
2	1	0	0	0	7028,73	2,76528239	2,76561379	0,054650155400546522	10	-0,00520914886	0,000151141227
2	1	0	0	0	7029,98	2,77778316	2,77827501	0,055216371954884346	10	-0,00514010666	0,000153406261
2	1	0	1	0	7031,23	2,79028416	2,79073524	0,055739260026408832	10	-0,00507043814	0,000155553513
2	1	0	1	0	7032,48	2,80278516	2,80309558	0,05610247268729529	10	-0,00500011351	0,000157260598
2	1	0	0	0	7033,73	2,81528616	2,8156364	0,056569044788678413	10	-0,00492917234	0,000159277857
2	1	0	0	0	7034,98	2,82778716	2,82824707	0,057110671477857869	10	-0,00485756062	0,000161523087
2	1	0	0	0	7036,23	2,84028769	2,84076881	0,057676114011752	10	-0,00478529185	0,00016384451
2	1	0	1	0	7037,48	2,85278893	2,8530879	0,058199371618684326	10	-0,0047123651	0,000166047917
2	1	0	1	0	7038,73	2,86528993	2,86565924	0,058774875872730445	10	-0,00463879295	0,000168428771
2	1	0	0	0	7039,98	2,87779093	2,87829971	0,059368577184310656	10	-0,00456454745	0,000170880565
2	1	0	0	0	7041,23	2,89029264	2,89071274	0,059923657596506534	10	-0,00448964862	0,000173222084
2	1	0	1	0	7042,48	2,90279293	2,90341115	0,06049806440326688	10	-0,00441407459	0,000175650755
2	1	0	1	0	7043,73	2,91529369	2,91602206	0,061058993005038477	10	-0,00433790684	0,000178049377
2	1	0	0	0	7044,98	2,92779469	2,92855263	0,061570161255076531	10	-0,00426103314	0,000180311457
2	1	0	0	0	7046,23	2,9402957	2,94080281	0,0619612247295056	10	-0,00418351125	0,00018221575
2	1	0	1	0	7047,48	2,9527967	2,95313287	0,062558440821400602	10	-0,00410531042	0,000184743389
2	1	0	1	0	7048,73	2,9652977	2,9657135	0,063098049974845133	10	-0,00402644789	0,000187130732
2	1	0	0	0	7049,98	2,97779846	2,9780941	0,063714460081731098	10	-0,00394687057	0,000189747661
2	1	0	0	0	7051,23	2,99029946	2,99064493	0,0643114381042928	10	-0,00386661268	0,000192332678
2	1	0	1	0	7052,48	3,00280046	3,00309491	0,064805625452815206	10	-0,00378561765	0,000194617445
2	1	0	1	0	7053,73	3,01530123	3,01576591	0,065386754732268621	10	-0,00370390806	0,000197191141
2	1	0	0	0	7054,98	3,02780247	3,02828646	0,066030783210104806	10	-0,00362144015	0,000199960123
2	1	0	0	0	7056,23	3,04030347	3,04071712	0,06665830042523657	10	-0,0035382132	0,000202689029
2	1	0	1	0	7057,48	3,05280423	3,05347848	0,067409200787854502	10	-0,00345418532	0,000205832548
2	1	0	1	0	7058,73	3,06530523	3,0658586	0,067894490978990694	10	-0,00336937606	0,000208154903
2	1	0	0	0	7059,98	3,07780623	3,07837939	0,06854384396380448	10	-0,00328373117	0,00021100395
2	1	0	0	0	7061,23	3,09030724	3,09056902	0,069184363353997197	10	-0,00319726858	0,000213819047
2	1	0	1	0	7062,48	3,10280824	3,1034205	0,0699309100746176	10	-0,00310996128	0,000217025023
2	1	0	1	0	7063,73	3,115309	3,11591125	0,070556498365476672	10	-0,00302183209	0,000219847789
2	1	0	0	0	7064,98	3,12780976	3,12830114	0,071281085062461453	10	-0,00293286471	0,000222988703
2	1	0	0	0	7066,23	3,14031076	3,14092207	0,071878751778664768	10	-0,00284303376	0,000225765558
2	1	0	1	0	7067,49	3,15281248	3,15321445	0,072600694593066176	10	-0,00275234762	0,000228925564
2	1	0	1	0	7068,74	3,16531277	3,16594338	0,07337612546204297	10	-0,00266077346	0,000232304665
2	1	0	1	0	7069,99	3,17781377	3,1784339	0,074174181635802355	10	-0,00256829453	0,000235757732
2	1	0	0	0	7071,24	3,19031477	3,19062376	0,074928795802406746	10	-0,00247484469	0,000239069603
2	1	0	0	0	7072,49	3,20281553	3,20316458	0,075595399849892941	10	-0,00238044164	0,00024214451
2	1	0	1	0	7073,74	3,21531653	3,21577525	0,076447249661820813	10	-0,00228498317	0,000245837175
2	1	0	1	0	7074,99	3,22781754	3,22839618	0,07732657271359744	10	-0,00218851096	0,000249640812
2	1	0	0	0	7076,24	3,24031854	3,24071646	0,078249921478951821	10	-0,00209088554	0,000253585808
2	1	0	0	0	7077,49	3,25281954	3,25345755	0,079279652913100966	10	-0,00199211226	0,000257932988
2	1	0	1	0	7078,74	3,2653203	3,26596832	0,08024389781833929	10	-0,00189207098	0,000262074027
2	1	0	1	0	7079,99	3,2778213	3,27810788	0,081225775570298112	10	-0,00179075822	0,000266266841
2	1	0	0	0	7081,24	3,2903223	3,29069853	0,082364273587396838	10	-0,00168805255	0,000271035999
2	1	0	0	0	7082,49	3,30282331	3,30335975	0,083613281778525338	10	-0,0015839081	0,000276204752
2	1	0	1	0	7083,74	3,31532431	3,31573033	0,084885098544570163	10	-0,0014782066	0,000281456101
2	1	0	1	0	7084,99	3,32782507	3,32842112	0,086203082678063424	10	-0,00137088995	0,000286920171
2	1	0	0	0	7086,24	3,34032607	3,34070134	0,087447712663560883	10	-0,00126188132	0,000292136683
2	1	0	0	0	7087,49	3,35282707	3,35329175	0,088886772903303155	10	-0,00115112483	0,000298063271
2	1	0	1	0	7088,74	3,36532807	3,3660233	0,090384318047047834	10	-0,00103850826	0,000304235728
2	1	0	1	0	7089,99	3,37782907	3,37825298	0,092004279450823347	10	-0,000923980318	0,000310813717
2	1	0	0	0	7091,24	3,39033008	3,39072347	0,093700729135889549	10	-0,000807383796	0,000317713275
2	1	0	0	0	7092,49	3,40283084	3,40347505	0,095531271013896806	10	-0,000688692264	0,000325138302
2	1	0	1	0	7093,74	3,41533184	3,41599536	0,097351775873296909	10	-0,000567749259	0,000332553202
2	1	0	1	0	7095,03	3,42823291	3,42883682	0,099205249998097318	10	-0,000440580887	0,000340158615
2	1	0	1	0	7096,28	3,44073319	3,44117689	0,10121735515598206	10	-0,000314888224	0,000348306814
2	1	0	0	0	7097,53	3,45323491	3,4535172	0,10320835859359523	10	-0,000186780468	0,000356431847
2	1	0	0	0	7098,78	3,46573615	3,46629953	0,10527257627597808	10	-5,61938941E-005	0,000364906271
2	1	0	1	0	7100,03	3,47823644	3,47884917	0,10725958951904069	10	7,68939644E-005	0,000373139948
2	1	0	1	0	7101,28	3,49073839	3,49139094	0,10919982730378552	10	0,000212548155	0,000381259277
2	1	0	0	0	7102,53	3,50323868	3,50381041	0,11141899654952158	10	0,00035087188	0,00039039104
2	1	0	0	0	7103,78	3,51573968	3,51621079	0,11371190795519659	10	0,00049195817	0,000399835029
2	1	0	1	0	7105,03	3,52824068	3,52876139	0,11608262662775792	10	0,000635928358	0,000409627886
2	1	0	1	0	7106,28	3,54074121	3,54130173	0,1185763084407272	10	0,000782871444	0,00041991449
2	1	0	0	0	7107,53	3,55324244	3,5536623	0,12100922867345298	10	0,000932964263	0,000430025946
2	1	0	0	0	7108,78	3,56574345	3,5662632	0,12364824403387776	10	0,00108626904	0,000440962176
2	1	0	1	0	7110,03	3,57824445	3,57886386	0,12636126903817013	10	0,00124292984	0,000452229782
2	1	0	1	0	7111,28	3,59074545	3,59122396	0,12918065088645835	10	0,00140298239	0,000463916658
2	1	0	0	0	7112,53	3,60324597	3,60371494	0,1320083089328059	10	0,00156652473	0,000475720328
2	1	0	0	0	7113,78	3,61574721	3,61602473	0,13466918600412691	10	0,0017334891	0,000486967096
2	1	0	1	0	7115,03	3,62824821	3,62849569	0,13718071502322987	10	0,00190385827	0,000497759611
2	1	0	1	0	7116,28	3,64074922	3,64126658	0,13983960616557523	10	0,00207744376	0,000509193284
2	1	0	0	0	7117,53	3,65325022	3,6539979	0,1422566520050168	10	0,00225418271	0,00051980553
2	1	0	0	0	7118,78	3,66575122	3,66626787	0,14465060814594211	10	0,00243383995	0,000530327903
2	1	0	1	0	7120,03	3,67825174	3,67871809	0,14680150419007965	10	0,00261637755	0,000540041365
2	1	0	1	0	7121,28	3,69075298	3,69126892	0,14891272950141421	10	0,00280160434	0,000549676945
2	1	0	0	0	7122,53	3,70325398	3,70379972	0,15107311843894467	10	0,00298958505	0,000559544598
2	1	0	0	0	7123,78	3,71575499	3,71634007	0,15320008989268298	10	0,00318012992	0,000569343625
2	1	0	1	0	7125,03	3,72825623	3,72875142	0,15530281061586515	10	0,0033733265	0,00057908555
2	1	0	1	0	7126,28	3,74075651	3,74141169	0,1573798038298264	10	0,0035689522	0,000588822644
2	1	0	0	0	7127,53	3,75325847	3,75381279	0,15933668345387898	10	0,00376731926	0,000598120096
2	1	0	0	0	7128,78	3,76575875	3,76612186	0,1614981935514752	10	0,00396831101	0,000608221861
2	1	0	0	0	7130,03	3,77825975	3,77865267	0,1637402291332055	10	0,00417203829	0,000618717459
2	1	0	1	0	7131,28	3,79076076	3,79111338	0,16598088624111008	10	0,00437854324	0,000629252347
2	1	0	1	0	7132,53	3,80326128	3,80373406	0,168301572751564	10	0,00458784588	0,000640174432
2	1	0	0	0	7133,78	3,81576252	3,8164053	0,17065154935698912	10	0,00480008731	0,000651275448
2	1	0	0	0	7135,03	3,82826352	3,82883573	0,1731170386386407	10	0,00501538999	0,000662836712
2	1	0	1	0	7136,28	3,84076452	3,84114599	0,17579479802710374	10	0,00523393694	0,000675253512
2	1	0	1	0	7137,53	3,85326552	3,85365629	0,17860647601385882	10	0,00545589486	0,000688287953
2	1	0	0	0	7138,78	3,86576653	3,86609674	0,18150766112375942	10	0,00568141323	0,000701726181
2	1	0	0	0	7140,03	3,87826705	3,87875772	0,18446915984774614	10	0,00591057446	0,000715511153
2	1	0	1	0	7141,28	3,89076829	3,89118814	0,18736314459238179	10	0,00614351081	0,000729065272
2	1	0	1	0	7142,53	3,90326929	3,90370893	0,19057648155527773	10	0,00638032099	0,000743955141
2	1	0	0	0	7143,78	3,91577029	3,91626978	0,19379785315444109	10	0,00662113819	0,000758964685
2	1	0	0	0	7145,03	3,92827129	3,92872	0,19714883249253011	10	0,00686604623	0,000774542568
2	1	0	1	0	7146,28	3,94077182	3,94126081	0,20051992645797645	10	0,00711520761	0,000790301303
2	1	0	1	0	7147,53	3,95327306	3,95355105	0,20404526048029491	10	0,00736860419	0,000806703349
2	1	0	0	0	7148,78	3,96577406	3,96612167	0,20754511343936134	10	0,00762632582	0,000823149167
2	1	0	0	0	7150,03	3,97827506	3,97883272	0,2109064244044321	10	0,00788821559	0,000839161396
2	1	0	1	0	7151,28	3,99077606	3,99143338	0,21418529244450157	10	0,00815423578	0,000854906335
2	1	0	1	0	7152,53	4,00327682	4,00384426	0,21737760181228294	10	0,00842417311	0,000870346092
2	1	0	0	0	7153,78	4,01577759	4,01636457	0,22023165846864458	10	0,00869800337	0,000884530658
2	1	0	0	0	7155,03	4,02827883	4,02888536	0,22312431712634861	10	0,00897549	0,000898942293
2	1	0	0	0	7156,28	4,04077816	4,0410943	0,22589230695163565	10	0,00925654825	0,00091285212
2	1	0	1	0	7157,53	4,05328083	4,05408669	0,22858848966037203	10	0,00954103563	0,000926717534
2	1	0	1	0	7158,78	4,06578064	4,06645536	0,23104088926202771	10	0,00982864201	0,000939517457
2	1	0	0	0	7160,03	4,07828236	4,07881737	0,23313221723462086	10	0,0101191057	0,000950903748
2	1	0	0	0	7161,28	4,09078264	4,0912075	0,23485572765871542	10	0,0104119824	0,000960843521
2	1	0	1	0	7162,53	4,10328436	4,10391903	0,23650436623332371	10	0,0107070664	0,00097059476
2	1	0	1	0	7163,78	4,1157856	4,1162796	0,23806277425692547	10	0,0110040745	0,000979932956
2	1	0	0	0	7165,03	4,12828636	4,1287694	0,23977223558661718	10	0,0113030374	0,000989964232
2	1	0	0	0	7166,28	4,1407876	4,14123058	0,24161947101665616	10	0,0116041405	0,00100060191
2	1	0	1	0	7167,53	4,15328836	4,15393114	0,24357991580230464	10	0,011907707	0,00101181422
2	1	0	1	0	7168,78	4,16579008	4,1663928	0,24600410860754618	10	0,01221414	0,00102494971
2	1	0	0	0	7170,03	4,17829037	4,17917252	0,24896715752159526	10	0,0125239193	0,00104047672
2	1	0	0	0	7171,28	4,19079113	4,19150305	0,25243007251992822	10	0,0128376577	0,00105806137
2	0	0	1	1	7172,48	4,19719172	4,19771814	0,22033338861850371	10	0,0131372837	0,000924897438
2	0	0	0	1	7173,73	4,18469048	4,18514729	0,1594145560714728	10	0,0133688394	0,000667173415
2	0	0	0	1	7174,98	4,17218971	4,1727972	0,12460475512004131	10	0,0135445856	0,00051995035
2	0	0	1	1	7176,23	4,15968895	4,16027641	0,1002221174227692	10	0,0136840194	0,00041695172
2	0	0	1	1	7177,48	4,14718771	4,14784622	0,082277693649909171	10	0,0137971789	0,000341275212
2	0	0	0	1	7178,73	4,13468695	4,1353054	0,068358860618900429	10	0,0138905095	0,000282684778
2	0	0	0	1	7179,98	4,12218571	4,12278509	0,05728991162807984	10	0,0139683764	0,000236193999
2	0	0	1	1	7181,27	4,10928488	4,10977316	0,048037696261114067	10	0,0140357651	0,000197424029
2	0	0	1	1	7182,52	4,09678364	4,09726238	0,040596893804225376	10	0,0140906563	0,000166336133
2	0	0	0	1	7183,77	4,08428288	4,08483171	0,034273573430255053	10	0,0141370641	0,000140001779
2	0	0	0	1	7185,02	4,07178211	4,07250166	0,02887424941097072	10	0,0141761843	0,000117590425
2	0	0	1	1	7186,27	4,05928087	4,05985117	0,024267321961815469	10	0,0142090032	9,85217121E-005
2	0	0	1	1	7187,52	4,04678011	4,04727983	0,02004864082846329	10	0,0142362807	8,11424616E-005
2	0	0	0	1	7188,77	4,03427887	4,03473949	0,016368925930388854	10	0,0142586865	6,60443548E-005
2	0	0	0	1	7190,02	4,02177811	4,02222872	0,012933621119979443	10	0,0142767122	5,20219837E-005
2	0	0	1	1	7191,28	4,00927734	4,00959778	0,0099782759280060275	10	0,0142907947	4,0008872E-005
2	0	0	1	1	7192,53	3,99677634	3,99711752	0,007422465649142368	10	0,0143013326	2,96684666E-005
2	0	0	0	1	7193,82	3,98387527	3,98431635	0,0046654753071682688	10	0,0143088605	1,85887293E-005
2	0	0	0	1	7195,07	3,97137427	3,97188568	0,002427986109372192	10	0,0143131707	9,64368337E-006
2	0	0	1	1	7196,32	3,95887327	3,95917463	0,00036994952923426694	10	0,0143147977	1,46469483E-006
2	0	0	1	1	7197,57	3,94637227	3,94684434	-0,001548324379958407	10	0,0143140117	6,1109954E-006
2	0	0	0	1	7198,82	3,93387151	3,93436384	-0,0032088240235073894	10	0,0143109644	1,26246814E-005
2	0	0	0	1	7200,07	3,92137051	3,92190313	-0,0048771315220316608	10	0,0143058943	1,91276376E-005
2	0	0	0	1	7201,32	3,9088695	3,9093225	-0,0061752576158461696	10	0,0142989075	2,41410744E-005
2	0	0	1	1	7202,57	3,8963685	3,89693213	-0,0075650409441247322	10	0,014290221	2,94804504E-005
2	0	0	1	1	7203,82	3,88386679	3,88438153	-0,0088239415704502925	10	0,0142799206	3,42755557E-005
2	0	0	0	1	7205,11	3,87096691	3,87151003	-0,0096745642343497306	10	0,0142677939	3,7455171E-005
2	0	0	0	1	7206,36	3,85846591	3,85898948	-0,010800592315111658	10	0,0142546445	4,16793737E-005
2	0	0	1	1	7207,61	3,84596467	3,84646893	-0,01176927981820579	10	0,0142402863	4,52701679E-005
2	0	0	1	1	7208,86	3,83346367	3,83388805	-0,012578111544523094	10	0,014224763	4,82230716E-005
2	0	0	0	1	7210,11	3,82096267	3,82137728	-0,013273922420921792	10	0,0142082311	5,07246659E-005
2	0	0	0	1	7211,36	3,80846167	3,80872655	-0,014072982351838902	10	0,0141906952	5,36001426E-005
2	0	0	1	1	7212,61	3,79596114	3,79637623	-0,014789021011286765	10	0,0141722867	5,61446868E-005
2	0	0	1	1	7213,86	3,7834599	3,78373504	-0,015471453181817197	10	0,0141530205	5,85398811E-005
2	0	0	0	1	7215,11	3,7709589	3,77129483	-0,01605084516631905	10	0,0141330017	6,05324676E-005
2	0	0	0	1	7216,36	3,7584579	3,75881433	-0,016514844542446893	10	0,0141122332	6,20762366E-005
2	0	0	1	1	7217,61	3,7459569	3,74643421	-0,017080832224261683	10	0,0140907932	6,39922146E-005
2	0	0	1	1	7218,86	3,73345637	3,73417377	-0,017611563676230957	10	0,0140686743	6,57646378E-005
2	0	0	0	1	7220,11	3,72095537	3,72160316	-0,018123005827268003	10	0,0140460152	6,74466355E-005
2	0	0	0	1	7221,36	3,70845413	3,70895219	-0,018631370907921053	10	0,0140226735	6,91028617E-005
2	0	0	1	1	7222,61	3,69595313	3,6964519	-0,018916162245053213	10	0,0139987646	6,99226875E-005
2	0	0	1	1	7223,86	3,68345213	3,68383074	-0,019350614747963872	10	0,0139742699	7,12843903E-005
2	0	0	0	1	7225,11	3,6709516	3,67146039	-0,019773330825652691	10	0,0139492545	7,25970021E-005
2	0	0	0	1	7226,36	3,6584506	3,65914059	-0,020218587689062982	10	0,0139236953	7,39826573E-005
2	0	0	1	1	7227,61	3,64594936	3,64659977	-0,020620498321174406	10	0,0138976406	7,51947009E-005
2	0	0	1	1	7228,86	3,63344836	3,63393855	-0,021100617561993827	10	0,0138710914	7,66783487E-005
2	0	0	0	1	7230,11	3,62094736	3,62120748	-0,0214737987011904	10	0,0138441101	7,7761084E-005
2	0	0	0	1	7231,36	3,60844636	3,60886741	-0,021897513477597376	10	0,0138166724	7,90252234E-005
2	0	0	0	1	7232,61	3,59594631	3,59649825	-0,022226215032582262	10	0,0137888268	7,99365444E-005
2	0	0	1	1	7233,86	3,5834446	3,58394623	-0,022601298512502864	10	0,0137605621	8,10018391E-005
2	0	0	1	1	7235,11	3,57094359	3,57166624	-0,022832224111577219	10	0,0137319602	8,15490857E-005
2	0	0	0	1	7236,36	3,55844259	3,55899549	-0,02301874588495896	10	0,0137029868	8,19236157E-005
2	0	0	0	1	7237,61	3,54594159	3,54632425	-0,0232503326648536	10	0,0136736967	8,24532181E-005
2	0	0	1	1	7238,86	3,53344107	3,53392386	-0,0235414404742188	10	0,013644102	8,31936559E-005
2	0	0	1	1	7240,11	3,52094007	3,52153349	-0,023782913058918637	10	0,0136142438	8,37523257E-005
2	0	0	0	1	7241,36	3,50843883	3,50888276	-0,024043999660837773	10	0,0135840951	8,43675734E-005
2	0	0	0	1	7242,61	3,49593782	3,49640203	-0,024144066885734589	10	0,0135536958	8,44173628E-005
2	0	0	1	1	7243,86	3,48343682	3,48407173	-0,024356905041107325	10	0,0135230441	8,48612035E-005
2	0	0	1	1	7245,11	3,4709363	3,47126031	-0,024548713661109443	10	0,0134921577	8,52149751E-005
2	0	0	0	1	7246,36	3,4584353	3,45887017	-0,024807320005493238	10	0,0134610236	8,58053027E-005
2	0	0	0	1	7247,61	3,44593406	3,44632959	-0,025007675081724301	10	0,0134296697	8,61846929E-005
2	0	0	1	1	7248,86	3,43343306	3,4338994	-0,025097268080571667	10	0,0133980885	8,61814915E-005
2	0	0	1	1	7250,11	3,42093205	3,42144871	-0,025171153722719053	10	0,0133662857	8,61218141E-005
2	0	0	0	1	7251,36	3,40843105	3,40907812	-0,025470621224182365	10	0,0133342538	8,68313364E-005
2	0	0	0	1	7252,61	3,39593053	3,3965075	-0,025612986937631034	10	0,0133019751	8,69947035E-005
2	0	0	1	1	7253,86	3,38342929	3,38390684	-0,02590204902420129	10	0,0132694812	8,76501217E-005
2	0	0	1	1	7255,11	3,37092829	3,37148666	-0,026023421873105773	10	0,0132367453	8,77376224E-005
2	0	0	0	1	7256,36	3,35842729	3,35878539	-0,026144638783686461	10	0,013203783	8,78142309E-005
2	0	0	0	1	7257,61	3,34592628	3,34621477	-0,026388165570097155	10	0,013170572	8,83004686E-005
2	0	0	0	1	7258,86	3,33342552	3,33400393	-0,026604101211811059	10	0,0131371412	8,86981798E-005
2	0	0	1	1	7260,11	3,32092476	3,32133389	-0,026825343675833834	10	0,0131034646	8,909592E-005
2	0	0	1	1	7261,36	3,308424	3,3088038	-0,02704007058213953	10	0,0130695375	8,94702898E-005
2	0	0	0	1	7262,61	3,29592252	3,29621243	-0,027086784548979891	10	0,0130353849	8,92837925E-005
2	0	0	0	1	7263,86	3,2834208	3,28382111	-0,027256780441882899	10	0,0130010117	8,95063931E-005
2	0	0	1	1	7265,11	3,27092099	3,27118111	-0,027459268409681158	10	0,0129663898	8,98242433E-005
2	0	0	1	1	7266,36	3,25841999	3,2590611	-0,027674128058909674	10	0,0129315602	9,01916719E-005
2	0	0	0	1	7267,61	3,24591875	3,24659085	-0,027906671457458317	10	0,012896494	9,06015412E-005
2	0	0	0	1	7268,86	3,23341775	3,23399997	-0,028004526005437014	10	0,0128612239	9,05666384E-005
2	0	0	1	1	7270,11	3,22091675	3,22134924	-0,028110473193616371	10	0,0128257219	9,05536508E-005
2	0	0	1	1	7271,36	3,20841575	3,20873809	-0,028302140708547126	10	0,0127900541	9,08141592E-005
2	0	0	0	1	7272,61	3,19591522	3,1963377	-0,028477676047865997	10	0,0127541544	9,1024267E-005
2	0	0	0	1	7273,86	3,18341398	3,18368673	-0,028669277982165453	10	0,0127180843	9,12739997E-005
2	0	0	1	1	7275,11	3,17091298	3,1713264	-0,028775390664426026	10	0,0126818093	9,12561591E-005
2	0	0	1	1	7276,36	3,15841198	3,15889621	-0,028769880125764758	10	0,0126453713	9,08810616E-005
2	0	0	0	1	7277,61	3,14591146	3,14632535	-0,028911663840214483	10	0,0126087423	9,09654991E-005
2	0	0	0	1	7278,86	3,13341045	3,13374496	-0,029060289321932934	10	0,0125719626	9,10675371E-005
2	0	0	1	1	7280,11	3,12090969	3,12132454	-0,02919359294658841	10	0,0125350077	9,11226816E-005
2	0	0	1	1	7281,36	3,10840845	3,10884404	-0,029310651239939059	10	0,0124979289	9,11222451E-005
2	0	0	0	1	7282,61	3,09590769	3,09650373	-0,029520762531319744	10	0,0124606928	9,14111515E-005
2	0	0	0	1	7283,86	3,08340669	3,08369231	-0,029646469464448	10	0,0124233412	9,14205884E-005
2	0	0	1	1	7285,11	3,07090592	3,0714426	-0,029793358514628723	10	0,0123858461	9,15085911E-005
2	0	0	1	1	7286,36	3,05840468	3,05866098	-0,029920102456041376	10	0,0123482682	9,15154524E-005
2	0	0	0	1	7287,61	3,04590368	3,04637098	-0,030032151592119251	10	0,0123105645	9,1489077E-005
2	0	0	0	1	7288,86	3,03340292	3,03381014	-0,030010174358418906	10	0,0122727966	9,10451708E-005
2	0	0	1	1	7290,11	3,02090073	3,02139926	-0,030015508314525818	10	0,0122349225	9,06888381E-005
2	0	0	1	1	7291,36	3,00840092	3,00875902	-0,030100213965245869	10	0,0121970112	9,05642883E-005
2	0	0	1	1	7292,61	2,99590015	2,99617815	-0,030173228296916986	10	0,0121590085	9,040437E-005
2	0	0	0	1	7293,86	2,98339891	2,98369765	-0,030257428889551021	10	0,0121209566	9,02790198E-005
2	0	0	0	1	7295,11	2,97089815	2,97116709	-0,030304380003750906	10	0,0120828422	9,00393788E-005
2	0	0	1	1	7296,36	2,95839715	2,95892692	-0,030209536431357318	10	0,0120446961	8,93878096E-005
2	0	0	1	1	7297,61	2,94589615	2,94639635	-0,030334959311100307	10	0,0120065054	8,93788165E-005
2	0	0	0	1	7298,86	2,93339515	2,93378544	-0,030360632440230573	10	0,0119682876	8,90715819E-005
2	0	0	0	1	7300,11	2,92089438	2,92142534	-0,030458048199458675	10	0,011930027	8,89809162E-005
2	0	0	1	1	7301,36	2,90839314	2,9089849	-0,030343839559160787	10	0,0118917795	8,82697714E-005
2	0	0	1	1	7302,61	2,89589238	2,89633393	-0,030326721122643674	10	0,0118535124	8,78363135E-005
2	0	0	0	1	7303,86	2,88339138	2,88384318	-0,030312758938331853	10	0,0118152127	8,74172401E-005
2	0	0	0	1	7305,11	2,87089062	2,87132263	-0,030394735619969082	10	0,0117768906	8,72730889E-005
2	0	0	1	1	7306,36	2,85838938	2,85883188	-0,03038558231006999	10	0,011738563	8,68672723E-005
2	0	0	1	1	7307,61	2,84588838	2,84645176	-0,030491411918774208	10	0,0117002418	8,679233E-005
2	0	0	0	1	7308,86	2,83338761	2,83394098	-0,030385607058027232	10	0,0116619002	8,61110166E-005
2	0	0	0	1	7310,11	2,82088661	2,82146072	-0,030362577371609747	10	0,0116235735	8,56668194E-005
2	0	0	1	1	7311,36	2,80838561	2,80863953	-0,03038895699622423	10	0,0115852272	8,53516249E-005
2	0	0	1	1	7312,61	2,79588485	2,79649949	-0,030425731888196192	10	0,0115469284	8,50855431E-005
2	0	0	0	1	7313,86	2,78338361	2,78370833	-0,030478092511960653	10	0,0115085961	8,48421187E-005
2	0	0	0	1	7315,11	2,77088284	2,77135777	-0,030424185126321408	10	0,0114702806	8,43162998E-005
2	0	0	1	1	7316,36	2,75838184	2,75884724	-0,030301012842295085	10	0,0114319408	8,35958635E-005
2	0	0	1	1	7317,61	2,74588084	2,74656749	-0,030352360665953536	10	0,0113936141	8,33648082E-005
2	0	0	0	1	7318,86	2,73338008	2,73405671	-0,030390287268190982	10	0,0113552576	8,30887657E-005
2	0	0	0	1	7320,11	2,72087908	2,72116494	-0,030453978300405043	10	0,0113169001	8,28702978E-005
2	0	0	0	1	7321,36	2,70837879	2,70891523	-0,03049288047799015	10	0,0112785008	8,26026298E-005
2	0	0	1	1	7322,62	2,69587708	2,69650459	-0,030407768392857805	10	0,0112400828	8,19946872E-005
2	0	0	1	1	7323,87	2,68337607	2,68387389	-0,030461125716101376	10	0,0112015987	8,17538166E-005
2	0	0	0	1	7325,12	2,67087531	2,6713233	-0,030524886552787789	10	0,0111630699	8,15418389E-005
2	0	0	0	1	7326,37	2,65837407	2,65897298	-0,03066143417769737	10	0,0111244563	8,15279273E-005
2	0	0	1	1	7327,62	2,64587307	2,64616179	-0,030758426941853658	10	0,011085771	8,13917723E-005
2	0	0	1	1	7328,87	2,63337231	2,63387156	-0,030735102210504352	10	0,0110469731	8,09523117E-005
2	0	0	0	1	7330,12	2,62087131	2,62115049	-0,030747866384141747	10	0,0110080605	8,05947857E-005
2	0	0	0	1	7331,37	2,6083703	2,6087501	-0,030882444892389171	10	0,0109689971	8,05645832E-005
2	0	0	1	1	7332,62	2,59586954	2,59629989	-0,031024106234932928	10	0,0109297968	8,05478849E-005
2	0	0	1	1	7333,87	2,5833683	2,58378911	-0,031185231549898163	10	0,0108903991	8,05760646E-005
2	0	0	0	1	7335,12	2,57086754	2,57152915	-0,03137258808904633	10	0,0108508123	8,0675527E-005
2	0	0	0	1	7336,37	2,55836654	2,55882788	-0,031646554562030362	10	0,0108109945	8,09780831E-005
2	0	0	1	1	7337,62	2,54586554	2,54630733	-0,031891267222818042	10	0,0107709533	8,12049693E-005
2	0	0	1	1	7338,87	2,53336453	2,53372669	-0,032118845284761248	10	0,0107306484	8,13803781E-005
2	0	0	0	1	7340,12	2,52086377	2,52128601	-0,032360189157771002	10	0,0106900772	8,15892927E-005
2	0	0	0	1	7341,37	2,50836253	2,50886559	-0,032667074672645011	10	0,0106492164	8,19573033E-005
2	0	0	1	1	7342,62	2,49586177	2,49630499	-0,032720791855050944	10	0,0106080994	8,16810789E-005
2	0	0	1	1	7343,87	2,48336077	2,48361397	-0,033009134494932422	10	0,0105666239	8,1981947E-005
2	0	0	0	1	7345,12	2,47086	2,47132373	-0,033284753279682835	10	0,0105248187	8,22574002E-005
2	0	0	0	1	7346,37	2,45835876	2,4587028	-0,033626425700883034	10	0,010482654	8,26773903E-005
2	0	0	0	1	7347,62	2,44585824	2,44612336	-0,033950012379603667	10	0,0104401438	8,30459176E-005
2	0	0	1	1	7348,87	2,433357	2,43400264	-0,034194998908787968	10	0,0103972685	8,32307196E-005
2	0	0	1	1	7350,12	2,42085528	2,42149234	-0,03446494334666167	10	0,0103540178	8,34565944E-005
2	0	0	0	1	7351,37	2,408355	2,40905142	-0,03481943253427744	10	0,0103103723	8,38818014E-005
2	0	0	0	1	7352,62	2,39585423	2,39643049	-0,035127628846870234	10	0,010266359	8,41809233E-005
2	0	0	1	1	7353,87	2,38335299	2,38373947	-0,035561174901279859	10	0,0102219377	8,47685733E-005
2	0	0	1	1	7355,12	2,37085223	2,37128901	-0,035803370235953427	10	0,0101771178	8,49001372E-005
2	0	0	0	1	7356,37	2,35835123	2,35885859	-0,036058988325142707	10	0,0101318751	8,50580545E-005
2	0	0	0	1	7357,62	2,34585023	2,34622765	-0,036380860721692499	10	0,0100862132	8,53577803E-005
2	0	0	1	1	7358,87	2,33334923	2,33368683	-0,036805694088495098	10	0,0100401351	8,58929634E-005
2	0	0	1	1	7360,12	2,32084846	2,32128668	-0,037108462866551008	10	0,00999362674	8,61393783E-005
2	0	0	0	1	7361,37	2,30834723	2,30865574	-0,037555322536112211	10	0,00994668901	8,67023118E-005
2	0	0	0	1	7362,62	2,29584646	2,29637575	-0,03775875732147449	10	0,00989930239	8,67082927E-005
2	0	0	1	1	7363,87	2,28334546	2,28370452	-0,038142845917415571	10	0,00985149294	8,7106986E-005
2	0	0	1	1	7365,12	2,2708447	2,27157497	-0,038558977578456166	10	0,00980321597	8,75896076E-005
2	0	0	0	1	7366,37	2,25834346	2,25901413	-0,038956788611055117	10	0,00975449849	8,8003937E-005
2	0	0	0	1	7367,62	2,24584246	2,24629307	-0,039366764006748211	10	0,00970530976	8,84292895E-005
2	0	0	1	1	7368,87	2,23334169	2,23372221	-0,039628602457620902	10	0,00965567492	8,85192931E-005
2	0	0	1	1	7370,12	2,22084069	2,22143221	-0,039960759206830176	10	0,00960556231	8,87701171E-005
2	0	0	0	1	7371,37	2,20833969	2,20895171	-0,040304504558055942	10	0,0095549887	8,90307056E-005
2	0	0	0	1	7372,62	2,19583893	2,19622064	-0,04074562758129721	10	0,00950392708	8,94863915E-005
2	0	0	1	1	7373,87	2,18333769	2,18389034	-0,04114887876009264	10	0,00945241004	8,98646394E-005
2	0	0	1	1	7375,12	2,17083693	2,17140985	-0,041552897474806202	10	0,0094003994	9,02283718E-005
2	0	0	0	1	7376,37	2,15833473	2,15874743	-0,041866353690144352	10	0,00934788957	9,03788823E-005
2	0	0	0	1	7377,62	2,14583492	2,14623833	-0,042274952536293766	10	0,00929487217	9,07321228E-005
2	0	0	1	1	7378,87	2,13333344	2,1336174	-0,042702820690505683	10	0,00924136769	9,11114839E-005
2	0	0	1	1	7380,12	2,12083316	2,12115693	-0,043162863614270502	10	0,00918732863	9,15552082E-005
2	0	0	1	1	7380,92	2,11273289	2,11317778	-0,044006446376442912	10	0,00915244315	9,29934467E-005