File: Experimentelles/Rohdaten/Batterietests/AlteZelle/Studenten_Batterietests/LLTO_LP30_Li CV/ZView-Export/LLTO_LP30_Li_02_CV_C01_loop8.txt
EC-Lab ASCII FILE
Nb header lines : 3
mode	ox/red	error	control changes	counter inc.	time/s	control/V	Ewe/V	<I>/mA	cycle number	(Q-Qo)/C	P/W
2	0	0	1	0	6060,88	2,11243296	2,11261654	-0,04680934548377991	9	0	9,88901957E-005
2	0	0	0	0	6062,11	2,10013127	2,10046601	-0,043195289666376538	9	-5,34476421E-005	9,07302383E-005
2	0	0	0	0	6063,36	2,08763051	2,0882163	-0,043681013960546522	9	-0,000108013446	9,12154064E-005
2	0	0	1	0	6064,61	2,07512975	2,07555532	-0,044197190058184787	9	-0,00016329276	9,17337165E-005
2	0	0	1	0	6065,86	2,06262851	2,06319499	-0,044731385229776378	9	-0,000219230569	9,22895706E-005
2	0	0	0	0	6067,11	2,05012751	2,05068469	-0,045287159106616627	9	-0,000275798055	9,28696827E-005
2	0	0	0	0	6068,36	2,03762674	2,03808355	-0,045794796848591942	9	-0,000332972268	9,33336196E-005
2	0	0	1	0	6069,61	2,02512574	2,02560306	-0,046342216965664704	9	-0,000390765461	9,38709345E-005
2	0	0	1	0	6070,86	2,01262474	2,01324296	-0,046663060454496531	9	-0,00044917487	9,39440797E-005
2	0	0	0	0	6072,11	2,00012398	2,00073218	-0,047191767458571123	9	-0,000508210971	9,44180865E-005
2	0	0	0	0	6073,36	1,98762286	1,98796093	-0,047639142023399526	9	-0,000567865616	9,4704752E-005
2	0	0	1	0	6074,61	1,97512209	1,97539032	-0,048270598791229248	9	-0,000628156296	9,53532726E-005
2	0	0	1	0	6075,86	1,96262085	1,96290982	-0,048790207675968755	9	-0,000689106935	9,57707744E-005
2	0	0	0	0	6077,11	1,95011997	1,95069981	-0,049270916594347706	9	-0,000750705542	9,61127662E-005
2	0	0	0	0	6078,36	1,93761921	1,93804884	-0,049772879205799424	9	-0,000812976446	9,64622741E-005
2	0	0	0	0	6079,61	1,92511725	1,9258585	-0,05035037569318633	9	-0,000875896949	9,69676985E-005
2	0	0	1	0	6080,86	1,91261709	1,91288733	-0,050922056737666477	9	-0,000939505757	9,74081559E-005
2	0	0	1	0	6082,11	1,90011632	1,90051699	-0,051541321542269427	9	-0,00100379449	9,79551551E-005
2	0	0	0	0	6083,36	1,8876152	1,88824701	-0,052074545160091021	9	-0,0010688249	9,8329605E-005
2	0	0	0	0	6084,61	1,87511444	1,87550592	-0,052564398366182099	9	-0,00113457604	9,85848383E-005
2	0	0	1	0	6085,86	1,8626132	1,86307538	-0,053267705331867085	9	-0,00120115525	9,92417481E-005
2	0	0	1	0	6087,11	1,85011232	1,85067523	-0,053969846495116826	9	-0,00126854039	9,98806572E-005
2	0	0	0	0	6088,36	1,83761156	1,83811438	-0,054736313487713683	9	-0,00133684161	0,000100611607
2	0	0	0	0	6089,61	1,82511032	1,82561362	-0,055512951725783744	9	-0,00140604959	0,000101345198
2	0	0	1	0	6090,86	1,81260955	1,81300294	-0,056236027041450144	9	-0,00147628738	0,00010195608
2	0	0	1	0	6092,11	1,80010867	1,80035186	-0,057124270223236518	9	-0,00154756906	0,000102843784
2	0	0	0	0	6093,36	1,78760755	1,78829241	-0,058118018341095424	9	-0,00162001653	0,000103932012
2	0	0	0	0	6094,61	1,77510679	1,77541089	-0,05916177366937792	9	-0,00169366389	0,000105036459
2	0	0	1	0	6095,86	1,76260555	1,76319098	-0,060322476880780403	9	-0,00176867761	0,00010636005
2	0	0	1	0	6097,11	1,75010467	1,75055003	-0,061426644698561626	9	-0,00184512627	0,000107530417
2	0	0	0	0	6098,36	1,7376039	1,73808968	-0,062664634179479322	9	-0,00192319357	0,000108916756
2	0	0	0	0	6099,61	1,72510266	1,7258997	-0,064114476379472768	9	-0,0020029638	0,000110655157
2	0	0	1	0	6100,86	1,7126019	1,7130183	-0,065624170839631565	9	-0,00208460679	0,000112415408
2	0	0	1	0	6102,11	1,70010102	1,70066798	-0,067248458120350963	9	-0,00216817297	0,0001143673
2	0	0	0	0	6103,36	1,6875999	1,68813717	-0,068950257380492813	9	-0,00225380808	0,000116397496
2	0	0	0	0	6104,61	1,67509913	1,67555654	-0,070702342258300634	9	-0,00234150724	0,000118465774
2	0	0	1	0	6105,86	1,66259813	1,66288531	-0,072407777285358848	9	-0,00243130932	0,000120405828
2	0	0	1	0	6107,11	1,65009701	1,65057528	-0,074161832492487974	9	-0,0025231794	0,000122409692
2	0	0	1	0	6108,36	1,63759625	1,63788438	-0,076072498273603738	9	-0,00261728955	0,000124597951
2	0	0	0	0	6109,61	1,62509501	1,62564433	-0,078151096648070963	9	-0,00271383813	0,000127045889
2	0	0	0	0	6110,86	1,61259425	1,61322403	-0,080360491682464947	9	-0,0028131383	0,000129639477
2	0	0	1	0	6112,11	1,60009336	1,6008836	-0,083069029205944384	9	-0,00291560683	0,000132983841
2	0	0	1	0	6113,36	1,58759224	1,58815265	-0,086364448322759437	9	-0,00302178506	0,000137159921
2	0	0	0	0	6114,61	1,57509148	1,57559192	-0,090281292078240486	9	-0,00313240965	0,00014224647
2	0	0	0	0	6115,86	1,56259048	1,56305134	-0,095324917308365338	9	-0,00324854744	0,000148997744
2	0	0	1	0	6117,15	1,54968953	1,55007958	-0,10178476308162043	9	-0,00337577844	0,000157774484
2	0	0	1	0	6118,40	1,53718841	1,53755879	-0,11001693209012365	9	-0,00350822182	0,000169157502
2	0	0	0	0	6119,65	1,52468753	1,52514851	-0,12049345703174677	9	-0,00365242269	0,000183770419
2	0	0	0	0	6120,90	1,51218653	1,51283848	-0,13390866147043834	9	-0,00381150772	0,000202582174
2	0	0	1	0	6122,15	1,49968565	1,4999969	-0,15038700731626365	9	-0,00398927182	0,00022558005
2	0	0	1	0	6123,40	1,48718476	1,48768687	-0,17015418367615632	9	-0,00418958254	0,000253136153
2	0	0	0	0	6124,65	1,47468364	1,47509611	-0,19307211410099056	9	-0,00441663992	0,000284799928
2	0	0	0	0	6125,90	1,46218276	1,46274579	-0,21907738658289146	9	-0,00467431359	0,000320454536
2	0	0	1	0	6127,15	1,44968188	1,45025527	-0,24782955956955744	9	-0,00496643409	0,000359416124
2	0	0	1	0	6128,40	1,43718076	1,43781471	-0,27909725066274493	9	-0,00529601937	0,000401290134
2	0	0	0	0	6129,65	1,42467988	1,42528415	-0,31204288251077286	9	-0,00566586806	0,000444749778
2	0	0	0	0	6130,90	1,41217887	1,41266322	-0,34659686009399635	9	-0,00607777433	0,000489624625
2	0	0	1	0	6132,15	1,39967799	1,4001025	-0,38193202104109088	9	-0,00653357385	0,000534744002
2	0	0	1	0	6133,40	1,38717711	1,38784254	-0,41788036003708928	9	-0,00703392178	0,000579952146
2	0	0	0	0	6134,65	1,37467599	1,37491095	-0,45430507278069856	9	-0,00757969916	0,000624629029
2	0	0	0	0	6135,90	1,36217511	1,36257064	-0,49057807276646413	9	-0,00817068107	0,00066844729
2	0	0	0	0	6137,15	1,34967422	1,35019028	-0,52689553735156915	9	-0,00880709756	0,000711409259
2	0	0	1	0	6138,40	1,3371731	1,33756948	-0,56260563246905715	9	-0,00948860031	0,000752524124
2	0	0	1	0	6139,65	1,32467222	1,32512915	-0,59773958645140096	9	-0,0102144396	0,000792082166
2	0	0	0	0	6140,90	1,31217122	1,3126986	-0,63233398180455053	9	-0,0109840501	0,000830063946
2	0	0	0	0	6142,15	1,29967034	1,30005777	-0,66638929024338816	9	-0,0117964391	0,000866344548
2	0	0	1	0	6143,40	1,28716946	1,28764737	-0,69954461169739827	9	-0,0126509024	0,000900766754
2	0	0	1	0	6144,65	1,27466834	1,27514684	-0,73216841866572762	9	-0,0135462396	0,000933622243
2	0	0	0	0	6145,90	1,26216745	1,26266623	-0,7648654381434135	9	-0,0144822961	0,000965769752
2	0	0	0	0	6147,15	1,24966657	1,24995518	-0,79989842977375142	9	-0,0154606365	0,000999837182
2	0	0	1	0	6148,40	1,23716545	1,2374444	-0,83685863359520666	9	-0,0164841693	0,00103556598
2	0	0	1	0	6149,65	1,22466457	1,22500408	-0,87464531604200602	9	-0,0175543521	0,00107144413
2	0	0	0	0	6150,90	1,21216357	1,21269393	-0,9120814399793815	9	-0,0186719298	0,00110607559
2	0	0	0	0	6152,15	1,19966269	1,20012319	-0,94748118675003392	9	-0,0198350456	0,00113709411
2	0	0	1	0	6153,40	1,1871618	1,18765259	-0,98045394010841843	9	-0,0210411716	0,00116443867
2	0	0	1	0	6154,69	1,17426074	1,17479122	-1,0118676591664589	9	-0,0223271716	0,00118873327
2	0	0	0	0	6155,94	1,16175985	1,16235065	-1,0394608853384861	9	-0,0236104	0,00120821805
2	0	0	0	0	6157,19	1,14925885	1,14948928	-1,0647019001965701	9	-0,0249265097	0,00122386345
2	0	0	1	0	6158,44	1,13675797	1,13734949	-1,0870569537704213	9	-0,0262725353	0,00123636366
2	0	0	1	0	6159,69	1,12425697	1,12457836	-1,106851340892417	9	-0,0276446342	0,00124474103
2	0	0	0	0	6160,94	1,11175597	1,11226821	-1,1241754184787469	9	-0,0290399976	0,00125038461
2	0	0	0	0	6162,19	1,09925508	1,09968734	-1,1394146491462979	9	-0,0304553006	0,00125299988
2	0	0	1	0	6163,44	1,08675396	1,08702648	-1,1522525098795739	9	-0,0318883136	0,00125252898
2	0	0	1	0	6164,69	1,07425308	1,07441545	-1,1632181809594258	9	-0,0333360098	0,0012497796
2	0	0	1	0	6165,94	1,06175196	1,06214523	-1,1721422637161285	9	-0,0347962901	0,00124498527
2	0	0	0	0	6167,19	1,0492512	1,04944444	-1,1790799920757618	9	-0,0362664759	0,00123737892
2	0	0	0	0	6168,44	1,03675032	1,03734481	-1,1839223907639554	9	-0,037744008	0,00122813578
2	0	0	1	0	6169,69	1,02424932	1,02474403	-1,1866256352514029	9	-0,0392264985	0,00121598749
2	0	0	1	0	6170,94	1,01174831	1,01214314	-1,187159089682007	9	-0,0407107659	0,00120157492
2	0	0	0	0	6172,19	0,999247432	0,999361873	-1,1851392053067702	9	-0,0421942994	0,00118438294
2	0	0	0	0	6173,44	0,98674649	0,987232268	-1,1807820859054723	9	-0,0436736234	0,0011657062
2	0	0	1	0	6174,69	0,974245548	0,974751711	-1,1736744586378336	9	-0,0451459922	0,00114404119
2	0	0	1	0	6175,94	0,961744666	0,962291181	-1,1640031036610416	9	-0,0466076322	0,00112010993
2	0	0	0	0	6177,19	0,949243605	0,949580073	-1,1520858046909214	9	-0,0480559431	0,00109399774
2	0	0	0	0	6178,44	0,936742663	0,937209785	-1,1381219758962597	9	-0,0494877584	0,001066659
2	0	0	1	0	6179,69	0,924241722	0,92467916	-1,1231223577633501	9	-0,0509015433	0,00103852781
2	0	0	1	0	6180,94	0,911740839	0,912298858	-1,1079020767162274	9	-0,0522962101	0,00101073785
2	1	0	0	0	6182,14	0,900339961	0,900760651	-1,0880994647741299	9	-0,0536185429	0,000980117125
2	1	0	1	0	6183,40	0,912840843	0,913271308	-0,85022476843247923	9	-0,0548212603	0,000776485889
2	1	0	1	0	6184,65	0,925341785	0,925661504	-0,66402165141577459	9	-0,0557627156	0,000614659279
2	1	0	0	0	6185,90	0,937842727	0,938332498	-0,50988013188665216	9	-0,0564928278	0,000478437112
2	1	0	0	0	6187,19	0,950743675	0,951344371	-0,37660303098770509	9	-0,0570617504	0,000358279183
2	1	0	1	0	6188,44	0,963244677	0,963644445	-0,26609194922881853	9	-0,0574610271	0,000256418018
2	1	0	1	0	6189,69	0,975745618	0,976064861	-0,17135633128540029	9	-0,0577324219	0,000167254897
2	1	0	0	0	6190,94	0,98824656	0,988635659	-0,089731828309595533	9	-0,0578937307	8,87120841E-005
2	1	0	0	0	6192,23	1,00114763	1,0014168	-0,016745403287738256	9	-0,0579606146	1,67691287E-005
2	1	0	1	0	6193,48	1,01364851	1,0142082	0,04483263244037511	9	-0,0579415821	4,54696237E-005
2	1	0	1	0	6194,75	1,02634931	1,02684915	0,099864647510306163	9	-0,0578483008	0,000102545928
2	1	0	0	0	6196,02	1,03905046	1,03924954	0,1488489985155561	9	-0,0576890893	0,000154691254
2	1	0	0	0	6197,27	1,05155134	1,05199063	0,19221343499763498	9	-0,0574748665	0,000202206735
2	1	0	1	0	6198,52	1,06405222	1,06448114	0,23185716150328518	9	-0,0572088249	0,000246807584
2	1	0	1	0	6199,77	1,07655346	1,07702184	0,26833718619309322	9	-0,0568954125	0,000289005024
2	1	0	0	0	6201,02	1,08905423	1,08945239	0,30238113855011674	9	-0,0565378331	0,000329429866
2	1	0	0	0	6202,27	1,10155511	1,10211325	0,33455072940948051	9	-0,0561389886	0,00036871279
2	1	0	1	0	6203,52	1,11405635	1,1146642	0,36536228624429158	9	-0,055700779	0,000407256273
2	1	0	1	0	6204,77	1,12655711	1,12714469	0,39488308255871021	9	-0,055224929	0,00044509038
2	1	0	1	0	6206,02	1,13905799	1,13949478	0,42367623435954195	9	-0,0547127351	0,000482776843
2	1	0	0	0	6207,27	1,151559	1,15195525	0,45157404678563219	9	-0,0541650131	0,000520193076
2	1	0	0	0	6208,52	1,16405988	1,16454613	0,47901840166499098	9	-0,0535826422	0,000557839056
2	1	0	1	0	6209,77	1,17656112	1,17691636	0,50616924356048186	9	-0,0529660657	0,000595718855
2	1	0	1	0	6211,02	1,18906188	1,18965757	0,53319501023118579	9	-0,0523157492	0,000634319498
2	1	0	0	0	6212,27	1,20156276	1,20202768	0,55979048398633946	9	-0,0516319089	0,000672883645
2	1	0	0	0	6213,52	1,21406376	1,2146486	0,58625249455993434	9	-0,0509150475	0,000712090754
2	1	0	1	0	6214,77	1,22656476	1,22720933	0,61221979139372531	9	-0,0501653589	0,000751321844
2	1	0	1	0	6216,02	1,23906565	1,23952961	0,63778991050397235	9	-0,0493836142	0,000790559454
2	1	0	0	0	6217,27	1,25156665	1,2522006	0,66287602732578854	9	-0,0485701375	0,000830053759
2	1	0	0	0	6218,52	1,26406753	1,26458097	0,68739060607428288	9	-0,0477258675	0,000869261101
2	1	0	1	0	6219,77	1,27656865	1,27701128	0,71072555861125414	9	-0,0468515679	0,000907604524
2	1	0	1	0	6221,02	1,28906953	1,2896924	0,73337738650540365	9	-0,0459485129	0,000945831242
2	1	0	0	0	6222,27	1,30157042	1,30185223	0,75532608898356442	9	-0,0450173952	0,000983322971
2	1	0	0	0	6223,52	1,31407142	1,31434262	0,77645152062177395	9	-0,044059556	0,00102052337
2	1	0	1	0	6224,77	1,32657242	1,32695341	0,79640615700433766	9	-0,0430759452	0,00105679384
2	1	0	1	0	6226,02	1,3390733	1,33931375	0,81534280534833664	9	-0,0420682617	0,00109199982
2	1	0	0	0	6227,27	1,3515743	1,35212505	0,83323720780511578	9	-0,0410373397	0,00112664094
2	1	0	0	0	6228,52	1,36407518	1,36437511	0,85021099479248013	9	-0,0399846286	0,00116000674
2	1	0	1	0	6229,77	1,3765763	1,37707615	0,8661295427009463	9	-0,0389111452	0,00119272631
2	1	0	1	0	6231,02	1,38907719	1,38953662	0,88132771073529882	9	-0,0378185287	0,00122463715
2	1	0	1	0	6232,27	1,40157783	1,40219748	0,89545795298482394	9	-0,036707513	0,00125560886
2	1	0	0	0	6233,52	1,41407907	1,41448772	0,90918322342136909	9	-0,0355790854	0,00128602854
2	1	0	0	0	6234,77	1,42658007	1,42719889	0,92245912427703514	9	-0,034433987	0,00131653261
2	1	0	1	0	6236,02	1,43908095	1,43964922	0,93903324659913779	9	-0,033270549	0,00135187851
2	1	0	1	0	6237,27	1,45158195	1,45206964	0,96271867056687859	9	-0,032082241	0,00139793451
2	1	0	0	0	6238,52	1,46408284	1,4645803	0,99296484297762432	9	-0,0308599453	0,00145427673
2	1	0	0	0	6239,80	1,47688389	1,47731149	1,0283617532501594	9	-0,0295657013	0,00151921064
2	1	0	1	0	6241,05	1,48938489	1,48985207	1,0626096893101949	9	-0,0282580387	0,00158313126
2	1	0	1	0	6242,30	1,50188589	1,50209212	1,0927029903978109	9	-0,0269100331	0,00164134055
2	1	0	0	0	6243,55	1,51438677	1,51461267	1,1169859475145714	9	-0,025527576	0,00169180112
2	1	0	0	0	6244,80	1,52688777	1,52726376	1,1342103791733536	9	-0,0241193213	0,00173223845
2	1	0	1	0	6246,05	1,53938866	1,53960395	1,1431493697067104	9	-0,0226943418	0,00175999734
2	1	0	1	0	6247,30	1,55188966	1,552315	1,1421447793642674	9	-0,0212643202	0,00177296845
2	1	0	0	0	6248,55	1,56439054	1,56490576	1,1276341934377978	9	-0,019843597	0,00176464126
2	1	0	0	0	6249,80	1,57689154	1,57737613	1,0979839426775734	9	-0,0184505172	0,00173193368
2	1	0	1	0	6251,05	1,58939242	1,58981681	1,0514488024637067	9	-0,0171048809	0,00167161098
2	1	0	1	0	6252,30	1,60189342	1,60232735	0,98848743860920333	9	-0,015827965	0,00158388051
2	1	0	0	0	6253,55	1,61439431	1,61482775	0,90936525755872038	9	-0,0146398451	0,00146846822
2	1	0	0	0	6254,80	1,62689531	1,62742877	0,81541174557060096	9	-0,0135601507	0,00132702454
2	1	0	1	0	6256,05	1,63939631	1,63982892	0,71110229302818778	9	-0,0126050347	0,00116608606
2	1	0	1	0	6257,30	1,65189719	1,65218925	0,60036313331996378	9	-0,0117843999	0,00099191349
2	1	0	0	0	6258,59	1,66479814	1,66522133	0,46947708710407078	9	-0,0110912127	0,000781783252
2	1	0	0	0	6259,84	1,67729926	1,6776315	0,32145198403547238	9	-0,0105954399	0,000539277971
2	1	0	1	0	6261,09	1,68980169	1,69029379	0,19207173729424166	9	-0,0102792904	0,000324657653
2	1	0	1	0	6262,34	1,70230091	1,70277309	0,11799692063747558	9	-0,0100911008	0,000200921975
2	1	0	1	0	6263,59	1,71480215	1,71533394	0,086606132371040755	9	-0,0099658221	0,000148558436
2	1	0	0	0	6264,84	1,72730291	1,72785461	0,072875032511850342	9	-0,00986659341	0,000125917461
2	1	0	0	0	6266,09	1,73980379	1,7401346	0,065230697800870925	9	-0,00978011359	0,000113510192
2	1	0	1	0	6267,34	1,75230503	1,7530061	0,060079535993281638	9	-0,00970140286	0,000105319792
2	1	0	1	0	6268,59	1,76480579	1,76555681	0,05631610496978601	9	-0,00962821953	9,94292859E-005
2	1	0	0	0	6269,84	1,77730691	1,77778673	0,053403300757054016	9	-0,00955920294	9,49396781E-005
2	1	0	0	0	6271,09	1,7898078	1,79022717	0,051081070249589632	9	-0,00949353352	9,14467237E-005
2	1	0	1	0	6272,38	1,80270875	1,80312872	0,049078717556161165	9	-0,00942854956	8,8495246E-005
2	1	0	1	0	6273,63	1,81520963	1,81563938	0,04745557817902096	9	-0,00936791301	8,61622175E-005
2	1	0	0	0	6274,88	1,82771063	1,82833028	0,046119085697379603	9	-0,00930913817	8,432092E-005
2	1	0	0	0	6276,13	1,84021163	1,84080088	0,044958391032802413	9	-0,00925199036	8,27594486E-005
2	1	0	1	0	6277,38	1,85271251	1,85333145	0,043983989686239514	9	-0,00919620041	8,15169115E-005
2	1	0	1	0	6278,63	1,86521351	1,86555135	0,04301821360907815	9	-0,00914160814	8,02526847E-005
2	1	0	0	0	6279,88	1,8777144	1,8783226	0,042187914999279488	9	-0,00908801146	7,92425126E-005
2	1	0	0	0	6281,13	1,8902154	1,89064288	0,041557621123501939	9	-0,00903532188	7,85706216E-005
2	1	0	1	0	6282,38	1,9027164	1,90310347	0,041043344477657203	9	-0,00898337271	7,81097333E-005
2	1	0	1	0	6283,63	1,91521728	1,91584444	0,040586664302584954	9	-0,00893209036	7,7757737E-005
2	1	0	0	0	6284,88	1,92771828	1,92836523	0,040154339202369107	9	-0,00888136867	7,74322325E-005
2	1	0	0	0	6286,13	1,94021928	1,94079554	0,039673495281021933	9	-0,00883114897	7,69981416E-005
2	1	0	1	0	6287,38	1,95272017	1,95314586	0,039429702863950867	9	-0,00878132228	7,70119586E-005
2	1	0	1	0	6288,63	1,96522117	1,96547592	0,039219149689112442	9	-0,00873185601	7,70842962E-005
2	1	0	1	0	6289,88	1,97772229	1,97799695	0,039081399203682701	9	-0,00868266448	7,73028878E-005
2	1	0	0	0	6291,13	1,99022305	1,99078786	0,038906394892061715	9	-0,00863371138	7,74543805E-005
2	1	0	0	0	6292,38	2,00272417	2,00323009	0,038660641167136525	9	-0,00858494267	7,74461587E-005
2	1	0	1	0	6293,63	2,01522493	2,01569891	0,038506991627703712	9	-0,00853632297	7,76185043E-005
2	1	0	1	0	6294,88	2,02772593	2,02827883	0,038484185468433574	9	-0,00848784391	7,80566552E-005
2	1	0	0	0	6296,13	2,04022694	2,04076004	0,03837458483758377	9	-0,00843948126	7,83133219E-005
2	1	0	0	0	6297,38	2,0527277	2,05327082	0,038429733307566445	9	-0,00839122292	7,89066471E-005
2	1	0	1	0	6298,63	2,0652287	2,06556082	0,038258767871108326	9	-0,00834302418	7,90258127E-005
2	1	0	1	0	6299,88	2,0777297	2,07829213	0,03818546966067511	9	-0,00829489809	7,93605577E-005
2	1	0	0	0	6301,13	2,09023094	2,09091282	0,038211812643566989	9	-0,0082467813	7,9897567E-005
2	1	0	0	0	6302,38	2,1027317	2,10341334	0,038250561997604851	9	-0,00819873903	8,04567389E-005
2	1	0	1	0	6303,63	2,11523247	2,11581373	0,038321644523724358	9	-0,00815062225	8,10814599E-005
2	1	0	1	0	6304,88	2,12773347	2,1282742	0,038316992295828301	9	-0,00810248684	8,15490639E-005
2	1	0	0	0	6306,13	2,14023447	2,14071488	0,038239423593040499	9	-0,00805426948	8,18597036E-005
2	1	0	0	0	6307,38	2,15273547	2,15322542	0,038341466744896134	9	-0,00800599996	8,25578245E-005
2	1	0	1	0	6308,63	2,16523647	2,1655755	0,038460932497400858	9	-0,00795761682	8,3290055E-005
2	1	0	1	0	6309,88	2,17773724	2,17823648	0,038583736895816371	9	-0,00790914427	8,40445064E-005
2	1	0	0	0	6311,13	2,19023824	2,19069719	0,038724101837336403	9	-0,00786051061	8,48327836E-005
2	1	0	0	0	6312,38	2,20273924	2,20296717	0,038790686628393133	9	-0,00781174656	8,54546088E-005
2	1	0	1	0	6313,64	2,21524024	2,21567822	0,038924820808460934	9	-0,00776276598	8,62448796E-005
2	1	0	1	0	6314,89	2,22774124	2,22819877	0,03911220551041561	9	-0,00771360286	8,71497687E-005
2	1	0	0	0	6316,14	2,24024224	2,24062943	0,039330284567161645	9	-0,00766419712	8,81245942E-005
2	1	0	0	0	6317,39	2,25274301	2,25344062	0,039538063652192531	9	-0,00761458697	8,90966767E-005
2	1	0	1	0	6318,64	2,26524472	2,26604152	0,039645287502383552	9	-0,00756469462	8,98378639E-005
2	1	0	1	0	6319,89	2,27774501	2,27808094	0,039779552142135802	9	-0,00751458108	9,06210407E-005
2	1	0	0	0	6321,14	2,29024696	2,2907424	0,04001638588311113	9	-0,00746415602	9,16672288E-005
2	1	0	0	0	6322,39	2,30274701	2,30314207	0,04024011936659616	9	-0,00741348788	9,26787106E-005
2	1	0	0	0	6323,64	2,31524777	2,31559277	0,040484128975852518	9	-0,00736251101	9,37447548E-005
2	1	0	1	0	6324,89	2,32774878	2,32827377	0,040759329199014758	9	-0,0073112431	9,48988745E-005
2	1	0	1	0	6326,14	2,34024978	2,34076428	0,041081580517735974	9	-0,00725967996	9,61622936E-005
2	1	0	0	0	6327,39	2,35275078	2,35322475	0,041282295404622803	9	-0,00720783928	9,71465197E-005
2	1	0	0	0	6328,64	2,36525178	2,36562514	0,041603264515288173	9	-0,00715570338	9,84177314E-005
2	1	0	1	0	6329,89	2,37775254	2,37830615	0,041863258258672378	9	-0,00710328808	9,95636437E-005
2	1	0	1	0	6331,14	2,39025354	2,39070654	0,042165718798059872	9	-0,00705056684	0,000100805861
2	1	0	0	0	6332,39	2,40275455	2,40313697	0,042273196517877862	9	-0,00699752383	0,000101588281
2	1	0	0	0	6333,64	2,41525555	2,41584802	0,042608252910819322	9	-0,00694410549	0,000102935061
2	1	0	1	0	6334,89	2,42775655	2,42829847	0,042948259680997472	9	-0,00689028809	0,00010429119
2	1	0	1	0	6336,14	2,44025755	2,44092941	0,043359975136505914	9	-0,00683603622	0,000105838641
2	1	0	0	0	6337,39	2,45275831	2,45296884	0,043803638836834522	9	-0,00678130845	0,000107448963
2	1	0	0	0	6338,64	2,46525931	2,46564984	0,044151737015150963	9	-0,00672607031	0,000108862725
2	1	0	1	0	6339,89	2,47776031	2,47826076	0,044492366937144256	9	-0,00667031622	0,000110263689
2	1	0	1	0	6341,14	2,49026155	2,49067116	0,044953915940520006	9	-0,00661405642	0,000111965419
2	1	0	0	0	6342,39	2,50276232	2,50323176	0,045232501191397459	9	-0,00655736588	0,000113227434
2	1	0	0	0	6343,64	2,51526308	2,51565218	0,045750527516550624	9	-0,00650021434	0,000115092414
2	1	0	1	0	6344,89	2,52776408	2,52818274	0,046020276369138854	9	-0,00644261343	0,00011634767
2	1	0	1	0	6346,14	2,54026508	2,54070354	0,046322506153956	9	-0,00638457993	0,000117691758
2	1	0	0	0	6347,39	2,55276608	2,55316424	0,04667430739578167	9	-0,00632605795	0,000119167176
2	1	0	0	0	6348,64	2,56526709	2,56579494	0,047157135908491802	9	-0,00626707636	0,000120995544
2	1	0	0	0	6349,89	2,5777669	2,57842469	0,047573504551040371	9	-0,00620755972	0,0001226647
2	1	0	1	0	6351,14	2,59026885	2,59087634	0,048065651984264544	9	-0,0061475276	0,000124532162
2	1	0	1	0	6352,39	2,60276985	2,60317659	0,048323403927497677	9	-0,00608697161	0,000125794351
2	1	0	0	0	6353,64	2,61527085	2,61557698	0,048800409917021171	9	-0,00602590526	0,000127641222
2	1	0	0	0	6354,89	2,62777185	2,62804747	0,04927060989818233	9	-0,0059642652	0,000129485503
2	1	0	1	0	6356,14	2,64027286	2,64060807	0,049736485913551398	9	-0,0059020794	0,000131334571
2	1	0	1	0	6357,39	2,65277362	2,65327907	0,050302900470948346	9	-0,00583930174	0,000133467634
2	1	0	0	0	6358,64	2,66527462	2,66582966	0,050655449643575603	9	-0,00577594806	0,000135038805
2	1	0	0	0	6359,89	2,67777562	2,67829037	0,05106816530072439	9	-0,00571196806	0,000136775372
2	1	0	1	0	6361,14	2,69027662	2,69077063	0,051616768119856717	9	-0,00564737478	0,000138888878
2	1	0	1	0	6362,39	2,70277762	2,70333171	0,052151410413595168	9	-0,00558214402	0,000140982564
2	1	0	0	0	6363,64	2,71527839	2,71561146	0,052710889664012717	9	-0,0055162902	0,000143142301
2	1	0	0	0	6364,89	2,72777939	2,72822261	0,053174457396380602	9	-0,00544978259	0,000145071754
2	1	0	1	0	6366,14	2,74028039	2,74074316	0,053591375142180819	9	-0,00538265519	0,000146880193
2	1	0	1	0	6367,39	2,75278139	2,75329375	0,054149729898199437	9	-0,00531486701	0,00014909012
2	1	0	0	0	6368,64	2,76528239	2,76577449	0,054693783672216109	9	-0,00524644461	0,000151270666
2	1	0	0	0	6369,89	2,77778316	2,77821493	0,055246649018954266	9	-0,00517736422	0,000153487068
2	1	0	1	0	6371,14	2,79028416	2,79052472	0,055769604863598829	9	-0,00510764588	0,000155626461
2	1	0	1	0	6372,39	2,80278516	2,80314589	0,056150550663005338	9	-0,00503727002	0,000157398186
2	1	0	0	0	6373,64	2,81528616	2,81565642	0,05663824964237063	9	-0,00496626087	0,000159473857
2	1	0	0	0	6374,89	2,82778716	2,82839775	0,057205271926553114	9	-0,00489456719	0,000161799268
2	1	0	0	0	6376,14	2,84028769	2,8408072	0,057713276833903706	9	-0,00482222112	0,000163952296
2	1	0	1	0	6377,39	2,85278893	2,85330844	0,058288583512573043	9	-0,00474919565	0,000166315309
2	1	0	1	0	6378,64	2,86528993	2,86582017	0,058884338908993024	9	-0,00467550894	0,000168751925
2	1	0	0	0	6379,89	2,87779093	2,87832975	0,059485462416584307	9	-0,00460112887	0,00017121878
2	1	0	0	0	6381,14	2,89029264	2,89101148	0,060071735323528499	9	-0,00452608662	0,000173668072
2	1	0	1	0	6382,39	2,90279293	2,90345144	0,06061735691037024	9	-0,00445036171	0,00017599955
2	1	0	1	0	6383,64	2,91529369	2,91560102	0,06117956924329815	9	-0,00437402725	0,000178375209
2	1	0	0	0	6384,89	2,92779469	2,92828202	0,061687871348112717	9	-0,00429697288	0,000180639487
2	1	0	0	0	6386,14	2,9402957	2,9408226	0,062141475985602931	9	-0,00421925681	0,000182747055
2	1	0	1	0	6387,39	2,9527967	2,95323324	0,062733969379526797	9	-0,00414084364	0,000185268043
2	1	0	1	0	6388,64	2,9652977	2,96565366	0,06328072437706089	9	-0,00406175153	0,000187668717
2	1	0	0	0	6389,89	2,97779846	2,97821426	0,063939541132034099	9	-0,00398193253	0,00019042565
2	1	0	0	0	6391,14	2,99029946	2,9908452	0,064503944711759514	9	-0,00390141993	0,000192921318
2	1	0	1	0	6392,39	3,00280046	3,0030148	0,065037301566917222	9	-0,00382014201	0,000195307977
2	1	0	1	0	6393,64	3,01530123	3,01585627	0,065614620320654016	9	-0,00373813277	0,000197884263
2	1	0	0	0	6394,89	3,02780247	3,02821636	0,066317483161886733	9	-0,00365533796	0,000200823692
2	1	0	0	0	6396,14	3,04030347	3,04085755	0,066998859052546099	9	-0,00357176783	0,000203733987
2	1	0	1	0	6397,39	3,05280423	3,05313754	0,067680829476254528	9	-0,00348738045	0,000206638884
2	1	0	1	0	6398,64	3,06530523	3,06572843	0,068229032641586867	9	-0,00340216979	0,000209171689
2	1	0	0	0	6399,89	3,07780623	3,07838917	0,068865636033782042	9	-0,00331609696	0,000211995226
2	1	0	0	0	6401,14	3,09030724	3,09088016	0,06953028771871072	9	-0,00322918268	0,000214909785
2	1	0	1	0	6402,39	3,10280824	3,1033504	0,07031280039033527	9	-0,00314141111	0,000218205256
2	1	0	1	0	6403,64	3,115309	3,11577082	0,070962726313155149	9	-0,00305277645	0,00022110359
2	1	0	0	0	6404,89	3,12780976	3,12822104	0,071740581285363533	9	-0,00296327774	0,000224420393
2	1	0	0	0	6406,14	3,14031076	3,1407721	0,07233994364893687	9	-0,00287289126	0,000227203273
2	1	0	1	0	6407,39	3,15281248	3,1534338	0,073104031287745152	9	-0,00278161257	0,00023052872
2	1	0	1	0	6408,64	3,16531277	3,16581345	0,073909511285213286	9	-0,00268942118	0,000233983723
2	1	0	1	0	6409,89	3,17781377	3,17831373	0,074681224398470029	9	-0,00259628682	0,000237360364
2	1	0	0	0	6411,14	3,19031477	3,19078445	0,075527750285497357	9	-0,00250214338	0,000240992769
2	1	0	0	0	6412,39	3,20281553	3,20315456	0,076217242147928858	9	-0,00240699993	0,000244135605
2	1	0	1	0	6413,64	3,21531653	3,21588588	0,077066280743262656	9	-0,00231077429	0,000247836375
2	1	0	1	0	6414,89	3,22781754	3,228266	0,07801471002555127	9	-0,00221346482	0,000251852238
2	1	0	0	0	6416,14	3,24031854	3,24081659	0,079016180243343117	9	-0,00211494463	0,00025607695
2	1	0	0	0	6417,39	3,25281954	3,25353765	0,080045759367446093	9	-0,00201523281	0,000260431902
2	1	0	1	0	6418,64	3,2653203	3,26588821	0,081014154595322906	9	-0,00191420037	0,000264583185
2	1	0	1	0	6419,89	3,2778213	3,2782886	0,082134425193847194	9	-0,00181183126	0,000269260345
2	1	0	0	0	6421,14	3,2903223	3,29076886	0,083309172225805811	9	-0,00170798379	0,000274151244
2	1	0	0	0	6422,39	3,30282331	3,30332947	0,084603743763485222	9	-0,00160265015	0,000279474043
2	1	0	1	0	6423,64	3,31532431	3,31573987	0,085957539772304474	9	-0,00149567088	0,000285012851
2	1	0	1	0	6424,89	3,32782507	3,32835078	0,08730722810529801	9	-0,00138698588	0,000290589087
2	1	0	0	0	6426,14	3,34032607	3,34074116	0,08864975885565696	9	-0,00127650984	0,000296155893
2	1	0	0	0	6427,39	3,35282707	3,35321164	0,090181453114685837	9	-0,0011641985	0,0003023975
2	1	0	1	0	6428,64	3,36532807	3,36586261	0,091795780560157197	9	-0,00104989763	0,000308971998
2	1	0	1	0	6429,89	3,37782907	3,3783133	0,093499659114362086	9	-0,000933579344	0,000315871148
2	1	0	0	0	6431,14	3,39033008	3,39085412	0,09527788582878816	9	-0,000815068895	0,000323073415
2	1	0	0	0	6432,39	3,40283084	3,40325403	0,097183905929947853	9	-0,000694334798	0,000330741517
2	1	0	1	0	6433,68	3,41573191	3,41635633	0,099093597615137702	9	-0,000567235809	0,000338539045
2	1	0	1	0	6434,93	3,42823291	3,42888713	0,10121549669808381	9	-0,000441604905	0,000347056513
2	1	0	1	0	6436,18	3,44073319	3,4412384	0,10328900448287403	9	-0,000313410332	0,000355442084
2	1	0	0	0	6437,43	3,45323491	3,45385814	0,10538792893445725	9	-0,000182658681	0,000363994943
2	1	0	0	0	6438,68	3,46573615	3,46608663	0,10756858960973048	9	-4,92825711E-005	0,000372842042
2	1	0	1	0	6439,93	3,47823644	3,47874904	0,10966346793187176	9	8,67318813E-005	0,000381491671
2	1	0	1	0	6441,18	3,49073839	3,49112988	0,11180766742092674	9	0,000225531228	0,000390335073
2	1	0	0	0	6442,43	3,50323868	3,50365996	0,11414366541430354	9	0,000367153465	0,000399920595
2	1	0	0	0	6443,68	3,51573968	3,51643109	0,11661053980545467	9	0,000511737133	0,000410052919
2	1	0	1	0	6444,94	3,52824068	3,52873111	0,1191607835547377	9	0,000659413228	0,000420486351
2	1	0	1	0	6446,19	3,54074121	3,54149222	0,12182712023301654	9	0,000810297613	0,000431449793
2	1	0	0	0	6447,44	3,55324244	3,5536921	0,1243892635684456	9	0,000964492559	0,000442041142
2	1	0	0	0	6448,69	3,56574345	3,56631303	0,12726714869495437	9	0,00112214207	0,000453874498
2	1	0	1	0	6449,94	3,57824445	3,57891417	0,13013310660608091	9	0,00128339743	0,000465735211
2	1	0	1	0	6451,19	3,59074545	3,59110379	0,13317258562892642	9	0,00144830451	0,000478236587
2	1	0	0	0	6452,44	3,60324597	3,60362434	0,13624514352219808	9	0,00161696668	0,000490976323
2	1	0	0	0	6453,69	3,61574721	3,61605501	0,13910024935224374	9	0,00178931933	0,000502994168
2	1	0	1	0	6454,94	3,62824821	3,62858582	0,14178122199761357	9	0,0019653237	0,000514465326
2	1	0	1	0	6456,19	3,64074922	3,6413269	0,14461586236332826	9	0,00214477279	0,000526593649
2	1	0	0	0	6457,44	3,65325022	3,65367699	0,14714845638566931	9	0,00232757325	0,000537632906
2	1	0	0	0	6458,69	3,66575122	3,66613746	0,14968232360358026	9	0,00251346081	0,000548755983
2	1	0	1	0	6459,94	3,67825174	3,67866826	0,15201140928547824	9	0,00270242477	0,000559199543
2	1	0	1	0	6461,19	3,69075298	3,69121909	0,15425852340801293	9	0,00289422274	0,000569402007
2	1	0	0	0	6462,44	3,70325398	3,70379972	0,15648920414969235	9	0,00308892201	0,000579604646
2	1	0	0	0	6463,69	3,71575499	3,71622014	0,15872913280812374	9	0,00328627974	0,000589872419
2	1	0	1	0	6464,94	3,72825623	3,72892189	0,1609036893311535	9	0,00348640257	0,000599997293
2	1	0	1	0	6466,19	3,74075651	3,74114084	0,16304030533259085	9	0,00368905743	0,00060995674
2	1	0	0	0	6467,44	3,75325847	3,75384307	0,16505195012754205	9	0,00389452977	0,000619579107
2	1	0	0	0	6468,69	3,76575875	3,76622248	0,16726733647131642	9	0,00410272507	0,000629966031
2	1	0	0	0	6469,94	3,77825975	3,77849245	0,16958301242751395	9	0,00431375671	0,00064076815
2	1	0	1	0	6471,19	3,79076076	3,7911737	0,17190454923547782	9	0,00452764519	0,00065171998
2	1	0	1	0	6472,44	3,80326128	3,80378437	0,17438633491595514	9	0,00474445242	0,000663328043
2	1	0	0	0	6473,69	3,81576252	3,81630492	0,17677321867086026	9	0,00496432232	0,000674620504
2	1	0	0	0	6474,94	3,82826352	3,828655	0,17938730376772493	9	0,00518736709	0,000686812098
2	1	0	1	0	6476,19	3,84076452	3,84116602	0,18213216025227075	9	0,00541378418	0,000699599856
2	1	0	1	0	6477,44	3,85326552	3,85372663	0,18506741027037286	9	0,005643724	0,000713199202
2	1	0	0	0	6478,69	3,86576653	3,86607671	0,1880526594662415	9	0,0058773174	0,000727026025
2	1	0	0	0	6479,94	3,87826705	3,87861753	0,1911114298660928	9	0,00611471152	0,000741248135
2	1	0	1	0	6481,19	3,89076829	3,89135885	0,19413146306760675	9	0,00635604048	0,000755435205
2	1	0	1	0	6482,44	3,90326929	3,90379906	0,1974290120415385	9	0,00660140254	0,000770723214
2	1	0	0	0	6483,69	3,91577029	3,91646981	0,20083151074747229	9	0,00685093366	0,000786550576
2	1	0	0	0	6484,94	3,92827129	3,92856956	0,20425856804164688	9	0,00710468041	0,000802444003
2	1	0	1	0	6486,19	3,94077182	3,94127107	0,20784711698070157	9	0,00736281136	0,000819181849
2	1	0	1	0	6487,44	3,95327306	3,95398211	0,21147149723644061	9	0,00762536796	0,000836154504
2	1	0	0	0	6488,69	3,96577406	3,96627212	0,21506407887985312	9	0,00789239258	0,000853002653
2	1	0	0	0	6489,94	3,97827506	3,97895312	0,21855301774727741	9	0,0081637688	0,000869612209
2	1	0	1	0	6491,19	3,99077606	3,99141383	0,22190797996396848	9	0,00843942817	0,000885726593
2	1	0	1	0	6492,44	4,00327682	4,00391436	0,22521295778763674	9	0,00871913694	0,000901733409
2	1	0	0	0	6493,69	4,01577759	4,01613379	0,22826305908771882	9	0,0090028625	0,000916734978
2	1	0	0	0	6494,94	4,02827883	4,02870512	0,23124508862383574	9	0,00929043442	0,00093161827
2	1	0	0	0	6496,19	4,04077816	4,0414362	0,23414898730467248	9	0,00958172977	0,000946298183
2	1	0	1	0	6497,44	4,05328083	4,05392647	0,23700693839539965	9	0,00987663027	0,000960808713
2	1	0	1	0	6498,69	4,06578064	4,06631231	0,23946953958346051	9	0,0101747699	0,000973757938
2	1	0	0	0	6499,94	4,07828236	4,0787673	0,24165659172770848	9	0,0104758907	0,000985661056
2	1	0	0	0	6501,19	4,09078264	4,09122753	0,24345689430684381	9	0,0107795065	0,000996037503
2	1	0	1	0	6502,44	4,10328436	4,10373878	0,24511834800553811	9	0,011085351	0,00100590172
2	1	0	1	0	6503,69	4,1157856	4,11624002	0,24663711451213245	9	0,0113931168	0,00101521751
2	1	0	0	0	6504,94	4,12828636	4,12865925	0,24832144146785117	9	0,0117027918	0,00102523458
2	1	0	0	0	6506,19	4,1407876	4,14137983	0,25012857095621933	9	0,0120145492	0,00103587739
2	1	0	1	0	6507,44	4,15328836	4,15377092	0,25202711694873914	9	0,0123286964	0,00104686292
2	1	0	1	0	6508,69	4,16579008	4,16629219	0,25436280076010397	9	0,0126455976	0,00105974975
2	1	0	0	0	6509,94	4,17829037	4,17887211	0,2573208475951103	9	0,0129657825	0,00107531087
2	1	0	0	0	6511,19	4,19079113	4,19150257	0,26065578769582019	9	0,0132898614	0,0010925394
2	0	0	1	1	6512,39	4,19719172	4,19779825	0,22845772452031542	9	0,0135993399	0,000959019409
2	0	0	0	1	6513,64	4,18469048	4,18518782	0,16676451254170432	9	0,0138405925	0,000697940821
2	0	0	0	1	6514,89	4,17218971	4,17263651	0,1311362722190097	9	0,0140249645	0,000547183969
2	0	0	1	1	6516,14	4,15968895	4,16029692	0,1060100723601256	9	0,0141720949	0,000441033364
2	0	0	1	1	6517,39	4,14718771	4,14774609	0,087572713518359936	9	0,0142921656	0,000363229366
2	0	0	0	1	6518,64	4,13468695	4,13529539	0,073075531671444429	9	0,0143917436	0,000302188913
2	0	0	0	1	6519,89	4,12218571	4,12265444	0,06165752986756457	9	0,0144752692	0,000254192681
2	0	0	1	1	6521,14	4,10968494	4,11029434	0,05225176011056944	9	0,0145459287	0,000214770116
2	0	0	1	1	6522,43	4,09678364	4,09734249	0,044218726097218054	9	0,014607694	0,000181179261
2	0	0	0	1	6523,68	4,08428288	4,08480167	0,037633251272685101	9	0,0146584576	0,000153724366
2	0	0	0	1	6524,93	4,07178211	4,07242155	0,031989518591823667	9	0,0147015899	0,000130274799
2	0	0	1	1	6526,18	4,05928087	4,05991077	0,027171411376912093	9	0,0147381797	0,000110313507
2	0	0	1	1	6527,43	4,04678011	4,04743052	0,022732032943167667	9	0,0147689376	9,20063248E-005
2	0	0	0	1	6528,68	4,03427887	4,03473949	0,018878715520259021	9	0,0147945788	7,61706979E-005
2	0	0	0	1	6529,93	4,02177811	4,0222888	0,015329025234677773	9	0,0148156444	6,16577672E-005
2	0	0	1	1	6531,18	4,00927734	4,00980854	0,012186264643484437	9	0,0148325842	4,88645892E-005
2	0	0	1	1	6532,43	3,99677634	3,99734807	0,0094748697689889843	9	0,0148457941	3,78743534E-005
2	0	0	0	1	6533,68	3,98427534	3,98482752	0,0069430534009976845	9	0,014855626	2,76668707E-005
2	0	0	0	1	6534,97	3,97137427	3,97193575	0,0042641765163959066	9	0,0148625579	1,6937036E-005
2	0	0	1	1	6536,22	3,95887327	3,95917463	0,0021087126630542666	9	0,0148664247	8,34876209E-006
2	0	0	1	1	6537,47	3,94637227	3,94680452	9,4384915596360986E-005	9	0,0148677295	3,72518798E-007
2	0	0	0	1	6538,72	3,93387151	3,93432403	-0,0016543337011777763	9	0,0148667125	6,50868469E-006
2	0	0	0	1	6539,97	3,92137051	3,92214394	-0,0033472999214912704	9	0,014863546	1,31285924E-005
2	0	0	0	1	6541,22	3,9088695	3,90959382	-0,0047794784076816838	9	0,0148583557	1,86858197E-005
2	0	0	1	1	6542,47	3,8963685	3,89709282	-0,0062345320232755904	9	0,014851396	2,42965507E-005
2	0	0	1	1	6543,72	3,88386679	3,88422918	-0,0074874654532333939	9	0,0148427403	2,90830321E-005
2	0	0	0	1	6544,97	3,87136674	3,87176085	-0,0087741899624234061	9	0,0148325674	3,39715662E-005
2	0	0	0	1	6546,24	3,8586657	3,85931015	-0,0095887153875082867	9	0,0148207676	3,7005826E-005
2	0	0	1	1	6547,51	3,84596467	3,84632826	-0,010641338463756256	9	0,0148076834	4,0930081E-005
2	0	0	1	1	6548,76	3,83346367	3,83374786	-0,011465522683768853	9	0,0147935459	4,39559226E-005
2	0	0	0	1	6550,01	3,82096267	3,82147765	-0,012259113903079821	9	0,0147783412	4,68479302E-005
2	0	0	0	1	6551,26	3,80846167	3,80898714	-0,013055731091299094	9	0,0147620933	4,97291112E-005
2	0	0	1	1	6552,51	3,79596114	3,79638624	-0,013793189694600499	9	0,0147449207	5,23642739E-005
2	0	0	1	1	6553,76	3,7834599	3,78373504	-0,014567219060457658	9	0,0147268483	5,51184967E-005
2	0	0	0	1	6555,01	3,7709589	3,77137494	-0,015154508573080733	9	0,0147079825	5,71533346E-005
2	0	0	0	1	6556,26	3,7584579	3,75884461	-0,015651104540059635	9	0,0146883195	5,88300718E-005
2	0	0	1	1	6557,51	3,7459569	3,7464242	-0,016241902791080093	9	0,0146679599	6,08490591E-005
2	0	0	1	1	6558,76	3,73345637	3,73407364	-0,016833079823603213	9	0,0146468868	6,28559574E-005
2	0	0	0	1	6560,01	3,72095537	3,72147298	-0,017343173996778259	9	0,0146252234	6,45421533E-005
2	0	0	0	1	6561,26	3,70845413	3,70886207	-0,01790013027978904	9	0,0146028642	6,63891115E-005
2	0	0	1	1	6562,51	3,69595313	3,69655228	-0,01816580033240217	9	0,0145799136	6,71508315E-005
2	0	0	1	1	6563,76	3,68345213	3,68398118	-0,018622093232503773	9	0,0145563278	6,860344E-005
2	0	0	0	1	6565,01	3,6709516	3,67139053	-0,019064059180285114	9	0,0145321786	6,99916054E-005
2	0	0	0	1	6566,26	3,6584506	3,65899968	-0,019530217905412442	9	0,0145074651	7,14610578E-005
2	0	0	1	1	6567,52	3,64594936	3,6463294	-0,01994357844523617	9	0,0144822178	7,27208535E-005
2	0	0	1	1	6568,77	3,63344836	3,63397884	-0,020433146113646243	9	0,014456477	7,42536213E-005
2	0	0	0	1	6570,02	3,62094736	3,62149835	-0,020862283352568454	9	0,0144302361	7,55527217E-005
2	0	0	0	1	6571,27	3,60844636	3,60894752	-0,021314000308241958	9	0,0144035015	7,6921111E-005
2	0	0	0	1	6572,52	3,59594631	3,59652638	-0,021678134644500246	9	0,0143763423	7,79659822E-005
2	0	0	1	1	6573,77	3,5834446	3,58405662	-0,022122228377459933	9	0,0143487435	7,92873179E-005
2	0	0	1	1	6575,02	3,57094359	3,57159615	-0,022319773381847626	9	0,0143207535	7,97172179E-005
2	0	0	0	1	6576,27	3,55844259	3,55905533	-0,022495277352087882	9	0,014292405	8,00619382E-005
2	0	0	0	1	6577,52	3,54594159	3,5466249	-0,022779634726854736	9	0,014263697	8,07908218E-005
2	0	0	1	1	6578,77	3,53344107	3,53385377	-0,023103997324748563	9	0,0142346574	8,1646147E-005
2	0	0	1	1	6580,02	3,52094007	3,52142334	-0,023409491574663376	9	0,0142053245	8,24347298E-005
2	0	0	0	1	6581,27	3,50843883	3,50906324	-0,023627761421569914	9	0,0141756972	8,29113123E-005
2	0	0	0	1	6582,52	3,49593782	3,49633193	-0,023730140417076995	9	0,0141457999	8,29684504E-005
2	0	0	1	1	6583,77	3,48343682	3,48395181	-0,023973419791824822	9	0,0141156111	8,35222381E-005
2	0	0	1	1	6585,02	3,4709363	3,47136092	-0,024195878058283952	9	0,0140851568	8,39926288E-005
2	0	0	0	1	6586,27	3,4584353	3,45861983	-0,024455085338559008	9	0,0140544632	8,45808463E-005
2	0	0	0	1	6587,52	3,44593406	3,4464798	-0,024680047703441286	9	0,0140235182	8,50592842E-005
2	0	0	1	1	6588,77	3,43343306	3,43381906	-0,024805005474869814	9	0,0139923375	8,51759032E-005
2	0	0	1	1	6590,02	3,42093205	3,42157912	-0,024838609368695613	9	0,0139608998	8,49872667E-005
2	0	0	0	1	6591,27	3,40843105	3,40908861	-0,025174740236252547	9	0,013929233	8,58229178E-005
2	0	0	0	1	6592,52	3,39593053	3,39644718	-0,025376925749393875	9	0,0138972998	8,61913868E-005
2	0	0	1	1	6593,77	3,38342929	3,38371611	-0,025632821915981709	9	0,0138651477	8,67341951E-005
2	0	0	1	1	6595,02	3,37092829	3,37131619	-0,025807003626444723	9	0,0138327423	8,70035728E-005
2	0	0	0	1	6596,27	3,35842729	3,3587451	-0,025886890478432122	9	0,0138001032	8,69474679E-005
2	0	0	0	1	6597,52	3,34592628	3,34647512	-0,026153511988619981	9	0,0137671931	8,75220794E-005
2	0	0	0	1	6598,77	3,33342552	3,33385515	-0,026355463098505782	9	0,0137340566	8,78652936E-005
2	0	0	1	1	6600,02	3,32092476	3,32163453	-0,026609696176213587	9	0,0137006519	8,83876855E-005
2	0	0	1	1	6601,27	3,308424	3,30871272	-0,026843116532871357	9	0,0136669865	8,88161594E-005
2	0	0	0	1	6602,52	3,29592252	3,29627228	-0,026919077257237744	9	0,0136330882	8,87326096E-005
2	0	0	0	1	6603,77	3,2834208	3,28391075	-0,027040367062561965	9	0,0135989618	8,87981514E-005
2	0	0	1	1	6605,02	3,27092099	3,27153206	-0,027344734931830288	9	0,013564568	8,94591794E-005
2	0	0	1	1	6606,27	3,25841999	3,25884056	-0,027519240092563734	9	0,0135299517	8,96808124E-005
2	0	0	0	1	6607,52	3,24591875	3,24636006	-0,027735774521715827	9	0,013495096	9,00403102E-005
2	0	0	0	1	6608,77	3,23341775	3,23399997	-0,027858753766243638	9	0,0134600196	9,00952073E-005
2	0	0	1	1	6610,02	3,22091675	3,22150946	-0,027970472166392381	9	0,0134247076	9,01071398E-005
2	0	0	1	1	6611,27	3,20841575	3,20888829	-0,028164199223586704	9	0,013389199	9,03757682E-005
2	0	0	0	1	6612,52	3,19591522	3,19645834	-0,02836885795113625	9	0,0133534567	9,06798741E-005
2	0	0	0	1	6613,77	3,18341398	3,1837368	-0,028529175848234499	9	0,0133175394	9,08293878E-005
2	0	0	1	1	6615,02	3,17091298	3,17137671	-0,028641281154705213	9	0,0132813985	9,08322909E-005
2	0	0	1	1	6616,27	3,15841198	3,15876603	-0,028655093075940426	9	0,0132450955	9,05147317E-005
2	0	0	0	1	6617,52	3,14591146	3,14635539	-0,028820497061436413	9	0,0132085895	9,06795249E-005
2	0	0	0	1	6618,77	3,13341045	3,13379502	-0,028980345610762125	9	0,0131719271	9,08184593E-005
2	0	0	1	1	6620,02	3,12090969	3,12133431	-0,029109438076072134	9	0,013135069	9,08602888E-005
2	0	0	1	1	6621,27	3,10840845	3,1088438	-0,029214072225537843	9	0,01309809	9,08219881E-005
2	0	0	0	1	6622,52	3,09590769	3,09658384	-0,029406426639373747	9	0,0130609414	9,10594681E-005
2	0	0	0	1	6623,77	3,08340669	3,08413315	-0,029593395680421965	9	0,0130236689	9,12699761E-005
2	0	0	1	1	6625,02	3,07090592	3,07128191	-0,029770453111268582	9	0,0129862456	9,14334523E-005
2	0	0	1	1	6626,27	3,05840468	3,05877137	-0,029873762755111501	9	0,0129487328	9,13770127E-005
2	0	0	0	1	6627,52	3,04590368	3,04639101	-0,030032046003422394	9	0,0129110897	9,14893535E-005
2	0	0	0	1	6628,77	3,03340292	3,03377008	-0,02995507391945776	9	0,0128733655	9,08768052E-005
2	0	0	1	1	6630,02	3,02090073	3,02124715	-0,029980676864974522	9	0,0128355278	9,05790366E-005
2	0	0	1	1	6631,27	3,00840092	3,00896931	-0,030053660574291514	9	0,012797635	9,04305416E-005
2	0	0	1	1	6632,52	2,99590015	2,99609804	-0,030185112011774093	9	0,0127596669	9,04375556E-005
2	0	0	0	1	6633,77	2,98339891	2,98373771	-0,030255271927065562	9	0,0127216307	9,02737956E-005
2	0	0	0	1	6635,02	2,97089815	2,97130728	-0,03028633009914	9	0,012683535	8,99899896E-005
2	0	0	1	1	6636,27	2,95839715	2,95887685	-0,030215658276574746	9	0,0126453936	8,94044133E-005
2	0	0	1	1	6637,52	2,94589615	2,94659686	-0,030264312275297395	9	0,0126071991	8,91767268E-005
2	0	0	0	1	6638,77	2,93339515	2,93377542	-0,030387944590378022	9	0,0125689739	8,91514064E-005
2	0	0	0	1	6640,02	2,92089438	2,92141509	-0,030426204893350016	9	0,0125307068	8,88875729E-005
2	0	0	1	1	6641,27	2,90839314	2,90884447	-0,030373842620368461	9	0,0124924537	8,83527828E-005
2	0	0	1	1	6642,52	2,89589238	2,89622355	-0,03035372572291328	9	0,0124541698	8,79111758E-005
2	0	0	0	1	6643,77	2,88339138	2,88365293	-0,030356838387281869	9	0,012415844	8,75385886E-005
2	0	0	0	1	6645,02	2,87089062	2,8714931	-0,030446613663419494	9	0,0123774949	8,74272446E-005
2	0	0	1	1	6646,27	2,85838938	2,85880208	-0,030417640809901005	9	0,0123391319	8,69580181E-005
2	0	0	1	1	6647,52	2,84588838	2,84637165	-0,030530594357211763	9	0,0123007754	8,69014184E-005
2	0	0	0	1	6648,77	2,83338761	2,83385086	-0,030417027766816429	9	0,0122623993	8,61973167E-005
2	0	0	0	1	6650,02	2,82088661	2,82131004	-0,030392519770733427	9	0,0122240474	8,57467239E-005
2	0	0	1	1	6651,27	2,80838561	2,8088901	-0,03042573536125337	9	0,012185663	8,54625468E-005
2	0	0	1	1	6652,52	2,79588485	2,79630923	-0,030450730623367008	9	0,0121473167	8,51496588E-005
2	0	0	0	1	6653,77	2,78338361	2,78381848	-0,030495629830208371	9	0,012108935	8,48942946E-005
2	0	0	0	1	6655,02	2,77088284	2,77149844	-0,03046035909210343	9	0,0120705841	8,44208407E-005
2	0	0	1	1	6656,27	2,75838184	2,75877714	-0,030349883585004122	9	0,0120321922	8,37285625E-005
2	0	0	1	1	6657,52	2,74588084	2,74623656	-0,030358799432481984	9	0,0119938264	8,3372448E-005
2	0	0	0	1	6658,77	2,73338008	2,73386765	-0,030421995038744653	9	0,0119554298	8,31697107E-005
2	0	0	0	1	6660,02	2,72087908	2,7212553	-0,030487703004231162	9	0,0119170351	8,2964827E-005
2	0	0	0	1	6661,27	2,70837879	2,7088151	-0,030520810199668653	9	0,011878605	8,26752294E-005
2	0	0	1	1	6662,52	2,69587708	2,69645452	-0,03045377925930848	9	0,0118401498	8,21172289E-005
2	0	0	1	1	6663,77	2,68337607	2,68360329	-0,030479746569956998	9	0,0118016489	8,17955515E-005
2	0	0	0	1	6665,02	2,67087531	2,67130303	-0,030588004476158029	9	0,0117630847	8,17098262E-005
2	0	0	0	1	6666,27	2,65837407	2,65881252	-0,030653127401213453	9	0,0117244534	8,15009189E-005
2	0	0	1	1	6667,52	2,64587307	2,64618158	-0,030753334974482003	9	0,011685757	8,13789084E-005
2	0	0	1	1	6668,77	2,63337231	2,63364124	-0,03076830804153968	9	0,011646945	8,10326819E-005
2	0	0	0	1	6670,02	2,62087131	2,62124062	-0,030801951186731571	9	0,0116080279	8,07393226E-005
2	0	0	0	1	6671,27	2,6083703	2,60900068	-0,030878962153413683	9	0,0115689561	8,05632299E-005
2	0	0	1	1	6672,52	2,59586954	2,59645987	-0,031034131165749158	9	0,0115297576	8,05788732E-005
2	0	0	1	1	6673,77	2,5833683	2,58384943	-0,031177102995570752	9	0,0114903646	8,05569434E-005
2	0	0	0	1	6675,02	2,57086754	2,57136846	-0,031403425789903878	9	0,0114507843	8,07497781E-005
2	0	0	0	1	6676,27	2,55836654	2,55875778	-0,031609583927396128	9	0,0114109796	8,08812692E-005
2	0	0	1	1	6677,52	2,54586554	2,54654789	-0,031854682776611296	9	0,0113709513	8,11194768E-005
2	0	0	1	1	6678,77	2,53336453	2,53378654	-0,032087642932310656	9	0,0113306511	8,13032384E-005
2	0	0	0	1	6680,02	2,52086377	2,52133608	-0,032318356311104026	9	0,0112901069	8,14854357E-005
2	0	0	0	1	6681,27	2,50836253	2,50862503	-0,032631606222518426	9	0,0112492731	8,18604676E-005
2	0	0	1	1	6682,52	2,49586177	2,49644518	-0,032698817706356397	9	0,0112081859	8,16308093E-005
2	0	0	1	1	6683,77	2,48336077	2,4837544	-0,033072810620069587	9	0,0111667337	8,21447393E-005
2	0	0	0	1	6685,02	2,47086	2,47122359	-0,033272780866051757	9	0,011124949	8,22244838E-005
2	0	0	0	1	6686,27	2,45835876	2,45875287	-0,033636148533939034	9	0,0110828113	8,27029799E-005
2	0	0	0	1	6687,52	2,44585824	2,44628263	-0,033947434598477658	9	0,0110403253	8,30450226E-005
2	0	0	1	1	6688,77	2,433357	2,43380189	-0,034162891466015366	9	0,0109974742	8,31457073E-005
2	0	0	1	1	6690,02	2,42085528	2,42124081	-0,03442921535280327	9	0,0109542506	8,33614176E-005
2	0	0	0	1	6691,27	2,408355	2,40893102	-0,034796148625901056	9	0,0109106358	8,38215201E-005
2	0	0	0	1	6692,52	2,39585423	2,39626002	-0,035081579815596454	9	0,0108666485	8,4064588E-005
2	0	0	1	1	6693,77	2,38335299	2,38387966	-0,035501287250857158	9	0,0108222542	8,46307958E-005
2	0	0	1	1	6695,02	2,37085223	2,37131906	-0,035752997161277363	9	0,0107774595	8,47817646E-005
2	0	0	0	1	6696,27	2,35835123	2,35869813	-0,036027539346832781	9	0,0107322484	8,49780918E-005
2	0	0	0	1	6697,52	2,34585023	2,34628773	-0,03633284436849271	9	0,0106866173	8,52473095E-005
2	0	0	1	1	6698,78	2,33334923	2,33394742	-0,036762836486256333	9	0,0106405709	8,58025305E-005
2	0	0	1	1	6700,03	2,32084846	2,32128668	-0,037091146591895661	9	0,0105940923	8,60991859E-005
2	0	0	0	1	6701,28	2,30834723	2,30863571	-0,037533407594310234	9	0,0105471835	8,66509654E-005
2	0	0	0	1	6702,53	2,29584646	2,29629564	-0,037765194128345056	9	0,0104998248	8,67200506E-005
2	0	0	1	1	6703,78	2,28334546	2,28359437	-0,038113655978425754	9	0,0104520433	8,70361328E-005
2	0	0	1	1	6705,03	2,2708447	2,27131438	-0,038517053792020166	9	0,0104037989	8,7484339E-005
2	0	0	0	1	6706,28	2,25834346	2,25904417	-0,038915444563220627	9	0,0103551243	8,79117069E-005
2	0	0	0	1	6707,53	2,24584246	2,24637341	-0,039352625162185491	9	0,0103059644	8,84006877E-005
2	0	0	1	1	6708,78	2,23334169	2,23366213	-0,03957796484852816	9	0,0102563538	8,84038018E-005
2	0	0	1	1	6710,03	2,22084069	2,22143197	-0,039894781327651066	9	0,0102062775	8,8623543E-005
2	0	0	0	1	6711,28	2,20833969	2,2089417	-0,040294726621747603	9	0,0101557234	8,90087031E-005
2	0	0	0	1	6712,53	2,19583893	2,19640112	-0,040744109865045178	9	0,0101046888	8,94904078E-005
2	0	0	1	1	6713,78	2,18333769	2,18399072	-0,041137664200505242	9	0,0100532034	8,9844274E-005
2	0	0	1	1	6715,03	2,17083693	2,17143989	-0,041518050876523686	9	0,0100012058	9,01539534E-005
2	0	0	0	1	6716,28	2,15833473	2,15887833	-0,041825194611623149	9	0,00994872209	9,02955071E-005
2	0	0	0	1	6717,53	2,14583492	2,14650893	-0,042295723503533056	9	0,00989572424	9,07881476E-005
2	0	0	1	1	6718,78	2,13333344	2,1337378	-0,042688651922893062	9	0,00984223094	9,10863891E-005
2	0	0	1	1	6720,03	2,12083316	2,12117672	-0,043127436705011398	9	0,00978822354	9,14809134E-005
2	0	0	1	1	6720,83	2,11273289	2,11277676	-0,043979887850582598	9	0,00975334831	9,29196831E-005