File: Experimentelles/Rohdaten/Batterietests/AlteZelle/Studenten_Batterietests/LLTO_LP30_Li CV/ZView-Export/LLTO_LP30_Li_02_CV_C01_loop1.txt
EC-Lab ASCII FILE
Nb header lines : 3
mode	ox/red	error	control changes	counter inc.	time/s	control/V	Ewe/V	<I>/mA	cycle number	(Q-Qo)/C	P/W
2	0	0	1	0	1340,20	2,10843253	2,10876703	-0,04892837256193161	2	0	0,000103178536
2	0	0	0	0	1341,58	2,09463096	2,09515309	-0,041915954342887974	2	-5,89049523E-005	8,78203427E-005
2	0	0	0	0	1342,98	2,08062983	2,08106875	-0,042565649996201382	2	-0,00011840745	8,85820409E-005
2	0	0	1	0	1344,38	2,06662869	2,06681371	-0,04330790113696553	2	-0,000178838891	8,95093617E-005
2	0	0	1	0	1345,78	2,0526278	2,05320024	-0,043776697605305114	2	-0,000240107736	8,98823273E-005
2	0	0	0	0	1347,18	2,03862667	2,03935647	-0,044324223398386208	2	-0,000302239205	9,03928885E-005
2	0	0	0	0	1348,58	2,02462578	2,02508235	-0,045068815803573747	2	-0,000365199317	9,12680625E-005
2	0	0	1	0	1349,98	2,01062441	2,01117754	-0,045687221630942074	2	-0,000429001579	9,18851147E-005
2	0	0	0	0	1351,38	1,99662328	1,99706304	-0,046175879154664755	2	-0,000493653642	9,22161416E-005
2	0	0	0	0	1352,78	1,98262239	1,98305881	-0,046854228072334138	2	-0,000559145759	9,29146918E-005
2	0	0	1	0	1354,18	1,96862125	1,96907461	-0,047336498993293952	2	-0,000625538116	9,32090988E-005
2	0	0	1	0	1355,58	1,95462024	1,95494008	-0,048162904373991123	2	-0,000692821108	9,41555918E-005
2	0	0	0	0	1356,98	1,94061911	1,94119632	-0,048768315357543904	2	-0,000761073839	9,46688742E-005
2	0	0	0	0	1358,38	1,92661798	1,92712188	-0,049448577240885696	2	-0,000830256089	9,52934352E-005
2	0	0	1	0	1359,78	1,91261685	1,91311753	-0,050247324514202771	2	-0,000900444575	9,61290352E-005
2	0	0	1	0	1361,18	1,89861596	1,89907324	-0,05101622943766432	2	-0,000971610891	9,68835593E-005
2	0	0	0	0	1362,58	1,88461483	1,8848685	-0,051633418072015155	2	-0,00104382436	9,7322205E-005
2	0	0	0	0	1363,98	1,87061381	1,87098455	-0,052492090694916781	2	-0,00111711875	9,82118945E-005
2	0	0	1	0	1365,38	1,85661268	1,85712063	-0,05334473606975143	2	-0,00119156775	9,90676126E-005
2	0	0	1	0	1366,78	1,84261155	1,84292579	-0,054374435179246118	2	-0,00126724411	0,000100208046
2	0	0	0	0	1368,18	1,82861066	1,82886159	-0,055173255056918861	2	-0,00134422584	0,000100904246
2	0	0	0	0	1369,58	1,81460917	1,81507814	-0,056060427577863558	2	-0,00142259221	0,000101754056
2	0	0	1	0	1370,98	1,8006084	1,80102336	-0,057281787022172128	2	-0,00150242262	0,000103165839
2	0	0	0	0	1372,38	1,78660727	1,78703916	-0,058498960958483392	2	-0,0015838386	0,000104539933
2	0	0	0	0	1373,78	1,77260637	1,77318525	-0,059622594329994394	2	-0,00166687288	0,000105721905
2	0	0	1	0	1375,18	1,75860524	1,75917089	-0,061007080308627443	2	-0,00175172789	0,000107321881
2	0	0	1	0	1376,58	1,74460423	1,74505651	-0,06248910273037239	2	-0,00183850096	0,000109047018
2	0	0	0	0	1377,98	1,7306031	1,73093188	-0,064126459202573645	2	-0,00192740385	0,000110998531
2	0	0	0	0	1379,38	1,71660197	1,7170881	-0,065734505963822272	2	-0,00201859674	0,000112871938
2	0	0	1	0	1380,78	1,70260084	1,70293331	-0,06754765061972023	2	-0,00211226428	0,000115029143
2	0	0	1	0	1382,18	1,68859994	1,68902922	-0,069538367174876608	2	-0,00220854627	0,000117452335
2	0	0	0	0	1383,58	1,67459881	1,67496502	-0,07132637991647584	2	-0,0023075596	0,000119469194
2	0	0	0	0	1384,98	1,6605978	1,66098058	-0,073304958311685824	2	-0,00240933523	0,000121758116
2	0	0	1	0	1386,38	1,64659667	1,64715695	-0,075414257880765939	2	-0,00251394464	0,000124219121
2	0	0	1	0	1387,78	1,63259614	1,63303292	-0,077653805663458368	2	-0,00262151565	0,000126811225
2	0	0	0	0	1389,18	1,61859441	1,61914837	-0,080195170885417613	2	-0,00273229321	0,000129847875
2	0	0	1	0	1390,58	1,60459352	1,60497367	-0,08283644227776704	2	-0,00284673274	0,000132950314
2	0	0	1	0	1391,98	1,59059238	1,59119999	-0,086083784641232563	2	-0,00296531338	0,000136976523
2	0	0	0	0	1393,38	1,57659137	1,57692504	-0,089978151430841843	2	-0,00308888266	0,000141888799
2	0	0	0	0	1394,78	1,56259024	1,56312132	-0,095006785161482867	2	-0,00321851531	0,000148507126
2	0	0	1	0	1396,22	1,54818928	1,54858565	-0,10143447667360323	2	-0,00336001464	0,00015707998
2	0	0	1	0	1397,62	1,53418815	1,53479195	-0,10969875194132328	2	-0,00350789609	0,000168364757
2	0	0	0	0	1399,02	1,52018702	1,52072752	-0,12058323986517893	2	-0,00366931153	0,000183374257
2	0	0	0	0	1400,42	1,50618589	1,506603	-0,13503691387207584	2	-0,00384841277	0,000203447024
2	0	0	1	0	1401,82	1,492185	1,49254858	-0,15308099938556512	2	-0,00405010069	0,000228480829
2	0	0	1	0	1403,22	1,47818387	1,47868478	-0,17495458976676061	2	-0,00427978532	0,000258702697
2	0	0	0	0	1404,62	1,46418285	1,46449995	-0,20085033611394454	2	-0,00454296125	0,000294145313
2	0	0	0	0	1406,02	1,45018172	1,45069611	-0,23031779797747709	2	-0,00484491605	0,000334121141
2	0	0	1	0	1407,42	1,43618071	1,43675208	-0,26319362743136755	2	-0,00519047165	0,000378144003
2	0	0	0	0	1408,82	1,42217958	1,42277789	-0,29831904157375206	2	-0,00558373611	0,000424441736
2	0	0	0	0	1410,22	1,40817857	1,40858316	-0,3357467170183872	2	-0,00602787919	0,000472927175
2	0	0	1	0	1411,62	1,39417744	1,39449871	-0,37465607491321907	2	-0,00652552256	0,000522457412
2	0	0	1	0	1413,02	1,38017642	1,38075507	-0,41437147402515072	2	-0,00707821548	0,000572145509
2	0	0	0	0	1414,42	1,36617529	1,36662042	-0,4543297365307808	2	-0,00768709416	0,000620896288
2	0	0	0	0	1415,82	1,35217428	1,35247588	-0,49494803898657306	2	-0,00835237559	0,000669405272
2	0	0	1	0	1417,22	1,33817315	1,33859181	-0,53522293921559962	2	-0,00907423533	0,000716445036
2	0	0	1	0	1418,62	1,32417214	1,32444739	-0,57502949936315552	2	-0,00985204708	0,000761596311
2	0	0	0	0	1420,02	1,31017101	1,31061339	-0,6139979438545815	2	-0,0106850639	0,000804713927
2	0	0	0	0	1421,42	1,29616988	1,29677963	-0,65241587627679104	2	-0,0115722232	0,00084603962
2	0	0	1	0	1422,82	1,28216887	1,28262496	-0,69005849181364096	2	-0,0125126215	0,00088508625
2	0	0	1	0	1424,22	1,26816785	1,26891136	-0,72661243736122752	2	-0,0135048945	0,000922006788
2	0	0	0	0	1425,62	1,25416684	1,25448596	-0,76348652085289357	2	-0,0145484312	0,000957783137
2	0	0	0	0	1427,02	1,24016571	1,2407124	-0,80291545763611776	2	-0,0156451426	0,000996187213
2	0	0	1	0	1428,42	1,22616458	1,22650766	-0,84455052111297664	2	-0,016798839	0,0010358477
2	0	0	0	0	1429,82	1,21216345	1,21274388	-0,88680782417456256	2	-0,0180115793	0,0010754707
2	0	0	0	0	1431,22	1,19816232	1,19856918	-0,92782625059287053	2	-0,0192826632	0,001112064
2	0	0	1	0	1432,62	1,18416142	1,18468523	-0,96627024654298842	2	-0,0206098054	0,00114472606
2	0	0	1	0	1434,06	1,16976035	1,17006946	-1,0030348021537066	2	-0,0220289938	0,00117362035
2	0	0	0	0	1435,46	1,15575922	1,15594482	-1,0359968117748704	2	-0,0234573931	0,0011975551
2	0	0	0	0	1436,86	1,1417582	1,14210105	-1,065816139491897	2	-0,0249295048	0,00121726969
2	0	0	1	0	1438,27	1,12775707	1,12823713	-1,0921452492475546	2	-0,0264409557	0,00123219879
2	0	0	1	0	1439,67	1,11375606	1,11420274	-1,1151623964930603	2	-0,0279868525	0,00124251703
2	0	0	0	0	1441,07	1,09975493	1,10029876	-1,1354087165867312	2	-0,0295631867	0,00124928879
2	0	0	0	0	1442,47	1,08575392	1,08613408	-1,1522915530949848	2	-0,0311653093	0,00125154317
2	0	0	1	0	1443,87	1,07175279	1,07220006	-1,1668158791338398	2	-0,0327898301	0,00125106005
2	0	0	1	0	1445,27	1,05775177	1,05810547	-1,1784745004649011	2	-0,0344322845	0,00124695036
2	0	0	0	0	1446,67	1,04375064	1,04421151	-1,1877338991810893	2	-0,0360897928	0,00124024542
2	0	0	0	0	1448,07	1,02974987	1,03019631	-1,1944088516267045	2	-0,0377582014	0,00123047561
2	0	0	1	0	1449,47	1,0157485	1,0162431	-1,1983175128698402	2	-0,0394339003	0,00121778192
2	0	0	0	0	1450,87	1,00174749	1,00207853	-1,199281129675608	2	-0,0411131755	0,00120177388
2	0	0	0	0	1452,27	0,987746418	0,98806411	-1,1969739080717118	2	-0,0427913852	0,001182687
2	0	0	1	0	1453,67	0,973745406	0,973869443	-1,1919395929823326	2	-0,0444645993	0,00116079359
2	0	0	1	0	1455,07	0,959744394	0,960105717	-1,1830581833298019	2	-0,0461277664	0,00113586092
2	0	0	0	0	1456,47	0,945743263	0,946291983	-1,1710247624044605	2	-0,047776673	0,00110813137
2	0	0	0	0	1457,87	0,931742191	0,932157397	-1,1557173524051886	2	-0,0494062342	0,00107731053
2	0	0	1	0	1459,27	0,917741179	0,918213248	-1,1383620814109854	2	-0,0510130487	0,00104525918
2	0	0	1	0	1460,67	0,903740048	0,904188931	-1,119775848773628	2	-0,0525942966	0,00101248897
2	0	0	0	0	1462,07	0,889738977	0,890034318	-1,1024663376932331	2	-0,0541503616	0,00098123285
2	0	0	0	0	1463,47	0,875737965	0,876100242	-1,0897719773153467	2	-0,0556844585	0,00095474947
2	0	0	1	0	1464,87	0,861736834	0,862105906	-1,0860949661582717	2	-0,057206817	0,000936328899
2	0	0	0	0	1466,27	0,847736537	0,848282218	-1,0944462949087939	2	-0,0587322153	0,000928399328
2	0	0	0	0	1467,67	0,833734751	0,833917022	-1,1167662031948514	2	-0,0602790676	0,000931290328
2	0	0	1	0	1469,07	0,81973362	0,820073068	-1,1524814156194552	2	-0,0618666932	0,000945118954
2	0	0	1	0	1470,47	0,805732608	0,806149065	-1,1999305694674422	2	-0,0635126531	0,000967322907
2	0	0	0	0	1471,87	0,791731536	0,792295098	-1,2552068652585219	2	-0,0652311966	0,000994494301
2	0	0	0	0	1473,27	0,777730465	0,778190613	-1,3147138717273918	2	-0,067030549	0,00102309801
2	0	0	1	0	1474,67	0,763729393	0,764166296	-1,3762240692352243	2	-0,0689151734	0,001051664
2	0	0	1	0	1476,07	0,749728322	0,750172079	-1,4365505948662811	2	-0,0708851367	0,00107766013
2	0	0	0	0	1477,47	0,735727251	0,735917211	-1,4948018752038486	2	-0,0729383975	0,0011000504
2	0	0	0	0	1478,87	0,721726179	0,722103417	-1,5498683353265114	2	-0,0750706345	0,00111916522
2	0	0	1	0	1480,27	0,707725108	0,708179295	-1,6022419656316486	2	-0,0772785991	0,00113467453
2	0	0	1	0	1481,67	0,693724036	0,694215119	-1,6518069213877098	2	-0,0795571357	0,00114670931
2	0	0	0	0	1483,07	0,679722965	0,679839909	-1,6978779683510509	2	-0,0819029212	0,00115428516
2	0	0	0	0	1484,47	0,665721893	0,66589582	-1,7427291410664835	2	-0,0843121186	0,00116047601
2	0	0	1	0	1485,87	0,651720822	0,65195173	-1,7855542140702384	2	-0,0867829621	0,00116409513
2	0	0	0	0	1487,27	0,63771975	0,638167977	-1,8267676513642109	2	-0,089312695	0,00116578466
2	0	0	0	0	1488,67	0,623718739	0,624233902	-1,8671628522376266	2	-0,0918993801	0,00116554636
2	0	0	1	0	1490,07	0,609717607	0,610349953	-1,9072725375493322	2	-0,0945428833	0,00116410374
2	0	0	1	0	1491,47	0,595716536	0,596145153	-1,9475207788248845	2	-0,0972421542	0,00116100512
2	0	0	0	0	1492,87	0,581715524	0,582130849	-1,9881088789552454	2	-0,0999981612	0,00115733955
2	0	0	0	0	1494,27	0,567714393	0,56818676	-2,0294699619213722	2	-0,102810882	0,00115311798
2	0	0	1	0	1495,67	0,553713322	0,553931832	-2,0715867659697978	2	-0,105682716	0,00114751782
2	0	0	1	0	1497,07	0,53971231	0,54020828	-2,1149909347295824	2	-0,108613834	0,00114253559
2	0	0	0	0	1498,47	0,525711238	0,525943339	-2,1600753503541126	2	-0,111607142	0,00113607722
2	0	0	0	0	1499,87	0,511710107	0,512089491	-2,2062234909584205	2	-0,114663899	0,00112978381
2	1	0	1	0	1501,22	0,501809418	0,502115071	-2,2108328174799664	2	-0,117671192	0,0011100925
2	1	0	0	0	1502,62	0,51581049	0,516209543	-1,9817693314204653	2	-0,120600931	0,00102300826
2	1	0	0	0	1504,02	0,529811502	0,530183733	-1,7809735909104349	2	-0,123231277	0,00094424322
2	1	0	1	0	1505,42	0,543812573	0,544077754	-1,5989146698266339	2	-0,125594854	0,000869933923
2	1	0	1	0	1506,82	0,557813644	0,558372736	-1,431196094801033	2	-0,127713591	0,000799140893
2	1	0	0	0	1508,22	0,571814716	0,57218653	-1,2750426102429629	2	-0,129606038	0,000729562191
2	1	0	0	0	1509,62	0,585816562	0,586191475	-1,1291585331557243	2	-0,131287307	0,000661903119
2	1	0	1	0	1511,02	0,599816859	0,600265205	-0,9924816573038679	2	-0,132770717	0,000595752208
2	1	0	0	0	1512,42	0,61381793	0,614289522	-0,8639326918249335	2	-0,134068295	0,000530704798
2	1	0	0	0	1513,82	0,627819002	0,628123462	-0,74202048809578125	2	-0,13519074	0,00046608047
2	1	0	1	0	1515,22	0,641820073	0,642197788	-0,6272782060938569	2	-0,136147738	0,000402836682
2	1	0	1	0	1516,62	0,655821145	0,656372488	-0,51792416799192685	2	-0,136947826	0,000339951162
2	1	0	0	0	1518,06	0,670222282	0,670487106	-0,41203092566381197	2	-0,137616441	0,000276261417
2	1	0	0	0	1519,46	0,684223294	0,68470192	-0,31386669453543981	2	-0,138123274	0,000214905129
2	1	0	1	0	1520,86	0,698224366	0,698686063	-0,21997750961842666	2	-0,138495773	0,000153695219
2	1	0	1	0	1522,26	0,712225437	0,712710381	-0,13037292119891752	2	-0,138739884	9,29181333E-005
2	1	0	0	0	1523,70	0,726626575	0,727185786	-0,041811224558235494	2	-0,138862953	3,04045279E-005
2	1	0	0	0	1525,10	0,740627646	0,74105978	0,040281814814079776	2	-0,138863027	2,98512332E-005
2	1	0	1	0	1526,54	0,755028725	0,755455017	0,12185328236470562	2	-0,138745189	9,20546736E-005
2	1	0	0	0	1527,94	0,769030571	0,769490182	0,1980005251877417	2	-0,138520271	0,000152359455
2	1	0	0	0	1529,34	0,783030748	0,783533692	0,27190051157958851	2	-0,138190225	0,000213043211
2	1	0	1	0	1530,74	0,797031879	0,797547936	0,34362852456979418	2	-0,137758315	0,000274060207
2	1	0	1	0	1532,14	0,81103301	0,81119132	0,41336767484123539	2	-0,137227535	0,000335320277
2	1	0	0	0	1533,54	0,825033963	0,825546443	0,48123325950776416	2	-0,13660036	0,000397280412
2	1	0	0	0	1534,94	0,839035094	0,839199841	0,5477890269830832	2	-0,135879144	0,000459704461
2	1	0	1	0	1536,34	0,853036225	0,85371542	0,61294045237203494	2	-0,135065824	0,000523276743
2	1	0	1	0	1537,74	0,867037177	0,867398918	0,6769554722122857	2	-0,134162351	0,000587190443
2	1	0	0	0	1539,14	0,881038308	0,881393135	0,7393580192389591	2	-0,133170232	0,00065166509
2	1	0	0	0	1540,54	0,895039439	0,895547748	0,80049260674665318	2	-0,132091463	0,000716879324
2	1	0	1	0	1541,94	0,909040391	0,909421742	0,86089742369949773	2	-0,130927399	0,000782918825
2	1	0	1	0	1543,34	0,923041523	0,923486233	0,92012371029704717	2	-0,129679918	0,000849721604
2	1	0	0	0	1544,74	0,937042654	0,937610626	0,9778859494253993	2	-0,128350317	0,000916876248
2	1	0	0	0	1546,17	0,951343656	0,951695144	1,0366983019436304	2	-0,126908854	0,000986620784
2	1	0	1	0	1547,57	0,965344787	0,965889871	1,0919988093276821	2	-0,125417501	0,00105475064
2	1	0	0	0	1548,97	0,979345798	0,979733825	1,146717689620953	2	-0,123849399	0,00112347805
2	1	0	0	0	1550,37	0,99334687	0,993707955	1,2004242933665683	2	-0,122205764	0,00119287113
2	1	0	1	0	1551,77	1,00734794	1,00780249	1,2527625253424048	2	-0,120487653	0,0012625372
2	1	0	1	0	1553,17	1,02134895	1,02182674	1,3044399078935344	2	-0,118696928	0,00133291155
2	1	0	0	0	1554,57	1,03535008	1,03569067	1,3552995901554811	2	-0,116834193	0,00140367111
2	1	0	0	0	1555,97	1,0493511	1,04979527	1,406081545787555	2	-0,1149005	0,00147609774
2	1	0	1	0	1557,37	1,06335223	1,06379938	1,4557062160844598	2	-0,112896174	0,00154857943
2	1	0	1	0	1558,77	1,07735324	1,07771349	1,5038990521182605	2	-0,110823594	0,00162077229
2	1	0	0	0	1560,17	1,09135425	1,09174788	1,5490956769014374	2	-0,108685113	0,00169122196
2	1	0	0	0	1561,57	1,10535526	1,10589254	1,587487551694103	2	-0,106488049	0,00175559067
2	1	0	1	0	1562,98	1,11935639	1,11984658	1,6153131189445632	2	-0,104243822	0,00180890283
2	1	0	1	0	1564,38	1,13335752	1,133901	1,6315762475133014	2	-0,101968952	0,00185004598
2	1	0	0	0	1565,78	1,14735866	1,14773488	1,6351969651877808	2	-0,0996801034	0,00187677261
2	1	0	1	0	1567,18	1,16135967	1,16161883	1,6266059667368698	2	-0,0973949581	0,00188949611
2	1	0	1	0	1568,58	1,17536068	1,17588377	1,6075268617520778	2	-0,0951297283	0,0018902648
2	1	0	0	0	1569,98	1,18936169	1,18980789	1,580355050042271	2	-0,0928965956	0,00188031886
2	1	0	0	0	1571,38	1,20336282	1,20377195	1,5502399193743875	2	-0,0907042027	0,00186613528
2	1	0	1	0	1572,78	1,21736395	1,21764588	1,5190126753101715	2	-0,0885548815	0,00184961956
2	1	0	1	0	1574,18	1,23136508	1,23174024	1,486750203495223	2	-0,086450316	0,00183129008
2	1	0	0	0	1575,58	1,2453661	1,24563432	1,455312213550009	2	-0,0843903348	0,0018127868
2	1	0	0	0	1576,98	1,25936711	1,26012981	1,4263547863811254	2	-0,0823732689	0,00179739215
2	1	0	1	0	1578,38	1,27336812	1,27371311	1,4021178750942074	2	-0,0803932995	0,0017858959
2	1	0	1	0	1579,78	1,28736925	1,28790784	1,3841625188166926	2	-0,0784433931	0,00178267376
2	1	0	0	0	1581,18	1,30137026	1,30176175	1,3722411692142486	2	-0,0765138492	0,00178633106
2	1	0	0	0	1582,58	1,31537139	1,31553543	1,3652797173708714	2	-0,0745977089	0,00179607386
2	1	0	1	0	1583,98	1,32937253	1,32972014	1,3610300580039621	2	-0,0726889595	0,0018097891
2	1	0	1	0	1585,38	1,34337354	1,3438046	1,359494551705815	2	-0,0707843974	0,00182689505
2	1	0	0	0	1586,78	1,35737455	1,35787916	1,3589030448347326	2	-0,0688808337	0,00184522616
2	1	0	1	0	1588,18	1,37137568	1,37160265	1,3588964926699782	2	-0,0669776276	0,001863866
2	1	0	1	0	1589,58	1,38537669	1,3857373	1,3591357413679344	2	-0,065074563	0,00188340514
2	1	0	0	0	1590,98	1,39937782	1,39992189	1,359003112340968	2	-0,0631710067	0,00190249819
2	1	0	0	0	1592,38	1,41337895	1,41369569	1,3586134143794589	2	-0,0612680763	0,00192066596
2	1	0	1	0	1593,78	1,42737997	1,42794049	1,3574749439333917	2	-0,0593658499	0,00193839346
2	1	0	1	0	1595,18	1,4413811	1,4418546	1,3565987432375533	2	-0,0574654862	0,00195601815
2	1	0	0	0	1596,58	1,45538211	1,45601928	1,3556676357984578	2	-0,0555665009	0,00197387813
2	1	0	0	0	1597,98	1,46938312	1,46971273	1,3591365913550053	2	-0,0536665283	0,00199754047
2	1	0	1	0	1599,38	1,48338425	1,48370695	1,3682658715794469	2	-0,0517574064	0,00203010556
2	1	0	1	0	1600,78	1,49738526	1,49766111	1,3826259790609256	2	-0,0498318188	0,00207070517
2	1	0	0	0	1602,18	1,51138639	1,51173556	1,3997413851320672	2	-0,0478835478	0,00211603893
2	1	0	0	0	1603,58	1,52538753	1,5257498	1,418430717972413	2	-0,0459102318	0,00216417038
2	1	0	1	0	1604,98	1,53938854	1,53970397	1,4358651451766438	2	-0,043910943	0,00221080729
2	1	0	0	0	1606,38	1,55338955	1,5538888	1,4488351184005578	2	-0,0418902077	0,00225132867
2	1	0	0	0	1607,78	1,56739056	1,56776249	1,4540841883669274	2	-0,0398569852	0,00227965857
2	1	0	1	0	1609,18	1,58139169	1,58176672	1,4496311020727002	2	-0,0378221385	0,00229297834
2	1	0	1	0	1610,58	1,59539282	1,59605181	1,4327135446170942	2	-0,0358022451	0,00228668517
2	1	0	0	0	1611,98	1,60939395	1,60988569	1,39879937314738	2	-0,0338175371	0,00225190702
2	1	0	0	0	1613,38	1,62339485	1,62400019	1,3457739815736787	2	-0,0318941437	0,00218553725
2	1	0	1	0	1614,78	1,63739598	1,637784	1,2745251590386037	2	-0,0300572664	0,0020873968
2	1	0	1	0	1616,18	1,65139687	1,65167785	1,1853532039870842	2	-0,0283326432	0,00195782166
2	1	0	0	0	1617,58	1,665398	1,66581249	1,078133778957028	2	-0,0267460775	0,00179596874
2	1	0	0	0	1618,98	1,67939913	1,67976665	0,95926413033157235	2	-0,0253186617	0,00161133986
2	1	0	1	0	1620,38	1,69340026	1,69377077	0,8337888652458752	2	-0,0240619387	0,00141224719
2	1	0	1	0	1621,78	1,70740128	1,70781529	0,69069351193805504	2	-0,0229918733	0,00117957697
2	1	0	0	0	1623,18	1,72140241	1,72162902	0,52716097965215526	2	-0,0221381243	0,000907575653
2	1	0	0	0	1624,62	1,73580408	1,73629582	0,38020509288827053	2	-0,021490721	0,000660148507
2	1	0	1	0	1626,02	1,74980462	1,75024915	0,28516134666278915	2	-0,0210305806	0,000499103393
2	1	0	0	0	1627,42	1,76380551	1,76430357	0,23305508843623101	2	-0,020671485	0,000411179935
2	1	0	0	0	1628,82	1,77780664	1,77813721	0,20450151370217373	2	-0,0203664191	0,000363631756
2	1	0	1	0	1630,22	1,79180777	1,79208159	0,18538444896694227	2	-0,0200936943	0,000332224066
2	1	0	1	0	1631,62	1,8058089	1,80629635	0,17016639156887936	2	-0,0198447034	0,000307370938
2	1	0	0	0	1633,02	1,81980979	1,82019043	0,15757457822716464	2	-0,0196150225	0,000286815746
2	1	0	0	0	1634,42	1,83381093	1,8342247	0,14693256851751379	2	-0,0194016527	0,000269507349
2	1	0	1	0	1635,82	1,84781194	1,84836924	0,13767320309610387	2	-0,0192022659	0,000254470913
2	1	0	1	0	1637,22	1,86181307	1,8622632	0,12935282709077	2	-0,0190150999	0,000240889014
2	1	0	0	0	1638,62	1,8758142	1,87619734	0,12230351998005061	2	-0,0188385956	0,000229465542
2	1	0	0	0	1640,02	1,88981533	1,89038193	0,11598961420046838	2	-0,0186715517	0,000219264664
2	1	0	1	0	1641,42	1,90381622	1,90436614	0,11041576908125173	2	-0,0185128655	0,000210272046
2	1	0	1	0	1642,82	1,91781735	1,91839051	0,10526059373902806	2	-0,0183616448	0,000201930918
2	1	0	0	0	1644,22	1,93181849	1,93229485	0,10066535797280562	2	-0,0182170495	0,000194515145
2	1	0	0	0	1645,62	1,94581974	1,94620812	0,096735947102704026	2	-0,0180784184	0,000188268285
2	1	0	1	0	1647,02	1,95982063	1,9601326	0,093215976841747533	2	-0,017945122	0,000182715681
2	1	0	0	0	1648,42	1,97382176	1,97450793	0,089890929695684685	2	-0,0178165715	0,00017749035
2	1	0	0	0	1649,82	1,98782265	1,98831165	0,087134890723973402	2	-0,01769224	0,000173251319
2	1	0	1	0	1651,22	2,0018239	2,00221562	0,084615916673404339	2	-0,0175717063	0,000169419305
2	1	0	1	0	1652,62	2,01582479	2,01620007	0,082290170326208	2	-0,0174546205	0,000165913443
2	1	0	0	0	1654,02	2,02982593	2,03029418	0,079890670235423949	2	-0,0173407458	0,00016220157
2	1	0	0	0	1655,42	2,04382706	2,04408813	0,077863062033429517	2	-0,0172299072	0,000159158953
2	1	0	1	0	1656,82	2,05782819	2,05828285	0,076003429673922266	2	-0,0171218552	0,000156436552
2	1	0	1	0	1658,22	2,07182908	2,07228732	0,07405088384014857	2	-0,017016422	0,000153454705
2	1	0	0	0	1659,62	2,08583021	2,08637166	0,072400943977602995	2	-0,0169133432	0,000151055283
2	1	0	0	0	1661,02	2,0998311	2,10023546	0,071066334261559117	2	-0,0168124977	0,00014925604
2	1	0	1	0	1662,42	2,11383224	2,11438012	0,069693403861795571	2	-0,0167135652	0,000147358354
2	1	0	0	0	1663,82	2,12783456	2,12821603	0,068555409392738522	2	-0,0166164562	0,000145900718
2	1	0	0	0	1665,22	2,1418345	2,14227843	0,06732171756448215	2	-0,0165209733	0,000144221864
2	1	0	1	0	1666,62	2,15583563	2,1562326	0,066339007986243763	2	-0,0164269861	0,000143042329
2	1	0	1	0	1668,02	2,16983652	2,170367	0,065446945411773875	2	-0,0163343754	0,000142043893
2	1	0	0	0	1669,42	2,18383765	2,18435121	0,064612154848873395	2	-0,016243007	0,000141135635
2	1	0	0	0	1670,82	2,19783854	2,19826531	0,063737294151602458	2	-0,016152801	0,000140111486
2	1	0	1	0	1672,22	2,21183968	2,21229959	0,063116836419794266	2	-0,0160635803	0,000139633354
2	1	0	1	0	1673,62	2,22584081	2,2263341	0,062295729837690496	2	-0,0159753226	0,000138691103
2	1	0	0	0	1675,02	2,23984194	2,24044871	0,061902200938978688	2	-0,0158878919	0,000138688702
2	1	0	0	0	1676,42	2,25384307	2,25442266	0,061298970967376026	2	-0,0158012286	0,000138193791
2	1	0	1	0	1677,82	2,26784396	2,26851702	0,060899778036400448	2	-0,0157151874	0,000138152187
2	1	0	1	0	1679,22	2,28184509	2,28218079	0,060621613267964339	2	-0,0156297348	0,000138349482
2	1	0	0	0	1680,62	2,29584622	2,29618502	0,060288700003487296	2	-0,0155447153	0,000138434014
2	1	0	0	0	1682,02	2,30984735	2,31012917	0,060064325012111117	2	-0,015460046	0,000138756353
2	1	0	1	0	1683,42	2,32384849	2,3240633	0,059971647434091891	2	-0,0153755853	0,000139377909
2	1	0	0	0	1684,82	2,33784986	2,33822894	0,059903939218775898	2	-0,0152912857	0,000140069125
2	1	0	0	0	1686,22	2,35185051	2,35244274	0,05988320877077047	2	-0,0152071435	0,000140871824
2	1	0	1	0	1687,62	2,3658514	2,36619616	0,059658968685350144	2	-0,0151230935	0,000141164826
2	1	0	1	0	1689,02	2,37985253	2,38005018	0,059452549554407373	2	-0,0150392167	0,000141500044
2	1	0	0	0	1690,42	2,39385366	2,39420462	0,05954920290969312	2	-0,0149553977	0,000142572972
2	1	0	0	0	1691,82	2,4078548	2,40839958	0,059629524553505011	2	-0,0148716317	0,000143611716
2	1	0	1	0	1693,23	2,42185593	2,42250395	0,059617366292513792	2	-0,0147877457	0,000144423306
2	1	0	1	0	1694,63	2,43585682	2,43635798	0,059874134332251968	2	-0,0147036631	0,00014587483
2	1	0	0	0	1696,03	2,44985795	2,45024204	0,060137657759090189	2	-0,0146192294	0,00014735182
2	1	0	0	0	1697,43	2,46385908	2,46432662	0,060647448466624845	2	-0,0145343784	0,000149455125
2	1	0	1	0	1698,83	2,47786021	2,47824025	0,060782688281809216	2	-0,0144490087	0,000150634107
2	1	0	1	0	1700,23	2,49186134	2,49235511	0,061181617085821926	2	-0,0143631538	0,000152486318
2	1	0	0	0	1701,63	2,50586224	2,50656986	0,061511487680642688	2	-0,0142769152	0,000154182839
2	1	0	1	0	1703,03	2,51986432	2,52018428	0,061634135480704627	2	-0,0141902538	0,000155329384
2	1	0	1	0	1704,43	2,53386426	2,53428769	0,061878121031137434	2	-0,0141032282	0,000156816954
2	1	0	0	0	1705,83	2,54786539	2,54849243	0,062309872747088435	2	-0,0140157463	0,000158796232
2	1	0	0	0	1707,23	2,56186628	2,56221604	0,062695487654612019	2	-0,0139278155	0,000160639378
2	1	0	1	0	1708,63	2,57586741	2,57634068	0,06318841222673632	2	-0,0138393231	0,00016279488
2	1	0	1	0	1710,03	2,58986855	2,59039497	0,063492581578126899	2	-0,0137502812	0,000164470868
2	1	0	0	0	1711,43	2,60386968	2,6043191	0,063891678893317696	2	-0,0136606097	0,000166394326
2	1	0	0	0	1712,83	2,61787081	2,61817288	0,064533823189170445	2	-0,0135703105	0,000168960702
2	1	0	1	0	1714,23	2,63187194	2,63226748	0,065012577086841933	2	-0,0134793231	0,000171130494
2	1	0	1	0	1715,63	2,64587307	2,64626145	0,065431053420373478	2	-0,0133876186	0,00017314768
2	1	0	0	0	1717,03	2,6598742	2,66038609	0,066052989355133043	2	-0,0132951522	0,000175726454
2	1	0	0	0	1718,43	2,67387509	2,67448068	0,066473981152133094	2	-0,0132019036	0,000177783382
2	1	0	1	0	1719,83	2,68787622	2,68818426	0,067228051717393318	2	-0,01310784	0,000180721385
2	1	0	1	0	1721,23	2,70187712	2,70224881	0,06773572663466121	2	-0,0130129121	0,000183038792
2	1	0	0	0	1722,63	2,71587825	2,71638346	0,068411060880559155	2	-0,0129171219	0,000185830679
2	1	0	1	0	1724,03	2,72987986	2,73014808	0,069152685101342208	2	-0,0128204292	0,000188797072
2	1	0	1	0	1725,43	2,74388027	2,74455214	0,069810392606692416	2	-0,0127228573	0,000191598258
2	1	0	0	0	1726,83	2,7578814	2,75832582	0,070318364091993318	2	-0,0126243271	0,000193960965
2	1	0	0	0	1728,23	2,77188253	2,77232003	0,071134663672031027	2	-0,0125248609	0,00019720805
2	1	0	1	0	1729,63	2,78588367	2,78632426	0,071805501511941427	2	-0,0124244243	0,000200073409
2	1	0	1	0	1731,03	2,79988456	2,80017853	0,072622602165211213	2	-0,0123230079	0,000203356249
2	1	0	0	0	1732,43	2,81388569	2,81434298	0,07318290202723177	2	-0,0122206062	0,000205961784
2	1	0	0	0	1733,83	2,82788682	2,82835698	0,073823363520204966	2	-0,0121171949	0,000208798825
2	1	0	1	0	1735,23	2,84188795	2,84234142	0,074688992831700723	2	-0,0120127313	0,000212291619
2	1	0	1	0	1736,63	2,85588908	2,8564961	0,075527824364447168	2	-0,0119071789	0,000215744934
2	1	0	0	0	1738,03	2,86988997	2,87044048	0,076195509386403955	2	-0,0118005415	0,000218714675
2	1	0	0	0	1739,43	2,88389111	2,88421392	0,077108303822266406	2	-0,0116927624	0,000222396848
2	1	0	1	0	1740,83	2,89789224	2,89831829	0,077998571272474125	2	-0,0115838265	0,000226064687
2	1	0	0	0	1742,23	2,91189432	2,91242385	0,078803187008631424	2	-0,0114737013	0,000229508281
2	1	0	0	0	1743,63	2,92589426	2,92641711	0,079674018546939008	2	-0,011362385	0,000233159415
2	1	0	1	0	1745,03	2,93989539	2,94034123	0,080574725851571443	2	-0,0112497741	0,000236917185
2	1	0	1	0	1746,43	2,95389652	2,95421529	0,081590987741947123	2	-0,0111358687	0,000241037342
2	1	0	0	0	1747,83	2,96789742	2,96846008	0,082397296520260339	2	-0,0110206297	0,000244593073
2	1	0	0	0	1749,23	2,98189855	2,98228383	0,083355171625347341	2	-0,0109040225	0,000248588767
2	1	0	1	0	1750,63	2,99589968	2,99622822	0,08450647608454665	2	-0,0107859457	0,000253200677
2	1	0	1	0	1752,03	3,00990081	3,01050282	0,085735759368010918	2	-0,0106663099	0,000258107757
2	1	0	0	0	1753,43	3,02390194	3,02428675	0,086978981426606208	2	-0,0105450824	0,000263049384
2	1	0	0	0	1754,83	3,03790283	3,03848124	0,088129803460712307	2	-0,0104221143	0,000267780764
2	1	0	1	0	1756,23	3,05190396	3,0520947	0,08946039715859433	2	-0,0102973748	0,000273041602
2	1	0	1	0	1757,63	3,06590509	3,06633949	0,090883247496094042	2	-0,0101707634	0,000278678897
2	1	0	0	0	1759,03	3,07990599	3,08053398	0,092336506873834662	2	-0,010042184	0,000284445734
2	1	0	0	0	1760,43	3,09390712	3,0942781	0,093641663688079693	2	-0,00991162285	0,000289753341
2	1	0	1	0	1761,83	3,10790825	3,10815191	0,095235696663924506	2	-0,00977895968	0,000296007027
2	1	0	0	0	1763,23	3,12190986	3,12234783	0,096609495635670592	2	-0,00964417215	0,000301648455
2	1	0	0	0	1764,63	3,13591003	3,13635039	0,098455938394181427	2	-0,00950712431	0,000308792311
2	1	0	1	0	1766,03	3,14991117	3,15021443	0,10009455234588405	2	-0,00936767831	0,00031531931
2	1	0	1	0	1767,43	3,1639123	3,16442943	0,10200983836936483	2	-0,00922571495	0,000322802924
2	1	0	0	0	1768,83	3,17791343	3,17847371	0,104048307597016	2	-0,00908110198	0,0003307148
2	1	0	0	0	1770,23	3,19191432	3,19236803	0,10609392065089206	2	-0,00893365964	0,00033869085
2	1	0	1	0	1771,63	3,20591545	3,20636201	0,10821840791807813	2	-0,0087832436	0,000346987392
2	1	0	1	0	1773,03	3,21991658	3,22041655	0,1105938076895352	2	-0,00862963963	0,000356158125
2	1	0	0	0	1774,43	3,23391771	3,23430037	0,11321337241679453	2	-0,00847260281	0,000366166059
2	1	0	0	0	1775,83	3,24791884	3,24855518	0,11600252993715264	2	-0,00831188168	0,000376840617
2	1	0	1	0	1777,23	3,26191998	3,26237917	0,11885206653581304	2	-0,00814711116	0,000387740496
2	1	0	1	0	1778,63	3,27592111	3,2763133	0,1219520832722385	2	-0,00797804911	0,000399553246
2	1	0	0	0	1780,03	3,28992224	3,29032755	0,12558377910560648	2	-0,00780423963	0,000413211761
2	1	0	1	0	1781,43	3,30392408	3,30437231	0,12939025431445714	2	-0,00762536051	0,000427553576
2	1	0	1	0	1782,83	3,31792402	3,31816578	0,1333910175599149	2	-0,00744095026	0,000442613498
2	1	0	0	0	1784,23	3,33192515	3,33256078	0,13791437105586102	2	-0,00725053856	0,000459608011
2	1	0	0	0	1785,63	3,34592605	3,34653497	0,14264030513974534	2	-0,00705374172	0,000477350783
2	1	0	1	0	1787,03	3,35992718	3,36059928	0,14780466638815827	2	-0,00685010105	0,00049671228
2	1	0	1	0	1788,43	3,37392831	3,37439322	0,15304167762709242	2	-0,00663915742	0,000516422791
2	1	0	0	0	1789,83	3,38792944	3,38859797	0,15889366324214893	2	-0,00642034831	0,000538426742
2	1	0	0	0	1791,23	3,40193057	3,40256238	0,16510166134685277	2	-0,00619321968	0,000561768713
2	1	0	1	0	1792,63	3,4159317	3,41631579	0,17136894197513629	2	-0,00595725793	0,000585450442
2	1	0	1	0	1794,03	3,42993283	3,43052053	0,17799108863497782	2	-0,00571214594	0,000610602088
2	1	0	0	0	1795,43	3,44393396	3,44427443	0,18502745001266394	2	-0,00545743806	0,000637285295
2	1	0	0	0	1796,83	3,45793462	3,45843911	0,19210171866385885	2	-0,00519303139	0,000664372114
2	1	0	1	0	1798,23	3,47193575	3,47250319	0,19944613310508342	2	-0,00491855294	0,000692577334
2	1	0	1	0	1799,63	3,48593688	3,48636723	0,20683231367729517	2	-0,00463377638	0,000721093384
2	1	0	0	0	1801,03	3,49993801	3,50040197	0,2147103435515112	2	-0,00433819555	0,000751572486
2	1	0	1	0	1802,43	3,51393962	3,51429534	0,22296525868247309	2	-0,00403140439	0,000783565745
2	1	0	1	0	1803,83	3,52794003	3,52847052	0,23143721534870566	2	-0,00371303596	0,000816619373
2	1	0	0	0	1805,23	3,54194117	3,54252481	0,24013693452191808	2	-0,00338248466	0,000850691053
2	1	0	0	0	1806,63	3,5559423	3,55648875	0,2494043455614392	2	-0,00303939288	0,000887003727
2	1	0	1	0	1808,03	3,56994343	3,57038283	0,25872053912219872	2	-0,00268318015	0,000923731364
2	1	0	1	0	1809,43	3,58394456	3,58427668	0,26866664395978022	2	-0,00231353706	0,00096297561
2	1	0	0	0	1810,83	3,59794569	3,59837151	0,27862818104525466	2	-0,00192992529	0,00100260775
2	1	0	0	0	1812,23	3,61194682	3,61245561	0,28884326821813965	2	-0,00153216661	0,00104343344
2	1	0	1	0	1813,63	3,62594748	3,62645006	0,29925203354408314	2	-0,0011199587	0,00108522258
2	1	0	1	0	1815,03	3,63994861	3,6402638	0,3092632497816039	2	-0,0006936469	0,00112579984
2	1	0	0	0	1816,43	3,65394974	3,65446877	0,31855318935898413	2	-0,000253558363	0,00116414274
2	1	0	0	0	1817,83	3,66795087	3,66848278	0,32727898269270829	2	0,00019913321	0,00120061729
2	1	0	1	0	1819,23	3,68195176	3,68260741	0,33476639321694579	2	0,000663175771	0,00123281323
2	1	0	0	0	1820,63	3,69595361	3,69626164	0,34118979651454406	2	0,001136865	0,00126112672
2	1	0	0	0	1822,03	3,70995402	3,71026492	0,34615829431762304	2	0,00161843724	0,001284339
2	1	0	1	0	1823,44	3,72395515	3,72437978	0,35024839243851603	2	0,00210662512	0,00130445801
2	1	0	1	0	1824,84	3,73795629	3,73839378	0,35387806082144378	2	0,0026000631	0,00132293557
2	1	0	0	0	1826,24	3,75195742	3,75249863	0,35707796512482125	2	0,00309830066	0,00133993453
2	1	0	0	0	1827,64	3,76595855	3,76630235	0,35981279440845069	2	0,00360058481	0,00135516375
2	1	0	1	0	1829,04	3,77995968	3,78034663	0,36258627862358938	2	0,00410681218	0,00137070182
2	1	0	1	0	1830,44	3,79396033	3,79431081	0,3651955981428423	2	0,00461662887	0,00138566562
2	1	0	0	0	1831,84	3,80796146	3,80841517	0,36783397484881178	2	0,00513015641	0,00140086445
2	1	0	0	0	1833,24	3,82196259	3,82274032	0,37038851529359904	2	0,00564729422	0,00141589914
2	1	0	1	0	1834,64	3,83596373	3,83657432	0,3731374547351143	2	0,00616830122	0,00143156957
2	1	0	1	0	1836,04	3,84996438	3,85070872	0,37609834169658554	2	0,00669316947	0,00144824514
2	1	0	0	0	1837,44	3,86396551	3,86428237	0,37884223406823917	2	0,00722212903	0,00146395341
2	1	0	0	0	1838,84	3,87796664	3,87840676	0,38166243443265382	2	0,00775508909	0,00148024212
2	1	0	1	0	1840,24	3,89196777	3,89260149	0,38485842958713504	2	0,00829231925	0,00149810046
2	1	0	0	0	1841,64	3,90596938	3,90660715	0,38808020812479795	2	0,00883390848	0,00151607697
2	1	0	0	0	1843,04	3,91997004	3,92048979	0,3914351258426887	2	0,00937986281	0,00153461739
2	1	0	1	0	1844,44	3,93397117	3,93448377	0,39474994456395418	2	0,00993064139	0,0015531372
2	1	0	1	0	1845,84	3,9479723	3,94851804	0,39831869676709178	2	0,0104861865	0,00157276855
2	1	0	0	0	1847,24	3,96197319	3,96240187	0,40205867945526829	2	0,011046919	0,00159311807
2	1	0	0	0	1848,64	3,97597432	3,97657657	0,40596453519538048	2	0,0116128493	0,00161434908
2	1	0	1	0	1850,04	3,98997545	3,9906013	0,40965568072473069	2	0,0121842492	0,00163477252
2	1	0	1	0	1851,44	4,00397635	4,00430441	0,41370989397788979	2	0,0127610276	0,0016566203
2	1	0	0	0	1852,84	4,01797771	4,01847935	0,41739958027998547	2	0,0133433435	0,00167731161
2	1	0	0	0	1854,24	4,03197813	4,03256226	0,42151422475343027	2	0,0139310965	0,00169978233
2	1	0	1	0	1855,64	4,04597998	4,04658794	0,42543595082436966	2	0,0145245222	0,00172156398
2	1	0	0	0	1857,04	4,05998182	4,06053257	0,42966980411840218	2	0,0151237296	0,00174468826
2	1	0	0	0	1858,44	4,07398176	4,07464647	0,43365081182370522	2	0,0157285035	0,00176697376
2	1	0	1	0	1859,84	4,08798313	4,08854198	0,43727331757725005	2	0,0163387004	0,00178781035
2	1	0	1	0	1861,24	4,10198402	4,10237455	0,44035035884007814	2	0,0169535875	0,00180648209
2	1	0	0	0	1862,64	4,11598492	4,11649942	0,44295700996493357	2	0,0175725166	0,00182343228
2	1	0	0	0	1864,04	4,12998581	4,13036346	0,4451612960547191	2	0,0181946345	0,00183867791
2	1	0	1	0	1865,44	4,14398718	4,14464808	0,44717479062577056	2	0,0188196432	0,0018533821
2	1	0	0	0	1866,84	4,1579895	4,15841389	0,44899854751102272	2	0,019447377	0,00186712178
2	1	0	0	0	1868,24	4,17198944	4,17238569	0,451048418103408	2	0,0200778805	0,00188194797
2	1	0	0	0	1869,64	4,18598938	4,18663025	0,45376878150478637	2	0,0207117368	0,00189976208
2	1	0	1	0	1871,02	4,1998415	4,20048475	0,45667534942428122	2	0,021342678	0,0019182578
2	0	0	1	1	1872,37	4,18669128	4,18704271	0,35095286148886394	2	0,0218733121	0,00146945461
2	0	0	0	1	1873,77	4,17268944	4,17329788	0,28810960357077443	2	0,0223176591	0,00120236725
2	0	0	1	1	1875,17	4,15868807	4,15941429	0,24229918494703962	2	0,0226869565	0,00100782269
2	0	0	1	1	1876,57	4,14468718	4,14527941	0,20722962923658384	2	0,0229999945	0,000859024702
2	0	0	0	1	1877,97	4,13068628	4,13117504	0,17929656384512694	2	0,0232692733	0,000740705465
2	0	0	0	1	1879,37	4,11668491	4,11707067	0,15687300714974662	2	0,0235035289	0,000645857246
2	0	0	1	1	1880,77	4,10268402	4,10323668	0,1383203880783791	2	0,0237092692	0,000567561307
2	0	0	1	1	1882,17	4,08868265	4,08912182	0,12263613423177366	2	0,0238911211	0,000501474075
2	0	0	0	1	1883,57	4,07468224	4,07522821	0,10921520553529274	2	0,024052849	0,000445076876
2	0	0	0	1	1884,97	4,06068087	4,06131411	0,097819951828569178	2	0,024197204	0,000397277559
2	0	0	1	1	1886,37	4,04667997	4,04704952	0,087711525518291648	2	0,0243264772	0,000354972901
2	0	0	1	1	1887,77	4,03267813	4,03319454	0,078822006521804826	2	0,0244425051	0,000317904487
2	0	0	0	1	1889,17	4,01867771	4,01921082	0,070793866063468045	2	0,0245467778	0,000284535461
2	0	0	0	1	1890,57	4,0046773	4,0050292	0,063949172392493875	2	0,0246406104	0,000256118306
2	0	0	1	1	1891,97	3,99067545	3,99118233	0,057680357887875238	2	0,0247251205	0,000230212827
2	0	0	0	1	1893,37	3,97667432	3,9769876	0,051887438477327354	2	0,0248011947	0,000206355704
2	0	0	0	1	1894,81	3,96227336	3,96264267	0,046460225334158278	2	0,0248714648	0,000184105273
2	0	0	1	1	1896,21	3,94827223	3,94876885	0,041656327385377613	2	0,0249327812	0,000164491212
2	0	0	1	1	1897,61	3,9342711	3,93484473	0,03753312031039968	2	0,0249878205	0,000147686995
2	0	0	0	1	1899,01	3,92026997	3,92086053	0,033679242789124403	2	0,0250372272	0,000132051617
2	0	0	0	1	1900,41	3,90626884	3,90695667	0,030126416560960826	2	0,0250814557	0,000117702606
2	0	0	1	1	1901,81	3,8922677	3,89289212	0,026862655979736362	2	0,0251209866	0,000104573424
2	0	0	1	1	1903,21	3,87826657	3,87870741	0,023967187376304931	2	0,0251562111	9,2961709E-005
2	0	0	0	1	1904,61	3,86426592	3,86492372	0,021309594153232554	2	0,0251875035	8,23599548E-005
2	0	0	0	1	1906,01	3,85026479	3,85074902	0,019024284401287686	2	0,0252152253	7,32577464E-005
2	0	0	1	1	1907,41	3,83626366	3,83664441	0,016587546764640083	2	0,0252396576	6,36405166E-005
2	0	0	0	1	1908,81	3,82226181	3,82281899	0,014627151410955773	2	0,0252610985	5,5916953E-005
2	0	0	0	1	1910,21	3,80826163	3,8087461	0,012736205225034269	2	0,0252797101	4,85089731E-005
2	0	0	1	1	1911,61	3,7942605	3,79467154	0,01086370429887512	2	0,0252957661	4,12241898E-005
2	0	0	1	1	1913,01	3,78025937	3,78072762	0,0091570958029478234	2	0,0253094137	3,46204833E-005
2	0	0	0	1	1914,41	3,76625824	3,76680374	0,0076331644183180096	2	0,0253208335	2,87526327E-005
2	0	0	0	1	1915,81	3,75225711	3,75276899	0,0062129593352437952	2	0,0253301244	2,33158007E-005
2	0	0	1	1	1917,25	3,73785639	3,73851418	0,0045623261466971462	2	0,0253375731	1,70563217E-005
2	0	0	1	1	1918,65	3,72385526	3,72449994	0,0031048009720204134	2	0,0253428686	1,15638313E-005
2	0	0	0	1	1920,05	3,70985413	3,71027541	0,0018986104617700614	2	0,0253462344	7,04436752E-006
2	0	0	0	1	1921,45	3,69585299	3,69631076	0,00057817170916981376	2	0,0253477506	2,13710223E-006
2	0	0	1	1	1922,85	3,68185186	3,6822865	-0,00078567985504681203	2	0,0253473967	2,89309833E-006
2	0	0	1	1	1924,25	3,66785073	3,66839266	-0,0021714447436049085	2	0,0253452063	7,96571203E-006
2	0	0	0	1	1925,65	3,6538496	3,65418792	-0,0035675352955877382	2	0,0253411867	1,30364442E-005
2	0	0	0	1	1927,05	3,63984942	3,640275	-0,0047381548172763904	2	0,0253353752	1,72481869E-005
2	0	0	1	1	1928,45	3,62584758	3,62625957	-0,0058555927328901299	2	0,0253278017	2,12339E-005
2	0	0	0	1	1929,85	3,61184645	3,61205482	-0,0072088536383428941	2	0,0253185425	2,60387751E-005
2	0	0	0	1	1931,25	3,59784579	3,59833121	-0,0083543499810427021	2	0,0253076516	3,00617176E-005
2	0	0	1	1	1932,65	3,58384466	3,58425665	-0,0093661348970878054	2	0,0252952147	3,35706318E-005
2	0	0	1	1	1934,09	3,56944346	3,57034278	-0,010080347456096206	2	0,0252809562	3,59902951E-005
2	0	0	0	1	1935,49	3,55544233	3,55607772	-0,010896358675381645	2	0,0252657197	3,87482978E-005
2	0	0	0	1	1936,89	3,5414412	3,54190302	-0,011891746148952123	2	0,0252492465	4,21194127E-005
2	0	0	1	1	1938,29	3,52744007	3,52786875	-0,012752794156161456	2	0,0252315868	4,49901854E-005
2	0	0	1	1	1939,69	3,51343894	3,51400471	-0,01344621995910239	2	0,0252128821	4,72500797E-005
2	0	0	0	1	1941,09	3,49943781	3,50001073	-0,014129707885634445	2	0,0251931455	4,94541309E-005
2	0	0	0	1	1942,49	3,48543692	3,48606658	-0,014824913547878794	2	0,0251724869	5,16806358E-005
2	0	0	1	1	1943,89	3,47143579	3,47191191	-0,01553157809151648	2	0,0251509342	5,39242719E-005
2	0	0	1	1	1945,29	3,45743465	3,45769691	-0,016054647130658835	2	0,0251285266	5,55121042E-005
2	0	0	0	1	1946,69	3,44343352	3,44381332	-0,016556648862509322	2	0,0251053236	5,70180091E-005
2	0	0	0	1	1948,10	3,42943311	3,4300499	-0,017178235508724314	2	0,0250813328	5,89222036E-005
2	0	0	1	1	1949,50	3,41543174	3,41591477	-0,017502925028869299	2	0,0250566415	5,97885009E-005
2	0	0	0	1	1950,90	3,40143061	3,40167022	-0,018051556534677104	2	0,0250312127	6,14054443E-005
2	0	0	0	1	1952,30	3,38742948	3,38780618	-0,018561646536303101	2	0,0250050928	6,2883264E-005
2	0	0	1	1	1953,70	3,37342834	3,3737216	-0,019096467755540787	2	0,0249782652	6,44261672E-005
2	0	0	1	1	1955,10	3,35942721	3,36006832	-0,019667694500337034	2	0,0249508005	6,60847945E-005
2	0	0	0	1	1956,50	3,34542608	3,34573293	-0,020037784561282022	2	0,0249226522	6,70410736E-005
2	0	0	0	1	1957,90	3,33142495	3,33193946	-0,02050415252354776	2	0,0248938762	6,83185935E-005
2	0	0	1	1	1959,30	3,31742406	3,317765	-0,02104250563328	2	0,0248644371	6,98140866E-005
2	0	0	1	1	1960,70	3,30342293	3,30379081	-0,021457854997910032	2	0,024834387	7,08922671E-005
2	0	0	0	1	1962,10	3,2894218	3,28962564	-0,021873142458692611	2	0,0248037372	7,19544478E-005
2	0	0	0	1	1963,50	3,27542067	3,27555156	-0,022278282801077402	2	0,0247724634	7,29736639E-005
2	0	0	1	1	1964,90	3,26142001	3,26160741	-0,022527996198429491	2	0,0247406326	7,34774803E-005
2	0	0	1	1	1966,30	3,24742007	3,24786472	-0,023114168363036259	2	0,0247081984	7,50716936E-005
2	0	0	0	1	1967,70	3,23341775	3,23400974	-0,023492003019782784	2	0,024675196	7,59733666E-005
2	0	0	1	1	1969,10	3,21941662	3,21995521	-0,023849267823000758	2	0,0246416107	7,67935708E-005
2	0	0	1	1	1970,50	3,20541549	3,20615172	-0,024329079159845933	2	0,0246075206	7,80027185E-005
2	0	0	0	1	1971,90	3,19141436	3,19178653	-0,024695850346082237	2	0,0245728679	7,88238831E-005
2	0	0	0	1	1973,30	3,17741323	3,17801261	-0,025053291901713238	2	0,0245377105	7,96196764E-005
2	0	0	1	1	1974,70	3,16341209	3,16406846	-0,025363871439670506	2	0,0245020464	8,02530267E-005
2	0	0	1	1	1976,10	3,14941144	3,14977336	-0,025729834024484032	2	0,0244659018	8,10431447E-005
2	0	0	0	1	1977,50	3,13541031	3,1357491	-0,026135822641663238	2	0,0244293064	8,19553825E-005
2	0	0	0	1	1978,90	3,12140918	3,12168503	-0,02627583676561096	2	0,0243922491	8,20248897E-005
2	0	0	1	1	1980,30	3,10740805	3,10766077	-0,026465387180602928	2	0,0243548099	8,22454458E-005
2	0	0	1	1	1981,70	3,09340715	3,09380674	-0,026891213540996829	2	0,0243169423	8,3196217E-005
2	0	0	0	1	1983,10	3,07940602	3,0799129	-0,027220364087649386	2	0,0242787004	8,38363485E-005
2	0	0	0	1	1984,50	3,06540561	3,06595969	-0,027435320746339254	2	0,0242400765	8,41155852E-005
2	0	0	1	1	1985,90	3,051404	3,05172396	-0,027651747087172106	2	0,0242011249	8,43855014E-005
2	0	0	0	1	1987,30	3,03740239	3,03780961	-0,027886921319372634	2	0,0241618268	8,47151605E-005
2	0	0	0	1	1988,70	3,02340174	3,02387571	-0,028228608561524426	2	0,0241222456	8,53598031E-005
2	0	0	1	1	1990,10	3,00940084	3,00975084	-0,028275628244349149	2	0,0240823776	8,5102598E-005
2	0	0	1	1	1991,50	2,99539971	2,99579716	-0,028483790423100176	2	0,0240422394	8,53316596E-005
2	0	0	0	1	1992,90	2,98139858	2,98186278	-0,028694129170617146	2	0,0240018535	8,55619583E-005
2	0	0	0	1	1994,30	2,96739745	2,96766829	-0,02870664672809664	2	0,0239612143	8,51918085E-005
2	0	0	1	1	1995,70	2,95339632	2,95356369	-0,028927989255559328	2	0,0239203759	8,54406608E-005
2	0	0	1	1	1997,10	2,93939519	2,93971992	-0,029088607804927334	2	0,0238792859	8,55123581E-005
2	0	0	0	1	1998,50	2,92539406	2,92613673	-0,02926831739023328	2	0,023838006	8,56430997E-005
2	0	0	0	1	1999,90	2,91139293	2,91178131	-0,029492164680656685	2	0,0237965211	8,58747371E-005
2	0	0	1	1	2001,30	2,89739203	2,89785719	-0,029557347986459149	2	0,0237549357	8,56529732E-005
2	0	0	1	1	2002,70	2,8833909	2,88399339	-0,029588777571916582	2	0,0237131286	8,53338424E-005
2	0	0	0	1	2004,10	2,86939001	2,8698988	-0,029778136629223238	2	0,0236711744	8,54602404E-005
2	0	0	0	1	2005,50	2,85539007	2,85590529	-0,029877537383353856	2	0,023629101	8,53274178E-005
2	0	0	1	1	2006,90	2,84138799	2,84184003	-0,029941249910431597	2	0,0235868897	8,50882425E-005
2	0	0	0	1	2008,30	2,82738686	2,82779574	-0,029975522765501722	2	0,0235445853	8,47646588E-005
2	0	0	0	1	2009,70	2,81338573	2,81389189	-0,029895478219259584	2	0,0235022046	8,41226429E-005
2	0	0	1	1	2011,10	2,79938459	2,79982758	-0,030108343945660947	2	0,0234597623	8,42981681E-005
2	0	0	1	1	2012,50	2,7853837	2,78573298	-0,030101591352528602	2	0,0234172232	8,38549968E-005
2	0	0	0	1	2013,90	2,77138257	2,77198935	-0,030124496717083488	2	0,0233746301	8,35047831E-005
2	0	0	0	1	2015,30	2,75738144	2,7579248	-0,030234615318477152	2	0,0233319607	8,33847953E-005
2	0	0	1	1	2016,70	2,74338031	2,74394059	-0,03034364899698039	2	0,0232892614	8,32611695E-005
2	0	0	1	1	2018,10	2,72937918	2,72982621	-0,030277707924445562	2	0,0232465137	8,26528776E-005
2	0	0	0	1	2019,50	2,71537805	2,71578193	-0,030301188118755872	2	0,0232037213	8,22914226E-005
2	0	0	0	1	2020,90	2,70137715	2,70174742	-0,030331058776937427	2	0,0231609046	8,19468623E-005
2	0	0	1	1	2022,30	2,68737602	2,68786359	-0,030476479024703936	2	0,0231180433	8,19166162E-005
2	0	0	1	1	2023,70	2,67337561	2,67382002	-0,030331832984668294	2	0,0230751503	8,11018617E-005
2	0	0	0	1	2025,10	2,659374	2,65991497	-0,03028467909704585	2	0,0230322089	8,05546733E-005
2	0	0	1	1	2026,50	2,64537287	2,64579058	-0,030454704004417523	2	0,0229892079	8,05767704E-005
2	0	0	1	1	2027,90	2,63137174	2,63178611	-0,030590220616431853	2	0,0229461212	8,05069212E-005
2	0	0	0	1	2029,30	2,61737084	2,61780214	-0,030618761918352333	2	0,0229029506	8,01538627E-005
2	0	0	0	1	2030,70	2,60336971	2,6039381	-0,030685401822362682	2	0,0228596479	7,99028858E-005
2	0	0	1	1	2032,10	2,58936858	2,59006429	-0,030835208221105856	2	0,0228162371	7,98651745E-005
2	0	0	1	1	2033,50	2,57536745	2,57595968	-0,031029980008800864	2	0,022772653	7,99319751E-005
2	0	0	0	1	2034,90	2,56136656	2,56165457	-0,031124834601845011	2	0,0227288734	7,97310713E-005
2	0	0	0	1	2036,30	2,54736543	2,54779077	-0,03123825043439865	2	0,0226848833	7,9588528E-005
2	0	0	1	1	2037,70	2,5333643	2,53381634	-0,031465563981328192	2	0,0226406287	7,97279572E-005
2	0	0	1	1	2039,10	2,51936316	2,5196116	-0,031515851442236442	2	0,0225961134	7,94077059E-005
2	0	0	0	1	2040,50	2,50536227	2,50585818	-0,031819548545172531	2	0,0225512739	7,97352768E-005
2	0	0	0	1	2041,90	2,49136114	2,49185371	-0,032054424625433344	2	0,0225061644	7,98749388E-005
2	0	0	1	1	2043,30	2,47736001	2,47764897	-0,03238922078162432	2	0,0224606171	8,02491195E-005
2	0	0	1	1	2044,70	2,46336007	2,46373558	-0,032773053963294106	2	0,0224146992	8,07441393E-005
2	0	0	0	1	2046,10	2,44935799	2,44974065	-0,032979666148700403	2	0,022368338	8,07916294E-005
2	0	0	1	1	2047,50	2,43535686	2,43592668	-0,033277749093637453	2	0,0223215614	8,10621568E-005
2	0	0	1	1	2048,90	2,42135572	2,42194271	-0,033672821252063558	2	0,0222743321	8,15536405E-005
2	0	0	0	1	2050,30	2,40735459	2,40799856	-0,034039591342055475	2	0,0222266316	8,1967286E-005
2	0	0	0	1	2051,70	2,3933537	2,39396429	-0,034315214715510022	2	0,0221784823	8,21493959E-005
2	0	0	1	1	2053,10	2,37935257	2,37983966	-0,034658870921703002	2	0,0221298039	8,24825547E-005
2	0	0	1	1	2054,50	2,36535144	2,36577511	-0,034897814427191974	2	0,0220806524	8,25603784E-005
2	0	0	0	1	2055,90	2,35135031	2,35177088	-0,03543852396736247	2	0,0220309664	8,3343286E-005
2	0	0	0	1	2057,30	2,33734941	2,33792734	-0,035787725384580083	2	0,0219807606	8,36691033E-005
2	0	0	1	1	2058,70	2,32334828	2,32371235	-0,03613674629984119	2	0,0219299924	8,39714048E-005
2	0	0	1	1	2060,10	2,30934715	2,30974793	-0,036602745569932147	2	0,0218786858	8,45431132E-005
2	0	0	0	1	2061,50	2,29534602	2,29564381	-0,036992139959086912	2	0,0218268037	8,4920779E-005
2	0	0	0	1	2062,90	2,28134561	2,28181982	-0,037420607652376787	2	0,0217743758	8,53870806E-005
2	0	0	1	1	2064,30	2,267344	2,26795578	-0,037795920963011206	2	0,0217213538	8,57194755E-005
2	0	0	0	1	2065,70	2,25334239	2,25385141	-0,038228556216565568	2	0,0216677468	8,61614826E-005
2	0	0	0	1	2067,10	2,23934174	2,2399075	-0,038746892144748467	2	0,0216135569	8,6789456E-005
2	0	0	1	1	2068,50	2,22534084	2,2258327	-0,039020955863331206	2	0,0215587523	8,68541174E-005
2	0	0	1	1	2069,90	2,21133995	2,21174836	-0,039367950802746464	2	0,0215033814	8,70720032E-005
2	0	0	0	1	2071,30	2,19733882	2,19772387	-0,039950136560946534	2	0,0214473605	8,77993662E-005
2	0	0	0	1	2072,70	2,18333769	2,18384004	-0,040435171589100147	2	0,021390751	8,83039465E-005
2	0	0	1	1	2074,10	2,16933656	2,16986585	-0,040871677241132832	2	0,0213334672	8,8686058E-005
2	0	0	1	1	2075,50	2,15533543	2,15582156	-0,041324815547947648	2	0,0212755464	8,90889278E-005
2	0	0	0	1	2076,90	2,1413343	2,14171696	-0,041771500225877613	2	0,021216942	8,94627301E-005
2	0	0	0	1	2078,30	2,12733316	2,12786293	-0,042444475819744806	2	0,0211576894	9,03160253E-005
2	0	0	1	1	2079,71	2,11333203	2,11369848	-0,042819703812711162	2	0,0210977253	9,05079432E-005
2	0	0	1	1	2080,16	2,10873246	2,10964918	-0,043521298095583917	2	0,0210782457	9,18146688E-005