File: Experimentelles/Rohdaten/Batterietests/AlteZelle/Studenten_Batterietests/LiCoO2 vs Li 300µm GCPL/ECLab-Export/LiCoO2 vs Li 300µm GCPL_02_GCPL_C04_loop10.mpt
EC-Lab ASCII FILE
Nb header lines : 3
mode	ox/red	error	control changes	Ns changes	counter inc.	Ns	time/s	control/V/mA	Ewe/V	dq/mA.h	<I>/mA	P/W	(Q-Qo)/mA.h	x	Capacity/mA.h
1	0	0	1	1	0	1	104770,74	-0,300000012	4,18331718	0	0	0	0	0	0
1	0	0	1	0	0	1	104790,74	-0,300000012	4,03211355	-0,00083291199481652838	-0,29984239165682931	0,00120899861	-0,0016617071921032653	6,2000529526454323E-005	0,0016617071921032653
1	0	0	1	0	0	1	104810,74	-0,300000012	4,00950718	-0,00083290381909741299	-0,2998394491821495	0,00120220846	-0,0033275181507635763	0,00012415417610072485	0,0033275181507635763
1	0	0	1	0	0	1	104830,74	-0,300000012	3,99346352	-0,00083290983879400627	-0,29984161658264122	0,00119740656	-0,0049933391320359693	0,00018630819663212768	0,0049933391320359693
1	0	0	1	0	0	1	104850,74	-0,300000012	3,9778204	-0,00083290115634103603	-0,29983848988626234	0,00119270361	-0,0066591452265019533	0,00024846166171676787	0,0066591452265019533
1	0	0	1	0	0	1	104870,74	-0,300000012	3,96460009	-0,00083290226370924058	-0,29983888964790138	0,0011887413	-0,008324949730952777	0,00031061506747580467	0,008324949730952777
1	0	0	1	0	0	1	104890,74	-0,300000012	3,95095992	-0,00083289642636312384	-0,29983678740710867	0,00118464313	-0,0099907443827442291	0,00037276810561887322	0,0099907443827442291
1	0	0	1	0	0	1	104910,74	-0,300000012	3,93989539	-0,0008329090346693993	-0,29984132611917005	0,00118134345	-0,011656549118141526	0,00043492151999483347	0,011656549118141526
1	0	0	1	0	0	1	104930,74	-0,300000012	3,92944121	-0,00083290018604364672	-0,29983814170306816	0,0011781964	-0,013322356970545514	0,00049707505067050406	0,013322356970545514
1	0	0	1	0	0	1	104950,74	-0,300000012	3,91957831	-0,0008329034434060256	-0,29983931321338528	0,00117524364	-0,014988156581652026	0,0005592282738522855	0,014988156581652026
1	0	0	1	0	0	1	104970,74	-0,300000012	3,91009712	-0,00083290711260173056	-0,29984063499130842	0,00117240602	-0,016653972574985885	0,0006213821082769952	0,016653972574985885
1	0	0	1	0	0	1	104990,74	-0,300000012	3,90134072	-0,00083291088690525952	-0,29984199374165178	0,00116978574	-0,018319799849364688	0,00068353636361265946	0,018319799849364688
1	0	0	1	0	0	1	105010,74	-0,300000012	3,89273715	-0,00083291619088417946	-0,2998439022113271	0,00116721354	-0,019985622780495414	0,00074569045689589824	0,019985622780495414
1	0	0	1	0	0	1	105030,74	-0,300000012	3,88411427	-0,00083292266172501773	-0,29984623278497862	0,00116463704	-0,021651461823303034	0,00080784515132746445	0,021651461823303034
1	0	0	1	0	0	1	105050,74	-0,300000012	3,87596846	-0,00083291946327851878	-0,29984508036170368	0,00116219011	-0,02331730840400543	0,00087000012700801958	0,02331730840400543
1	0	0	1	0	0	1	105070,74	-0,300000012	3,86801338	-0,00083291431553330688	-0,2998432273496775	0,00115979766	-0,024983143362962736	0,00093215466906563968	0,024983143362962736
1	0	0	1	0	0	1	105090,74	-0,300000012	3,86003923	-0,00083291589144534528	-0,29984379553246048	0,00115740881	-0,026648972705844573	0,00099430900157993306	0,026648972705844573
1	0	0	1	0	0	1	105110,74	-0,300000012	3,85259914	-0,00083291289511819674	-0,29984271575946022	0,00115517376	-0,028314801074210336	0,0010564632977337218	0,028314801074210336
1	0	0	1	0	0	1	105130,74	-0,300000012	3,84527373	-0,00083291727975342016	-0,29984429524367942	0,0011529834	-0,02998062555525223	0,0011186174488462301	0,02998062555525223
1	0	0	1	0	0	1	105150,74	-0,300000012	3,83930254	-0,00083291022017763712	-0,29984175355341408	0,00115118315	-0,031646451607341766	0,0011807716585766382	0,031646451607341766
1	0	0	1	0	0	1	105170,74	-0,300000012	3,8334651	-0,00083291067321598528	-0,29984191589003744	0,00114943355	-0,033312273318764435	0,0012429257063509296	0,033312273318764435
1	0	0	1	0	0	1	105190,74	-0,300000012	3,82737947	-0,00083291608992053402	-0,29984386698211654	0,00114761631	-0,034978104904426669	0,0013050801225463752	0,034978104904426669
1	0	0	1	0	0	1	105210,74	-0,300000012	3,82140851	-0,00083290835613509018	-0,29984108176089261	0,00114581524	-0,036643924849338195	0,0013672341044097608	0,036643924849338195
1	0	0	1	0	0	1	105230,74	-0,300000012	3,81536102	-0,00083292705766359974	-0,29984781461092461	0,00114402769	-0,038309765258752832	0,0014293888498312722	0,038309765258752832
1	0	0	1	0	0	1	105250,75	-0,300000012	3,80925632	-0,00083291804869472973	-0,29984457213038272	0,00114218483	-0,039975603439526624	0,0014915435120991968	0,039975603439526624
1	0	0	1	0	0	1	105270,75	-0,300000012	3,80345702	-0,00083291055309938061	-0,29984187265240499	0,00114043569	-0,041641432463079885	0,0015536978326989123	0,041641432463079885
1	0	0	1	0	0	1	105290,75	-0,300000012	3,79790568	-0,0008329115567538473	-0,2998422350778489	0,00113877258	-0,043307259179037677	0,0016158520671991373	0,043307259179037677
1	0	0	1	0	0	1	105310,75	-0,300000012	3,79246855	-0,00083290576711131469	-0,29984015031716429	0,00113713439	-0,044973070073864723	0,001678005711391703	0,044973070073864723
1	0	0	1	0	0	1	105330,75	-0,300000012	3,78737521	-0,00083290717071460365	-0,29984065501795213	0,00113560911	-0,046638885124226605	0,0017401595106328608	0,046638885124226605
1	0	0	1	0	0	1	105350,75	-0,300000012	3,7816329	-0,00083291567688352525	-0,29984371829522227	0,00113389886	-0,048304710869290957	0,0018023137089077462	0,048304710869290957
1	0	0	1	0	0	1	105370,75	-0,300000012	3,77674937	-0,00083292183410624653	-0,29984593373460819	0,00113244297	-0,049970551823074816	0,0018644684746404054	0,049970551823074816
1	0	0	1	0	0	1	105390,75	-0,300000012	3,77196097	-0,00083292452992167731	-0,29984690479540384	0,00113101082	-0,051636395865112742	0,0019266233555999757	0,051636395865112742
1	0	0	1	0	0	1	105410,75	-0,300000012	3,76633334	-0,0008329235740188096	-0,29984656120425357	0,0011293221	-0,053302241621588864	0,0019887783005275405	0,053302241621588864
1	0	0	1	0	0	1	105430,75	-0,300000012	3,76070547	-0,00083291678304970278	-0,29984411538670195	0,00112762535	-0,05496807577677257	0,0020509328125952867	0,05496807577677257
1	0	0	1	0	0	1	105450,75	-0,300000012	3,75685191	-0,00083292470777697037	-0,29984696934912589	0,00112648064	-0,056633922306617299	0,0021130877863782736	0,056633922306617299
1	0	0	1	0	0	1	105470,75	-0,300000012	3,75048018	-0,00083291505219042291	-0,29984349272250746	0,00112455711	-0,058299752853085798	0,0021752421638000038	0,058299752853085798
1	0	0	1	0	0	1	105490,75	-0,300000012	3,74536777	-0,00083291822415424717	-0,29984463417452026	0,00112302846	-0,059965589772520986	0,0022373967790056899	0,059965589772520986
1	0	0	1	0	0	1	105510,75	-0,300000012	3,7401979	-0,0008329136512031159	-0,29984298906119507	0,0011214721	-0,06163141855610263	0,0022995510906517411	0,06163141855610263
1	0	0	1	0	0	1	105530,75	-0,300000012	3,73516154	-0,00083291360208061005	-0,29984297026133504	0,00111996196	-0,063297246073964749	0,0023617053550720954	0,063297246073964749
1	0	0	1	0	0	1	105550,75	-0,300000012	3,7296102	-0,00083291593915058509	-0,2998438123429879	0,0011183006	-0,064963081828776512	0,0024238599268241152	0,064963081828776512
1	0	0	1	0	0	1	105570,75	-0,300000012	3,72409678	-0,00083290670679344077	-0,29984048906726618	0,00111663505	-0,066628902723158579	0,0024860139441135232	0,066628902723158579
1	0	0	1	0	0	1	105590,75	-0,300000012	3,71881247	-0,00083290359450545574	-0,29983936760461446	0,00111504633	-0,068294710126539251	0,0025481674580355302	0,068294710126539251
1	0	0	1	0	0	1	105610,75	-0,300000012	3,71305132	-0,00083291598775982861	-0,29984383020498931	0,00111333549	-0,069960541167163354	0,0026103218538948704	0,069960541167163354
1	0	0	1	0	0	1	105630,75	-0,300000012	3,70717549	-0,00083291893196602662	-0,29984488923610093	0,00111157761	-0,071626371585130854	0,0026724762265220554	0,071626371585130854
1	0	0	1	0	0	1	105650,75	-0,300000012	3,70231104	-0,00083290818420383654	-0,29984101997856192	0,00111010473	-0,073292193784814912	0,0027346302925140355	0,073292193784814912
1	0	0	1	0	0	1	105670,75	-0,300000012	3,69674063	-0,00083290432909462182	-0,29983963317194554	0,00110842939	-0,074958003061897395	0,0027967838763463766	0,074958003061897395
1	0	0	1	0	0	1	105690,75	-0,300000012	3,69113183	-0,00083290276969969267	-0,29983907068389901	0,00110674556	-0,076623810375131008	0,0028589373869048755	0,076623810375131008
1	0	0	1	0	0	1	105710,75	-0,300000012	3,68533254	-0,0008329262847933504	-0,29984753685785741	0,00110503787	-0,078289649782369715	0,0029210920949338554	0,078289649782369715
1	0	0	1	0	0	1	105730,75	-0,300000012	3,67878914	-0,00083292770980960806	-0,29984804983960973	0,00110307778	-0,079955502917432307	0,0029832473151664019	0,079955502917432307
1	0	0	1	0	0	1	105750,75	-0,300000012	3,67356205	-0,00083292238790127962	-0,29984613309687968	0,00110150338	-0,081621355289113382	0,0030454025069161574	0,081621355289113382
1	0	0	1	0	0	1	105770,76	-0,300000012	3,66793442	-0,00083291273317072128	-0,29984265857955443	0,00109980325	-0,083287186417359629	0,0031075569060447981	0,083287186417359629
1	0	0	1	0	0	1	105790,76	-0,300000012	3,66171527	-0,00083290805016954739	-0,29984097171320941	0,00109793223	-0,084953005036342669	0,0031697108384360083	0,084953005036342669
1	0	0	1	0	0	1	105810,76	-0,300000012	3,65501928	-0,00083291258515583142	-0,29984260445402253	0,00109593046	-0,08661882652980439	0,0032318648780778842	0,08661882652980439
1	0	0	1	0	0	1	105830,76	-0,300000012	3,64876199	-0,00083291660959687488	-0,29984405406190221	0,00109405955	-0,088284656156897728	0,0032940192211964909	0,088284656156897728
1	0	0	1	0	0	1	105850,76	-0,300000012	3,64208508	-0,00083292604024377126	-0,2998474479106983	0,0010920699	-0,089950502201820608	0,003356174176886391	0,089950502201820608
1	0	0	1	0	0	1	105870,76	-0,300000012	3,63542724	-0,00083290873356329062	-0,29984121870395578	0,00109005091	-0,091616329769406246	0,0034183284431619968	0,091616329769406246
1	0	0	1	0	0	1	105890,76	-0,300000012	3,62840676	-0,00083290333576334848	-0,29983927518576128	0,0010879389	-0,0932821398644416	0,0034804820575132595	0,0932821398644416
1	0	0	1	0	0	1	105910,76	-0,300000012	3,62172985	-0,00083290919082860147	-0,29984138224112698	0,00108594447	-0,094947958704804557	0,0035426359981644525	0,094947958704804557
1	0	0	1	0	0	1	105930,76	-0,300000012	3,61470962	-0,0008329108620434999	-0,29984198498444813	0,00108384166	-0,09661378324185495	0,003604790151366713	0,09661378324185495
1	0	0	1	0	0	1	105950,76	-0,300000012	3,60719323	-0,00083291795688702003	-0,29984453796152922	0,00108159718	-0,098279619389842125	0,0036669447377886368	0,098279619389842125
1	0	0	1	0	0	1	105970,76	-0,300000012	3,59988689	-0,0008329116265045271	-0,29984225951392045	0,00107939821	-0,099945449043337011	0,00372909908189232	0,099945449043337011
1	0	0	1	0	0	1	105990,76	-0,300000012	3,59242773	-0,00083291099117034022	-0,29984203146831936	0,00107716082	-0,10161127162554214	0,0037912531621566765	0,10161127162554214
1	0	0	1	0	0	1	106010,76	-0,300000012	3,58437729	-0,00083291045303311603	-0,29984183662926176	0,00107474625	-0,1032770990737281	0,0038534074239773184	0,1032770990737281
1	0	0	1	0	0	1	106030,76	-0,300000012	3,57623148	-0,00083290442508624653	-0,29983966772824749	0,00107229606	-0,10494291304786686	0,003915561183063145	0,10494291304786686
1	0	0	1	0	0	1	106050,76	-0,300000012	3,5686388	-0,00083291009770830477	-0,29984170928730778	0,00107002677	-0,10660873425191824	0,0039777152119067309	0,10660873425191824
1	0	0	1	0	0	1	106070,76	-0,300000012	3,55999684	-0,00083290284518069696	-0,29983909785652352	0,00106742629	-0,10827454256798344	0,0040398687598822253	0,10827454256798344
1	0	0	1	0	0	1	106090,76	-0,300000012	3,5512979	-0,00083291016785634893	-0,29984173508463014	0,00106482732	-0,109940361975122	0,0041020227216805786	0,109940361975122
1	0	0	1	0	0	1	106110,76	-0,300000012	3,54189277	-0,00083290022625194662	-0,299838155060808	0,00106199458	-0,11160616899380931	0,004164176221249159	0,11160616899380931
1	0	0	1	0	0	1	106130,76	-0,300000012	3,53277421	-0,00083291289823253952	-0,29984271749799418	0,00105927663	-0,11327198753999024	0,0042263301509240256	0,11327198753999024
1	0	0	1	0	0	1	106150,76	-0,300000012	3,52304482	-0,00083292027358876326	-0,29984537307640691	0,0010563687	-0,1149378339464219	0,0042884851201023046	0,1149378339464219
1	0	0	1	0	0	1	106170,76	-0,300000012	3,5128386	-0,00083293368455933197	-0,29985019981339866	0,00105332537	-0,11660369520755459	0,0043506406435294522	0,11660369520755459
1	0	0	1	0	0	1	106190,76	-0,300000012	3,50259447	-0,00083292929240730074	-0,29984861978692032	0,00105024816	-0,11826954781074506	0,0044127958439171347	0,11826954781074506
1	0	0	1	0	0	1	106210,76	-0,300000012	3,49164414	-0,00083291508303913805	-0,29984350379990086	0,00104694685	-0,11993538822425587	0,004474950589491479	0,11993538822425587
1	0	0	1	0	0	1	106230,76	-0,300000012	3,48046517	-0,00083291916575862298	-0,29984497314495942	0,00104360003	-0,12160121461911846	0,0045371048120112109	0,12160121461911846
1	0	0	1	0	0	1	106250,76	-0,300000012	3,4688282	-0,00083291597081555264	-0,2998438241051705	0,00104010676	-0,1232670500989475	0,0045992593735032563	0,1232670500989475
1	0	0	1	0	0	1	106270,77	-0,300000012	3,45677161	-0,00083291760234038029	-0,29984441032551635	0,00103649369	-0,12493288649824773	0,0046614139693020083	0,12493288649824773
1	0	0	1	0	0	1	106290,77	-0,300000012	3,44473386	-0,00083292108721699981	-0,29984566562467021	0,00103288854	-0,12659872804289243	0,0047235687570804794	0,12659872804289243
1	0	0	1	0	0	1	106310,77	-0,300000012	3,43248653	-0,00083291323584483725	-0,29984283945139616	0,00102920656	-0,12826455376764154	0,0047857229545973754	0,12826455376764154
1	0	0	1	0	0	1	106330,77	-0,300000012	3,41926622	-0,00083290892975197901	-0,29984128825540058	0,00102523714	-0,1299303773647747	0,0048478770727300602	0,1299303773647747
1	0	0	1	0	0	1	106350,77	-0,300000012	3,40577888	-0,00083290739897886912	-0,29984073830668998	0,00102119124	-0,13159619960145336	0,004910031140102359	0,13159619960145336
1	0	0	1	0	0	1	106370,77	-0,300000012	3,3917191	-0,00083289747989674406	-0,29983716662633958	0,00101696339	-0,13326200091156046	0,0049721844266761363	0,13326200091156046
1	0	0	1	0	0	1	106390,77	-0,300000012	3,37811732	-0,00083291289516952307	-0,29984271591712339	0,00101290387	-0,13492782398645922	0,0050343385253235539	0,13492782398645922
1	0	0	1	0	0	1	106410,77	-0,300000012	3,3635807	-0,00083291040583948301	-0,29984182075686541	0,00100854214	-0,13659364726861165	0,0050964926317038848	0,13659364726861165
1	0	0	1	0	0	1	106430,77	-0,300000012	3,34910131	-0,00083290611945258253	-0,29984027657110464	0,00100419542	-0,13825946297078675	0,0051586464552650701	0,13825946297078675
1	0	0	1	0	0	1	106450,77	-0,300000012	3,33412576	-0,00083291274932854707	-0,29984266421474778	0,0009997132	-0,1399252834618308	0,0052208004575053939	0,1399252834618308
1	0	0	1	0	0	1	106470,77	-0,300000012	3,31922674	-0,00083291441009607578	-0,29984326202339392	0,000995247741	-0,14159111381903306	0,0052829548278653459	0,14159111381903306
1	0	0	1	0	0	1	106490,77	-0,300000012	3,30406046	-0,00083290936177306701	-0,29984144378340883	0,000990694272	-0,14325693987423032	0,0053451090377117088	0,14325693987423032
1	0	0	1	0	0	1	106510,77	-0,300000012	3,288589	-0,00083291515196363123	-0,29984352932779475	0,000986062107	-0,14492276891709219	0,0054072633590318528	0,14492276891709219
1	0	0	1	0	0	1	106530,77	-0,300000012	3,27380443	-0,00083291632991201344	-0,2998439523336601	0,000981630408	-0,14658859391749088	0,0054694175295222618	0,14658859391749088
1	0	0	1	0	0	1	106550,77	-0,300000012	3,25839019	-0,00083291437849236851	-0,29984325005986912	0,000977006275	-0,14825442189808371	0,0055315718112077216	0,14825442189808371
1	0	0	1	0	0	1	106570,77	-0,300000012	3,243186	-0,00083291636599103603	-0,29984396636902381	0,00097244978	-0,14992026152165747	0,0055937265273084525	0,14992026152165747
1	0	0	1	0	0	1	106590,77	-0,300000012	3,2275238	-0,00083290977521737421	-0,29984159261692704	0,000967745902	-0,15158608734691824	0,0056558807285755744	0,15158608734691824
1	0	0	1	0	0	1	106610,77	-0,300000012	3,21167088	-0,00083293399154974362	-0,29985031141335405	0,000963020488	-0,15325194031241555	0,0057180359424814118	0,15325194031241555
1	0	0	1	0	0	1	106630,77	-0,300000012	3,19581795	-0,00083292840129468173	-0,29984829858431373	0,000958260556	-0,15491780249445654	0,005780191500268887	0,15491780249445654
1	0	0	1	0	0	1	106650,77	-0,300000012	3,17977405	-0,0008329253688769207	-0,29984720622340915	0,000953446375	-0,15658365368359469	0,0058423466478963763	0,15658365368359469
1	0	0	1	0	0	1	106670,77	-0,300000012	3,16304374	-0,00083292254810035226	-0,29984619188090739	0,000948426605	-0,15824949677975162	0,0059045014935638541	0,15824949677975162
1	0	0	1	0	0	1	106690,77	-0,300000012	3,1462369	-0,00083291648825009664	-0,29984400926137773	0,000943380292	-0,15991533800622838	0,0059666562694710515	0,15991533800622838
1	0	0	1	0	0	1	106710,77	-0,300000012	3,12920117	-0,00083291220751901466	-0,29984246870336288	0,000938267389	-0,16158117084297389	0,0060288107323460966	0,16158117084297389
1	0	0	1	0	0	1	106730,77	-0,300000012	3,11086822	-0,0008329086529976791	-0,2998411897427952	0,000932766416	-0,16324699008306378	0,0060909646879116403	0,16324699008306378
1	0	0	1	0	0	1	106750,77	-0,300000012	3,09221101	-0,00083291499083737523	-0,29984347020301632	0,000927179295	-0,16491281412146339	0,0061531188225085696	0,16491281412146339
1	0	0	1	0	0	1	106770,78	-0,300000012	3,07258081	-0,00083291512185169587	-0,29984351848422163	0,000921293453	-0,16657864363375818	0,0062152731613438874	0,16657864363375818
1	0	0	1	0	0	1	106790,78	-0,300000012	3,05209208	-0,00083292215462194547	-0,29984604966251258	0,000915157725	-0,16824448209610266	0,0062774278341175936	0,16824448209610266
1	0	0	1	0	0	1	106810,78	-0,300000012	3,03097391	-0,00083291878193947994	-0,29984483497628954	0,000908821879	-0,16991031511004118	0,0063395823036039475	0,16991031511004118
1	0	0	1	0	0	1	106830,78	-0,300000012	3,00901628	-0,00083291435588730701	-0,29984324274598131	0,00090223318	-0,17157614556872694	0,0064017366777503859	0,17157614556872694
1	0	0	1	0	0	1	106850,78	-0,300000012	2,98587608	-0,00083290558807386291	-0,29984008527854656	0,000895285339	-0,17324195558520173	0,0064638902891704474	0,17324195558520173
1	0	0	1	0	0	1	106870,78	-0,300000012	2,96128583	-0,00083290965414709517	-0,29984154966427693	0,00088791654	-0,17490776833505779	0,00652604400257664	0,17490776833505779
1	0	0	1	0	0	1	106890,78	-0,300000012	2,93568444	-0,0008329076230078935	-0,2998408189572903	0,000880238018	-0,17657358173321203	0,0065881977401717094	0,17657358173321203
1	0	0	1	0	0	1	106910,78	-0,300000012	2,90815639	-0,00083291080119543616	-0,29984196196521965	0,000871987315	-0,17823939886546813	0,0066503516170911386	0,17823939886546813
1	0	0	1	0	0	1	106930,78	-0,300000012	2,87997985	-0,00083291234439114726	-0,2998425186216736	0,000863540394	-0,17990522881762035	0,0067125059723381299	0,17990522881762035
1	0	0	1	0	0	1	106950,78	-0,300000012	2,84947586	-0,00083291195021569728	-0,29984237599528019	0,000854393584	-0,18157105181298173	0,0067746600680179008	0,18157105181298173
1	0	0	1	0	0	1	106970,78	-0,300000012	2,81752181	-0,00083290824616452058	-0,29984104217227002	0,000844808703	-0,1832368678340599	0,0068368139034777882	0,1832368678340599
1	0	0	1	0	0	1	106990,78	-0,300000012	2,78434706	-0,00083290579661395802	-0,29984016146497606	0,000834859093	-0,18490268335302026	0,006898967720202985	0,18490268335302026
1	0	0	1	0	0	1	107010,78	-0,300000012	2,74888301	-0,00083291439737545126	-0,29984325656094643	0,000824234041	-0,18656850170291978	0,006961121642554327	0,18656850170291978
1	0	0	1	0	0	1	107030,78	-0,300000012	2,71240783	-0,00083292152132093901	-0,29984582192648832	0,000813304156	-0,18823434759497328	0,0070232765925404659	0,18823434759497328
1	0	0	1	0	0	1	107050,78	-0,300000012	2,67309022	-0,0008329179994596375	-0,29984455430487302	0,000801511575	-0,1899001850091105	0,0070854312262041498	0,1899001850091105
1	0	0	1	0	0	1	107070,78	-0,300000012	2,63257074	-0,00083290956869555853	-0,29984151827054285	0,000789354031	-0,19156600978095021	0,0071475853881667149	0,19156600978095021
1	0	0	1	0	0	1	107090,78	-0,300000012	2,59067774	-0,00083292120263808294	-0,29984570752449843	0,000776803587	-0,19323184084562314	0,0072097397849233498	0,19323184084562314
1	0	0	1	0	0	1	107110,78	-0,300000012	2,54773569	-0,0008329183234754537	-0,29984467013931923	0,000763924967	-0,19489768834281981	0,0072718947947995392	0,19489768834281981
1	0	0	1	0	0	1	107130,78	-0,300000012	2,5034008	-0,00083291692657437594	-0,29984416720814842	0,000750630104	-0,19656352047668752	0,0073340492314492672	0,19656352047668752
1	0	0	1	0	0	1	107150,78	-0,300000012	2,4578259	-0,0008329250478297472	-0,29984709176570637	0,000736971968	-0,19822936001921053	0,007396203944525888	0,19822936001921053
1	0	0	1	0	0	1	107170,78	-0,300000012	2,4126327	-0,00083292405766248704	-0,29984673419554278	0,00072342006	-0,19989520621574115	0,0074583589058724762	0,19989520621574115
1	0	0	1	0	0	1	107190,78	-0,300000012	2,36759186	-0,0008329191158993376	-0,29984495614541082	0,00070991047	-0,20156104451279859	0,0075205135724791014	0,20156104451279859
1	0	0	1	0	0	1	107210,78	-0,300000012	2,32142568	-0,00083293652413288755	-0,29985122289139475	0,000696082308	-0,20322690986363942	0,0075826692484987571	0,20322690986363942
1	0	0	1	0	0	1	107230,78	-0,300000012	2,27524042	-0,00083293233979907302	-0,29984971570927386	0,000682230166	-0,20489277756140653	0,0076448250120853888	0,20489277756140653
1	0	0	1	0	0	1	107250,78	-0,300000012	2,22903609	-0,00083292498626642765	-0,29984706961382112	0,000668369932	-0,20655863330990762	0,0077069803298288397	0,20655863330990762
1	0	0	1	0	0	1	107270,78	-0,300000012	2,18275523	-0,00083293279039363072	-0,29984987797595878	0,000654498872	-0,20822449317315078	0,0077691358010988493	0,20822449317315078
1	0	0	1	0	0	1	107290,79	-0,300000012	2,13636017	-0,00083292368237177536	-0,29984659941120198	0,000640580314	-0,20989034536550634	0,007831290986157728	0,20989034536550634
1	0	0	1	0	0	1	107310,79	-0,300000012	2,0895834	-0,0008329239032417536	-0,29984667972566195	0,000626554654	-0,21155619460455437	0,0078934460610247334	0,21155619460455437
1	0	0	1	0	0	1	107330,79	-0,300000012	2,04347444	-0,00083291655311816282	-0,29984403261647418	0,000612723641	-0,21322202958751907	0,0079556006039781018	0,21322202958751907
1	0	0	1	0	0	1	107350,74	-0,300000012	2,00001717	-0,00082939407191839475	-0,2998412704248903	0,000599687686	-0,2148843406452688	0,0080176236645437325	0,2148843406452688
1	1	0	0	0	0	2	107360,75	0,300000012	2,60094595	0,00083387000031272563	0,30018726794764294	0,000780770846	-0,2140504545129689	0,0079865102517757939	0,00083388613229990003
1	1	0	0	0	0	2	107380,75	0,300000012	3,2839582	0,00083387077358696192	0,30018754519561408	0,000985803315	-0,21238271083459779	0,0079242844928305434	0,0025016298106710115
1	1	0	0	0	0	2	107400,75	0,300000012	3,75141978	0,00083386553177071936	0,30018565897582208	0,00112612243	-0,21071497288251114	0,0078620589475406656	0,0041693677627576723
1	1	0	0	0	0	2	107420,75	0,300000012	3,93162084	0,0008338703917198711	0,30018740873261536	0,00118022307	-0,20904724063093488	0,0077998336149444966	0,0058371000143339238
1	1	0	0	0	0	2	107440,75	0,300000012	3,94999194	0,00083385861163338022	0,30018316697886144	0,00118572114	-0,20737951820210477	0,0077376086488481907	0,0075048224431640576
1	1	0	0	0	0	2	107460,75	0,300000012	3,95911074	0,00083387028569976486	0,30018737068494675	0,00118847506	-0,20571179130523098	0,0076753835160431706	0,0091725493400378368
1	1	0	0	0	0	2	107480,75	0,300000012	3,96632171	0,00083386211704876685	0,30018442911313056	0,00119062804	-0,20404405538361296	0,0076131580465128064	0,010840285261655848
1	1	0	0	0	0	2	107500,75	0,300000012	3,97214007	0,00083385161589086054	0,30018064871508934	0,0011923596	-0,20237634880458339	0,0075509336717938701	0,012507991840685406
1	1	0	0	0	0	2	107520,75	0,300000012	3,97856903	0,00083386465102930867	0,30018534223318406	0,00119430816	-0,20070863625101437	0,0074887090741568346	0,014175704394254421
1	1	0	0	0	0	2	107540,75	0,300000012	3,98347187	0,00083386027436455091	0,30018376554675744	0,0011957736	-0,19904091347556173	0,0074264840951275763	0,015843427169707088
1	1	0	0	0	0	2	107560,75	0,300000012	3,98873711	0,0008338738648212617	0,30018865896499987	0,00119737361	-0,19737317233467789	0,0073642584308593894	0,017511168310590918
1	1	0	0	0	0	2	107580,75	0,300000012	3,99337292	0,00083384720142351258	0,3001790602336544	0,00119872694	-0,19570546306495059	0,007302033955746903	0,019178877580318186
1	1	0	0	0	0	2	107600,75	0,300000012	3,99575734	0,00083385611905819827	0,30018226966647379	0,00119945547	-0,19403776413246019	0,007239809866330624	0,020846576512808598
1	1	0	0	0	0	2	107620,75	0,300000012	3,99825644	0,00083385215553310182	0,30018084394344288	0,00120019994	-0,19237006635769894	0,007177585820110775	0,022514274287569853
1	1	0	0	0	0	2	107640,75	0,300000012	4,00149965	0,00083385568131340877	0,30018211213781331	0,00120117865	-0,19070235881003923	0,0071153614092509478	0,02418198183522953
1	1	0	0	0	0	2	107660,75	0,300000012	4,00457096	0,0008338558963454432	0,30018218981776666	0,00120210089	-0,18903464756141296	0,0070531368603030797	0,025849693083855843
1	1	0	0	0	0	2	107680,75	0,300000012	4,00720358	0,0008338628470831447	0,3001846928253984	0,00120290113	-0,18736692253434016	0,006990911797262848	0,027517418110928602
1	1	0	0	0	0	2	107700,75	0,300000012	4,01037073	0,00083386320301062541	0,30018481983850579	0,00120385247	-0,18569919653735248	0,0069286866980337856	0,029185144107916288
1	1	0	0	0	0	2	107720,75	0,300000012	4,01340389	0,00083385357922150042	0,3001813564646327	0,00120474899	-0,18403148771716842	0,0068664622396943616	0,030852852928100358
1	1	0	0	0	0	2	107740,75	0,300000012	4,01639891	0,0008338586183455255	0,30018317008011251	0,0012056554	-0,18236377234372182	0,0068042375368439027	0,032520568301546906
1	1	0	0	0	0	2	107760,75	0,300000012	4,01920319	0,00083384882201254374	0,30017964278501702	0,00120648299	-0,18069607127226742	0,00674201336762	0,034188269373001325
1	1	0	0	0	0	2	107780,75	0,300000012	4,02181673	0,00083385568433006618	0,30018211428874061	0,00120727741	-0,17902836071020054	0,0066797888442885862	0,03585597993506823
1	1	0	0	0	0	2	107800,75	0,300000012	4,02465916	0,0008338481407960256	0,30017939755191757	0,00120811979	-0,17736066102398458	0,0066175647267497933	0,037523679621284211
1	1	0	0	0	0	2	107820,75	0,300000012	4,027349	0,00083385099201732211	0,30018042446052563	0,00120893132	-0,17569295500947226	0,0065553403730937549	0,039191385635796525
1	1	0	0	0	0	2	107840,75	0,300000012	4,02960014	0,0008338554645842976	0,30018203518182726	0,00120961352	-0,17402524238467072	0,0064931157727989376	0,040859098260598054
1	1	0	0	0	0	2	107860,75	0,300000012	4,03194666	0,00083384732334481344	0,30017910327529766	0,00121030619	-0,17235753573126285	0,0064308913953048474	0,042526804914005933
1	1	0	0	0	0	2	107880,76	0,300000012	4,03417873	0,00083384809752636493	0,30017938309338086	0,00121097732	-0,17068984200144826	0,0063686675000073984	0,044194498643820493
1	1	0	0	0	0	2	107900,76	0,300000012	4,03633404	0,00083387016095221043	0,3001873251826375	0,00121165637	-0,16902211096216426	0,0063064422126434829	0,045862229683104499
1	1	0	0	0	0	2	107920,76	0,300000012	4,03904295	0,00083385415471759117	0,30018156251739546	0,00121244625	-0,16735439420141466	0,0062442174580308826	0,047529946443854118
1	1	0	0	0	0	2	107940,76	0,300000012	4,04106522	0,00083386766324771763	0,30018642661038234	0,00121307292	-0,16568666546112317	0,0061819922564454682	0,049197675184145574
1	1	0	0	0	0	2	107960,76	0,300000012	4,04331636	0,00083386238120330714	0,30018452399371872	0,00121374102	-0,16401893927633782	0,0061197671502094234	0,050865401368930944
1	1	0	0	0	0	2	107980,76	0,300000012	4,04530048	0,00083387375484903654	0,30018861908223584	0,00121435313	-0,16235120370516035	0,0060575416937544678	0,052533136940108416
1	1	0	0	0	0	2	108000,76	0,300000012	4,04749441	0,00083385556157926707	0,30018207009626854	0,00121498527	-0,16068348120505958	0,0059953167249989594	0,054200859440209152
1	1	0	0	0	0	2	108020,76	0,300000012	4,0495162	0,00083386485326786829	0,30018541391937107	0,00121560565	-0,1590157606551864	0,0059330918290090637	0,05586857999008233
1	1	0	0	0	0	2	108040,76	0,300000012	4,05163383	0,00083386118790341747	0,30018409553249997	0,00121623604	-0,15734803378653046	0,0058708666972568883	0,057536306858738278
1	1	0	0	0	0	2	108060,76	0,300000012	4,05396128	0,00083385437832276032	0,3001816433648631	0,00121692475	-0,15568032563376778	0,0058086422638198528	0,059204015011500992
1	1	0	0	0	0	2	108080,76	0,300000012	4,0561552	0,0008338685843166377	0,30018675708435853	0,00121760403	-0,15401259165390352	0,0057464168667389338	0,060871748991365248
1	1	0	0	0	0	2	108100,76	0,300000012	4,0588069	0,00083386816702617536	0,3001866079670432	0,0012183995	-0,15234485618108365	0,0056841914139538336	0,062539484464185126
1	1	0	0	0	0	2	108120,76	0,300000012	4,06119156	0,00083386148717006054	0,30018420215160582	0,00121910556	-0,15067712580175715	0,0056219661512138189	0,064207214843511603
1	1	0	0	0	0	2	108140,76	0,300000012	4,06426287	0,00083387024346656269	0,30018735516678304	0,00122004037	-0,1490093880255903	0,0055597406124877459	0,065874952619678477
1	1	0	0	0	0	2	108160,76	0,300000012	4,0658083	0,00083386904046270579	0,30018692227567059	0,00122050242	-0,14734164488092416	0,0054975148734557466	0,067542695764344627
1	1	0	0	0	0	2	108180,76	0,300000012	4,067945	0,00083385845171080691	0,30018310940787296	0,00122112839	-0,14567392437964202	0,0054352899792788486	0,069210416265626765
1	1	0	0	0	0	2	108200,76	0,300000012	4,07034826	0,0008338666199131145	0,30018605102084198	0,00122186181	-0,1440062031464281	0,0053730650577925907	0,070878137498840704
1	1	0	0	0	0	2	108220,76	0,300000012	4,07290459	0,00083386263815065216	0,30018461669212346	0,00122262328	-0,14233847624248786	0,0053108399247239098	0,072545864402780941
1	1	0	0	0	0	2	108240,76	0,300000012	4,07471704	0,00083387519364886822	0,30018913656816883	0,0012231858	-0,14067072930932731	0,0052486140443380902	0,074213611335941491
1	1	0	0	0	0	2	108260,76	0,300000012	4,07679653	0,0008338665035002761	0,30018600911304838	0,00122379733	-0,13900299063176933	0,0051863884719799021	0,075881350013499469
1	1	0	0	0	0	2	108280,76	0,300000012	4,07603359	0,00083387031609813363	0,3001873805028912	0,00122357381	-0,13733524784397275	0,0051241627462631859	0,077549092801296051
1	1	0	0	0	0	2	108300,76	0,300000012	4,07797909	0,00083386462289922765	0,30018533196677312	0,00122414948	-0,13566751434515109	0,0050619373671306125	0,079216826300117709
1	1	0	0	0	0	2	108320,76	0,300000012	4,08019209	0,00083386291919979776	0,30018471849333901	0,00122481131	-0,13399978828714979	0,0049997122656250515	0,080884552358119027
1	1	0	0	0	0	2	108340,76	0,300000012	4,08204269	0,00083386322942210573	0,30018482934645082	0,0012253673	-0,13233206045212043	0,0049374870978161837	0,082552280193148403
1	1	0	0	0	0	2	108360,76	0,300000012	4,08437014	0,00083386543351742963	0,30018562392334093	0,00122606917	-0,1306643355755113	0,0048752620403899526	0,084220005069757517
1	1	0	0	0	0	2	108380,77	0,300000012	4,08644962	0,00083385836163494323	0,30018307700566458	0,00122668303	-0,12899661660418272	0,0048130372032976781	0,085887724041086118
1	1	0	0	0	0	2	108400,77	0,300000012	4,088624	0,00083387525626189184	0,30018915926261069	0,00122736057	-0,12732887512345472	0,0047508115263494483	0,087555465521814118
1	1	0	0	0	0	2	108420,77	0,300000012	4,0899024	0,00083387653463582195	0,30018962024742534	0,00122774625	-0,12566112611591512	0,0046885855685657574	0,089223214529353741
1	1	0	0	0	0	2	108440,77	0,300000012	4,09089422	0,00083386108413338662	0,30018405705777645	0,00122802122	-0,12399339618283042	0,0046263603224756237	0,090890944462438451
1	1	0	0	0	0	2	108460,77	0,300000012	4,09284019	0,00083386233797338278	0,30018450954950586	0,00122860726	-0,1223256689661711	0,0045641351777389741	0,092558671679097754
1	1	0	0	0	0	2	108480,77	0,300000012	4,09421396	0,00083386285448571046	0,30018469504296819	0,00122902042	-0,12065794147054878	0,0045019100225938406	0,094226399174720064
1	1	0	0	0	0	2	108500,77	0,300000012	4,09625483	0,00083387195014456909	0,30018796874798106	0,00122964638	-0,11899020383771619	0,0044396844892157606	0,095894136807552653
1	1	0	0	0	0	2	108520,77	0,300000012	4,09514856	0,00083387264638808038	0,30018822050895725	0,00122931541	-0,11732246493049822	0,0043774589082886496	0,097561875714770637
1	1	0	0	0	0	2	108540,77	0,300000012	4,09694195	0,00083386953682535232	0,30018709997023462	0,00122984918	-0,11565472170083584	0,0043152331660853261	0,099229618944433011
1	1	0	0	0	0	2	108560,77	0,300000012	4,09869671	0,00083387349529564378	0,30018852550857222	0,00123038178	-0,11398697885084181	0,0042530074380479386	0,10089736179442706
1	1	0	0	0	0	2	108580,77	0,300000012	4,10062361	0,00083386504461202355	0,300185483923656	0,00123094767	-0,11231924493211701	0,0041907820432482144	0,10256509571315184
1	1	0	0	0	0	2	108600,77	0,300000012	4,10432434	0,00083387216404742669	0,30018804575148774	0,0012320691	-0,11065150183179174	0,004128556305870633	0,1042328388134771
1	1	0	0	0	0	2	108620,77	0,300000012	4,10831165	0,00083386300167772506	0,30018474848184198	0,00123325246	-0,10898376915306544	0,0040663309573369197	0,10590057149220342
1	1	0	0	0	0	2	108640,77	0,300000012	4,10903645	0,00083386650344067149	0,30018600847654925	0,00123347528	-0,10731603483844824	0,0040041055477659187	0,10756830580682061
1	1	0	0	0	0	2	108660,77	0,300000012	4,11113501	0,00083386674284934989	0,30018609415875398	0,00123410556	-0,10564829832055696	0,0039418800559877978	0,1092360423247119
1	1	0	0	0	0	2	108680,77	0,300000012	4,11256599	0,00083386538118455155	0,30018560508737171	0,00123453315	-0,10398056753958626	0,0038796547782618982	0,11090377310568261
1	1	0	0	0	0	2	108700,77	0,300000012	4,11393929	0,0008338720838013623	0,30018801685998099	0,00123495527	-0,1023128160548064	0,0038174287280490426	0,11257152459046246
1	1	0	0	0	0	2	108720,77	0,300000012	4,11573267	0,00083386857851015194	0,30018675565104314	0,00123548845	-0,10064507939414872	0,0037552032309441165	0,11423926125112011
1	1	0	0	0	0	2	108740,77	0,300000012	4,11708689	0,00083386634511252237	0,30018595209108922	0,0012358916	-0,098977351124884621	0,003692978046933367	0,11590698952038422
1	1	0	0	0	0	2	108760,77	0,300000012	4,11868954	0,00083387207739386291	0,30018801455332685	0,00123638124	-0,097309608395060173	0,0036307523233796685	0,11757473225020867
1	1	0	0	0	0	2	108780,77	0,300000012	4,12054014	0,00083387516163123981	0,30018912597510656	0,00123694132	-0,095641861723506061	0,003568526452754736	0,11924247892176278
1	1	0	0	0	0	2	108800,77	0,300000012	4,1223712	0,00083387681896819008	0,3001897218222649	0,00123749347	-0,09397410888214601	0,0035063003519260499	0,12091023176312285
1	1	0	0	0	0	2	108820,77	0,300000012	4,12466049	0,00083387243472701978	0,30018814323352934	0,00123817415	-0,092306355871030285	0,0034440742447635501	0,12257798477423856
1	1	0	0	0	0	2	108840,77	0,300000012	4,12591982	0,00083387413791981018	0,30018875744627462	0,00123855472	-0,090638612161308774	0,0033818484846485754	0,12424572848396006
1	1	0	0	0	0	2	108860,77	0,300000012	4,1274457	0,00083387678686115482	0,3001897099280423	0,00123901677	-0,088970862266342093	0,0033196224937537862	0,12591347837892675
1	1	0	0	0	0	2	108880,78	0,300000012	4,1293726	0,00083386914020776755	0,30018695802592774	0,00123958383	-0,08730312152291529	0,003257396844315255	0,12758121912235357
1	1	0	0	0	0	2	108900,78	0,300000012	4,13112783	0,00083386783784793485	0,30018648931145766	0,00124010874	-0,08563538361918953	0,0031951713008297869	0,12924895702607936
1	1	0	0	0	0	2	108920,78	0,300000012	4,13337851	0,00083387306993537485	0,30018837186470336	0,00124079222	-0,083967640091894669	0,0031329455475213958	0,13091670055337424
1	1	0	0	0	0	2	108940,78	0,300000012	4,13513374	0,00083386262097623616	0,30018461143201434	0,00124130351	-0,082299907608040781	0,0030707202062586342	0,13258443303722814
1	1	0	0	0	0	2	108960,78	0,300000012	4,13748026	0,00083385343396498099	0,30018130322281478	0,00124199421	-0,080632202996603571	0,0030084959049532147	0,13425213764866531
1	1	0	0	0	0	2	108980,78	0,300000012	4,13912106	0,00083385732401576307	0,30018270364137414	0,00124249258	-0,078964489516877722	0,0029462712727600218	0,13591985112839114
1	1	0	0	0	0	2	109000,78	0,300000012	4,1408186	0,00083386158004734259	0,30018423670501786	0,00124300842	-0,077296769443618176	0,0028840463945532218	0,13758757120165066
1	1	0	0	0	0	2	109020,78	0,300000012	4,14215422	0,0008338632346093655	0,30018483121732198	0,00124341191	-0,075629045214762534	0,0028218213612955446	0,1392552954305063
1	1	0	0	0	0	2	109040,78	0,300000012	4,14408112	0,00083385546428793011	0,30018203494933466	0,00124397874	-0,073961331193458931	0,0027595967088953581	0,14092300945180989
1	1	0	0	0	0	2	109060,78	0,300000012	4,14583588	0,00083384370320869824	0,3001778008627696	0,00124448794	-0,072293642452301478	0,0026973729997314141	0,14259069819296733
1	1	0	0	0	0	2	109080,78	0,300000012	4,14787722	0,0008338483154475689	0,30017946042523053	0,0012451075	-0,07062594972911831	0,0026351491419927363	0,14425839091615046
1	1	0	0	0	0	2	109100,78	0,300000012	4,15024281	0,00083384921298093261	0,30017978464559539	0,00124581903	-0,068958249509554995	0,0025729250045540362	0,14592609113571379
1	1	0	0	0	0	2	109120,78	0,300000012	4,15205526	0,00083384762569765248	0,30017921213065184	0,00124636071	-0,067290553993087898	0,0025107010425941795	0,14759378665218086
1	1	0	0	0	0	2	109140,78	0,300000012	4,15360022	0,00083385079396267725	0,30018035303646093	0,00124682917	-0,065622856719798746	0,0024484770150849299	0,14926148392547005
1	1	0	0	0	0	2	109160,78	0,300000012	4,15522194	0,0008338504840383927	0,30018024221723872	0,00124731555	-0,063955157309144973	0,0023862529078277328	0,15092918333612381
1	1	0	0	0	0	2	109180,78	0,300000012	4,15691948	0,00083384800705313677	0,30017934940237165	0,00124782138	-0,062287463686809178	0,0023240290165404618	0,15259687695845962
1	1	0	0	0	0	2	109200,78	0,300000012	4,15827417	0,00083385065131054989	0,30018030243446208	0,00124823197	-0,060619764393833178	0,0022618049136739808	0,15426457625143562
1	1	0	0	0	0	2	109220,78	0,300000012	4,1598196	0,00083384072632094234	0,30017672903312832	0,00124868099	-0,058952072956923213	0,0021995811039278854	0,1559322676883456
1	1	0	0	0	0	2	109240,78	0,300000012	4,161479	0,00083384943241212096	0,3001798625227744	0,00124919217	-0,057284382245088851	0,002137357321235336	0,15759995840017997
1	1	0	0	0	0	2	109260,78	0,300000012	4,16281462	0,00083384971905085773	0,30017996682716826	0,00124959357	-0,055616679683781568	0,0020751330964230202	0,15926766096148723
1	1	0	0	0	0	2	109280,78	0,300000012	4,16445494	0,0008338391847196553	0,30017617342465562	0,00125007017	-0,053948992862834112	0,0020129094589046928	0,16093534778243472
1	1	0	0	0	0	2	109300,78	0,300000012	4,16556168	0,00083384857189489728	0,30017955327560512	0,00125041639	-0,052281297083535373	0,0019506854871382342	0,16260304356173344
1	1	0	0	0	0	2	109320,78	0,300000012	4,16636276	0,00083385071582429939	0,30018032566201062	0,00125066016	-0,050613588726335341	0,001888461046073367	0,16427075191893344
1	1	0	0	0	0	2	109340,78	0,300000012	4,16849947	0,00083384533891247373	0,30017838889377536	0,00125129346	-0,048945899995020934	0,0018262373372766803	0,16593844065024787
1	1	0	0	0	0	2	109360,78	0,300000012	4,17013979	0,00083385004617439373	0,30018008459280851	0,00125179288	-0,047278203616339539	0,001764013343146449	0,16760613702892928
1	1	0	0	0	0	2	109380,79	0,300000012	4,17183781	0,00083383826457129574	0,30017584267050912	0,00125228497	-0,045610520860096058	0,0017017898572876915	0,16927381978517274
1	1	0	0	0	0	2	109400,79	0,300000012	4,17311621	0,0008338286636703543	0,30017238592526285	0,00125265424	-0,043942861765682931	0,0016395672542836384	0,17094147887958582
1	1	0	0	0	0	2	109420,79	0,300000012	4,1744132	0,00083382525453137037	0,30017115977768851	0,00125303841	-0,042275210977182029	0,0015773449611843382	0,17260912966808675
1	1	0	0	0	0	2	109440,79	0,300000012	4,17590141	0,00083383044698834432	0,30017302790705024	0,00125349301	-0,040607557472345139	0,0015151225667348896	0,17427678317292365
1	1	0	0	0	0	2	109460,79	0,300000012	4,17714119	0,00083384233333004851	0,30017730760437907	0,00125388301	-0,038939875947733958	0,0014528991268299898	0,17594446469753482
1	1	0	0	0	0	2	109480,79	0,300000012	4,17868662	0,00083382739547557299	0,30017193050237069	0,00125432445	-0,037272216627026835	0,0013906765153826032	0,17761212401824195
1	1	0	0	0	0	2	109500,79	0,300000012	4,17983103	0,00083383308898574784	0,30017397900382234	0,00125467649	-0,035604543985709786	0,0013284534069253509	0,17927979665955898
1	1	0	0	0	0	2	109520,79	0,300000012	4,1814146	0,00083383371349010202	0,30017420493916026	0,00125515275	-0,033936886434328467	0,0012662308614938893	0,18094745421094029
1	1	0	0	0	0	2	109540,79	0,300000012	4,18295956	0,00083383741058243648	0,30017553505539066	0,00125562213	-0,032269210631791334	0,0012040076350872653	0,18261513001347744
1	1	0	0	0	0	2	109560,79	0,300000012	4,18498182	0,00083383645267619034	0,30017518996435859	0,00125622773	-0,030601535857576704	0,0011417844470487363	0,18428280478769203
1	1	0	0	0	0	2	109580,79	0,300000012	4,18614578	0,00083384407136175373	0,30017793369970541	0,00125658861	-0,028933853514901709	0,0010795609766207755	0,18595048713036704
1	1	0	0	0	0	2	109600,79	0,300000012	4,18780518	0,00083383747493227328	0,30017555791336384	0,00125707674	-0,027266175732198934	0,0010173376763315088	0,18761816491306982
1	1	0	0	0	0	2	109620,79	0,300000012	4,18923616	0,00083384893582595725	0,30017968460619526	0,00125752355	-0,025598486731845715	0,00095511395749662221	0,18928585391342304
1	1	0	0	0	0	2	109640,79	0,300000012	4,18963671	0,00083384263627893389	0,30017741691367603	0,00125763437	-0,023930798969113411	0,00089289028483903565	0,19095354167615536
1	1	0	0	0	0	2	109660,79	0,300000012	4,18996096	0,00083383528922332659	0,30017477107369517	0,00125772052	-0,02226312595453055	0,00083066716245473395	0,19262121469073821
1	1	0	0	0	0	2	109680,79	0,300000012	4,19120073	0,00083385161641074547	0,30018064986323002	0,00125811738	-0,020595436434269197	0,00076844342422137562	0,19428890421099955
1	1	0	0	0	0	2	109700,79	0,300000012	4,19129658	0,00083387971855203315	0,3001907654731559	0,00125818851	-0,01892768567425368	0,00070621740105045171	0,19595665497101507
1	1	0	0	0	0	2	109720,79	0,300000012	4,19419622	0,00083386064021454912	0,30018389747729818	0,00125903019	-0,017259963791143808	0,00064399245531570278	0,19762437685412496
1	1	0	0	0	0	2	109740,79	0,300000012	4,19438696	0,00083386530764235392	0,3001855786196928	0,00125909445	-0,015592235243438266	0,00058176726091592883	0,1992921054018305
1	1	0	0	0	0	2	109760,79	0,300000012	4,19474936	0,00083386894614994522	0,30018688733129101	0,00125920877	-0,013924504220278973	0,00051954197415364717	0,20095983642498976
1	1	0	0	0	0	2	109780,79	0,300000012	4,19494009	0,00083387026934160128	0,3001873646912871	0,00125926803	-0,012256763883119075	0,00045731633987348006	0,20262757676214966
1	1	0	0	0	0	2	109800,79	0,300000012	4,19648504	0,00083386880768835546	0,30018683826888653	0,00125972962	-0,010589026914419645	0,00039509083127510202	0,20429531373084909
1	1	0	0	0	0	2	109820,79	0,300000012	4,19871235	0,0008338499894969993	0,30018006307111398	0,00126036978	-0,0089213245473589325	0,00033286661371038682	0,20596301609790982
1	1	0	0	0	0	2	109840,79	0,300000012	4,1996665	0,00083386099119981133	0,30018402472409568	0,00126067281	-0,0072536118967684595	0,00027064201245335002	0,20763072874850029
1	1	0	0	0	0	2	109850,66	0,300000012	4,1999526	0,00082290848093397094	0,30018555829618234	0,00126076513	-0,0064307034158344883	0,00023993819061748365	0,20845363722943424