File: Experimentelles/Rohdaten/Batterietests/AlteZelle/Studenten_Batterietests/LiCoO2 vs Li 300µm GCPL/ECLab-Export/LiCoO2 vs Li 300µm GCPL_01_OCV_C04_loop0.mpt
EC-Lab ASCII FILE
Nb header lines : 3
mode	error	time/s	Ewe/V
3	1	0,00	2,82233405
3	0	5,00	2,82174277
3	0	10,00	2,82193351
3	0	15,00	2,82124662
3	0	20,00	2,82136106
3	0	25,00	2,82227683
3	0	30,00	2,82174277
3	0	35,00	2,82357407
3	0	40,00	2,82683611
3	0	45,00	2,82916355
3	0	50,00	2,82775187
3	0	55,00	2,82731318
3	0	60,00	2,82607317
3	0	65,00	2,82698894
3	0	70,00	2,82679796
3	0	75,00	2,82563448
3	0	80,00	2,82506204
3	0	85,00	2,82563448
3	0	90,00	2,82828617
3	0	95,00	2,83189154
3	0	100,00	2,83238769
3	0	105,00	2,83244491
3	0	110,00	2,83540177
3	0	115,00	2,83784366
3	0	120,00	2,8396368
3	0	125,00	2,84204054
3	0	130,00	2,84093404
3	0	135,00	2,84068608
3	0	140,00	2,84133482
3	0	145,00	2,84139204
3	0	150,00	2,84011388
3	0	155,00	2,8411057
3	0	160,00	2,84135389
3	0	165,00	2,84198332
3	0	170,00	2,84175444
3	0	175,00	2,84177351
3	0	180,00	2,84030461
3	0	185,00	2,8418498
3	0	190,00	2,84253645
3	0	195,00	2,84234571
3	0	200,00	2,8426702
3	0	205,00	2,84417725
3	0	210,00	2,84591317
3	0	215,00	2,84698153
3	0	220,00	2,84123921
3	0	225,00	2,84104848
3	0	230,00	2,84234571
3	0	235,00	2,84259367
3	0	240,00	2,84308982
3	0	245,00	2,84394836
3	0	250,00	2,84280372
3	0	255,00	2,84402466
3	0	260,00	2,84497833
3	0	265,00	2,84675264
3	0	270,00	2,84881282
3	0	275,00	2,84934711
3	0	280,00	2,85045338
3	0	285,00	2,85104489
3	0	290,00	2,8486793
3	0	295,00	2,8484695
3	0	300,00	2,84866023
3	0	305,00	2,84932804
3	0	310,00	2,8486793
3	0	315,00	2,84860301
3	0	320,00	2,84778261
3	0	325,00	2,84713411
3	0	330,00	2,84740114
3	0	335,00	2,84669542
3	0	340,00	2,84656167
3	0	345,00	2,84619927
3	0	350,00	2,84514999
3	0	355,00	2,84549356
3	0	360,00	2,84612298
3	0	365,00	2,8458178
3	0	370,00	2,8465426
3	0	375,00	2,84616113
3	0	380,00	2,84587502
3	0	385,00	2,84577966
3	0	390,00	2,8455317
3	0	395,00	2,84726763
3	0	400,00	2,84742022
3	0	405,00	2,84738207
3	0	410,00	2,84768724
3	0	415,00	2,84745836
3	0	420,00	2,8487556
3	0	425,00	2,84984303
3	0	430,00	2,84997654
3	0	435,00	2,84850764
3	0	440,00	2,8481071
3	0	445,00	2,84745836
3	0	450,00	2,84713411
3	0	455,00	2,84726763
3	0	460,00	2,84604669
3	0	465,00	2,84352851
3	0	470,00	2,84379554
3	0	475,00	2,8429563
3	0	480,00	2,84276557
3	0	485,00	2,84328055
3	0	490,00	2,84289908
3	0	495,00	2,84301353
3	0	500,00	2,83673716
3	0	505,00	2,83626032
3	0	510,00	2,83658457
3	0	515,00	2,83673716
3	0	520,00	2,83647013
3	0	525,00	2,83816791
3	0	530,00	2,8385303
3	0	535,00	2,83744311
3	0	540,00	2,8368516
3	0	545,00	2,83875942
3	0	550,00	2,84055257
3	0	555,00	2,83835864
3	0	560,00	2,83820605
3	0	565,00	2,83998013
3	0	570,00	2,84038091
3	0	575,00	2,84164
3	0	580,00	2,84101033
3	0	585,00	2,84167814
3	0	590,00	2,84114385
3	0	595,00	2,8390646
3	0	600,00	2,83635569
3	0	605,00	2,83702326
3	0	610,00	2,83431435
3	0	615,00	2,83616495
3	0	620,00	2,83730936
3	0	625,00	2,83563066
3	0	630,00	2,83507752
3	0	635,00	2,83437157
3	0	640,00	2,83486772
3	0	645,00	2,83431435
3	0	650,00	2,82857227
3	0	655,00	2,82786632
3	0	660,00	2,82620668
3	0	665,00	2,82448983
3	0	670,00	2,8240509
3	0	675,00	2,82550073
3	0	680,00	2,82511926
3	0	685,00	2,82717967
3	0	690,00	2,82876301
3	0	695,00	2,83004117
3	0	700,00	2,82843876
3	0	705,00	2,82574892
3	0	710,00	2,82910633
3	0	715,00	2,82725596
3	0	720,00	2,82761836
3	0	725,00	2,82740855
3	0	730,00	2,82641649
3	0	735,00	2,82717967
3	0	740,00	2,82630205
3	0	745,00	2,82574892
3	0	750,00	2,82582521
3	0	755,00	2,82450891
3	0	760,00	2,82210517
3	0	765,00	2,82193351
3	0	770,00	2,8206172
3	0	775,00	2,82164741
3	0	780,00	2,82168555
3	0	785,00	2,8209033
3	0	790,00	2,82012105
3	0	795,00	2,82124662
3	0	800,00	2,82067442
3	0	805,00	2,81960607
3	0	810,00	2,82014012
3	0	815,00	2,82067442
3	0	820,00	2,81964421
3	0	825,00	2,81949162
3	0	830,00	2,81996846
3	0	835,00	2,8205409
3	0	840,00	2,82042646
3	0	845,00	2,81931996
3	0	850,00	2,81924367
3	0	855,00	2,82197165
3	0	860,00	2,82021642
3	0	865,00	2,81903386
3	0	870,00	2,81783199
3	0	875,00	2,81575251
3	0	880,00	2,8155427
3	0	885,00	2,81523752
3	0	890,00	2,81493211
3	0	895,00	2,81441712
3	0	900,00	2,81479859
3	0	905,00	2,8126812
3	0	910,00	2,81416917
3	0	915,00	2,81516123
3	0	920,00	2,81621027
3	0	925,00	2,8209796
3	0	930,00	2,82372665
3	0	935,00	2,82620668
3	0	940,00	2,82889652
3	0	945,00	2,82933521
3	0	950,00	2,8289156
3	0	955,00	2,83061337
3	0	960,00	2,83227324
3	0	965,00	2,83336043
3	0	970,00	2,83561158
3	0	975,00	2,8360312
3	0	980,00	2,83673716
3	0	985,00	2,83658457
3	0	990,00	2,83622217
3	0	995,00	2,83688974
3	0	1000,00	2,83751941
3	0	1005,00	2,8367753
3	0	1010,00	2,83534455
3	0	1015,00	2,83505845
3	0	1020,00	2,83540177
3	0	1025,00	2,83547807
3	0	1030,00	2,8345623
3	0	1035,00	2,83629847
3	0	1040,00	2,8362031
3	0	1045,00	2,83608866
3	0	1050,00	2,83639383
3	0	1055,00	2,83606935
3	0	1060,00	2,83667994
3	0	1065,00	2,83732843
3	0	1070,00	2,83751941
3	0	1075,00	2,83744311
3	0	1080,00	2,8375957
3	0	1085,00	2,83856845
3	0	1090,00	2,8359549
3	0	1095,00	2,83564973
3	0	1100,00	2,82918262
3	0	1105,00	2,8252337
3	0	1110,00	2,8209796
3	0	1115,00	2,8197968
3	0	1120,00	2,81981587
3	0	1125,00	2,82141829
3	0	1130,00	2,82080793
3	0	1135,00	2,82179999
3	0	1140,00	2,8212657
3	0	1145,00	2,82206702
3	0	1150,00	2,82055998
3	0	1155,00	2,82164741
3	0	1160,00	2,82050276
3	0	1165,00	2,81968236
3	0	1170,00	2,81815624
3	0	1175,00	2,81792736
3	0	1180,00	2,81670642
3	0	1185,00	2,81764102
3	0	1190,00	2,81727862
3	0	1195,00	2,81685901
3	0	1200,00	2,81746936
3	0	1205,00	2,81777477
3	0	1210,00	2,8172977
3	0	1215,00	2,81903386
3	0	1220,00	2,81888103
3	0	1225,00	2,82357407
3	0	1230,00	2,82441354
3	0	1235,00	2,82620668
3	0	1240,00	2,8220861
3	0	1245,00	2,82162809
3	0	1250,00	2,81890011
3	0	1255,00	2,82059813
3	0	1260,00	2,82105589
3	0	1265,00	2,82233405
3	0	1270,00	2,81998754
3	0	1275,00	2,81783199
3	0	1280,00	2,81588602
3	0	1285,00	2,81661105
3	0	1290,00	2,81672549
3	0	1295,00	2,81483674
3	0	1300,00	2,81485581
3	0	1305,00	2,81456971
3	0	1310,00	2,81580973
3	0	1315,00	2,81580973
3	0	1320,00	2,81428361
3	0	1325,00	2,81224227
3	0	1330,00	2,81199431
3	0	1335,00	2,81123137
3	0	1340,00	2,81130767
3	0	1345,00	2,812433
3	0	1350,00	2,81455064
3	0	1355,00	2,81428361
3	0	1360,00	2,81399751
3	0	1365,00	2,81418824
3	0	1370,00	2,81285286
3	0	1375,00	2,8132534
3	0	1380,00	2,81397843
3	0	1385,00	2,81966329
3	0	1390,00	2,81846142
3	0	1395,00	2,8154664
3	0	1400,00	2,81441712
3	0	1405,00	2,81455064
3	0	1410,00	2,81418824
3	0	1415,00	2,81283379
3	0	1420,00	2,81168914
3	0	1425,00	2,81252861
3	0	1430,00	2,81100225
3	0	1435,00	2,81228042
3	0	1440,00	2,81264305
3	0	1445,00	2,81054449
3	0	1450,00	2,81298637
3	0	1455,00	2,8183279
3	0	1460,00	2,81968236
3	0	1465,00	2,82059813
3	0	1470,00	2,82309723
3	0	1475,00	2,82553887
3	0	1480,00	2,82563448
3	0	1485,00	2,8270843
3	0	1490,00	2,82811427
3	0	1495,00	2,82555795
3	0	1500,00	2,82620668
3	0	1505,00	2,82437539
3	0	1510,00	2,8245852
3	0	1515,00	2,82382202
3	0	1520,00	2,82317352
3	0	1525,00	2,82351685
3	0	1530,00	2,82382202
3	0	1535,00	2,8223722
3	0	1540,00	2,82094145
3	0	1545,00	2,81941533
3	0	1550,00	2,81930089
3	0	1555,00	2,81874752
3	0	1560,00	2,81725955
3	0	1565,00	2,81695437
3	0	1570,00	2,81661105
3	0	1575,00	2,81790829
3	0	1580,00	2,81659198
3	0	1585,00	2,81598139
3	0	1590,00	2,81672549
3	0	1595,00	2,81455064
3	0	1600,00	2,81559992
3	0	1605,00	2,81645846
3	0	1610,00	2,81701159
3	0	1615,00	2,8154664
3	0	1620,00	2,81746936
3	0	1625,00	2,81424546
3	0	1630,00	2,81451249
3	0	1635,00	2,81565714
3	0	1640,00	2,81352043
3	0	1645,00	2,81437898
3	0	1650,00	2,81624842
3	0	1655,00	2,81663013
3	0	1660,00	2,81674457
3	0	1665,00	2,81424546
3	0	1670,00	2,81273842
3	0	1675,00	2,81285286
3	0	1680,00	2,81035376
3	0	1685,00	2,81067801
3	0	1690,00	2,81073523
3	0	1695,00	2,81043005
3	0	1700,00	2,81170821
3	0	1705,00	2,81105947
3	0	1710,00	2,81027746
3	0	1715,00	2,81239486
3	0	1720,00	2,81233764
3	0	1725,00	2,8112886
3	0	1730,00	2,81109762
3	0	1735,00	2,8126049
3	0	1740,00	2,812433
3	0	1745,00	2,81258583
3	0	1750,00	2,81394029
3	0	1755,00	2,81327248
3	0	1760,00	2,81371117
3	0	1765,00	2,81416917
3	0	1770,00	2,82162809
3	0	1775,00	2,81994939
3	0	1780,00	2,8206172
3	0	1785,00	2,82313538
3	0	1790,00	2,82546258
3	0	1795,00	2,82443261
3	0	1800,00	2,82792354
3	0	1805,00	2,82765651
3	0	1810,00	2,82563448
3	0	1815,00	2,83128119
3	0	1820,00	2,83189154
3	0	1825,00	2,83063245
3	0	1830,00	2,83097601
3	0	1835,00	2,83181524
3	0	1840,00	2,83530641
3	0	1845,00	2,83475304
3	0	1850,00	2,83408546
3	0	1855,00	2,83431435
3	0	1860,00	2,83461952
3	0	1865,00	2,83513474
3	0	1870,00	2,83458138
3	0	1875,00	2,83450508
3	0	1880,00	2,83702326
3	0	1885,00	2,83652735
3	0	1890,00	2,83708048
3	0	1895,00	2,83732843
3	0	1900,00	2,8368516
3	0	1905,00	2,83847308
3	0	1910,00	2,8382442
3	0	1915,00	2,83841586
3	0	1920,00	2,83843493
3	0	1925,00	2,83868289
3	0	1930,00	2,84013295
3	0	1935,00	2,84057164
3	0	1940,00	2,84139204
3	0	1945,00	2,84375739
3	0	1950,00	2,84371924
3	0	1955,00	2,84389091
3	0	1960,00	2,84492111
3	0	1965,00	2,84333777
3	0	1970,00	2,84276557
3	0	1975,00	2,8404572
3	0	1980,00	2,8396368
3	0	1985,00	2,83984661
3	0	1990,00	2,83940792
3	0	1995,00	2,83940792
3	0	2000,00	2,84072423
3	0	2005,00	2,84078145
3	0	2010,00	2,84099126
3	0	2015,00	2,84053349
3	0	2020,00	2,84024739
3	0	2025,00	2,83919811
3	0	2030,00	2,83875942
3	0	2035,00	2,83746219
3	0	2040,00	2,83736658
3	0	2045,00	2,83748126
3	0	2050,00	2,83801532
3	0	2055,00	2,83818698
3	0	2060,00	2,83843493
3	0	2065,00	2,8379581
3	0	2070,00	2,83780551
3	0	2075,00	2,83727121
3	0	2080,00	2,83761477
3	0	2085,00	2,83593583
3	0	2090,00	2,83528733
3	0	2095,00	2,83225417
3	0	2100,00	2,83231139
3	0	2105,00	2,83151007
3	0	2110,00	2,83542085
3	0	2115,00	2,83605027
3	0	2120,00	2,83523011
3	0	2125,00	2,83679438
3	0	2130,00	2,83473396
3	0	2135,00	2,83528733
3	0	2140,00	2,83633661
3	0	2145,00	2,83673716
3	0	2150,00	2,83486772
3	0	2155,00	2,83433342
3	0	2160,00	2,83448601
3	0	2165,00	2,83360863
3	0	2170,00	2,83448601
3	0	2175,00	2,83336043
3	0	2180,00	2,83301711
3	0	2185,00	2,83351326
3	0	2190,00	2,83366585
3	0	2195,00	2,83559251
3	0	2200,00	2,83330321
3	0	2205,00	2,83652735
3	0	2210,00	2,8415637
3	0	2215,00	2,8445015
3	0	2220,00	2,8386066
3	0	2225,00	2,83570695
3	0	2230,00	2,83578324
3	0	2235,00	2,83736658
3	0	2240,00	2,83700418
3	0	2245,00	2,83721399
3	0	2250,00	2,83889294
3	0	2255,00	2,8390646
3	0	2260,00	2,8379581
3	0	2265,00	2,83957958
3	0	2270,00	2,83936977
3	0	2275,00	2,84068608
3	0	2280,00	2,84225035
3	0	2285,00	2,84350944
3	0	2290,00	2,84371924
3	0	2295,00	2,84482574
3	0	2300,00	2,84469223
3	0	2305,00	2,8458178
3	0	2310,00	2,84349036
3	0	2315,00	2,8426702
3	0	2320,00	2,84242201
3	0	2325,00	2,84276557
3	0	2330,00	2,84320426
3	0	2335,00	2,8433187
3	0	2340,00	2,84276557
3	0	2345,00	2,84308982
3	0	2350,00	2,84278464
3	0	2355,00	2,84234571
3	0	2360,00	2,84131551
3	0	2365,00	2,84102941
3	0	2370,00	2,84038091
3	0	2375,00	2,84020925
3	0	2380,00	2,8399229
3	0	2385,00	2,84011388
3	0	2390,00	2,84349036
3	0	2395,00	2,84326148
3	0	2400,00	2,84350944
3	0	2405,00	2,84375739
3	0	2410,00	2,84381461
3	0	2415,00	2,84518814
3	0	2420,00	2,84642816
3	0	2425,00	2,84780169
3	0	2430,00	2,85106397
3	0	2435,00	2,85028172
3	0	2440,00	2,8486793
3	0	2445,00	2,84793544
3	0	2450,00	2,84724855
3	0	2455,00	2,8481071
3	0	2460,00	2,85001469
3	0	2465,00	2,84993839
3	0	2470,00	2,84909892
3	0	2475,00	2,84835505
3	0	2480,00	2,84743929
3	0	2485,00	2,84513092
3	0	2490,00	2,84383368
3	0	2495,00	2,84225035
3	0	2500,00	2,84123921
3	0	2505,00	2,8399992
3	0	2510,00	2,83771014
3	0	2515,00	2,83656549
3	0	2520,00	2,83469582
3	0	2525,00	2,83337951
3	0	2530,00	2,83294082
3	0	2535,00	2,8311286
3	0	2540,00	2,83124304
3	0	2545,00	2,8302319
3	0	2550,00	2,83057523
3	0	2555,00	2,83042264
3	0	2560,00	2,83053708
3	0	2565,00	2,83229232
3	0	2570,00	2,83297896
3	0	2575,00	2,83248305
3	0	2580,00	2,83631754
3	0	2585,00	2,83772922
3	0	2590,00	2,83809161
3	0	2595,00	2,83568788
3	0	2600,00	2,83444786
3	0	2605,00	2,83435249
3	0	2610,00	2,83368492
3	0	2615,00	2,83292174
3	0	2620,00	2,83261657
3	0	2625,00	2,83523011
3	0	2630,00	2,83479142
3	0	2635,00	2,83488679
3	0	2640,00	2,83572602
3	0	2645,00	2,83557343
3	0	2650,00	2,8356688
3	0	2655,00	2,83658457
3	0	2660,00	2,83977032
3	0	2665,00	2,84068608
3	0	2670,00	2,84095311
3	0	2675,00	2,84412003
3	0	2680,00	2,84396744
3	0	2685,00	2,84377646
3	0	2690,00	2,84286094
3	0	2695,00	2,8430326
3	0	2700,00	2,84358573
3	0	2705,00	2,84400558
3	0	2710,00	2,84417725
3	0	2715,00	2,84431076
3	0	2720,00	2,84402466
3	0	2725,00	2,84352851
3	0	2730,00	2,84366202
3	0	2735,00	2,84452057
3	0	2740,00	2,83866382
3	0	2745,00	2,83799624
3	0	2750,00	2,83736658
3	0	2755,00	2,83631754
3	0	2760,00	2,83683252
3	0	2765,00	2,83555436
3	0	2770,00	2,83521104
3	0	2775,00	2,83460045
3	0	2780,00	2,83511567
3	0	2785,00	2,83469582
3	0	2790,00	2,83406639
3	0	2795,00	2,83511567
3	0	2800,00	2,83357048
3	0	2805,00	2,83425713
3	0	2810,00	2,83809161
3	0	2815,00	2,83715677
3	0	2820,00	2,8379581
3	0	2825,00	2,83397102
3	0	2830,00	2,83261657
3	0	2835,00	2,8317008
3	0	2840,00	2,83236861
3	0	2845,00	2,83139563
3	0	2850,00	2,83120489
3	0	2855,00	2,83088064
3	0	2860,00	2,83072782
3	0	2865,00	2,82922077
3	0	2870,00	2,83076596
3	0	2875,00	2,83013654
3	0	2880,00	2,83189154
3	0	2885,00	2,83103323
3	0	2890,00	2,8294878
3	0	2895,00	2,83086157
3	0	2900,00	2,83044171
3	0	2905,00	2,83072782
3	0	2910,00	2,82870579
3	0	2915,00	2,82859135
3	0	2920,00	2,82876301
3	0	2925,00	2,82939243
3	0	2930,00	2,82859135
3	0	2935,00	2,82769465
3	0	2940,00	2,82746577
3	0	2945,00	2,82754207
3	0	2950,00	2,82664537
3	0	2955,00	2,8271606
3	0	2960,00	2,82712245
3	0	2965,00	2,82696986
3	0	2970,00	2,82834339
3	0	2975,00	2,83116674
3	0	2980,00	2,83173895
3	0	2985,00	2,83351326
3	0	2990,00	2,83345604
3	0	2995,00	2,8339901
3	0	3000,00	2,83419991
3	0	3005,00	2,83498216
3	0	3010,00	2,83271194
3	0	3015,00	2,83175802
3	0	3020,00	2,8319869
3	0	3025,00	2,83269286
3	0	3030,00	2,83357048
3	0	3035,00	2,83393288
3	0	3040,00	2,83326507
3	0	3045,00	2,83255935
3	0	3050,00	2,83368492
3	0	3055,00	2,83244491
3	0	3060,00	2,83139563
3	0	3065,00	2,8303082
3	0	3070,00	2,83015561
3	0	3075,00	2,82931614
3	0	3080,00	2,82946873
3	0	3085,00	2,82933521
3	0	3090,00	2,8292017
3	0	3095,00	2,83147192
3	0	3100,00	2,83139563
3	0	3105,00	2,83049893
3	0	3110,00	2,83171988
3	0	3115,00	2,83145285
3	0	3120,00	2,8310523
3	0	3125,00	2,83114767
3	0	3130,00	2,83275008
3	0	3135,00	2,83204412
3	0	3140,00	2,83311248
3	0	3145,00	2,83439064
3	0	3150,00	2,83366585
3	0	3155,00	2,83357048
3	0	3160,00	2,83561158
3	0	3165,00	2,8346386
3	0	3170,00	2,83631754
3	0	3175,00	2,83587861
3	0	3180,00	2,83618402
3	0	3185,00	2,83629847
3	0	3190,00	2,8348105
3	0	3195,00	2,83475304
3	0	3200,00	2,83698511
3	0	3205,00	2,83753848
3	0	3210,00	2,83751941
3	0	3215,00	2,83593583
3	0	3220,00	2,83500123
3	0	3225,00	2,83452415
3	0	3230,00	2,83412361
3	0	3235,00	2,83351326
3	0	3240,00	2,83330321
3	0	3245,00	2,8342762
3	0	3250,00	2,83341765
3	0	3255,00	2,83246398
3	0	3260,00	2,8317771
3	0	3265,00	2,83135748
3	0	3270,00	2,8311286
3	0	3275,00	2,83128119
3	0	3280,00	2,83107138
3	0	3285,00	2,8310523
3	0	3290,00	2,83149099
3	0	3295,00	2,83122396
3	0	3300,00	2,83160543
3	0	3305,00	2,83049893
3	0	3310,00	2,8303082
3	0	3315,00	2,82979321
3	0	3320,00	2,82880116
3	0	3325,00	2,82861042
3	0	3330,00	2,82803798
3	0	3335,00	2,82679796
3	0	3340,00	2,82601595
3	0	3345,00	2,82532907
3	0	3350,00	2,82508111
3	0	3355,00	2,82655001
3	0	3360,00	2,82706523
3	0	3365,00	2,82698894
3	0	3370,00	2,82639742
3	0	3375,00	2,82792354
3	0	3380,00	2,82719874
3	0	3385,00	2,82763743
3	0	3390,00	2,82723689
3	0	3395,00	2,82695079
3	0	3400,00	2,82696986
3	0	3405,00	2,82641649
3	0	3410,00	2,82664537
3	0	3415,00	2,82763743
3	0	3420,00	2,82567263
3	0	3425,00	2,82613039
3	0	3430,00	2,82601595
3	0	3435,00	2,82656908
3	0	3440,00	2,82740855
3	0	3445,00	2,82742763
3	0	3450,00	2,82693172
3	0	3455,00	2,8263402
3	0	3460,00	2,82614946
3	0	3465,00	2,82557702
3	0	3470,00	2,82496667
3	0	3475,00	2,82393646
3	0	3480,00	2,82351685
3	0	3485,00	2,82332611
3	0	3490,00	2,82214332
3	0	3495,00	2,82176185
3	0	3500,00	2,82094145
3	0	3505,00	2,82120848
3	0	3510,00	2,81880474
3	0	3515,00	2,81882381
3	0	3520,00	2,81867123
3	0	3525,00	2,81903386
3	0	3530,00	2,81672549
3	0	3535,00	2,81735492
3	0	3540,00	2,81630564
3	0	3545,00	2,81720233
3	0	3550,00	2,81613398
3	0	3555,00	2,81605768
3	0	3560,00	2,81670642
3	0	3565,00	2,81672549
3	0	3570,00	2,81647754
3	0	3575,00	2,81531382
3	0	3580,00	2,81626749
3	0	3585,00	2,8155427
3	0	3590,00	2,81451249
3	0	3595,00	2,81434083
3	0	3600,00	2,81485581