File: Experimentelles/Rohdaten/Batterietests/AlteZelle/Studenten_Batterietests/S+C_LATP_Au/OCV_CV/ECLab-Export/S+C_LATP_AU_01_OCV_C03.mpt
EC-Lab ASCII FILE
Nb header lines : 50

Open Circuit Voltage

Run on channel : 3 (SN 6987)
Grouped channel(s) : 3
User :
CE vs. WE compliance from -10 V to 10 V
Electrode connection : standard
Ewe ctrl range : min = -5,00 V, max = 5,00 V
Acquisition started on : 02.10.2015 16:34:49
Saved on :
	File : S+C_LATP_AU_01_OCV_C03.mpr
	Directory : C:\Hupfer\Studenten Batterietests\S+C_LATP_Au\OCV_CV\
	Host : 192.168.0.2
Device : VMP3 (SN 0324)
Address : 192.168.0.1
EC-Lab for windows v10.33 (software)
Internet server v10.33 (firmware)
Command interpretor v10.32 (firmware)
Electrode material :
Initial state :
Electrolyte :
Comments :
Electrode surface area : 0,001 cm²
Characteristic mass : 0,001 g
Equivalent Weight : 0,000 g/eq.
Density : 0,000 g/cm3
tR (h:m:s)          0:10:30,0000
dER/dt (mV/h)       1,0
dER (mV)            1,00
dtR (s)             0,5000
E range min (V)     -5,000
E range max (V)     5,000

Number of loops : 11
Loop 0 from point number 0 to 880
Loop 1 from point number 881 to 2644
Loop 2 from point number 2645 to 4330
Loop 3 from point number 4331 to 5853
Loop 4 from point number 5854 to 7332
Loop 5 from point number 7333 to 8688
Loop 6 from point number 8689 to 10037
Loop 7 from point number 10038 to 11387
Loop 8 from point number 11388 to 12743
Loop 9 from point number 12744 to 14107
Loop 10 from point number 14108 to 15480

mode	error	time/s	Ewe/V
3	0	0,0000	0,000308061164
3	0	5,5000	0,000288997544
3	0	11,0000	0,000308061164
3	0	16,5000	0,000308061164
3	0	22,0000	0,000212743034
3	0	27,5000	0,0001936794
3	0	33,0000	0,000269933895
3	0	38,5000	0,000288997544
3	0	44,0000	0,000555888284
3	0	49,5000	0,000479633774
3	0	55,0000	0,000517761044
3	0	60,5000	0,000536824635
3	0	66,0000	0,000403379265
3	0	71,5000	0,000555888284
3	0	77,0000	0,000555888284
3	0	82,5000	0,000555888284
3	0	88,0000	0,000441506534
3	0	93,5000	0,000422442885
3	0	99,0000	0,000441506534
3	0	104,5000	4,11704095E-005
3	0	110,0000	7,92976571E-005
3	0	115,5000	7,92976571E-005
3	0	121,0000	-3,50840855E-005
3	0	126,5000	-7,32113331E-005
3	0	132,0000	-0,000130402201
3	0	137,5000	-0,000111338581
3	0	143,0000	-0,000130402201
3	0	148,5000	2,21067858E-005
3	0	154,0000	-1,60204618E-005
3	0	159,5000	0,000288997544
3	0	165,0000	0,000346188404
3	0	170,5000	0,000403379265
3	0	176,0000	0,000346188404
3	0	181,5000	0,000441506534
3	0	187,0000	0,000441506534
3	0	192,5000	0,000460570154
3	0	198,0000	0,000498697395
3	0	203,5000	0,000536824635
3	0	209,0000	0,000498697395
3	0	214,5000	0,000269933895
3	0	220,0000	3,043162E-006
3	0	225,5000	-5,41477093E-005
3	0	231,0000	6,02340333E-005
3	0	236,5000	0,000136488539
3	0	242,0000	0,000327124784
3	0	247,5000	0,000498697395
3	0	253,0000	0,000498697395
3	0	258,5000	0,000498697395
3	0	264,0000	0,000346188404
3	0	269,5000	0,000327124784
3	0	275,0000	6,02340333E-005
3	0	280,5000	-0,000130402201
3	0	286,0000	-9,22749532E-005
3	0	291,5000	-0,000244783936
3	0	297,0000	-0,000168529441
3	0	302,5000	-0,000149465821
3	0	308,0000	-0,000149465821
3	0	313,5000	-0,000244783936
3	0	319,0000	-0,000187593076
3	0	324,5000	-0,000130402201
3	0	330,0000	-1,60204618E-005
3	0	335,5000	0,000269933895
3	0	341,0000	0,000327124784
3	0	346,5000	0,000498697395
3	0	352,0000	0,000346188404
3	0	357,5000	0,000327124784
3	0	363,0000	0,000308061164
3	0	368,5000	0,000269933895
3	0	374,0000	9,83612845E-005
3	0	379,5000	3,043162E-006
3	0	385,0000	2,21067858E-005
3	0	390,5000	-0,000149465821
3	0	396,0000	-9,22749532E-005
3	0	401,5000	-0,000130402201
3	0	407,0000	-0,000187593076
3	0	412,5000	-0,000187593076
3	0	418,0000	-0,000187593076
3	0	423,5000	-3,50840855E-005
3	0	429,0000	0,000269933895
3	0	434,5000	0,000212743034
3	0	439,8922	0,000498697395
3	0	1439,9994	-0,369125903
3	0	1440,0102	-0,38166976
3	0	1440,0230	-0,394061118
3	0	1440,0372	-0,40582335
3	0	1440,0536	-0,417547494
3	0	1440,0734	-0,429633826
3	0	1440,0956	-0,44130078
3	0	1440,1210	-0,452853322
3	0	1440,1510	-0,464672774
3	0	1440,1858	-0,476435035
3	0	1440,2256	-0,488254488
3	0	1440,2708	-0,499959528
3	0	1440,3220	-0,511378646
3	0	1440,3800	-0,522759616
3	0	1440,4462	-0,534197807
3	0	1440,5212	-0,545655012
3	0	1440,6068	-0,557341039
3	0	1440,7030	-0,568798244
3	0	1440,8116	-0,580331743
3	0	1440,9282	-0,591560245
3	0	1441,0600	-0,603112817
3	0	1441,2036	-0,614531875
3	0	1441,3572	-0,625893831
3	0	1441,5248	-0,637446404
3	0	1441,7034	-0,648770154
3	0	1441,8902	-0,660036802
3	0	1442,0952	-0,671474934
3	0	1442,3082	-0,682817817
3	0	1442,5366	-0,694141567
3	0	1442,7820	-0,705370069
3	0	1443,0484	-0,716846347
3	0	1443,3332	-0,728093922
3	0	1443,6426	-0,739379585
3	0	1443,9840	-0,750913084
3	0	1444,3552	-0,762332201
3	0	1444,7676	-0,773655951
3	0	1445,2122	-0,784884453
3	0	1445,7124	-0,796208262
3	0	1446,2696	-0,807589233
3	0	1446,8916	-0,818913043
3	0	1447,5886	-0,830198705
3	0	1448,3720	-0,841484368
3	0	1449,2684	-0,852827191
3	0	1450,3094	-0,864093781
3	0	1451,5032	-0,875436664
3	0	1452,9108	-0,886607945
3	0	1454,6206	-0,897969842
3	0	1456,7792	-0,909408033
3	0	1459,5738	-0,920636535
3	0	1463,5638	-0,931941211
3	0	1468,9128	-0,940500796
3	0	1474,4128	-0,944885433
3	0	1479,9128	-0,946086466
3	0	1485,4128	-0,945323884
3	0	1490,9128	-0,943017185
3	0	1496,4128	-0,9397192
3	0	1501,9128	-0,935525179
3	0	1507,4128	-0,931064308
3	0	1512,9128	-0,926050603
3	0	1518,4128	-0,920960605
3	0	1523,9128	-0,91556561
3	0	1529,4128	-0,910132468
3	0	1534,9128	-0,904794633
3	0	1540,4128	-0,899037421
3	0	1545,9128	-0,893756807
3	0	1551,4128	-0,888323665
3	0	1556,9128	-0,882947743
3	0	1562,4128	-0,877533674
3	0	1567,9128	-0,872538984
3	0	1573,4128	-0,867677748
3	0	1578,9128	-0,862759352
3	0	1584,4128	-0,858012497
3	0	1589,9128	-0,853494406
3	0	1595,4128	-0,849166989
3	0	1600,9128	-0,845011115
3	0	1606,4128	-0,840836167
3	0	1611,9128	-0,836909056
3	0	1617,4128	-0,833153546
3	0	1622,9128	-0,829455197
3	0	1628,4128	-0,825909376
3	0	1633,9128	-0,822725713
3	0	1639,4128	-0,819408655
3	0	1644,9128	-0,816358507
3	0	1650,4128	-0,813517988
3	0	1655,9128	-0,810696602
3	0	1661,4128	-0,808084846
3	0	1666,9128	-0,805244386
3	0	1672,4128	-0,802747071
3	0	1677,9128	-0,800402224
3	0	1683,4128	-0,798190832
3	0	1688,9128	-0,795846045
3	0	1694,4128	-0,793691814
3	0	1699,9128	-0,791537642
3	0	1705,4128	-0,789574087
3	0	1710,9128	-0,787629604
3	0	1716,4128	-0,785704195
3	0	1721,9128	-0,783816874
3	0	1727,4128	-0,782101154
3	0	1732,9128	-0,780290127
3	0	1738,4128	-0,778574407
3	0	1743,9128	-0,776992083
3	0	1749,4128	-0,775409818
3	0	1754,9128	-0,773827553
3	0	1760,4128	-0,772168994
3	0	1765,9128	-0,770815492
3	0	1771,4128	-0,769233227
3	0	1776,9128	-0,767841578
3	0	1782,4128	-0,766411781
3	0	1787,9128	-0,765153587
3	0	1793,4128	-0,76366663
3	0	1798,9128	-0,762408435
3	0	1804,4128	-0,76109302
3	0	1809,9128	-0,759872973
3	0	1815,4128	-0,758519471
3	0	1820,9128	-0,757356584
3	0	1826,4128	-0,756174624
3	0	1831,9128	-0,754859209
3	0	1837,4128	-0,753734469
3	0	1842,9128	-0,752476275
3	0	1848,4128	-0,751446843
3	0	1853,9128	-0,750131488
3	0	1859,4128	-0,749025762
3	0	1864,9128	-0,747786641
3	0	1870,4128	-0,746776283
3	0	1875,9128	-0,745708704
3	0	1881,4128	-0,744622052
3	0	1886,9128	-0,743382931
3	0	1892,4128	-0,742486954
3	0	1897,9128	-0,741381228
3	0	1903,4128	-0,740389943
3	0	1908,9128	-0,739207983
3	0	1914,4128	-0,738159478
3	0	1919,9128	-0,737072885
3	0	1925,4128	-0,736081541
3	0	1930,9128	-0,735033095
3	0	1936,4128	-0,734003603
3	0	1941,9128	-0,732993245
3	0	1947,4128	-0,731925726
3	0	1952,9128	-0,730915308
3	0	1958,4128	-0,729943097
3	0	1963,9128	-0,728856444
3	0	1969,4128	-0,727846086
3	0	1974,9128	-0,726664126
3	0	1980,4127	-0,72582531
3	0	1985,9127	-0,724834025
3	0	1991,4127	-0,723938048
3	0	1996,9127	-0,722794235
3	0	2002,4127	-0,721974492
3	0	2007,9127	-0,720830679
3	0	2013,4127	-0,719953716
3	0	2018,9127	-0,718867123
3	0	2024,4127	-0,717952073
3	0	2029,9127	-0,716941714
3	0	2035,4127	-0,71595037
3	0	2040,9127	-0,715035319
3	0	2046,4127	-0,714101195
3	0	2051,9127	-0,713033676
3	0	2057,4127	-0,712175786
3	0	2062,9127	-0,711298883
3	0	2068,4127	-0,710383832
3	0	3070,0907	-1,18134177
3	0	3070,0995	-1,19354248
3	0	3070,1101	-1,20629609
3	0	3070,1221	-1,21874464
3	0	3070,1355	-1,23086905
3	0	3070,1505	-1,24299347
3	0	3070,1681	-1,25534678
3	0	3070,1869	-1,26726151
3	0	3070,2081	-1,27913821
3	0	3070,2323	-1,29139602
3	0	3070,2587	-1,30331087
3	0	3070,2879	-1,31518745
3	0	3070,3195	-1,32679725
3	0	3070,3537	-1,33836877
3	0	3070,3919	-1,34986424
3	0	3070,4351	-1,36183619
3	0	3070,4823	-1,37348402
3	0	3070,5333	-1,3852272
3	0	3070,5895	-1,39679885
3	0	3070,6529	-1,4086374
3	0	3070,7209	-1,42009461
3	0	3070,7961	-1,43162811
3	0	3070,8795	-1,44310439
3	0	3070,9713	-1,45458066
3	0	3071,0737	-1,46598077
3	0	3071,1883	-1,47739983
3	0	3071,3149	-1,48879993
3	0	3071,4555	-1,50008559
3	0	3071,6213	-1,51161909
3	0	3071,8035	-1,52292383
3	0	3072,0207	-1,53447628
3	0	3072,2629	-1,54578102
3	0	3072,5435	-1,55697143
3	0	3072,8727	-1,56823802
3	0	3073,2821	-1,579638
3	0	3073,7691	-1,59088564
3	0	3074,4059	-1,60243809
3	0	3075,2081	-1,61366665
3	0	3076,3241	-1,62500942
3	0	3077,9907	-1,63623798
3	0	3081,0971	-1,64759982
3	0	3086,4627	-1,65450084
3	0	3091,9627	-1,65545404
3	0	3097,4627	-1,65366209
3	0	3102,9627	-1,65024972
3	0	3108,4627	-1,6459223
3	0	3113,9627	-1,64108014
3	0	3119,4627	-1,63576138
3	0	3124,9627	-1,63029015
3	0	3130,4627	-1,62417066
3	0	3135,9627	-1,61820376
3	0	3141,4627	-1,61196995
3	0	3146,9627	-1,60564089
3	0	3152,4627	-1,59931171
3	0	3157,9627	-1,59284914
3	0	3163,4627	-1,58632934
3	0	3168,9627	-1,58003843
3	0	3174,4627	-1,57349956
3	0	3179,9627	-1,56726575
3	0	3185,4627	-1,56076503
3	0	3190,9627	-1,55445504
3	0	3196,4627	-1,54825938
3	0	3201,9627	-1,54189205
3	0	3207,4627	-1,53584886
3	0	3212,9627	-1,52978671
3	0	3218,4627	-1,52362907
3	0	3223,9627	-1,51760507
3	0	3229,4627	-1,51173341
3	0	3234,9627	-1,50609064
3	0	3240,4627	-1,50029528
3	0	3245,9627	-1,49459517
3	0	3251,4627	-1,48912394
3	0	3256,9627	-1,48355734
3	0	3262,4627	-1,47793365
3	0	3267,9627	-1,47255766
3	0	3273,4627	-1,46708643
3	0	3278,9627	-1,46172953
3	0	3284,4627	-1,45644891
3	0	3289,9627	-1,45118737
3	0	3295,4627	-1,44590676
3	0	3300,9627	-1,44056892
3	0	3306,4627	-1,435498
3	0	3311,9627	-1,43023646
3	0	3317,4627	-1,4249177
3	0	3322,9627	-1,41990399
3	0	3328,4627	-1,41469955
3	0	3333,9627	-1,40960956
3	0	3339,4627	-1,40459585
3	0	3344,9627	-1,39958215
3	0	3350,4627	-1,3945303
3	0	3355,9627	-1,38938308
3	0	3361,4627	-1,38414061
3	0	3366,9627	-1,37895525
3	0	3372,4627	-1,37392247
3	0	3377,9627	-1,3688134
3	0	3383,4627	-1,36378062
3	0	3388,9627	-1,35846186
3	0	3394,4627	-1,35327661
3	0	3399,9627	-1,3480531
3	0	3405,4627	-1,34300125
3	0	3410,9627	-1,33789229
3	0	3416,4627	-1,33259261
3	0	3421,9627	-1,32744539
3	0	3427,4627	-1,32233632
3	0	3432,9627	-1,31699848
3	0	3438,4627	-1,31166065
3	0	3443,9627	-1,30624664
3	0	3449,4627	-1,30096602
3	0	3454,9627	-1,29545665
3	0	3460,4627	-1,29021406
3	0	3465,9627	-1,28481913
3	0	3471,4627	-1,27942407
3	0	3476,9627	-1,27385747
3	0	3482,4627	-1,26842439
3	0	3487,9627	-1,26270533
3	0	3493,4627	-1,2572341
3	0	3498,9627	-1,2516675
3	0	3504,4627	-1,24598646
3	0	3509,9627	-1,24032462
3	0	3515,4627	-1,23458648
3	0	3520,9627	-1,22886741
3	0	3526,4627	-1,22320545
3	0	3531,9627	-1,21748638
3	0	3537,4627	-1,21159577
3	0	3542,9627	-1,20581949
3	0	3548,4627	-1,19998598
3	0	3553,9627	-1,19403815
3	0	3559,4627	-1,18828094
3	0	3564,9627	-1,18227589
3	0	3570,4627	-1,17634714
3	0	3575,9627	-1,17034209
3	0	3581,4627	-1,16443229
3	0	3586,9627	-1,15831292
3	0	3592,4627	-1,15230787
3	0	3597,9627	-1,14618838
3	0	3603,4627	-1,14001179
3	0	3608,9627	-1,13381612
3	0	3614,4627	-1,12769675
3	0	3619,9627	-1,12153912
3	0	3625,4627	-1,11519098
3	0	3630,9627	-1,10907161
3	0	3636,4627	-1,10276151
3	0	3641,9627	-1,09650862
3	0	3647,4627	-1,09023666
3	0	3652,9627	-1,08388853
3	0	3658,4627	-1,07757843
3	0	3663,9627	-1,07119215
3	0	3669,4627	-1,06499648
3	0	3674,9627	-1,05857205
3	0	3680,4627	-1,05231917
3	0	3685,9627	-1,04598999
3	0	3691,4627	-1,03975618
3	0	3696,9627	-1,03356051
3	0	4700,1809	-1,5096364
3	0	4700,1901	-1,52267599
3	0	4700,2005	-1,53504825
3	0	4700,2125	-1,54717267
3	0	4700,2271	-1,55958307
3	0	4700,2431	-1,5713073
3	0	4700,2623	-1,58306944
3	0	4700,2843	-1,59467924
3	0	4700,3113	-1,60661304
3	0	4700,3423	-1,61833715
3	0	4700,3789	-1,63000417
3	0	4700,4227	-1,64172828
3	0	4700,4729	-1,65307117
3	0	4700,5349	-1,66481435
3	0	4700,6055	-1,67610002
3	0	4700,6915	-1,6874429
3	0	4700,7981	-1,69899535
3	0	4700,9289	-1,71049082
3	0	4701,0895	-1,72179544
3	0	4701,2983	-1,73319554
3	0	4701,5699	-1,74446213
3	0	4701,9423	-1,75584316
3	0	4702,4787	-1,7671479
3	0	4703,3163	-1,77843356
3	0	4704,8405	-1,7897383
3	0	4708,5909	-1,80069983
3	0	4714,0909	-1,80519879
3	0	4719,5909	-1,80624735
3	0	4725,0909	-1,80605674
3	0	4730,5909	-1,80504632
3	0	4736,0909	-1,80384529
3	0	4741,5909	-1,80237746
3	0	4747,0909	-1,80069983
3	0	4752,5909	-1,7988888
3	0	4758,0909	-1,7970587
3	0	4763,5909	-1,7948854
3	0	4769,0909	-1,79275036
3	0	4774,5909	-1,79032922
3	0	4780,0909	-1,78794622
3	0	4785,5909	-1,7855252
3	0	4791,0909	-1,78285623
3	0	4796,5909	-1,77999675
3	0	4802,0909	-1,77728975
3	0	4807,5909	-1,77416325
3	0	4813,0909	-1,77109396
3	0	4818,5909	-1,76775789
3	0	4824,0909	-1,7643646
3	0	4829,5909	-1,76085687
3	0	4835,0909	-1,75719666
3	0	4840,5909	-1,75346017
3	0	4846,0909	-1,74945676
3	0	4851,5909	-1,74562502
3	0	4857,0909	-1,74137378
3	0	4862,5909	-1,7371608
3	0	4868,0909	-1,7326808
3	0	4873,5909	-1,72812462
3	0	4879,0909	-1,72351122
3	0	4884,5909	-1,71889782
3	0	4890,0909	-1,71401751
3	0	4895,5909	-1,70925164
3	0	4901,0909	-1,70406628
3	0	4906,5909	-1,6990335
3	0	4912,0909	-1,69398165
3	0	4917,5909	-1,68877733
3	0	4923,0909	-1,6837064
3	0	4928,5909	-1,67834949
3	0	4934,0909	-1,67308795
3	0	4939,5909	-1,66795981
3	0	4945,0909	-1,66271734
3	0	4950,5909	-1,65776074
3	0	4956,0909	-1,65246105
3	0	4961,5909	-1,64758086
3	0	4967,0909	-1,64245272
3	0	4972,5909	-1,63747704
3	0	4978,0909	-1,63267303
3	0	4983,5909	-1,62777364
3	0	4989,0909	-1,62306499
3	0	4994,5909	-1,61818469
3	0	5000,0909	-1,61349499
3	0	5005,5909	-1,60888159
3	0	5011,0909	-1,60434449
3	0	5016,5909	-1,60005522
3	0	5022,0909	-1,59542274
3	0	5027,5909	-1,59107625
3	0	5033,0909	-1,58674884
3	0	5038,5909	-1,58245945
3	0	5044,0909	-1,5782274
3	0	5049,5909	-1,57412863
3	0	5055,0909	-1,57002997
3	0	5060,5909	-1,56604564
3	0	5066,0909	-1,56192791
3	0	5071,5909	-1,5579437
3	0	5077,0909	-1,55397844
3	0	5082,5909	-1,55012751
3	0	5088,0909	-1,54608607
3	0	5093,5909	-1,54210174
3	0	5099,0909	-1,53838432
3	0	5104,5909	-1,53459072
3	0	5110,0909	-1,5308733
3	0	5115,5909	-1,52706063
3	0	5121,0909	-1,52332413
3	0	5126,5909	-1,51960671
3	0	5132,0909	-1,51583207
3	0	5137,5909	-1,51209569
3	0	5143,0909	-1,50853074
3	0	5148,5909	-1,50466084
3	0	5154,0909	-1,50113404
3	0	5159,5909	-1,4973594
3	0	5165,0909	-1,49366117
3	0	5170,5909	-1,48988652
3	0	5176,0909	-1,48626447
3	0	5181,5909	-1,48256612
3	0	5187,0909	-1,47879148
3	0	5192,5909	-1,47513127
3	0	5198,0909	-1,47156632
3	0	5203,5909	-1,46781087
3	0	5209,0909	-1,46415067
3	0	5214,5909	-1,4603951
3	0	5220,0909	-1,45679212
3	0	5225,5909	-1,45311272
3	0	5231,0909	-1,44937634
3	0	5236,5909	-1,44562078
3	0	5242,0909	-1,44192243
3	0	5247,5909	-1,43805254
3	0	5253,0909	-1,43427789
3	0	5258,5909	-1,43046522
3	0	5264,0909	-1,42686212
3	0	5269,5909	-1,4230113
3	0	5275,0909	-1,41923678
3	0	5280,5909	-1,41515708
3	0	5286,0909	-1,41142058
3	0	5291,5909	-1,40758884
3	0	5297,0909	-1,40360451
3	0	5302,5909	-1,39952493
3	0	5308,0909	-1,3958075
3	0	5313,5909	-1,391747
3	0	5319,0909	-1,38787711
3	0	5324,5909	-1,38379741
3	0	5330,0909	-1,37969875
3	0	6330,3037	-1,62371314
3	0	6330,3103	-1,63867807
3	0	6330,3169	-1,65146983
3	0	6330,3249	-1,66460466
3	0	6330,3341	-1,67735815
3	0	6330,3453	-1,69020712
3	0	6330,3579	-1,70238876
3	0	6330,3727	-1,71415102
3	0	6330,3909	-1,72595131
3	0	6330,4133	-1,7377708
3	0	6330,4417	-1,74978089
3	0	6330,4775	-1,76139069
3	0	6330,5235	-1,77292418
3	0	6330,5855	-1,78445756
3	0	6330,6683	-1,79578137
3	0	6330,7887	-1,80725777
3	0	6330,9663	-1,81860054
3	0	6331,2459	-1,82994342
3	0	6331,7319	-1,84132445
3	0	6332,7353	-1,85253382
3	0	6336,0981	-1,86313319
3	0	6341,5981	-1,86538267
3	0	6347,0981	-1,86421978
3	0	6352,5981	-1,86275196
3	0	6358,0981	-1,86113155
3	0	6363,5981	-1,85956836
3	0	6369,0981	-1,85808134
3	0	6374,5981	-1,85657537
3	0	6380,0981	-1,8551265
3	0	6385,5981	-1,8538301
3	0	6391,0981	-1,85236228
3	0	6396,5981	-1,85102785
3	0	6402,0981	-1,84982681
3	0	6407,5981	-1,84841609
3	0	6413,0981	-1,84711981
3	0	6418,5981	-1,84570909
3	0	6424,0981	-1,84448898
3	0	6429,5981	-1,84317362
3	0	6435,0981	-1,84166753
3	0	6440,5981	-1,84021878
3	0	6446,0981	-1,83886516
3	0	6451,5981	-1,83737826
3	0	6457,0981	-1,83583415
3	0	6462,5981	-1,83425176
3	0	6468,0981	-1,83259332
3	0	6473,5981	-1,83085847
3	0	6479,0981	-1,82916176
3	0	6484,5981	-1,82731271
3	0	6490,0981	-1,82542539
3	0	6495,5981	-1,82353806
3	0	6501,0981	-1,82165074
3	0	6506,5981	-1,8196491
3	0	6512,0981	-1,81751394
3	0	6517,5981	-1,81535971
3	0	6523,0981	-1,81295776
3	0	6528,5981	-1,81080353
3	0	6534,0981	-1,80828714
3	0	6539,5981	-1,80577075
3	0	6545,0981	-1,80329251
3	0	6550,5981	-1,80058551
3	0	6556,0981	-1,79789746
3	0	6561,5981	-1,79513323
3	0	6567,0981	-1,79212117
3	0	6572,5981	-1,78920448
3	0	6578,0981	-1,78611612
3	0	6583,5981	-1,78289437
3	0	6589,0981	-1,77957737
3	0	6594,5981	-1,7762984
3	0	6600,0981	-1,77273345
3	0	6605,5981	-1,76932108
3	0	6611,0981	-1,76579428
3	0	6616,5981	-1,762115
3	0	6622,0981	-1,75818801
3	0	6627,5981	-1,75448966
3	0	6633,0981	-1,75046718
3	0	6638,5981	-1,74648285
3	0	6644,0981	-1,74244142
3	0	6649,5981	-1,73828554
3	0	6655,0981	-1,73399615
3	0	6660,5981	-1,72999287
3	0	6666,0981	-1,72553194
3	0	6671,5981	-1,72131896
3	0	6677,0981	-1,71693432
3	0	6682,5981	-1,71258771
3	0	6688,0981	-1,70818412
3	0	6693,5981	-1,70383751
3	0	6699,0981	-1,69933856
3	0	6704,5981	-1,69499207
3	0	6710,0981	-1,69077897
3	0	6715,5981	-1,68647063
3	0	6721,0981	-1,68206692
3	0	6726,5981	-1,6778729
3	0	6732,0981	-1,67367887
3	0	6737,5981	-1,669523
3	0	6743,0981	-1,66548157
3	0	6748,5981	-1,66153538
3	0	6754,0981	-1,65741765
3	0	6759,5981	-1,65362394
3	0	6765,0981	-1,64952528
3	0	6770,5981	-1,64575064
3	0	6776,0981	-1,64205241
3	0	6781,5981	-1,63822055
3	0	6787,0981	-1,63454127
3	0	6792,5981	-1,63091922
3	0	6798,0981	-1,62737334
3	0	6803,5981	-1,62384665
3	0	6809,0981	-1,62024355
3	0	6814,5981	-1,61681211
3	0	6820,0981	-1,61330438
3	0	6825,5981	-1,60991108
3	0	6831,0981	-1,60665119
3	0	6836,5981	-1,6031816
3	0	6842,0981	-1,59982646
3	0	6847,5981	-1,59658563
3	0	6853,0981	-1,59319234
3	0	6858,5981	-1,59004676
3	0	6864,0981	-1,58686316
3	0	6869,5981	-1,58373678
3	0	6875,0981	-1,58047688
3	0	6880,5981	-1,57721698
3	0	6886,0981	-1,57410955
3	0	6891,5981	-1,57100224
3	0	6897,0981	-1,56787574
3	0	6902,5981	-1,56474936
3	0	6908,0981	-1,56154668
3	0	6913,5981	-1,55853462
3	0	6919,0981	-1,55544627
3	0	6924,5981	-1,55241525
3	0	6930,0981	-1,54911721
3	0	6935,5981	-1,54614329
3	0	6941,0981	-1,54311216
3	0	6946,5981	-1,54008102
3	0	6952,0981	-1,53697371
3	0	6957,5981	-1,53398073
3	0	7960,3998	-1,78215098
3	0	7960,4198	-1,79416096
3	0	7960,4476	-1,80563736
3	0	7960,4918	-1,81751394
3	0	7960,5590	-1,82902837
3	0	7960,6674	-1,8404094
3	0	7960,8534	-1,85188568
3	0	7961,1878	-1,86326659
3	0	7961,9228	-1,87468576
3	0	7964,6456	-1,88553298
3	0	7970,1456	-1,8864671
3	0	7975,6456	-1,88431287
3	0	7981,1456	-1,88166308
3	0	7986,6456	-1,87903225
3	0	7992,1456	-1,87659216
3	0	7997,6456	-1,87447608
3	0	8003,1456	-1,87235999
3	0	8008,6456	-1,87060618
3	0	8014,1456	-1,86866164
3	0	8019,6456	-1,86707938
3	0	8025,1456	-1,8653065
3	0	8030,6456	-1,86374319
3	0	8036,1456	-1,86223722
3	0	8041,6456	-1,86067402
3	0	8047,1456	-1,85933959
3	0	8052,6456	-1,85789073
3	0	8058,1456	-1,85642278
3	0	8063,6456	-1,85508835
3	0	8069,1456	-1,853773
3	0	8074,6456	-1,85230505
3	0	8080,1456	-1,85081816
3	0	8085,6456	-1,84929299
3	0	8091,1456	-1,84807289
3	0	8096,6456	-1,84643352
3	0	8102,1456	-1,84485114
3	0	8107,6456	-1,84344053
3	0	8113,1456	-1,84174383
3	0	8118,6456	-1,84016156
3	0	8124,1456	-1,83852208
3	0	8129,6456	-1,83686352
3	0	8135,1456	-1,8349762
3	0	8140,6456	-1,83320332
3	0	8146,1456	-1,83127785
3	0	8151,6456	-1,82944775
3	0	8157,1456	-1,82742703
3	0	8162,6456	-1,82546353
3	0	8168,1456	-1,82327116
3	0	8173,6456	-1,821136
3	0	8179,1456	-1,81898189
3	0	8184,6456	-1,81675136
3	0	8190,1456	-1,81431127
3	0	8195,6456	-1,8119092
3	0	8201,1456	-1,80941188
3	0	8206,6456	-1,80700994
3	0	8212,1456	-1,80428374
3	0	8217,6456	-1,80157673
3	0	8223,1456	-1,79875529
3	0	8228,6456	-1,79597211
3	0	8234,1456	-1,79299808
3	0	8239,6456	-1,79004323
3	0	8245,1456	-1,7870121
3	0	8250,6456	-1,78390479
3	0	8256,1456	-1,78064489
3	0	8261,6456	-1,77732778
3	0	8267,1456	-1,77402985
3	0	8272,6456	-1,77059841
3	0	8278,1456	-1,76710975
3	0	8283,6456	-1,76358294
3	0	8289,1456	-1,7598846
3	0	8294,6456	-1,75637686
3	0	8300,1456	-1,75258327
3	0	8305,6456	-1,74888492
3	0	8311,1456	-1,74511027
3	0	8316,6456	-1,74127853
3	0	8322,1456	-1,73737049
3	0	8327,6456	-1,73348153
3	0	8333,1456	-1,72980225
3	0	8338,6456	-1,72585607
3	0	8344,1456	-1,72200525
3	0	8349,6456	-1,71798277
3	0	8355,1456	-1,71405566
3	0	8360,6456	-1,71030009
3	0	8366,1456	-1,70637298
3	0	8371,6456	-1,70250309
3	0	8377,1456	-1,69876659
3	0	8382,6456	-1,69495392
3	0	8388,1456	-1,69104588
3	0	8393,6456	-1,6875
3	0	8399,1456	-1,68380165
3	0	8404,6456	-1,68006527
3	0	8410,1456	-1,67669094
3	0	8415,6456	-1,67303073
3	0	8421,1456	-1,66959929
3	0	8426,6456	-1,66614878
3	0	8432,1456	-1,6626029
3	0	8437,6456	-1,65926683
3	0	8443,1456	-1,65594971
3	0	8448,6456	-1,65267074
3	0	8454,1456	-1,64935374
3	0	8459,6456	-1,64620817
3	0	8465,1456	-1,64298642
3	0	8470,6456	-1,63974571
3	0	8476,1456	-1,63663828
3	0	8481,6456	-1,63354993
3	0	8487,1456	-1,63048077
3	0	8492,6456	-1,62739241
3	0	8498,1456	-1,62449479
3	0	8503,6456	-1,62146366
3	0	8509,1456	-1,61848974
3	0	8514,6456	-1,61547768
3	0	8520,1456	-1,61263716
3	0	8525,6456	-1,60973954
3	0	8531,1456	-1,60663211
3	0	8536,6456	-1,60386789
3	0	8542,1456	-1,60093212
3	0	8547,6456	-1,59822512
3	0	8553,1456	-1,59540367
3	0	8558,6456	-1,59252501
3	0	8564,1456	-1,58985615
3	0	8569,6456	-1,58686316
3	0	8575,1456	-1,58413708
3	0	8580,6456	-1,58120131
3	0	8586,1456	-1,57853234
3	0	9590,4870	-1,79332221
3	0	9590,5060	-1,804932
3	0	9590,5348	-1,81642735
3	0	9590,5790	-1,82788455
3	0	9590,6504	-1,83930361
3	0	9590,7682	-1,85068464
3	0	9590,9832	-1,86214185
3	0	9591,3858	-1,87344658
3	0	9592,3636	-1,88467515
3	0	9596,5080	-1,89270091
3	0	9602,0080	-1,89111865
3	0	9607,5080	-1,88778245
3	0	9613,0080	-1,88459885
3	0	9618,5080	-1,88168216
3	0	9624,0080	-1,87897503
3	0	9629,5080	-1,87621081
3	0	9635,0080	-1,87378979
3	0	9640,5080	-1,87163556
3	0	9646,0080	-1,86942422
3	0	9651,5080	-1,86738443
3	0	9657,0080	-1,86553526
3	0	9662,5080	-1,86381948
3	0	9668,0080	-1,86185598
3	0	9673,5080	-1,8602736
3	0	9679,0080	-1,85853887
3	0	9684,5080	-1,85676599
3	0	9690,0080	-1,8551265
3	0	9695,5080	-1,85331547
3	0	9701,0080	-1,85163784
3	0	9706,5080	-1,85005558
3	0	9712,0080	-1,84826362
3	0	9717,5080	-1,84652877
3	0	9723,0080	-1,84477496
3	0	9728,5080	-1,84296393
3	0	9734,0080	-1,84121001
3	0	9739,5080	-1,83941805
3	0	9745,0080	-1,83745456
3	0	9750,5080	-1,83552909
3	0	9756,0080	-1,83360362
3	0	9761,5080	-1,83152568
3	0	9767,0080	-1,82944775
3	0	9772,5080	-1,82738888
3	0	9778,0080	-1,82496786
3	0	9783,5080	-1,82277548
3	0	9789,0080	-1,82056415
3	0	9794,5080	-1,81814301
3	0	9800,0080	-1,81574106
3	0	9805,5080	-1,8132627
3	0	9811,0080	-1,81061292
3	0	9816,5080	-1,80803931
3	0	9822,0080	-1,80529416
3	0	9827,5080	-1,80252993
3	0	9833,0080	-1,79963231
3	0	9838,5080	-1,79677272
3	0	9844,0080	-1,79381788
3	0	9849,5080	-1,79069138
3	0	9855,0080	-1,7874316
3	0	9860,5080	-1,7841717
3	0	9866,0080	-1,7810452
3	0	9871,5080	-1,77755654
3	0	9877,0080	-1,774068
3	0	9882,5080	-1,77071273
3	0	9888,0080	-1,76709068
3	0	9893,5080	-1,76337326
3	0	9899,0080	-1,75996089
3	0	9904,5080	-1,75633883
3	0	9910,0080	-1,75250697
3	0	9915,5080	-1,74863708
3	0	9921,0080	-1,7449578
3	0	9926,5080	-1,74108791
3	0	9932,0080	-1,73727512
3	0	9937,5080	-1,73336709
3	0	9943,0080	-1,72955441
3	0	9948,5080	-1,72555101
3	0	9954,0080	-1,72194803
3	0	9959,5080	-1,71809709
3	0	9965,0080	-1,71430349
3	0	9970,5080	-1,71049082
3	0	9976,0080	-1,7069068
3	0	9981,5080	-1,7030369
3	0	9987,0080	-1,69952917
3	0	9992,5080	-1,69586897
3	0	9998,0080	-1,69228506
3	0	10003,5080	-1,6887964
3	0	10009,0080	-1,68542206
3	0	10014,5080	-1,68204784
3	0	10020,0080	-1,67865455
3	0	10025,5080	-1,67522311
3	0	10031,0080	-1,67198229
3	0	10036,5080	-1,66872239
3	0	10042,0080	-1,66559589
3	0	10047,5080	-1,66239321
3	0	10053,0080	-1,65924776
3	0	10058,5080	-1,65617847
3	0	10064,0080	-1,65301394
3	0	10069,5080	-1,65013528
3	0	10075,0080	-1,64714229
3	0	10080,5080	-1,64416838
3	0	10086,0080	-1,64128983
3	0	10091,5080	-1,63841116
3	0	10097,0080	-1,63560879
3	0	10102,5080	-1,63284457
3	0	10108,0080	-1,63000417
3	0	10113,5080	-1,6272018
3	0	10119,0080	-1,62439942
3	0	10124,5080	-1,62161613
3	0	10130,0080	-1,61887097
3	0	10135,5080	-1,61620212
3	0	10141,0080	-1,61368573
3	0	10146,5080	-1,61088336
3	0	10152,0080	-1,60832882
3	0	10157,5080	-1,60560274
3	0	10163,0080	-1,60301006
3	0	10168,5080	-1,60037923
3	0	10174,0080	-1,59782469
3	0	10179,5080	-1,5953083
3	0	10185,0080	-1,59269667
3	0	10190,5080	-1,59002769
3	0	10196,0080	-1,58758759
3	0	10201,5080	-1,58507121
3	0	10207,0080	-1,5824976
3	0	10212,5080	-1,57998121
3	0	10218,0080	-1,57746482
3	0	11220,5858	-1,79347467
3	0	11220,6082	-1,80521786
3	0	11220,6438	-1,81718981
3	0	11220,6998	-1,82891405
3	0	11220,7876	-1,8404665
3	0	11220,9378	-1,85190475
3	0	11221,2012	-1,86311412
3	0	11221,7260	-1,87438071
3	0	11223,2258	-1,88566637
3	0	11228,3858	-1,88993669
3	0	11233,8858	-1,88728678
3	0	11239,3858	-1,88389349
3	0	11244,8858	-1,88025236
3	0	11250,3858	-1,87695432
3	0	11255,8858	-1,8739804
3	0	11261,3858	-1,8711971
3	0	11266,8858	-1,86841381
3	0	11272,3858	-1,86587834
3	0	11277,8858	-1,86359072
3	0	11283,3858	-1,86130309
3	0	11288,8858	-1,85899639
3	0	11294,3858	-1,85678506
3	0	11299,8858	-1,85461175
3	0	11305,3858	-1,85259104
3	0	11310,8858	-1,85049403
3	0	11316,3858	-1,84814918
3	0	11321,8858	-1,84614754
3	0	11327,3858	-1,84391701
3	0	11332,8858	-1,84193444
3	0	11338,3858	-1,83966589
3	0	11343,8858	-1,83756888
3	0	11349,3858	-1,83551002
3	0	11354,8858	-1,83322239
3	0	11360,3858	-1,83099198
3	0	11365,8858	-1,82858992
3	0	11371,3858	-1,82628322
3	0	11376,8858	-1,82386208
3	0	11382,3858	-1,82142198
3	0	11387,8858	-1,8188293
3	0	11393,3858	-1,81627476
3	0	11398,8858	-1,8136059
3	0	11404,3858	-1,81093705
3	0	11409,8858	-1,80813468
3	0	11415,3858	-1,80525601
3	0	11420,8858	-1,80237746
3	0	11426,3858	-1,7993654
3	0	11431,8858	-1,79606736
3	0	11437,3858	-1,79297912
3	0	11442,8858	-1,78971922
3	0	11448,3858	-1,78649747
3	0	11453,8858	-1,78300881
3	0	11459,3858	-1,77952015
3	0	11464,8858	-1,77597427
3	0	11470,3858	-1,772295
3	0	11475,8858	-1,76844418
3	0	11481,3858	-1,76465046
3	0	11486,8858	-1,76095223
3	0	11492,3858	-1,75675821
3	0	11497,8858	-1,75279295
3	0	11503,3858	-1,74880862
3	0	11508,8858	-1,74453843
3	0	11514,3858	-1,74057317
3	0	11519,8858	-1,73647451
3	0	11525,3858	-1,73243296
3	0	11530,8858	-1,72829616
3	0	11536,3858	-1,72431195
3	0	11541,8858	-1,72025132
3	0	11547,3858	-1,71630514
3	0	11552,8858	-1,7122637
3	0	11558,3858	-1,70831752
3	0	11563,8858	-1,70439041
3	0	11569,3858	-1,70044422
3	0	11574,8858	-1,69691741
3	0	11580,3858	-1,6930666
3	0	11585,8858	-1,68942547
3	0	11591,3858	-1,68584144
3	0	11596,8858	-1,68231475
3	0	11602,3858	-1,67892146
3	0	11607,8858	-1,67533743
3	0	11613,3858	-1,67209661
3	0	11618,8858	-1,66868424
3	0	11624,3858	-1,66540527
3	0	11629,8858	-1,66214538
3	0	11635,3858	-1,65919054
3	0	11640,8858	-1,65581632
3	0	11646,3858	-1,65282333
3	0	11651,8858	-1,64977312
3	0	11657,3858	-1,6468755
3	0	11662,8858	-1,64390147
3	0	11668,3858	-1,64094663
3	0	11673,8858	-1,63810623
3	0	11679,3858	-1,63532293
3	0	11684,8858	-1,63244426
3	0	11690,3858	-1,62973726
3	0	11695,8858	-1,62693489
3	0	11701,3858	-1,62436128
3	0	11706,8858	-1,62161613
3	0	11712,3858	-1,61898541
3	0	11717,8858	-1,61631644
3	0	11723,3858	-1,6137048
3	0	11728,8858	-1,61113119
3	0	11734,3858	-1,60851943
3	0	11739,8858	-1,60602212
3	0	11745,3858	-1,60346758
3	0	11750,8858	-1,60093212
3	0	11756,3858	-1,59843481
3	0	11761,8858	-1,59595656
3	0	11767,3858	-1,5934211
3	0	11772,8858	-1,59098089
3	0	11778,3858	-1,58857894
3	0	11783,8858	-1,58621502
3	0	11789,3858	-1,58381295
3	0	11794,8858	-1,58139193
3	0	11800,3858	-1,57889462
3	0	11805,8858	-1,57639718
3	0	11811,3858	-1,57409048
3	0	11816,8858	-1,57163131
3	0	11822,3858	-1,56926739
3	0	11827,8858	-1,56696069
3	0	11833,3858	-1,56463492
3	0	11838,8858	-1,56227112
3	0	11844,3858	-1,55986905
3	0	11849,8858	-1,55742896
3	0	12850,6872	-1,7827419
3	0	12850,7114	-1,79477108
3	0	12850,7468	-1,80636168
3	0	12850,8008	-1,8178761
3	0	12850,8848	-1,8292762
3	0	12851,0218	-1,84075248
3	0	12851,2600	-1,85226691
3	0	12851,7000	-1,86359072
3	0	12852,7320	-1,87487638
3	0	12856,9182	-1,88299751
3	0	12862,4182	-1,8810339
3	0	12867,9182	-1,87750721
3	0	12873,4182	-1,87378979
3	0	12878,9182	-1,87035835
3	0	12884,4182	-1,86696494
3	0	12889,9182	-1,86374319
3	0	12895,4182	-1,86084557
3	0	12900,9182	-1,85808134
3	0	12906,4182	-1,85516465
3	0	12911,9182	-1,85240042
3	0	12917,4182	-1,84986496
3	0	12922,9182	-1,84708166
3	0	12928,4182	-1,84452713
3	0	12933,9182	-1,84212506
3	0	12939,4182	-1,83957052
3	0	12944,9182	-1,83705413
3	0	12950,4182	-1,83459496
3	0	12955,9182	-1,83194506
3	0	12961,4182	-1,82933342
3	0	12966,9182	-1,82685518
3	0	12972,4182	-1,82407188
3	0	12977,9182	-1,82138383
3	0	12983,4182	-1,81875312
3	0	12988,9182	-1,816046
3	0	12994,4182	-1,81311023
3	0	12999,9182	-1,81034601
3	0	13005,4182	-1,80739117
3	0	13010,9182	-1,80418849
3	0	13016,4182	-1,80110013
3	0	13021,9182	-1,79784024
3	0	13027,4182	-1,79467571
3	0	13032,9182	-1,79130149
3	0	13038,4182	-1,78771746
3	0	13043,9182	-1,78424788
3	0	13049,4182	-1,78058767
3	0	13054,9182	-1,77660346
3	0	13060,4182	-1,77267635
3	0	13065,9182	-1,76867294
3	0	13071,4182	-1,76470768
3	0	13076,9182	-1,76064718
3	0	13082,4182	-1,75628161
3	0	13087,9182	-1,7519542
3	0	13093,4182	-1,74751234
3	0	13098,9182	-1,74303234
3	0	13104,4182	-1,73862863
3	0	13109,9182	-1,73411059
3	0	13115,4182	-1,72964966
3	0	13120,9182	-1,72511256
3	0	13126,4182	-1,72063255
3	0	13131,9182	-1,71624804
3	0	13137,4182	-1,71174896
3	0	13142,9182	-1,70753586
3	0	13148,4182	-1,7031703
3	0	13153,9182	-1,6990335
3	0	13159,4182	-1,69495392
3	0	13164,9182	-1,69070268
3	0	13170,4182	-1,68683279
3	0	13175,9182	-1,68300104
3	0	13181,4182	-1,67916918
3	0	13186,9182	-1,67528021
3	0	13192,4182	-1,6717726
3	0	13197,9182	-1,66809332
3	0	13203,4182	-1,664433
3	0	13208,9182	-1,66103971
3	0	13214,4182	-1,65768456
3	0	13219,9182	-1,65429115
3	0	13225,4182	-1,65095508
3	0	13230,9182	-1,64769518
3	0	13236,4182	-1,64449251
3	0	13241,9182	-1,64134705
3	0	13247,4182	-1,63833499
3	0	13252,9182	-1,63530385
3	0	13258,4182	-1,63223457
3	0	13263,9182	-1,62927973
3	0	13269,4182	-1,62636304
3	0	13274,9182	-1,62354159
3	0	13280,4182	-1,62073922
3	0	13285,9182	-1,61786067
3	0	13291,4182	-1,61513448
3	0	13296,9182	-1,61250377
3	0	13302,4182	-1,60975862
3	0	13307,9182	-1,60710871
3	0	13313,4182	-1,60449708
3	0	13318,9182	-1,6018281
3	0	13324,4182	-1,59914017
3	0	13329,9182	-1,59658563
3	0	13335,4182	-1,59408832
3	0	13340,9182	-1,59141934
3	0	13346,4182	-1,58905554
3	0	13351,9182	-1,58665347
3	0	13357,4182	-1,58406079
3	0	13362,9182	-1,58165884
3	0	13368,4182	-1,57906616
3	0	13373,9182	-1,57662594
3	0	13379,4182	-1,57416677
3	0	13384,9182	-1,57172668
3	0	13390,4182	-1,56934369
3	0	13395,9182	-1,56686544
3	0	13401,4182	-1,5644443
3	0	13406,9182	-1,56206143
3	0	13412,4182	-1,55975473
3	0	13417,9182	-1,55740988
3	0	13423,4182	-1,55508411
3	0	13428,9182	-1,55256772
3	0	13434,4182	-1,55029917
3	0	13439,9182	-1,54799247
3	0	13445,4182	-1,54562855
3	0	13450,9182	-1,54313123
3	0	13456,4182	-1,54091978
3	0	13461,9182	-1,53855598
3	0	13467,4182	-1,53623021
3	0	13472,9182	-1,53396165
3	0	13478,4182	-1,53148329
3	0	14480,7734	-1,76207697
3	0	14480,7942	-1,77441108
3	0	14480,8228	-1,78607798
3	0	14480,8652	-1,79776406
3	0	14480,9282	-1,80920219
3	0	14481,0236	-1,82056415
3	0	14481,1768	-1,83194506
3	0	14481,4354	-1,84344053
3	0	14481,9014	-1,85480237
3	0	14482,9808	-1,86612618
3	0	14487,1228	-1,87434256
3	0	14492,6228	-1,87260783
3	0	14498,1228	-1,86915731
3	0	14503,6228	-1,86532557
3	0	14509,1228	-1,86174154
3	0	14514,6228	-1,85819566
3	0	14520,1228	-1,85482144
3	0	14525,6228	-1,85154247
3	0	14531,1228	-1,84841609
3	0	14536,6228	-1,84540403
3	0	14542,1228	-1,84231567
3	0	14547,6228	-1,83943713
3	0	14553,1228	-1,83661568
3	0	14558,6228	-1,83360362
3	0	14564,1228	-1,83080125
3	0	14569,6228	-1,82790363
3	0	14575,1228	-1,82502496
3	0	14580,6228	-1,82193673
3	0	14586,1228	-1,81894374
3	0	14591,6228	-1,81606507
3	0	14597,1228	-1,81295776
3	0	14602,6228	-1,80988848
3	0	14608,1228	-1,80662858
3	0	14613,6228	-1,80342591
3	0	14619,1228	-1,80001354
3	0	14624,6228	-1,79656303
3	0	14630,1228	-1,7930553
3	0	14635,6228	-1,78933787
3	0	14641,1228	-1,78571582
3	0	14646,6228	-1,78184593
3	0	14652,1228	-1,77782345
3	0	14657,6228	-1,77362943
3	0	14663,1228	-1,7694546
3	0	14668,6228	-1,76501274
3	0	14674,1228	-1,76053274
3	0	14679,6228	-1,75584316
3	0	14685,1228	-1,75107718
3	0	14690,6228	-1,74625409
3	0	14696,1228	-1,74146914
3	0	14701,6228	-1,73651266
3	0	14707,1228	-1,73157513
3	0	14712,6228	-1,7266376
3	0	14718,1228	-1,72166204
3	0	14723,6228	-1,71676266
3	0	14729,1228	-1,71193957
3	0	14734,6228	-1,7069068
3	0	14740,1228	-1,70235062
3	0	14745,6228	-1,69771814
3	0	14751,1228	-1,69321907
3	0	14756,6228	-1,68872011
3	0	14762,1228	-1,68444991
3	0	14767,6228	-1,68008423
3	0	14773,1228	-1,6759665
3	0	14778,6228	-1,67184877
3	0	14784,1228	-1,66776919
3	0	14789,6228	-1,66397548
3	0	14795,1228	-1,66016281
3	0	14800,6228	-1,65623569
3	0	14806,1228	-1,65257549
3	0	14811,6228	-1,64885807
3	0	14817,1228	-1,64535034
3	0	14822,6228	-1,64186168
3	0	14828,1228	-1,63850653
3	0	14833,6228	-1,63511324
3	0	14839,1228	-1,63191056
3	0	14844,6228	-1,62857437
3	0	14850,1228	-1,62537169
3	0	14855,6228	-1,62235963
3	0	14861,1228	-1,61923325
3	0	14866,6228	-1,61618304
3	0	14872,1228	-1,61319005
3	0	14877,6228	-1,61033046
3	0	14883,1228	-1,60735655
3	0	14888,6228	-1,60459232
3	0	14894,1228	-1,60177088
3	0	14899,6228	-1,59885418
3	0	14905,1228	-1,59612811
3	0	14910,6228	-1,59344006
3	0	14916,1228	-1,5906949
3	0	14921,6228	-1,5879879
3	0	14927,1228	-1,58537614
3	0	14932,6228	-1,58274543
3	0	14938,1228	-1,58007646
3	0	14943,6228	-1,57738853
3	0	14949,1228	-1,57477677
3	0	14954,6228	-1,57224131
3	0	14960,1228	-1,56980121
3	0	14965,6228	-1,56718946
3	0	14971,1228	-1,56465399
3	0	14976,6228	-1,56223297
3	0	14982,1228	-1,55971658
3	0	14987,6228	-1,55720019
3	0	14993,1228	-1,55479813
3	0	14998,6228	-1,55222452
3	0	15004,1228	-1,54986072
3	0	15009,6228	-1,54726803
3	0	15015,1228	-1,54490411
3	0	15020,6228	-1,54252112
3	0	15026,1228	-1,54004288
3	0	15031,6228	-1,53762186
3	0	15037,1228	-1,53516257
3	0	15042,6228	-1,53277969
3	0	15048,1228	-1,53047299
3	0	15053,6228	-1,52797568
3	0	15059,1228	-1,52553546
3	0	15064,6228	-1,52313352
3	0	15070,1228	-1,52071238
3	0	15075,6228	-1,51834846
3	0	15081,1228	-1,51594651
3	0	15086,6228	-1,51354444
3	0	15092,1228	-1,51112342
3	0	15097,6228	-1,50881672
3	0	15103,1228	-1,50641465
3	0	15108,6228	-1,50405073
3	0	16110,8712	-1,74465275
3	0	16110,8892	-1,75616717
3	0	16110,9148	-1,76798666
3	0	16110,9510	-1,7796917
3	0	16111,0028	-1,79111087
3	0	16111,0814	-1,80266333
3	0	16111,1938	-1,81396806
3	0	16111,3740	-1,82534909
3	0	16111,6670	-1,83661568
3	0	16112,2100	-1,84792042
3	0	16113,4760	-1,85928237
3	0	16118,0392	-1,86643124
3	0	16123,5392	-1,86450577
3	0	16129,0392	-1,86099803
3	0	16134,5392	-1,85718536
3	0	16140,0392	-1,85337257
3	0	16145,5392	-1,84973145
3	0	16151,0392	-1,84622371
3	0	16156,5392	-1,84267795
3	0	16162,0392	-1,8394562
3	0	16167,5392	-1,83608186
3	0	16173,0392	-1,83278394
3	0	16178,5392	-1,82967651
3	0	16184,0392	-1,82645476
3	0	16189,5392	-1,82306147
3	0	16195,0392	-1,81989694
3	0	16200,5391	-1,81667519
3	0	16206,0391	-1,8132627
3	0	16211,5391	-1,80992663
3	0	16217,0391	-1,8062855
3	0	16222,5391	-1,80291116
3	0	16228,0391	-1,79904127
3	0	16233,5391	-1,79553354
3	0	16239,0391	-1,79147303
3	0	16244,5391	-1,78756499
3	0	16250,0391	-1,78333282
3	0	16255,5391	-1,77910078
3	0	16261,0391	-1,77450645
3	0	16266,5391	-1,77004552
3	0	16272,0391	-1,76527965
3	0	16277,5391	-1,7602849
3	0	16283,0391	-1,75523305
3	0	16288,5391	-1,75014305
3	0	16294,0391	-1,74480534
3	0	16299,5391	-1,73941028
3	0	16305,0391	-1,73412967
3	0	16310,5391	-1,72877276
3	0	16316,0391	-1,72326338
3	0	16321,5391	-1,71777308
3	0	16327,0391	-1,71251154
3	0	16332,5391	-1,70725
3	0	16338,0391	-1,70200741
3	0	16343,5391	-1,69687939
3	0	16349,0391	-1,69186556
3	0	16354,5391	-1,68698537
3	0	16360,0391	-1,68221939
3	0	16365,5391	-1,67764413
3	0	16371,0391	-1,67308795
3	0	16376,5391	-1,6685698
3	0	16382,0391	-1,66424239
3	0	16387,5391	-1,66001034
3	0	16393,0391	-1,65602601
3	0	16398,5391	-1,65181291
3	0	16404,0391	-1,64796209
3	0	16409,5391	-1,64405406
3	0	16415,0391	-1,64018416
3	0	16420,5391	-1,6362952
3	0	16426,0391	-1,63301623
3	0	16431,5391	-1,62941313
3	0	16437,0391	-1,62586737
3	0	16442,5391	-1,6225121
3	0	16448,0391	-1,61911881
3	0	16453,5391	-1,61578274
3	0	16459,0391	-1,61242747
3	0	16464,5391	-1,60930109
3	0	16470,0391	-1,60617459
3	0	16475,5391	-1,60310543
3	0	16481,0391	-1,59997892
3	0	16486,5391	-1,59698594
3	0	16492,0391	-1,5940311
3	0	16497,5391	-1,59107625
3	0	16503,0391	-1,58823574
3	0	16508,5391	-1,58543336
3	0	16514,0391	-1,5824213
3	0	16519,5391	-1,57977152
3	0	16525,0391	-1,57698822
3	0	16530,5391	-1,57410955
3	0	16536,0391	-1,57134533
3	0	16541,5391	-1,56867647
3	0	16547,0391	-1,56602657
3	0	16552,5391	-1,56331956
3	0	16558,0391	-1,56061256
3	0	16563,5391	-1,55805802
3	0	16569,0391	-1,5552938
3	0	16574,5391	-1,55273926
3	0	16580,0391	-1,55005133
3	0	16585,5391	-1,54759204
3	0	16591,0391	-1,54494226
3	0	16596,5391	-1,54236865
3	0	16602,0391	-1,53992856
3	0	16607,5391	-1,53725958
3	0	16613,0391	-1,53481948
3	0	16618,5391	-1,53239834
3	0	16624,0391	-1,52974856
3	0	16629,5391	-1,52719402
3	0	16635,0391	-1,52475393
3	0	16640,5391	-1,52225649
3	0	16646,0391	-1,51977825
3	0	16651,5391	-1,51724279
3	0	16657,0391	-1,51474547
3	0	16662,5391	-1,51228631
3	0	16668,0391	-1,50967455
3	0	16673,5391	-1,50734878
3	0	16679,0391	-1,50490868
3	0	16684,5391	-1,50239229
3	0	16690,0391	-1,50006652
3	0	16695,5391	-1,49753106
3	0	16701,0391	-1,49499559
3	0	16706,5391	-1,4926126
3	0	16712,0391	-1,49013436
3	0	16717,5391	-1,48773229
3	0	16723,0391	-1,48533034
3	0	16728,5391	-1,48273766
3	0	16734,0391	-1,48022127
3	0	16739,5391	-1,4777621
3	0	16740,8643	-1,47722828