File: Experimentelles/Rohdaten/REM_EDX/EDX/LTO/Spektrum.txt
Bruker Nano GmbH Berlin, Germany
Esprit 1.9

Datum: 11.09.2015 19:25:07
Real-Zeit: 178904
Life-Zeit: 155414
Impulsdichte: 26495

Primärenergie: 10
Abnahmewinkel: 35
Kippungwinkel: 0
Azimutwinkel: 45

Detektor-Typ: XFlash 6|30
Fenster-Typ: slew AP3.3
Detektordicke: 0.45
Si-Totschicht:0.029

Kalibrierung, lin.: 2.501
Kalibrierung, abs.: -238.74
Mn-FWHM: 123.24
Fano-Faktor: 0.106
Kanäle: 4096

Energie Impulse
-0.2387     0
-0.2312     0
-0.2237     0
-0.2162     0
-0.2087     0
-0.2012     0
-0.1937     0
-0.1862     0
-0.1787     0
-0.1712     0
-0.1637     0
-0.1562     0
-0.1487     0
-0.1412     0
-0.1337     0
-0.1262     0
-0.1187     0
-0.1112     0
-0.1037     1
-0.0962     1
-0.0887     1
-0.0812     2
-0.0737     9
-0.0662    38
-0.0587   167
-0.0511   637
-0.0436  1993
-0.0361  5539
-0.0286 11871
-0.0211 21772
-0.0136 33424
-0.0061 42182
 0.0014 44655
 0.0089 39691
 0.0164 29033
 0.0239 17700
 0.0314  9388
 0.0389  4086
 0.0464  1645
 0.0539   553
 0.0614   174
 0.0689    60
 0.0764    36
 0.0839     0
 0.0914     0
 0.0989   241
 0.1064   134
 0.1139    53
 0.1214     0
 0.1289     0
 0.1364     0
 0.1439     0
 0.1514    35
  0.159    41
 0.1665    65
  0.174   125
 0.1815   216
  0.189   410
 0.1965   678
  0.204  1104
 0.2115  2064
  0.219  3742
 0.2265  6956
  0.234 12853
 0.2415 21856
  0.249 34628
 0.2565 49658
  0.264 64174
 0.2715 74599
  0.279 77409
 0.2865 71686
  0.294 59294
 0.3015 43894
  0.309 28571
 0.3165 16498
  0.324  8737
 0.3315  4154
  0.339  1979
 0.3465  1032
  0.354   759
 0.3615   705
 0.3691   786
 0.3766   887
 0.3841  1019
 0.3916  1125
 0.3991  1138
 0.4066  1210
 0.4141  1222
 0.4216  1227
 0.4291  1294
 0.4366  1409
 0.4441  1515
 0.4516  1653
 0.4591  1781
 0.4666  1970
 0.4741  2391
 0.4816  3223
 0.4891  4291
 0.4966  5896
 0.5041  7799
 0.5116  9667
 0.5191 10989
 0.5266 11374
 0.5341 10807
 0.5416  9220
 0.5491  7301
 0.5566  5260
 0.5641  3545
 0.5716  2284
 0.5792  1447
 0.5867   936
 0.5942   717
 0.6017   689
 0.6092   625
 0.6167   665
 0.6242   821
 0.6317  1015
 0.6392  1186
 0.6467  1565
 0.6542  1908
 0.6617  2302
 0.6692  2556
 0.6767  2771
 0.6842  2722
 0.6917  2560
 0.6992  2301
 0.7067  1914
 0.7142  1604
 0.7217  1272
 0.7292  1104
 0.7367   903
 0.7442   873
 0.7517   809
 0.7592   789
 0.7667   820
 0.7742   822
 0.7818   815
 0.7893   874
 0.7968   820
 0.8043   833
 0.8118   856
 0.8193   862
 0.8268   812
 0.8343   827
 0.8418   819
 0.8493   809
 0.8568   865
 0.8643   736
 0.8718   868
 0.8793   807
 0.8868   892
 0.8943   898
 0.9018   982
 0.9093   967
 0.9168  1036
 0.9243  1044
 0.9318  1051
 0.9393  1065
 0.9468  1055
 0.9543  1047
 0.9618   940
 0.9693  1003
 0.9768   947
 0.9843   950
 0.9919   889
 0.9994   915
 1.0069   878
 1.0144   930
 1.0219   933
 1.0294   916
 1.0369   834
 1.0444   909
 1.0519   882
 1.0594   869
 1.0669   884
 1.0744   912
 1.0819   880
 1.0894   892
 1.0969   887
 1.1044   919
 1.1119   911
 1.1194   908
 1.1269   897
 1.1344   851
 1.1419   912
 1.1494   931
 1.1569   918
 1.1644   945
 1.1719   949
 1.1794   927
 1.1869   954
 1.1944   932
  1.202   939
 1.2095   970
  1.217   958
 1.2245   942
  1.232   982
 1.2395   964
  1.247  1003
 1.2545   968
  1.262   934
 1.2695   976
  1.277  1004
 1.2845   974
  1.292   993
 1.2995  1000
  1.307  1032
 1.3145   977
  1.322   971
 1.3295  1026
  1.337  1001
 1.3445  1000
  1.352   973
 1.3595  1040
  1.367  1032
 1.3745  1101
  1.382  1101
 1.3895  1217
  1.397  1306
 1.4045  1669
 1.4121  2279
 1.4196  3280
 1.4271  4690
 1.4346  6911
 1.4421  9912
 1.4496 13365
 1.4571 17591
 1.4646 21761
 1.4721 25591
 1.4796 28528
 1.4871 29736
 1.4946 29314
 1.5021 27620
 1.5096 24184
 1.5171 20742
 1.5246 16429
 1.5321 12405
 1.5396  9228
 1.5471  6635
 1.5546  4732
 1.5621  3333
 1.5696  2503
 1.5771  1902
 1.5846  1558
 1.5921  1352
 1.5996  1091
 1.6071   993
 1.6146   883
 1.6222   785
 1.6297   805
 1.6372   712
 1.6447   710
 1.6522   698
 1.6597   666
 1.6672   680
 1.6747   692
 1.6822   665
 1.6897   760
 1.6972   754
 1.7047   804
 1.7122   822
 1.7197   839
 1.7272   909
 1.7347   897
 1.7422   906
 1.7497   927
 1.7572   929
 1.7647   867
 1.7722   808
 1.7797   785
 1.7872   754
 1.7947   724
 1.8022   690
 1.8097   633
 1.8172   625
 1.8248   593
 1.8323   601
 1.8398   601
 1.8473   602
 1.8548   575
 1.8623   576
 1.8698   579
 1.8773   545
 1.8848   576
 1.8923   560
 1.8998   527
 1.9073   542
 1.9148   584
 1.9223   541
 1.9298   538
 1.9373   562
 1.9448   575
 1.9523   514
 1.9598   552
 1.9673   568
 1.9748   559
 1.9823   556
 1.9898   544
 1.9973   554
 2.0048   573
 2.0123   604
 2.0198   591
 2.0273   600
 2.0349   566
 2.0424   604
 2.0499   546
 2.0574   573
 2.0649   576
 2.0724   559
 2.0799   532
 2.0874   578
 2.0949   535
 2.1024   560
 2.1099   593
 2.1174   571
 2.1249   546
 2.1324   558
 2.1399   547
 2.1474   518
 2.1549   541
 2.1624   529
 2.1699   518
 2.1774   553
 2.1849   517
 2.1924   543
 2.1999   537
 2.2074   552
 2.2149   528
 2.2224   493
 2.2299   501
 2.2374   519
  2.245   519
 2.2525   471
   2.26   479
 2.2675   507
  2.275   515
 2.2825   486
   2.29   506
 2.2975   480
  2.305   518
 2.3125   493
   2.32   477
 2.3275   485
  2.335   497
 2.3425   488
   2.35   474
 2.3575   496
  2.365   452
 2.3725   460
   2.38   443
 2.3875   469
  2.395   420
 2.4025   419
   2.41   428
 2.4175   443
  2.425   483
 2.4325   400
   2.44   430
 2.4475   437
 2.4551   425
 2.4626   445
 2.4701   411
 2.4776   432
 2.4851   444
 2.4926   432
 2.5001   429
 2.5076   420
 2.5151   417
 2.5226   445
 2.5301   418
 2.5376   423
 2.5451   402
 2.5526   421
 2.5601   415
 2.5676   427
 2.5751   409
 2.5826   425
 2.5901   367
 2.5976   403
 2.6051   408
 2.6126   432
 2.6201   437
 2.6276   399
 2.6351   379
 2.6426   366
 2.6501   408
 2.6577   371
 2.6652   412
 2.6727   385
 2.6802   388
 2.6877   376
 2.6952   397
 2.7027   391
 2.7102   395
 2.7177   376
 2.7252   371
 2.7327   368
 2.7402   383
 2.7477   349
 2.7552   401
 2.7627   398
 2.7702   396
 2.7777   382
 2.7852   364
 2.7927   382
 2.8002   380
 2.8077   342
 2.8152   349
 2.8227   347
 2.8302   356
 2.8377   355
 2.8452   363
 2.8527   373
 2.8602   382
 2.8678   373
 2.8753   381
 2.8828   360
 2.8903   327
 2.8978   351
 2.9053   366
 2.9128   395
 2.9203   404
 2.9278   399
 2.9353   380
 2.9428   427
 2.9503   426
 2.9578   427
 2.9653   405
 2.9728   444
 2.9803   426
 2.9878   447
 2.9953   396
 3.0028   382
 3.0103   411
 3.0178   342
 3.0253   370
 3.0328   381
 3.0403   344
 3.0478   341
 3.0553   339
 3.0628   347
 3.0703   344
 3.0779   292
 3.0854   309
 3.0929   333
 3.1004   327
 3.1079   304
 3.1154   319
 3.1229   314
 3.1304   304
 3.1379   306
 3.1454   330
 3.1529   303
 3.1604   295
 3.1679   291
 3.1754   291
 3.1829   299
 3.1904   301
 3.1979   303
 3.2054   327
 3.2129   311
 3.2204   296
 3.2279   287
 3.2354   309
 3.2429   274
 3.2504   282
 3.2579   302
 3.2654   286
 3.2729   290
 3.2804   266
  3.288   286
 3.2955   275
  3.303   267
 3.3105   276
  3.318   286
 3.3255   266
  3.333   290
 3.3405   282
  3.348   286
 3.3555   275
  3.363   266
 3.3705   276
  3.378   285
 3.3855   257
  3.393   266
 3.4005   288
  3.408   283
 3.4155   252
  3.423   256
 3.4305   274
  3.438   264
 3.4455   267
  3.453   269
 3.4605   255
  3.468   274
 3.4755   254
  3.483   249
 3.4905   259
 3.4981   263
 3.5056   249
 3.5131   254
 3.5206   252
 3.5281   243
 3.5356   235
 3.5431   262
 3.5506   238
 3.5581   258
 3.5656   248
 3.5731   251
 3.5806   252
 3.5881   252
 3.5956   244
 3.6031   251
 3.6106   265
 3.6181   269
 3.6256   234
 3.6331   240
 3.6406   252
 3.6481   254
 3.6556   226
 3.6631   246
 3.6706   244
 3.6781   237
 3.6856   221
 3.6931   243
 3.7007   224
 3.7082   241
 3.7157   243
 3.7232   227
 3.7307   240
 3.7382   220
 3.7457   227
 3.7532   223
 3.7607   221
 3.7682   208
 3.7757   264
 3.7832   252
 3.7907   230
 3.7982   225
 3.8057   216
 3.8132   241
 3.8207   242
 3.8282   223
 3.8357   222
 3.8432   225
 3.8507   248
 3.8582   233
 3.8657   212
 3.8732   194
 3.8807   208
 3.8882   221
 3.8957   196
 3.9032   212
 3.9108   208
 3.9183   208
 3.9258   202
 3.9333   206
 3.9408   217
 3.9483   229
 3.9558   199
 3.9633   205
 3.9708   193
 3.9783   224
 3.9858   197
 3.9933   189
 4.0008   221
 4.0083   217
 4.0158   204
 4.0233   207
 4.0308   220
 4.0383   207
 4.0458   197
 4.0533   218
 4.0608   189
 4.0683   183
 4.0758   203
 4.0833   219
 4.0908   203
 4.0983   178
 4.1058   202
 4.1133   202
 4.1209   178
 4.1284   202
 4.1359   199
 4.1434   204
 4.1509   178
 4.1584   196
 4.1659   193
 4.1734   187
 4.1809   203
 4.1884   188
 4.1959   187
 4.2034   185
 4.2109   179
 4.2184   186
 4.2259   190
 4.2334   199
 4.2409   198
 4.2484   171
 4.2559   194
 4.2634   185
 4.2709   195
 4.2784   178
 4.2859   184
 4.2934   199
 4.3009   186
 4.3084   181
 4.3159   186
 4.3234   176
  4.331   187
 4.3385   191
  4.346   212
 4.3535   201
  4.361   229
 4.3685   222
  4.376   262
 4.3835   284
  4.391   323
 4.3985   377
  4.406   485
 4.4135   605
  4.421   723
 4.4285   838
  4.436  1107
 4.4435  1243
  4.451  1509
 4.4585  1764
  4.466  2030
 4.4735  2281
  4.481  2458
 4.4885  2692
  4.496  2773
 4.5035  2850
  4.511  2787
 4.5185  2818
  4.526  2612
 4.5336  2512
 4.5411  2258
 4.5486  2036
 4.5561  1749
 4.5636  1479
 4.5711  1218
 4.5786  1014
 4.5861   830
 4.5936   713
 4.6011   544
 4.6086   449
 4.6161   357
 4.6236   302
 4.6311   246
 4.6386   238
 4.6461   219
 4.6536   184
 4.6611   173
 4.6686   177
 4.6761   187
 4.6836   154
 4.6911   163
 4.6986   157
 4.7061   186
 4.7136   164
 4.7211   160
 4.7286   166
 4.7361   174
 4.7437   172
 4.7512   182
 4.7587   181
 4.7662   182
 4.7737   152
 4.7812   178
 4.7887   172
 4.7962   185
 4.8037   190
 4.8112   195
 4.8187   186
 4.8262   232
 4.8337   211
 4.8412   218
 4.8487   250
 4.8562   249
 4.8637   289
 4.8712   322
 4.8787   345
 4.8862   383
 4.8937   386
 4.9012   379
 4.9087   431
 4.9162   508
 4.9237   483
 4.9312   473
 4.9387   486
 4.9462   446
 4.9538   463
 4.9613   403
 4.9688   374
 4.9763   376
 4.9838   324
 4.9913   298
 4.9988   276
 5.0063   235
 5.0138   203
 5.0213   183
 5.0288   184
 5.0363   171
 5.0438   151
 5.0513   154
 5.0588   148
 5.0663   122
 5.0738   131
 5.0813   125
 5.0888   128
 5.0963   121
 5.1038   107
 5.1113   125
 5.1188   128
 5.1263   117
 5.1338   115
 5.1413   147
 5.1488   116
 5.1563   130
 5.1639   138
 5.1714   127
 5.1789   123
 5.1864   125
 5.1939   118
 5.2014   118
 5.2089   124
 5.2164   127
 5.2239   112
 5.2314   122
 5.2389   114
 5.2464   123
 5.2539   119
 5.2614   118
 5.2689   111
 5.2764   116
 5.2839   132
 5.2914   129
 5.2989   115
 5.3064   117
 5.3139   114
 5.3214   115
 5.3289   114
 5.3364   114
 5.3439   115
 5.3514   109
 5.3589   114
 5.3664   103
  5.374   122
 5.3815   103
  5.389   116
 5.3965   118
  5.404   104
 5.4115   104
  5.419   102
 5.4265   116
  5.434   106
 5.4415   106
  5.449   112
 5.4565   109
  5.464   107
 5.4715    99
  5.479   108
 5.4865   100
  5.494   115
 5.5015    88
  5.509   106
 5.5165   111
  5.524   103
 5.5315   105
  5.539    96
 5.5465    92
  5.554    89
 5.5615    99
  5.569   105
 5.5766    83
 5.5841    91
 5.5916   113
 5.5991    98
 5.6066    99
 5.6141    99
 5.6216    89
 5.6291   103
 5.6366    90
 5.6441    99
 5.6516    94
 5.6591    89
 5.6666   101
 5.6741    88
 5.6816   112
 5.6891   106
 5.6966   102
 5.7041    99
 5.7116    95
 5.7191   107
 5.7266    93
 5.7341    85
 5.7416    88
 5.7491    85
 5.7566   100
 5.7641   101
 5.7716    87
 5.7791    83
 5.7867    95
 5.7942    85
 5.8017    92
 5.8092    94
 5.8167    87
 5.8242    97
 5.8317    87
 5.8392    83
 5.8467    83
 5.8542   107
 5.8617   102
 5.8692    85
 5.8767    85
 5.8842    82
 5.8917    85
 5.8992    99
 5.9067    79
 5.9142    82
 5.9217    86
 5.9292   113
 5.9367    94
 5.9442    84
 5.9517    77
 5.9592    93
 5.9667    95
 5.9742    74
 5.9817    69
 5.9892    89
 5.9968    71
 6.0043    98
 6.0118   101
 6.0193    87
 6.0268    88
 6.0343    65
 6.0418    81
 6.0493    88
 6.0568    84
 6.0643    93
 6.0718    74
 6.0793    78
 6.0868    73
 6.0943    85
 6.1018    77
 6.1093    78
 6.1168    82
 6.1243    77
 6.1318    66
 6.1393    88
 6.1468    66
 6.1543    77
 6.1618    66
 6.1693    67
 6.1768    87
 6.1843    88
 6.1918    73
 6.1993    81
 6.2069    96
 6.2144    83
 6.2219    88
 6.2294    82
 6.2369    83
 6.2444    63
 6.2519    65
 6.2594    82
 6.2669    70
 6.2744    79
 6.2819    60
 6.2894    75
 6.2969    84
 6.3044    71
 6.3119    82
 6.3194    82
 6.3269    70
 6.3344    75
 6.3419    56
 6.3494    71
 6.3569    68
 6.3644    69
 6.3719    91
 6.3794    77
 6.3869    82
 6.3944    81
 6.4019    98
 6.4095    82
  6.417    84
 6.4245    96
  6.432    85
 6.4395    81
  6.447    75
 6.4545    78
  6.462    69
 6.4695    61
  6.477    78
 6.4845    61
  6.492    60
 6.4995    83
  6.507    65
 6.5145    61
  6.522    74
 6.5295    53
  6.537    70
 6.5445    61
  6.552    83
 6.5595    62
  6.567    61
 6.5745    82
  6.582    68
 6.5895    49
  6.597    55
 6.6045    70
  6.612    62
 6.6196    53
 6.6271    76
 6.6346    61
 6.6421    66
 6.6496    75
 6.6571    55
 6.6646    77
 6.6721    67
 6.6796    64
 6.6871    64
 6.6946    56
 6.7021    71
 6.7096    57
 6.7171    69
 6.7246    55
 6.7321    71
 6.7396    54
 6.7471    56
 6.7546    59
 6.7621    70
 6.7696    63
 6.7771    60
 6.7846    63
 6.7921    69
 6.7996    58
 6.8071    84
 6.8146    57
 6.8221    53
 6.8297    59
 6.8372    54
 6.8447    51
 6.8522    56
 6.8597    43
 6.8672    61
 6.8747    55
 6.8822    70
 6.8897    59
 6.8972    52
 6.9047    55
 6.9122    45
 6.9197    46
 6.9272    36
 6.9347    59
 6.9422    60
 6.9497    54
 6.9572    53
 6.9647    47
 6.9722    50
 6.9797    43
 6.9872    56
 6.9947    55
 7.0022    66
 7.0097    42
 7.0172    56
 7.0247    44
 7.0322    46
 7.0398    50
 7.0473    55
 7.0548    52
 7.0623    50
 7.0698    67
 7.0773    51
 7.0848    64
 7.0923    44
 7.0998    59
 7.1073    42
 7.1148    45
 7.1223    62
 7.1298    38
 7.1373    47
 7.1448    49
 7.1523    57
 7.1598    52
 7.1673    43
 7.1748    46
 7.1823    40
 7.1898    57
 7.1973    54
 7.2048    46
 7.2123    45
 7.2198    42
 7.2273    63
 7.2348    54
 7.2423    37
 7.2499    43
 7.2574    52
 7.2649    46
 7.2724    60
 7.2799    62
 7.2874    52
 7.2949    61
 7.3024    55
 7.3099    35
 7.3174    52
 7.3249    48
 7.3324    34
 7.3399    53
 7.3474    41
 7.3549    37
 7.3624    38
 7.3699    39
 7.3774    50
 7.3849    36
 7.3924    43
 7.3999    46
 7.4074    40
 7.4149    38
 7.4224    39
 7.4299    37
 7.4374    41
 7.4449    44
 7.4525    34
   7.46    45
 7.4675    37
  7.475    33
 7.4825    41
   7.49    36
 7.4975    34
  7.505    33
 7.5125    31
   7.52    43
 7.5275    32
  7.535    33
 7.5425    44
   7.55    29
 7.5575    39
  7.565    40
 7.5725    24
   7.58    30
 7.5875    36
  7.595    32
 7.6025    41
   7.61    33
 7.6175    29
  7.625    32
 7.6325    29
   7.64    37
 7.6475    31
  7.655    28
 7.6626    53
 7.6701    33
 7.6776    35
 7.6851    36
 7.6926    35
 7.7001    24
 7.7076    41
 7.7151    35
 7.7226    34
 7.7301    34
 7.7376    40
 7.7451    43
 7.7526    35
 7.7601    27
 7.7676    35
 7.7751    32
 7.7826    35
 7.7901    23
 7.7976    44
 7.8051    28
 7.8126    29
 7.8201    28
 7.8276    45
 7.8351    26
 7.8426    27
 7.8501    30
 7.8576    36
 7.8651    24
 7.8727    34
 7.8802    24
 7.8877    32
 7.8952    31
 7.9027    28
 7.9102    27
 7.9177    29
 7.9252    39
 7.9327    22
 7.9402    28
 7.9477    19
 7.9552    40
 7.9627    31
 7.9702    24
 7.9777    41
 7.9852    29
 7.9927    33
 8.0002    38
 8.0077    25
 8.0152    33
 8.0227    27
 8.0302    27
 8.0377    34
 8.0452    38
 8.0527    41
 8.0602    37
 8.0677    28
 8.0752    24
 8.0828    30
 8.0903    36
 8.0978    22
 8.1053    21
 8.1128    27
 8.1203    30
 8.1278    23
 8.1353    29
 8.1428    27
 8.1503    25
 8.1578    22
 8.1653    16
 8.1728    20
 8.1803    30
 8.1878    21
 8.1953    28
 8.2028    22
 8.2103    32
 8.2178    23
 8.2253    22
 8.2328    26
 8.2403    24
 8.2478    25
 8.2553    23
 8.2628    19
 8.2703    26
 8.2778    33
 8.2854    23
 8.2929    25
 8.3004    28
 8.3079    27
 8.3154    31
 8.3229    16
 8.3304    25
 8.3379    26
 8.3454    27
 8.3529    19
 8.3604    28
 8.3679    24
 8.3754    27
 8.3829    19
 8.3904    16
 8.3979    17
 8.4054    23
 8.4129    20
 8.4204    18
 8.4279    14
 8.4354    19
 8.4429    21
 8.4504    19
 8.4579    23
 8.4654    19
 8.4729    18
 8.4804    26
 8.4879    24
 8.4955    19
  8.503    27
 8.5105    16
  8.518    24
 8.5255    17
  8.533    19
 8.5405    18
  8.548    23
 8.5555    14
  8.563    24
 8.5705    21
  8.578    11
 8.5855    23
  8.593    16
 8.6005    12
  8.608    24
 8.6155    12
  8.623    19
 8.6305    20
  8.638    19
 8.6455    20
  8.653    16
 8.6605    26
  8.668    20
 8.6755    14
  8.683    17
 8.6905    14
  8.698    17
 8.7056    16
 8.7131    20
 8.7206    16
 8.7281    18
 8.7356    15
 8.7431    24
 8.7506    15
 8.7581    16
 8.7656    18
 8.7731    11
 8.7806    10
 8.7881    19
 8.7956    10
 8.8031    12
 8.8106    13
 8.8181    11
 8.8256    17
 8.8331    17
 8.8406    19
 8.8481    20
 8.8556    17
 8.8631    13
 8.8706    14
 8.8781    16
 8.8856    13
 8.8931    13
 8.9006    13
 8.9081    10
 8.9157    14
 8.9232    10
 8.9307    17
 8.9382     9
 8.9457    10
 8.9532     9
 8.9607    12
 8.9682    15
 8.9757     8
 8.9832    13
 8.9907    17
 8.9982    12
 9.0057    11
 9.0132    10
 9.0207    12
 9.0282    17
 9.0357     5
 9.0432    15
 9.0507    13
 9.0582    14
 9.0657     7
 9.0732    12
 9.0807    22
 9.0882     9
 9.0957     9
 9.1032     9
 9.1107     7
 9.1182     8
 9.1258     8
 9.1333    12
 9.1408    12
 9.1483    14
 9.1558     7
 9.1633     8
 9.1708    11
 9.1783     8
 9.1858    10
 9.1933     9
 9.2008     9
 9.2083     7
 9.2158    10
 9.2233     6
 9.2308     5
 9.2383     8
 9.2458    12
 9.2533    17
 9.2608    12
 9.2683     7
 9.2758     8
 9.2833     6
 9.2908     8
 9.2983    13
 9.3058    10
 9.3133    10
 9.3208     7
 9.3284    15
 9.3359     4
 9.3434     6
 9.3509     6
 9.3584     7
 9.3659     4
 9.3734     5
 9.3809     4
 9.3884    11
 9.3959     7
 9.4034     5
 9.4109    10
 9.4184     8
 9.4259     4
 9.4334     6
 9.4409     4
 9.4484     8
 9.4559     7
 9.4634     7
 9.4709     5
 9.4784     5
 9.4859     4
 9.4934     5
 9.5009     3
 9.5084     5
 9.5159     3
 9.5234     5
 9.5309     7
 9.5385     4
  9.546     6
 9.5535    10
  9.561     5
 9.5685     5
  9.576     4
 9.5835     5
  9.591     4
 9.5985     3
  9.606     5
 9.6135     3
  9.621     1
 9.6285     6
  9.636     5
 9.6435     4
  9.651     3
 9.6585     6
  9.666     1
 9.6735     3
  9.681     4
 9.6885     7
  9.696     8
 9.7035     4
  9.711     3
 9.7185     6
  9.726     5
 9.7335     2
  9.741     2
 9.7486     4
 9.7561     3
 9.7636     4
 9.7711     4
 9.7786     2
 9.7861     4
 9.7936     1
 9.8011     7
 9.8086     3
 9.8161     3
 9.8236     3
 9.8311     5
 9.8386     3
 9.8461     0
 9.8536     4
 9.8611     4
 9.8686     4
 9.8761     0
 9.8836     1
 9.8911     2
 9.8986     1
 9.9061     1
 9.9136     0
 9.9211     2
 9.9286     1
 9.9361     2
 9.9436     1
 9.9511     2
 9.9587     0
 9.9662     1
 9.9737     0
 9.9812     1
 9.9887     2
 9.9962     0
10.0037     0