File: Experimentelles/Rohdaten/Batterietests/AlteZelle/Studenten_Batterietests/Sonstige/ZView-Export/LiCoO2 vs Li_05_GCPL_C01_loop7.txt
EC-Lab ASCII FILE
Nb header lines : 3
mode	ox/red	error	control changes	Ns changes	counter inc.	Ns	time/s	control/V/mA	Ewe/V	dq/mA.h	<I>/mA	P/W	(Q-Qo)/mA.h	x	Capacity/mA.h
1	0	0	1	1	0	1	244700,52	-0,100000001	4,19600773	0	0	0	0	0	0
1	0	0	1	0	0	1	244780,52	-0,100000001	3,88680363	-0,00027771531387791037	-0,099977497353349286	0,000388592889	-0,0022203441282122576	8,2844024708029696E-005	0,0022203441282122576
1	0	0	1	0	0	1	244860,52	-0,100000001	3,85249019	-0,0002777151337493625	-0,099977432507082202	0,000385162071	-0,0044420658943583648	0,00016573945093962522	0,0044420658943583648
1	0	0	1	0	0	1	244940,52	-0,100000001	3,83354807	-0,00027771533000841734	-0,099977503160330893	0,000383268576	-0,0066637881269393779	0,00024863489457453421	0,0066637881269393779
1	0	0	1	0	0	1	245020,52	-0,100000001	3,81930327	-0,00027771560797716182	-0,099977603229063258	0,000381844788	-0,0088855102454611059	0,00033153033395373792	0,0088855102454611059
1	0	0	1	0	0	1	245100,52	-0,100000001	3,80748343	-0,00027771525753330854	-0,099977477069295795	0,00038066259	-0,011107233550871915	0,00041442581761736902	0,011107233550871915
1	0	0	1	0	0	1	245180,52	-0,100000001	3,79701948	-0,00027771470833238627	-0,099977279356994726	0,000379615667	-0,013328949656431962	0,000497321032644888	0,013328949656431962
1	0	0	1	0	0	1	245260,52	-0,100000001	3,7873764	-0,00027771501689445642	-0,099977390439322611	0,00037865201	-0,015550666324034835	0,00058021626864298035	0,015550666324034835
1	0	0	1	0	0	1	245340,52	-0,100000001	3,77851653	-0,00027771490522639619	-0,099977350238827213	0,00037776606	-0,017772384544043168	0,00066311156256340762	0,017772384544043168
1	0	0	1	0	0	1	245420,52	-0,100000001	3,77005744	-0,00027771512085282141	-0,099977427864328141	0,000376920652	-0,019994109227505085	0,0007460070976439785	0,019994109227505085
1	0	0	1	0	0	1	245500,52	-0,100000001	3,76217127	-0,00027771426080953747	-0,099977118248794368	0,000376131036	-0,022215827285902874	0,0008289023855344992	0,022215827285902874
1	0	0	1	0	0	1	245580,52	-0,100000001	3,75443769	-0,00027771492915062442	-0,099977358851548019	0,000375358766	-0,024437545437317846	0,000911797676895616	0,024437545437317846
1	0	0	1	0	0	1	245660,52	-0,100000001	3,74706721	-0,00027771521025978858	-0,099977460050831283	0,000374622265	-0,026659267358969574	0,00099469310892933517	0,026659267358969574
1	0	0	1	0	0	1	245740,52	-0,100000001	3,74000192	-0,00027771458116463488	-0,099977233576611392	0,000373915042	-0,02888098605278185	0,0010775884205280246	0,02888098605278185
1	0	0	1	0	0	1	245820,52	-0,100000001	3,73307061	-0,00027771494310597578	-0,099977363875473715	0,000373222545	-0,031102704158164243	0,0011604837101716042	0,031102704158164243
1	0	0	1	0	0	1	245900,52	-0,100000001	3,72631097	-0,00027771533439970682	-0,099977504741194854	0,000372547278	-0,033324425586549043	0,0012433791238008712	0,033324425586549043
1	0	0	1	0	0	1	245980,52	-0,100000001	3,71953225	-0,0002777152323619359	-0,099977468007603072	0,000371869421	-0,035546148854550067	0,001326274606068693	0,035546148854550067
1	0	0	1	0	0	1	246060,52	-0,100000001	3,71326923	-0,00027771493572286435	-0,099977361217554035	0,000371242873	-0,037767870280562272	0,0014091700196094352	0,037767870280562272
1	0	0	1	0	0	1	246140,52	-0,100000001	3,70670056	-0,00027771599807093539	-0,09997774366279977	0,000370587572	-0,039989594132248	0,0014920655236553181	0,039989594132248
1	0	0	1	0	0	1	246220,52	-0,100000001	3,70043731	-0,00027771544379120074	-0,099977544122126502	0,000369960646	-0,042211319799540877	0,0015749610954439443	0,042211319799540877
1	0	0	1	0	0	1	246300,52	-0,100000001	3,69411707	-0,0002777152180224657	-0,099977462845394598	0,000369328453	-0,044433041753918867	0,0016578565286987245	0,044433041753918867
1	0	0	1	0	0	1	246380,52	-0,100000001	3,68800664	-0,00027771536928580867	-0,099977517300189555	0,000368717738	-0,046654763260965235	0,001740751945262961	0,046654763260965235
1	0	0	1	0	0	1	246460,52	-0,100000001	3,68176246	-0,00027771547164602416	-0,099977554149861363	0,000368093606	-0,048876486094897926	0,0018236474113351094	0,048876486094897926
1	0	0	1	0	0	1	246540,52	-0,100000001	3,67576671	-0,0002777154604006145	-0,099977550101514534	0,000367494154	-0,051098208918332326	0,0019065428770155526	0,051098208918332326
1	0	0	1	0	0	1	246620,52	-0,100000001	3,66965628	-0,00027771499844764669	-0,099977383798472141	0,000366882625	-0,05331993094373712	0,0019894383129204384	0,05331993094373712
1	0	0	1	0	0	1	246700,52	-0,100000001	3,66350794	-0,00027771480700290864	-0,099977314878377229	0,00036626769	-0,055541650922388352	0,0020723336724581968	0,055541650922388352
1	0	0	1	0	0	1	246780,52	-0,100000001	3,65743566	-0,00027771486893958515	-0,09997733717557728	0,000365660671	-0,057763369975506534	0,0021552289974630726	0,057763369975506534
1	0	0	1	0	0	1	246860,52	-0,100000001	3,65138268	-0,00027771499144244525	-0,099977381276600013	0,00036505569	-0,059985088148930522	0,0022381242896453757	0,059985088148930522
1	0	0	1	0	0	1	246940,52	-0,100000001	3,64523411	-0,00027771534750610592	-0,099977509459497792	0,000364441425	-0,062206809996945664	0,002321019718931615	0,062206809996945664
1	0	0	1	0	0	1	247020,52	-0,100000001	3,63923812	-0,00027771511637833382	-0,09997742625351287	0,000363841653	-0,064428531557255411	0,0024039151374831789	0,064428531557255411
1	0	0	1	0	0	1	247100,52	-0,100000001	3,6330514	-0,00027771455954346394	-0,099977225792991078	0,000363222411	-0,066650254023601677	0,002486810589840184	0,066650254023601677
1	0	0	1	0	0	1	247180,52	-0,100000001	3,62697935	-0,00027771556803128784	-0,099977588848550874	0,000362616644	-0,068871977560897728	0,0025697060821557654	0,068871977560897728
1	0	0	1	0	0	1	247260,52	-0,100000001	3,6208117	-0,00027771549977693293	-0,099977564276986957	0,000361999933	-0,071093700128377792	0,0026526015382862077	0,071093700128377792
1	0	0	1	0	0	1	247340,52	-0,100000001	3,614434	-0,00027771630715496013	-0,099977854933031258	0,000361363345	-0,073315424506191219	0,0027354970619626224	0,073315424506191219
1	0	0	1	0	0	1	247420,52	-0,100000001	3,6083045	-0,0002777160955071449	-0,099977778739829696	0,000360750273	-0,075537149175920883	0,0028183925965308246	0,075537149175920883
1	0	0	1	0	0	1	247500,52	-0,100000001	3,60207963	-0,00027771532846366365	-0,099977502604219661	0,000360126927	-0,077758871592219571	0,002901288047020487	0,077758871592219571
1	0	0	1	0	0	1	247580,52	-0,100000001	3,59577823	-0,00027771532111201018	-0,099977499957624806	0,000359496917	-0,07998059380030889	0,0029841834897415782	0,07998059380030889
1	0	0	1	0	0	1	247660,52	-0,100000001	3,58940053	-0,0002777153006042871	-0,09997749257484567	0,000358859252	-0,082202317357380877	0,0030670789827950259	0,082202317357380877
1	0	0	1	0	0	1	247740,52	-0,100000001	3,58288908	-0,00027771543629343312	-0,099977541422930586	0,000358208432	-0,084424041379250278	0,0031499744931906906	0,084424041379250278
1	0	0	1	0	0	1	247820,52	-0,100000001	3,57645416	-0,00027771408654997744	-0,099977055515362573	0,000357563345	-0,086645756950985318	0,0032328696883004806	0,086645756950985318
1	0	0	1	0	0	1	247900,52	-0,100000001	3,56986642	-0,00027771535555728608	-0,099977512357922202	0,000356906356	-0,088867473455676288	0,0033157649182201114	0,088867473455676288
1	0	0	1	0	0	1	247980,52	-0,100000001	3,56312585	-0,00027771396460301347	-0,099977011614462413	0,000356230681	-0,091089187361257869	0,0033986600511634752	0,091089187361257869
1	0	0	1	0	0	1	248060,52	-0,100000001	3,55642366	-0,0002777146807913151	-0,099977269446866214	0,000355561526	-0,093310902279593562	0,003481555221894057	0,093310902279593562
1	0	0	1	0	0	1	248140,52	-0,100000001	3,54974031	-0,0002777147221341729	-0,099977284325637146	0,000354893389	-0,095532617584034867	0,003564450407030759	0,095532617584034867
1	0	0	1	0	0	1	248220,52	-0,100000001	3,54290438	-0,00027771431747244464	-0,099977138647437747	0,000354209449	-0,097754333247172838	0,0036473456055509152	0,097754333247172838
1	0	0	1	0	0	1	248300,52	-0,100000001	3,53589654	-0,00027771447894308304	-0,09997719677685847	0,000353509036	-0,099976046406203366	0,003730240710639456	0,099976046406203366
1	0	0	1	0	0	1	248380,52	-0,100000001	3,52885056	-0,00027771455799332925	-0,099977225234942669	0,000352804695	-0,10219776127643688	0,0038131358795752806	0,10219776127643688
1	0	0	1	0	0	1	248460,52	-0,100000001	3,52172804	-0,00027771505409934458	-0,099977403833080256	0,000352093222	-0,10441948331479491	0,0038960313159634694	0,10441948331479491
1	0	0	1	0	0	1	248540,52	-0,100000001	3,51439571	-0,000277715140607208	-0,099977434975906189	0,000351360271	-0,10664120484463054	0,0039789267333780032	0,10664120484463054
1	0	0	1	0	0	1	248620,52	-0,100000001	3,50713968	-0,00027771428787377146	-0,099977127991917082	0,000350633753	-0,10886292514662578	0,0040618221049801613	0,10886292514662578
1	0	0	1	0	0	1	248700,52	-0,100000001	3,49978805	-0,00027771490435674787	-0,099977349925753869	0,000349899521	-0,11108464044809394	0,0041447172900059309	0,11108464044809394
1	0	0	1	0	0	1	248780,52	-0,100000001	3,49213099	-0,00027771490788376992	-0,099977351195481613	0,000349134003	-0,11330636179271021	0,0042276127005096819	0,11330636179271021
1	0	0	1	0	0	1	248860,52	-0,100000001	3,48441672	-0,00027771472853132422	-0,099977286628611264	0,000348362519	-0,11552807994278989	0,004310507991820976	0,11552807994278989
1	0	0	1	0	0	1	248940,52	-0,100000001	3,47681689	-0,00027771447003881139	-0,09997719357132119	0,000347602385	-0,11774979871534942	0,0043934033063578323	0,11774979871534942
1	0	0	1	0	0	1	249020,52	-0,100000001	3,46891165	-0,00027771460555452435	-0,099977242356970227	0,000346812216	-0,1199715146577525	0,0044762985152977446	0,1199715146577525
1	0	0	1	0	0	1	249100,52	-0,100000001	3,46081543	-0,00027771453621486822	-0,09997721739469792	0,000346002693	-0,12219322854198237	0,0045591936474444486	0,12219322854198237
1	0	0	1	0	0	1	249180,52	-0,100000001	3,45260453	-0,00027771370457650886	-0,099976918004935398	0,000345180772	-0,12441494053423126	0,0046420887089987981	0,12441494053423126
1	0	0	1	0	0	1	249260,52	-0,100000001	3,44422197	-0,00027771365814366275	-0,099976901289113408	0,000344342639	-0,12663664850102293	0,0047249836203579258	0,12663664850102293
1	0	0	1	0	0	1	249340,52	-0,100000001	3,43578196	-0,00027771300464744368	-0,099976666035166874	0,000343498017	-0,1288583544711385	0,0048078784572183834	0,1288583544711385
1	0	0	1	0	0	1	249420,52	-0,100000001	3,42701745	-0,00027771405867031878	-0,09997704547868704	0,000342623069	-0,13108006368730685	0,0048907734151934355	0,13108006368730685
1	0	0	1	0	0	1	249500,52	-0,100000001	3,41819549	-0,00027771424431850512	-0,099977112312023654	0,00034174131	-0,13330177336046029	0,0049736683902192154	0,13330177336046029
1	0	0	1	0	0	1	249580,52	-0,100000001	3,40922093	-0,00027771496934153968	-0,099977373320275251	0,000340844941	-0,13552348960502539	0,0050565636104331994	0,13552348960502539
1	0	0	1	0	0	1	249660,52	-0,100000001	3,40017009	-0,00027771390630180634	-0,09997699062603113	0,000339938764	-0,13774520166809742	0,0051394586746300563	0,13774520166809742
1	0	0	1	0	0	1	249740,52	-0,100000001	3,39067984	-0,00027771382105267709	-0,099976959936349402	0,000338989863	-0,1399669122130727	0,005222353682184681	0,1399669122130727
1	0	0	1	0	0	1	249820,52	-0,100000001	3,38117051	-0,00027771503613144157	-0,099977397364636173	0,000338040642	-0,14218862331125978	0,0053052487103803814	0,14218862331125978
1	0	0	1	0	0	1	249900,52	-0,100000001	3,37147021	-0,00027771410709826486	-0,099977062912744883	0,00033706968	-0,14441033973003478	0,0053881439370943712	0,14441033973003478
1	0	0	1	0	0	1	249980,52	-0,100000001	3,36154103	-0,00027771467169374227	-0,099977266167084954	0,000336077675	-0,14663205608038365	0,0054710391612552909	0,14663205608038365
1	0	0	1	0	0	1	250060,52	-0,100000001	3,35157347	-0,00027771382196744285	-0,099976960265665024	0,000335080142	-0,14885376966459146	0,0055539342822077677	0,14885376966459146
1	0	0	1	0	0	1	250140,52	-0,100000001	3,34122396	-0,00027771408383382691	-0,099977054537548531	0,000334045733	-0,15107548226389216	0,0056368293664120365	0,15107548226389216
1	0	0	1	0	0	1	250220,52	-0,100000001	3,33074093	-0,00027771395598476131	-0,099977008511892122	0,000332997501	-0,15329719498084118	0,0057197244550059219	0,15329719498084118
1	0	0	1	0	0	1	250300,52	-0,100000001	3,3199904	-0,00027771455983776186	-0,099977225898938304	0,000331923424	-0,15551891046268419	0,005802619646761719	0,15551891046268419
1	0	0	1	0	0	1	250380,52	-0,100000001	3,30908728	-0,00027771405308942	-0,099977043469563763	0,000330832758	-0,15774062515735264	0,0058855148091469747	0,15774062515735264
1	0	0	1	0	0	1	250460,52	-0,100000001	3,29785943	-0,00027771322982178797	-0,09997674709326263	0,000329709263	-0,15996233292471872	0,0059684097130652672	0,15996233292471872
1	0	0	1	0	0	1	250540,52	-0,100000001	3,28640246	-0,00027771331439208656	-0,09997677753856535	0,00032856394	-0,16218404072877648	0,0060513046183525734	0,16218404072877648
1	0	0	1	0	0	1	250620,52	-0,100000001	3,27473545	-0,0002777127091065049	-0,099976559640445568	0,000327396789	-0,16440574416803782	0,0061341993607834573	0,16440574416803782
1	0	0	1	0	0	1	250700,52	-0,100000001	3,26282024	-0,00027771336853297222	-0,099976797029281126	0,000326206326	-0,16662745041563408	0,0062170942079970944	0,16662745041563408
1	0	0	1	0	0	1	250780,52	-0,100000001	3,25067592	-0,0002777132195263273	-0,09997674338689737	0,000324991997	-0,16884915673652131	0,0062999890579453146	0,16884915673652131
1	0	0	1	0	0	1	250860,52	-0,100000001	3,23834062	-0,00027771369405670298	-0,099976914217805875	0,000323759305	-0,17107086360189034	0,0063828839282088819	0,17107086360189034
1	0	0	1	0	0	1	250940,52	-0,100000001	3,22562337	-0,00027771333621193965	-0,099976785393711232	0,000322487467	-0,17329257089908176	0,0064657788145843251	0,17329257089908176
1	0	0	1	0	0	1	251020,52	-0,100000001	3,21269608	-0,00027771355103535789	-0,09997686273012969	0,000321195286	-0,17551427965547974	0,0065486737554047258	0,17551427965547974
1	0	0	1	0	0	1	251100,52	-0,100000001	3,19955897	-0,00027771311343833805	-0,099976705195227213	0,000319881365	-0,1777359898695143	0,0066315687506115085	0,1777359898695143
1	0	0	1	0	0	1	251180,52	-0,100000001	3,18603969	-0,00027771354937263658	-0,099976862131550118	0,000318530248	-0,17995769673828368	0,0067144636210019482	0,17995769673828368
1	0	0	1	0	0	1	251260,52	-0,100000001	3,17223406	-0,00027771396804435386	-0,099977012853344742	0,000317150494	-0,1821794079877672	0,0067973586548427226	0,1821794079877672
1	0	0	1	0	0	1	251340,52	-0,100000001	3,15825653	-0,00027771358171146781	-0,099976873773527539	0,000315752608	-0,18440111844768003	0,0068802536592235533	0,18440111844768003
1	0	0	1	0	0	1	251420,52	-0,100000001	3,14351535	-0,00027771339832908576	-0,099976807755880333	0,000314278615	-0,18662282802441677	0,0069631486306518963	0,18662282802441677
1	0	0	1	0	0	1	251500,52	-0,100000001	3,12879324	-0,00027771452479892304	-0,099977213284958298	0,000312808028	-0,18884453969091802	0,0070460436800521626	0,18884453969091802
1	0	0	1	0	0	1	251580,52	-0,100000001	3,11368918	-0,00027771441611150899	-0,09997717415749536	0,000311297859	-0,19106625216300253	0,007128938759509824	0,19106625216300253
1	0	0	1	0	0	1	251660,52	-0,100000001	3,0980885	-0,00027771519056997363	-0,099977452962499021	0,000309739	-0,19328796767589664	0,0072118339524241805	0,19328796767589664
1	0	0	1	0	0	1	251740,52	-0,100000001	3,08220148	-0,00027771308928231398	-0,099976696499059891	0,00030814833	-0,19550967992536566	0,0072947290235757581	0,19550967992536566
1	0	0	1	0	0	1	251820,52	-0,100000001	3,06600904	-0,00027771339591840902	-0,099976806888036838	0,000306529808	-0,19773138804160112	0,0073776239405108352	0,19773138804160112
1	0	0	1	0	0	1	251900,52	-0,100000001	3,04911017	-0,00027771386426770022	-0,099976975498410842	0,000304840825	-0,19995309516336246	0,007460518820340745	0,19995309516336246
1	0	0	1	0	0	1	251980,52	-0,100000001	3,0317719	-0,00027771374674555328	-0,099976933185789018	0,000303107256	-0,20217480818306218	0,0075434139202306662	0,20217480818306218
1	0	0	1	0	0	1	252060,52	-0,100000001	3,01407099	-0,00027771338911230365	-0,099976804437839283	0,00030133719	-0,20439651812345638	0,0076263089052275584	0,20439651812345638
1	0	0	1	0	0	1	252140,52	-0,100000001	2,99596906	-0,00027771260918014579	-0,099976523662306394	0,000299526582	-0,2066182239909592	0,0077092037382593971	0,2066182239909592
1	0	0	1	0	0	1	252220,52	-0,100000001	2,97727513	-0,00027771365346966518	-0,099976899606474547	0,000297658728	-0,20883993058047341	0,0077920985982304512	0,20883993058047341
1	0	0	1	0	0	1	252300,52	-0,100000001	2,95823741	-0,00027771413592870042	-0,099977073291700058	0,000295755919	-0,21106164114429987	0,007874993606488439	0,21106164114429987
1	0	0	1	0	0	1	252380,52	-0,100000001	2,938627	-0,00027771456704537075	-0,099977228493677094	0,000293795776	-0,21328335280974806	0,0079578886558494144	0,21328335280974806
1	0	0	1	0	0	1	252460,52	-0,100000001	2,9185009	-0,00027771442672941421	-0,099977177979940646	0,000291783479	-0,21550506579046672	0,0080407837542848998	0,21550506579046672
1	0	0	1	0	0	1	252540,52	-0,100000001	2,89797401	-0,00027771440391366682	-0,09997716976627287	0,000289731252	-0,21772677920993597	0,0081236788690907597	0,21772677920993597
1	0	0	1	0	0	1	252620,52	-0,100000001	2,87698865	-0,0002777140128666328	-0,099977028989362662	0,000287632778	-0,21994849578762026	0,0082065741017338688	0,21994849578762026
1	0	0	1	0	0	1	252700,52	-0,100000001	2,85539222	-0,00027771460610090029	-0,099977242553665523	0,000285474234	-0,2221702083630807	0,0082894691850486259	0,2221702083630807
1	0	0	1	0	0	1	252780,52	-0,100000001	2,83354783	-0,0002777145315342479	-0,099977215709674867	0,000283290225	-0,22439192982836909	0,0083723646000548147	0,22439192982836909
1	0	0	1	0	0	1	252860,52	-0,100000001	2,81126404	-0,00027771480124816301	-0,09997731280666912	0,000281062617	-0,22661364995250822	0,0084552599650209242	0,22661364995250822
1	0	0	1	0	0	1	252940,52	-0,100000001	2,78875113	-0,00027771402671519254	-0,099977033974843379	0,000278811058	-0,22883536541819834	0,0085381551561740339	0,22883536541819834
1	0	0	1	0	0	1	253020,52	-0,100000001	2,76579905	-0,00027771485142616762	-0,099977330870747955	0,00027651721	-0,23105707810679878	0,0086210502437101965	0,23105707810679878
1	0	0	1	0	0	1	253100,52	-0,100000001	2,74248409	-0,00027771380777160326	-0,099976955155163571	0,000274185208	-0,2332787915266584	0,0087039453585306214	0,2332787915266584
1	0	0	1	0	0	1	253180,52	-0,100000001	2,71915007	-0,00027771483068002592	-0,099977323406793664	0,000271853351	-0,23550050657411018	0,008786840534078697	0,23550050657411018
1	0	0	1	0	0	1	253260,52	-0,100000001	2,69549155	-0,00027771492059528829	-0,099977355771627507	0,000269488111	-0,23772222601965658	0,0088697358737255987	0,23772222601965658
1	0	0	1	0	0	1	253340,52	-0,100000001	2,67169929	-0,00027771510386508368	-0,099977421748743514	0,000267109601	-0,23994394471969837	0,0089526311855567206	0,23994394471969837
1	0	0	1	0	0	1	253420,52	-0,100000001	2,6478498	-0,00027771512115539776	-0,099977427973255603	0,000264725211	-0,24216566431041235	0,0090355265306200166	0,24216566431041235
1	0	0	1	0	0	1	253500,52	-0,100000001	2,62394285	-0,00027771521266135904	-0,099977460915396531	0,000262335147	-0,24438738283947408	0,0091184218360716429	0,24438738283947408
1	0	0	1	0	0	1	253580,52	-0,100000001	2,60007429	-0,00027771538484303488	-0,099977522900790106	0,000259948982	-0,24660910572858909	0,0092013173042027174	0,24660910572858909
1	0	0	1	0	0	1	253660,52	-0,100000001	2,57618666	-0,00027771514799777008	-0,099977437636508122	0,000257560547	-0,24883082634378064	0,0092842126874906509	0,24883082634378064
1	0	0	1	0	0	1	253740,52	-0,100000001	2,55239439	-0,00027771580967845187	-0,099977675841516314	0,000255182473	-0,25105255069841491	0,0093671082103022208	0,25105255069841491
1	0	0	1	0	0	1	253820,52	-0,100000001	2,52841115	-0,00027771523235531322	-0,099977468005218906	0,000252784143	-0,25327427376717997	0,009450003685136279	0,25327427376717997
1	0	0	1	0	0	1	253900,52	-0,100000001	2,50463796	-0,00027771487732645539	-0,099977340194850086	0,000250407029	-0,25549599096815424	0,009532898941035177	0,25549599096815424
1	0	0	1	0	0	1	253980,52	-0,100000001	2,48094106	-0,00027771517066243622	-0,099977445795786662	0,000248038152	-0,25771771208427658	0,0096157943430135104	0,25771771208427658
1	0	0	1	0	0	1	254060,52	-0,100000001	2,45712972	-0,00027771461675316093	-0,099977246388478771	0,000245657051	-0,25993942909855462	0,009698689591946519	0,25993942909855462
1	0	0	1	0	0	1	254140,52	-0,100000001	2,43331838	-0,00027771558046092589	-0,099977593323219866	0,000243277318	-0,26216114978843046	0,0097815849780210253	0,26216114978843046
1	0	0	1	0	0	1	254220,52	-0,100000001	2,40954542	-0,00027771555676104291	-0,099977584791263322	0,000240900525	-0,26438287061004784	0,0098644803690109837	0,26438287061004784
1	0	0	1	0	0	1	254300,52	-0,100000001	2,38540936	-0,00027771515703780784	-0,099977440890921216	0,000238487119	-0,26660459078915693	0,0099473757360280934	0,26660459078915693
1	0	0	1	0	0	1	254380,52	-0,100000001	2,3609488	-0,00027771454696067504	-0,099977221263187763	0,000236041102	-0,26882630925308531	0,010030271039049507	0,26882630925308531
1	0	0	1	0	0	1	254460,52	-0,100000001	2,33568621	-0,00027771508098393677	-0,099977413516187482	0,000233515864	-0,27104802606182122	0,010113166280313462	0,27104802606182122
1	0	0	1	0	0	1	254540,52	-0,100000001	2,30956435	-0,00027771459018273485	-0,099977236823126874	0,000230903868	-0,27326974648414998	0,010196061656405426	0,27326974648414998
1	0	0	1	0	0	1	254620,52	-0,100000001	2,2817812	-0,00027771400049039059	-0,099977024533916147	0,000228125689	-0,27549146190429795	0,010278956845859299	0,27549146190429795
1	0	0	1	0	0	1	254700,52	-0,100000001	2,25216508	-0,00027771501471143632	-0,099977389653435482	0,000225165582	-0,27771317921542189	0,010361852105868027	0,27771317921542189
1	0	0	1	0	0	1	254780,52	-0,100000001	2,21976113	-0,0002777150959885783	-0,099977418913202022	0,000221925991	-0,2799348997019585	0,010444747484355672	0,2799348997019585
1	0	0	1	0	0	1	254860,52	-0,100000001	2,18357611	-0,00027771505365934637	-0,099977403674680909	0,000218308269	-0,28215661943051568	0,010527642834562085	0,28215661943051568
1	0	0	1	0	0	1	254940,52	-0,100000001	2,14288497	-0,00027771553915656275	-0,099977578453651469	0,000214240456	-0,28437834017951475	0,010610538222842557	0,28437834017951475
1	0	0	1	0	0	1	255020,52	-0,100000001	2,09726715	-0,00027771555914729834	-0,099977585650315149	0,000209679711	-0,28660006359837386	0,010693433710739096	0,28660006359837386
1	0	0	1	0	0	1	255100,52	-0,100000001	2,04655123	-0,00027771481845155357	-0,099977318999888755	0,000204608703	-0,28882178393836998	0,01077632908375912	0,28882178393836998
1	0	0	1	0	0	1	255180,52	-0,100000001	1,9920733	-0,00027771511897651683	-0,099977427188858598	0,000199162358	-0,29104350417505216	0,010859224452924358	0,29104350417505216
1	0	0	1	0	0	1	255260,52	-0,100000001	1,93478858	-0,00027771490802864234	-0,099977351247635648	0,000193435044	-0,29326522502268525	0,010942119844884998	0,29326522502268525
1	0	0	1	0	0	1	255340,52	-0,100000001	1,87689281	-0,00027771542587338224	-0,099977537671712858	0,000187647121	-0,2954869500609856	0,01102501539320507	0,2954869500609856
1	0	0	1	0	0	1	255420,52	-0,100000001	1,81958902	-0,00027771551350214416	-0,099977569218062221	0,000181918091	-0,29770867372591213	0,011107910890282714	0,29770867372591213
1	0	0	1	0	0	1	255500,52	-0,100000001	1,76490021	-0,00027771527401813203	-0,099977483003831334	0,000176450281	-0,29993039660795405	0,011190806358149885	0,29993039660795405
1	0	0	1	0	0	1	255580,52	-0,100000001	1,71372581	-0,00027771507023523251	-0,099977409641998989	0,000171333872	-0,30215212139136762	0,011273701896959784	0,30215212139136762
1	0	0	1	0	0	1	255660,52	-0,100000001	1,66448009	-0,00027771564511002768	-0,099977616596892864	0,000166410755	-0,30437384728346976	0,011356597477136347	0,30437384728346976
1	0	0	1	0	0	1	255740,52	-0,100000001	1,61880505	-0,00027771617246170838	-0,099977806443468224	0,000161844582	-0,30659557371426131	0,011439493077412136	0,30659557371426131
1	0	0	1	0	0	1	255820,52	-0,100000001	1,57757914	-0,00027771559992018672	-0,099977600328552666	0,000157722578	-0,3088172978430048	0,011522388591795416	0,3088172978430048
1	0	0	1	0	0	1	255900,52	-0,100000001	1,54213905	-0,00027771563263651398	-0,099977612106428634	0,000154179375	-0,31103902172608986	0,011605284097012848	0,31103902172608986
1	0	0	1	0	0	1	255980,52	-0,100000001	1,51250374	-0,00027771587552999459	-0,099977699548067968	0,000151216649	-0,31326074624589722	0,011688179625987248	0,31326074624589722
1	1	0	0	0	0	2	256049,54	0,100000001	2,04523253	0,00027782360349388586	0,10001648161365827	0,000204556956	-0,31351081084454944	0,011697509872378394	0,00083347728931158797
1	1	0	0	0	0	2	256129,54	0,100000001	2,53929424	0,00027782507334649558	0,10001701075585763	0,000253972627	-0,31128821458172525	0,011614581817499963	0,0030560735521357926
1	1	0	0	0	0	2	256209,54	0,100000001	2,69772458	0,00027782425727529658	0,10001671697027195	0,000269817567	-0,3090656183948953	0,011531653765456986	0,0052786697389657318
1	1	0	0	0	0	2	256289,54	0,100000001	2,79657888	0,00027782420110536947	0,10001669674910134	0,000279704574	-0,30684302277118234	0,011448725734424653	0,0075012653626787187
1	1	0	0	0	0	2	256369,54	0,100000001	2,86843324	0,00027782457015787565	0,10001682960798277	0,000286891591	-0,30462042542555194	0,011365797639145272	0,009723862708309047
1	1	0	0	0	0	2	256449,54	0,100000001	2,92401838	0,00027782439025367299	0,10001676484247995	0,000292450859	-0,30239783020675814	0,011282869623221021	0,011946457927102845
1	1	0	0	0	0	2	256529,54	0,100000001	2,96818495	0,00027782416971607338	0,10001668544895651	0,000296868035	-0,30017523731877824	0,01119994169426257	0,014169050815082678
1	1	0	0	0	0	2	256609,54	0,100000001	3,00524807	0,00027782464298481738	0,10001685582567771	0,000300575455	-0,29795264507247386	0,011117013789245898	0,01639164306138705
1	1	0	0	0	0	2	256689,54	0,100000001	3,03820586	0,0002778242965332336	0,10001673110312707	0,000303871406	-0,29573005103659674	0,011034085817457858	0,018614237097264179
1	1	0	0	0	0	2	256769,54	0,100000001	3,06957889	0,0002778242469314072	0,10001671324647235	0,000307009177	-0,2935074542904919	0,010951157744547579	0,020836833843369053
1	1	0	0	0	0	2	256849,54	0,100000001	3,10097098	0,00027782468053946893	0,10001686934535016	0,000310149422	-0,29128485715682726	0,010868229657176925	0,02305943097703368
1	1	0	0	0	0	2	256929,54	0,100000001	3,13305044	0,00027782476021804746	0,10001689802963394	0,000313357974	-0,28906225824217261	0,010785301503355134	0,025282029891688394
1	1	0	0	0	0	2	257009,54	0,100000001	3,16669559	0,00027782473396882416	0,10001688857991502	0,000316723046	-0,28683966206563949	0,010702373451696342	0,027504626068221632
1	1	0	0	0	0	2	257089,54	0,100000001	3,2019639	0,00027782467416259981	0,10001686704967762	0,000320250401	-0,28461706438013773	0,010619445343735902	0,029727223753723437
1	1	0	0	0	0	2	257169,54	0,100000001	3,23801494	0,000277824733297444	0,10001688833821821	0,000323856191	-0,28239446754131491	0,01053651726736619	0,03194982059254624
1	1	0	0	0	0	2	257249,54	0,100000001	3,27425718	0,00027782478611460992	0,10001690735239496	0,000327481073	-0,28017186853953606	0,010453589110293682	0,034172419594325146
1	1	0	0	0	0	2	257329,54	0,100000001	3,30929637	0,0002778252410632041	0,10001707113852064	0,000330986135	-0,27794926606908522	0,010370660823800355	0,036395022064776083
1	1	0	0	0	0	2	257409,54	0,100000001	3,34234953	0,00027782537504658102	0,10001711936787138	0,000334292185	-0,27572666511057974	0,010287732593719747	0,038617623023281523
1	1	0	0	0	0	2	257489,54	0,100000001	3,37295866	0,0002778246386026343	0,10001685424809203	0,000337352714	-0,27350406384484506	0,010204804352176002	0,040840224289016211
1	1	0	0	0	0	2	257569,54	0,100000001	3,40106654	0,0002778255206118855	0,1000171717713728	0,000340165047	-0,27128146020733184	0,010121876022138011	0,043062827926529389
1	1	0	0	0	0	2	257649,54	0,100000001	3,4264245	0,0002778248674662577	0,10001693663898358	0,000342700485	-0,2690588612905936	0,01003894786823848	0,045285426843267776
1	1	0	0	0	0	2	257729,54	0,100000001	3,44931936	0,00027782515339677536	0,10001703957395382	0,000344990724	-0,26683626303610835	0,0099560197390485018	0,047508025097753037
1	1	0	0	0	0	2	257809,54	0,100000001	3,4701519	0,00027782481381379898	0,10001691732410146	0,000347073888	-0,26461366154413139	0,0098730914890633523	0,049730626589729984
1	1	0	0	0	0	2	257889,54	0,100000001	3,48890305	0,00027782477500662205	0,10001690335351995	0,000348949281	-0,26239106739331498	0,0097901635129867738	0,051953220740546387
1	1	0	0	0	0	2	257969,54	0,100000001	3,50597382	0,00027782467932378253	0,1000168689077031	0,000350656512	-0,2601684724881944	0,0097072355087660928	0,054175815645667014
1	1	0	0	0	0	2	258049,54	0,100000001	3,52170801	0,00027782514946990541	0,10001703816028086	0,000352230796	-0,25794587406463142	0,0096243073732675955	0,056398414069229958
1	1	0	0	0	0	2	258129,54	0,100000001	3,53602934	0,0002778253997179369	0,10001712824955811	0,00035366349	-0,25572327569591347	0,0095413792398154394	0,058621012437947917
1	1	0	0	0	0	2	258209,54	0,100000001	3,54941487	0,00027782464510367974	0,10001685658846805	0,000355001306	-0,25350067733067072	0,0094584511064929472	0,06084361080319063
1	1	0	0	0	0	2	258289,54	0,100000001	3,56165457	0,00027782485950779587	0,10001693377393776	0,000356225763	-0,25127807935453261	0,0093755229876884749	0,063066208779328819
1	1	0	0	0	0	2	258369,54	0,100000001	3,57316875	0,00027782451070224246	0,10001680820395818	0,000357376935	-0,24905548067236995	0,0092925948425412762	0,065288807461491494
1	1	0	0	0	0	2	258449,54	0,100000001	3,58388114	0,00027782464227618442	0,10001685557056989	0,000358448509	-0,24683288039885722	0,0092096666380186662	0,067511407735004224
1	1	0	0	0	0	2	258529,54	0,100000001	3,59411597	0,00027782460583208336	0,10001684245069554	0,00035947212	-0,2446102795488488	0,0091267384119862246	0,069734008585012634
1	1	0	0	0	0	2	258609,54	0,100000001	3,60356784	0,0002778251034989953	0,10001702161541322	0,000360418111	-0,24238768191278941	0,0090438103058705472	0,071956606221071962
1	1	0	0	0	0	2	258689,54	0,100000001	3,61250424	0,00027782467469200486	0,10001686724026341	0,000361311366	-0,24016508397957898	0,0089608821886677619	0,074179204154282394
1	1	0	0	0	0	2	258769,54	0,100000001	3,62096334	0,00027782458163590896	0,10001683374007414	0,000362157298	-0,23794248523327008	0,0088779540411271808	0,076401802900591219
1	1	0	0	0	0	2	258849,54	0,100000001	3,62886858	0,00027782487807960976	0,10001694045978971	0,00036294834	-0,23571988562262266	0,0087950258613369664	0,078624402511238592
1	1	0	0	0	0	2	258929,54	0,100000001	3,63656402	0,00027782475926685667	0,10001689768720528	0,000363717845	-0,2334972862023616	0,0087120976886503232	0,080847001931499648
1	1	0	0	0	0	2	259009,54	0,100000001	3,64403009	0,00027782503106279507	0,10001699553372781	0,000364464941	-0,23127469105854218	0,0086291696755234675	0,083069597075319078
1	1	0	0	0	0	2	259089,54	0,100000001	3,65086603	0,00027782543002814058	0,10001713916122971	0,000365149172	-0,22905209130930902	0,0085462414905624346	0,08529219682455223
1	1	0	0	0	0	2	259169,54	0,100000001	3,6576829	0,00027782465461144845	0,10001686001126424	0,000365829968	-0,22682948987711178	0,0084633132428077466	0,087514798256749427
1	1	0	0	0	0	2	259249,54	0,100000001	3,66417527	0,00027782505126835571	0,10001700280772851	0,000366479828	-0,22460688986663725	0,0083803850480994458	0,089737398267223949
1	1	0	0	0	0	2	259329,54	0,100000001	3,67041922	0,00027782561460965213	0,10001720561056349	0,000367105065	-0,22238428706855738	0,0082974567493818406	0,091960001065303808
1	1	0	0	0	0	2	259409,54	0,100000001	3,67660594	0,00027782544483285814	0,10001714449092722	0,000367723638	-0,22016168459923978	0,0082145284629307981	0,094182603534621414
1	1	0	0	0	0	2	259489,54	0,100000001	3,68248725	0,00027782495451842749	0,10001696797775978	0,000368311215	-0,21793908493548256	0,0081316002811589875	0,096405203198378611
1	1	0	0	0	0	2	259569,54	0,100000001	3,68821573	0,00027782459321576685	0,10001683790882232	0,000368883688	-0,2157164860428799	0,0080486721281599898	0,098627802090981248
1	1	0	0	0	0	2	259649,54	0,100000001	3,69379139	0,00027782470776678787	0,10001687914718344	0,000369441492	-0,21349388724812653	0,0079657439788118797	0,10085040088573462
1	1	0	0	0	0	2	259729,54	0,100000001	3,69940519	0,00027782554249382682	0,10001717964887043	0,000370004069	-0,21127128707646077	0,0078828157780893146	0,10307300105740035
1	1	0	0	0	0	2	259809,54	0,100000001	3,70484734	0,00027782485509291296	0,10001693218458016	0,000370547466	-0,20904868517268733	0,0077998875127394867	0,10529560296117379
1	1	0	0	0	0	2	259889,54	0,100000001	3,7100029	0,00027782505793952278	0,1000170052140057	0,00037106339	-0,20682608562994118	0,0077169593354827597	0,1075182025039199
1	1	0	0	0	0	2	259969,54	0,100000001	3,71523499	0,00027782534681053629	0,10001710920289686	0,000371587055	-0,20460348653036141	0,0076340311747611674	0,10974080160349973
1	1	0	0	0	0	2	260049,54	0,100000001	3,72010422	0,0002778246856186953	0,10001687117387136	0,000372073177	-0,20238088596080768	0,0075511029591928704	0,11196340217305338
1	1	0	0	0	0	2	260129,54	0,100000001	3,72504973	0,00027782548559581242	0,10001715916558845	0,000372568902	-0,20015828548493306	0,0074681747471198656	0,114186002648928
1	1	0	0	0	0	2	260209,54	0,100000001	3,72980428	0,00027782546140212154	0,10001715045586109	0,0003730444	-0,19793568163581843	0,0073852464091867418	0,11640860649804266
1	1	0	0	0	0	2	260289,54	0,100000001	3,73452091	0,00027782435631503658	0,10001675262457277	0,00037351466	-0,19571308085038298	0,007302318185563607	0,11863120728347814
1	1	0	0	0	0	2	260369,54	0,100000001	3,73919916	0,0002778246297372712	0,10001685105656182	0,000373982912	-0,19349048426419904	0,007219390118620192	0,12085380386966211
1	1	0	0	0	0	2	260449,54	0,100000001	3,74380088	0,00027782472606541382	0,10001688573468774	0,000374443305	-0,1912678871774855	0,007136462033001344	0,12307640095637563
1	1	0	0	0	0	2	260529,54	0,100000001	3,74842191	0,00027782484703386819	0,10001692928332451	0,000374905649	-0,18904528823509635	0,0070535338781447437	0,12529899989876472
1	1	0	0	0	0	2	260609,54	0,100000001	3,75289011	0,00027782453328950534	0,10001681633537155	0,000375352131	-0,18682269215126278	0,0069706058299446976	0,12752159598259827
1	1	0	0	0	0	2	260689,54	0,100000001	3,75739646	0,00027782450388951434	0,10001680575137645	0,000375802803	-0,18460009707521299	0,0068876778193464179	0,12974419105864806
1	1	0	0	0	0	2	260769,54	0,100000001	3,76186466	0,00027782460745134288	0,1000168430336289	0,000376249838	-0,18237750230883085	0,0068047498203022541	0,13196678582503021
1	1	0	0	0	0	2	260849,54	0,100000001	3,76627564	0,00027782468664315008	0,10001687154267502	0,00037669111	-0,18015490682005987	0,0067218217943047936	0,13418938131380117
1	1	0	0	0	0	2	260929,54	0,100000001	3,77062917	0,00027782437311444019	0,1000167586723571	0,000377126096	-0,17793231042541626	0,0066388937345080051	0,1364119777084448
1	1	0	0	0	0	2	261009,54	0,100000001	3,77488732	0,00027782453849456381	0,10001681820919229	0,000377552205	-0,17570971603932339	0,0065559657496529446	0,13863457209453766
1	1	0	0	0	0	2	261089,54	0,100000001	3,77931738	0,00027782441076801885	0,10001677222764331	0,000377995137	-0,17348712075120691	0,0064730377311421734	0,14085716738265413
1	1	0	0	0	0	2	261169,54	0,100000001	3,78353739	0,00027782432695892122	0,10001674206103027	0,000378417084	-0,17126452571195184	0,0063901097219167526	0,14307976242190923
1	1	0	0	0	0	2	261249,54	0,100000001	3,78777647	0,00027782406015156042	0,10001664600573803	0,00037884069	-0,16904193160286819	0,00630718174739728	0,1453023565309929
1	1	0	0	0	0	2	261329,54	0,100000001	3,79199648	0,00027782437739397088	0,10001676021298792	0,000379263191	-0,16681933752109094	0,0062242537738966464	0,14752495061277014
1	1	0	0	0	0	2	261409,54	0,100000001	3,79627371	0,00027782452174979779	0,10001681218107747	0,000379691191	-0,1645967401963984	0,0061413256793984819	0,14974754793746266
1	1	0	0	0	0	2	261489,54	0,100000001	3,8004365	0,00027782408019445008	0,10001665322117717	0,00038010694	-0,16237414552256528	0,0060583976838074483	0,15197014261129578
1	1	0	0	0	0	2	261569,54	0,100000001	3,80475187	0,0002778240627526409	0,10001664694212685	0,00038053852	-0,16015155065147354	0,0059754696808564288	0,15419273748238752
1	1	0	0	0	0	2	261649,54	0,100000001	3,80876184	0,00027782448078029683	0,10001679743205944	0,000380940153	-0,15792895720962915	0,0058925417312325491	0,1564153309242319
1	1	0	0	0	0	2	261729,54	0,100000001	3,81301999	0,00027782367826418739	0,10001650852630525	0,000381364953	-0,15570636540588269	0,0058096138427283059	0,1586379227279784
1	1	0	0	0	0	2	261809,54	0,100000001	3,81724	0,00027782398079004554	0,10001661743559715	0,000381787424	-0,15348377291085434	0,0057266859284314067	0,16086051522300672
1	1	0	0	0	0	2	261889,54	0,100000001	3,82130718	0,00027782498184964064	0,10001697781699499	0,000382195605	-0,15126117780238506	0,0056437579166235123	0,16308311033147603
1	1	0	0	0	0	2	261969,54	0,100000001	3,82545066	0,00027782427364380822	0,1000167228629352	0,000382609025	-0,14903858308866317	0,0055608299195441741	0,16530570504519789
1	1	0	0	0	0	2	262049,54	0,100000001	3,82970881	0,00027782456018817094	0,10001682601888965	0,000383035309	-0,14681598978139485	0,0054779019749415098	0,16752829835246621
1	1	0	0	0	0	2	262129,54	0,100000001	3,83377624	0,00027782461152681043	0,10001684450079698	0,00038344221	-0,14459339336103392	0,0053949739141851738	0,16975089477282714
1	1	0	0	0	0	2	262209,54	0,100000001	3,83805346	0,00027782905204594141	0,10001653292740234	0,000383868814	-0,14237076120269656	0,0053120445199968877	0,17197352693116448
1	1	0	0	0	0	2	262289,54	0,100000001	3,84236884	0,0002778295972992977	0,1000167292148311	0,000384301151	-0,14014812393651846	0,0052291149352281952	0,17419616419734259
1	1	0	0	0	0	2	262369,55	0,100000001	3,8464551	0,00027782953477650883	0,10001670670706051	0,000384709769	-0,13792548462918594	0,0051461852743012877	0,17641880350467514
1	1	0	0	0	0	2	262449,55	0,100000001	3,8509233	0,00027783021230995658	0,10001695061440528	0,000385157618	-0,13570284486923765	0,0050632555964866771	0,17864144326462342
1	1	0	0	0	0	2	262529,55	0,100000001	3,85520053	0,00027783062468551926	0,10001709906674941	0,000385585969	-0,13348020339040026	0,0049803258545380026	0,1808640847434608
1	1	0	0	0	0	2	262609,55	0,100000001	3,85951614	0,00027783085469197894	0,10001718186748058	0,000386017928	-0,13125755881120658	0,0048973959969108672	0,1830867293226545
1	1	0	0	0	0	2	262689,55	0,100000001	3,86379337	0,00027783049994996854	0,10001705416281578	0,00038644523	-0,1290349145127011	0,0048144661497565856	0,18530937362115997
1	1	0	0	0	0	2	262769,55	0,100000001	3,86820436	0,00027782966554868557	0,10001675378413765	0,000386885251	-0,12681227205351261	0,0047315363712296934	0,18753201608034845
1	1	0	0	0	0	2	262849,55	0,100000001	3,87248158	0,00027782994028346403	0,10001685268675357	0,000387313426	-0,12458963155461616	0,0046486066658439341	0,18975465657924486
1	1	0	0	0	0	2	262929,56	0,100000001	3,87689233	0,00027783032836889226	0,10001699239016035	0,000387755106	-0,12236699072433902	0,0045656769480939142	0,19197729740952202
1	1	0	0	0	0	2	263009,56	0,100000001	3,88134146	0,00027783019196035133	0,10001694328403114	0,0003881999	-0,12014434782975642	0,0044827471533218829	0,19419994030410464
1	1	0	0	0	0	2	263089,56	0,100000001	3,88588619	0,00027783038271632458	0,10001701195718792	0,000388654735	-0,11792170475713762	0,004399817351907081	0,19642258337672346
1	1	0	0	0	0	2	263169,56	0,100000001	3,89025879	0,00027783054003326432	0,10001706859019574	0,000389092282	-0,11569906060784082	0,0043168875103199757	0,19864522752602026
1	1	0	0	0	0	2	263249,56	0,100000001	3,89486074	0,00027782998691830371	0,10001686946915094	0,000389551773	-0,11347641977149598	0,0042339577923435629	0,20086786836236509
1	1	0	0	0	0	2	263329,56	0,100000001	3,89936709	0,00027783065699744557	0,10001711069590806	0,000390003435	-0,11125377589435771	0,0041510279609110579	0,20309051223950336
1	1	0	0	0	0	2	263409,57	0,100000001	3,9040072	0,00027783047144363322	0,100017043898404	0,000390467263	-0,10903113295154045	0,0040680981643393267	0,20531315518232064
1	1	0	0	0	0	2	263489,57	0,100000001	3,90876174	0,00027783095294609667	0,10001721723362459	0,00039094346	-0,10680848735992715	0,0039851682689374541	0,20753580077393395
1	1	0	0	0	0	2	263569,57	0,100000001	3,91349745	0,00027783113485491936	0,10001728271953981	0,000391417387	-0,10458583779150309	0,0039022382251554246	0,20975845034235795
1	1	0	0	0	0	2	263649,57	0,100000001	3,91842389	0,00027783130969189933	0,10001734565964069	0,000391910347	-0,10236318832494048	0,0038193081851739827	0,21198109980892054
1	1	0	0	0	0	2	263729,57	0,100000001	3,92319751	0,00027783042531667485	0,10001702729534738	0,000392386544	-0,10014054134431792	0,0037363782379463066	0,21420374678954314
1	1	0	0	0	0	2	263809,57	0,100000001	3,92812395	0,00027783045627507898	0,10001703844015827	0,00039287933	-0,097917898667988467	0,0036534484513175936	0,21642638946587254
1	1	0	0	0	0	2	263889,57	0,100000001	3,933146	0,00027783021451201706	0,10001695140713179	0,000393381284	-0,095695255644036045	0,0035705186517186003	0,21864903248982499
1	1	0	0	0	0	2	263969,58	0,100000001	3,93809152	0,00027783080281317235	0,10001716319146979	0,000393876748	-0,093472610935986662	0,0034875887892836845	0,22087167719787437
1	1	0	0	0	0	2	264049,58	0,100000001	3,94299889	0,0002778308061340617	0,10001716438696694	0,000394367555	-0,091249963577836134	0,0034046588279699322	0,22309432455602486
1	1	0	0	0	0	2	264129,58	0,100000001	3,94809723	0,0002778303333963785	0,10001699420467784	0,000394876814	-0,089027320893683981	0,003321729041049344	0,22531696724017702
1	1	0	0	0	0	2	264209,58	0,100000001	3,95340562	0,0002778307208278113	0,10001713367730813	0,000395408308	-0,086804677568375846	0,0032387992302063635	0,22753961056548515
1	1	0	0	0	0	2	264289,58	0,100000001	3,95846581	0,00027782983019492691	0,1000168130556433	0,000395913143	-0,084582036006381325	0,003155869485154985	0,22976225212747968
1	1	0	0	0	0	2	264369,58	0,100000001	3,96386981	0,00027783010537135933	0,10001691211725154	0,000396454008	-0,082359395596587622	0,003072939783093769	0,23198489253727334
1	1	0	0	0	0	2	264449,59	0,100000001	3,96913981	0,00027783008438555731	0,10001690456250827	0,000396981079	-0,080136753124760051	0,002990010004095296	0,2342075350091009
1	1	0	0	0	0	2	264529,59	0,100000001	3,97458196	0,00027783083578364717	0,1000171750559549	0,000397526455	-0,07791410630255543	0,0029070800627784058	0,2364301818313055
1	1	0	0	0	0	2	264609,59	0,100000001	3,98015761	0,00027783077148679232	0,10001715190953282	0,000398084027	-0,075691460219945114	0,0028241501490567741	0,23865282791391584
1	1	0	0	0	0	2	264689,59	0,100000001	3,98554254	0,00027783060599408214	0,1000170923333043	0,000398622389	-0,073468815597607642	0,0027412202898198851	0,24087547253625331
1	1	0	0	0	0	2	264769,59	0,100000001	3,99144268	0,00027783089129088653	0,10001719504050496	0,000399212906	-0,071246168922395123	0,0026582903539874682	0,24309811921146579
1	1	0	0	0	0	2	264849,59	0,100000001	3,99701858	0,00027783142644291123	0,10001738769036003	0,00039977135	-0,069023520302363328	0,0025753603455912298	0,2453207678314976
1	1	0	0	0	0	2	264929,59	0,100000001	4,00293779	0,0002778306398582127	0,1000171045253209	0,000400362245	-0,066800873481942336	0,0024924304043408893	0,24754341465191859
1	1	0	0	0	0	2	265009,60	0,100000001	4,00889587	0,00027783071531852086	0,10001713169050877	0,000400958263	-0,064578229461751245	0,0024095005675708918	0,24976605867210966
1	1	0	0	0	0	2	265089,60	0,100000001	4,01496792	0,00027782997792628074	0,100016866235578	0,000401564495	-0,062355585603942259	0,0023265707368595885	0,25198870252991869
1	1	0	0	0	0	2	265169,60	0,100000001	4,02088737	0,00027783113346538608	0,10001728221931747	0,000402158214	-0,06013293909420672	0,0022436408072013408	0,25421134903965424
1	1	0	0	0	0	2	265249,60	0,100000001	4,02703571	0,00027783001551694342	0,10001687976562734	0,000402771548	-0,057910295476683085	0,002160710985455407	0,25643399265717786
1	1	0	0	0	0	2	265329,60	0,100000001	4,03316545	0,00027783005853618182	0,10001689525691229	0,000403384678	-0,055687651063956083	0,0020777811340393667	0,25865663706990483
1	1	0	0	0	0	2	265409,60	0,100000001	4,03940916	0,00027783068932841222	0,1000171223377428	0,00040401009	-0,053465006603118208	0,0019948512808282454	0,26087928153074275
1	1	0	0	0	0	2	265489,61	0,100000001	4,04555798	0,00027783018179196451	0,10001693962813968	0,000404624327	-0,05124236391893129	0,0019119214939063597	0,26310192421492966
1	1	0	0	0	0	2	265569,61	0,100000001	4,05187845	0,00027783104447192611	0,10001725018694608	0,000405257742	-0,049019721016632358	0,0018289916988464214	0,26532456711722858
1	1	0	0	0	0	2	265649,61	0,100000001	4,05835152	0,00027783094438082637	0,10001721415484397	0,000405905012	-0,046797073024845126	0,001746061713890832	0,26754721510901581
1	1	0	0	0	0	2	265729,61	0,100000001	4,06469107	0,00027783057628778947	0,10001708164390216	0,000406538544	-0,0445744272762696	0,001663131812632487	0,2697698608575913
1	1	0	0	0	0	2	265809,61	0,100000001	4,07133579	0,00027783090437576179	0,10001719975329802	0,000407203595	-0,042351780575646874	0,0015802018758519814	0,27199250755821408
1	1	0	0	0	0	2	265889,61	0,100000001	4,07782841	0,00027783047983133133	0,10001704692024582	0,000407852349	-0,040129136089336717	0,0014972720216904544	0,27421515204452429
1	1	0	0	0	0	2	265969,61	0,100000001	4,08445406	0,0002778308546530704	0,10001718185347376	0,000408515596	-0,037906490411739136	0,0014143421230803925	0,27643779772212179
1	1	0	0	0	0	2	266049,62	0,100000001	4,09102297	0,00027783015112620259	0,10001692858867797	0,000409171538	-0,035683845216636614	0,0013314122424728699	0,27866044291722435
1	1	0	0	0	0	2	266129,62	0,100000001	4,09764862	0,00027783028041033283	0,10001697512541136	0,000409834407	-0,033461202085330842	0,0012484824388683784	0,28088308604853018
1	1	0	0	0	0	2	266209,62	0,100000001	4,1043129	0,00027783036131701533	0,10001700425591357	0,000410501088	-0,03123856045049447	0,0011655526910991726	0,28310572768336656
1	1	0	0	0	0	2	266289,62	0,100000001	4,11097717	0,00027783036284893754	0,10001700480273762	0,000411167624	-0,029015918596169363	0,0010826229351405469	0,28532836953769165
1	1	0	0	0	0	2	266369,62	0,100000001	4,1176219	0,0002778304638726016	0,10001704117288509	0,000411832356	-0,026793277838207955	0,00099969322008872486	0,28755101029565306
1	1	0	0	0	0	2	266449,62	0,100000001	4,1243434	0,00027783053029659722	0,10001706508389875	0,000412504713	-0,02457063519870176	0,00091676343483393715	0,2897736529351593
1	1	0	0	0	0	2	266529,63	0,100000001	4,13081646	0,00027783029091979066	0,10001697890990768	0,000413151778	-0,022347994792144922	0,00083383373289349197	0,2919962933417161
1	1	0	0	0	0	2	266609,63	0,100000001	4,1372323	0,00027782964846202067	0,1000167476272351	0,000413792528	-0,020125354497478835	0,00075090403512784128	0,29421893363638227
1	1	0	0	0	0	2	266689,63	0,100000001	4,14372492	0,00027782972738933235	0,1000167760440132	0,000414442009	-0,017902715788041731	0,00066797439650921536	0,29644157234581933
1	1	0	0	0	0	2	266769,63	0,100000001	4,15015984	0,00027783018787950278	0,10001694181495395	0,000415086281	-0,015680074973994845	0,00058504467936476877	0,2986642131598663
1	1	0	0	0	0	2	266849,63	0,100000001	4,15649939	0,00027782999837646883	0,1000168735951753	0,000415720075	-0,013457436023403146	0,00050211503174834054	0,30088685211045798
1	1	0	0	0	0	2	266929,63	0,100000001	4,16270494	0,00027783038202135098	0,10001701170467357	0,000416341296	-0,01123479406011413	0,00041918527172412486	0,30310949407374694
1	1	0	0	0	0	2	267009,63	0,100000001	4,16889191	0,00027783091375480099	0,1000172031296871	0,000416960916	-0,0090121504928359757	0,00033625545185291782	0,30533213764102515
1	1	0	0	0	0	2	267089,64	0,100000001	4,17496395	0,00027783035881858733	0,1000170033564968	0,000417567382	-0,0067895080307835712	0,00025332567321916954	0,3075547801030775
1	1	0	0	0	0	2	267169,64	0,100000001	4,18090248	0,00027782912478306224	0,10001655911226166	0,00041815947	-0,0045668689250943744	0,00017039601981584518	0,30977741920876672
1	1	0	0	0	0	2	267249,64	0,100000001	4,18651628	0,00027783022012437382	0,10001695342754131	0,0004187226	-0,002344229840124831	8,7466367185598989E-005	0,31200005829373626
1	1	0	0	0	0	2	267329,64	0,100000001	4,19211149	0,00027783007432023683	0,10001690093906267	0,000419282005	-0,00012158757655051222	4,536595957334935E-006	0,31422270055731053
1	1	0	0	0	0	2	267409,64	0,100000001	4,19694328	0,00027783007509592506	0,10001690121830506	0,000419765274	0,002101053415756488	-7,8393127838236237E-005	0,31644534154961741
1	1	0	0	0	0	2	267454,99	0,100000001	4,19996023	0,00014849167780329786	0,10001692083483734	0,000420067081	0,0033608648711002342	-0,00012539838707162787	0,31770515300496109