File: Experimentelles/Rohdaten/Batterietests/AlteZelle/Studenten_Batterietests/Sonstige/ZView-Export/LiCoO2 vs Li_05_GCPL_C01_loop10.txt
EC-Lab ASCII FILE
Nb header lines : 3
mode	ox/red	error	control changes	Ns changes	counter inc.	Ns	time/s	control/V/mA	Ewe/V	dq/mA.h	<I>/mA	P/W	(Q-Qo)/mA.h	x	Capacity/mA.h
1	0	0	1	1	0	1	311451,01	-0,100000001	4,19600773	0	0	0	0	0	0
1	0	0	1	0	0	1	311531,01	-0,100000001	3,90314889	-0,00027771797847665014	-0,099976547212378752	0,000390223344	-0,002220374678276287	8,2845164571993626E-005	0,002220374678276287
1	0	0	1	0	0	1	311611,01	-0,100000001	3,87000012	-0,00027771842034119699	-0,099976706280552794	0,000386909873	-0,0044421191806766458	0,00016574143912380451	0,0044421191806766458
1	0	0	1	0	0	1	311691,02	-0,100000001	3,85101986	-0,00027771837804300922	-0,099976691053498381	0,000385012216	-0,0066638673486869107	0,00024863785044444941	0,0066638673486869107
1	0	0	1	0	0	1	311771,02	-0,100000001	3,83635497	-0,00027771830508568224	-0,099976664789366374	0,000383545965	-0,0088856135493345293	0,00033153418836014893	0,0088856135493345293
1	0	0	1	0	0	1	311851,02	-0,100000001	3,82403874	-0,00027771872389606304	-0,099976815558200422	0,000382315222	-0,011107361442051637	0,00041443058940923597	0,011107361442051637
1	0	0	1	0	0	1	311931,02	-0,100000001	3,81296372	-0,00027771833873043459	-0,099976676901243994	0,000381207443	-0,013329109325476629	0,00049732699011162176	0,013329109325476629
1	0	0	1	0	0	1	312011,02	-0,100000001	3,80270982	-0,00027771750965093574	-0,09997637843837129	0,000380181154	-0,015550853836747318	0,00058022326499439654	0,015550853836747318
1	0	0	1	0	0	1	312091,02	-0,100000001	3,79341054	-0,00027771973333963088	-0,099977178946232282	0,000379254489	-0,017772604385582742	0,00066311976514682931	0,017772604385582742
1	0	0	1	0	0	1	312171,03	-0,100000001	3,78432131	-0,00027771874782484435	-0,099976824167740378	0,000378344412	-0,019994356991125699	0,00074601634203778534	0,019994356991125699
1	0	0	1	0	0	1	312251,03	-0,100000001	3,77588129	-0,00027771903294573229	-0,099976926809283686	0,000377501012	-0,022216106582051568	0,00082891280644932454	0,022216106582051568
1	0	0	1	0	0	1	312331,03	-0,100000001	3,76763225	-0,00027771910577846899	-0,099976953030891763	0,000376676384	-0,024437858435709664	0,00091180935528644544	0,024437858435709664
1	0	0	1	0	0	1	312411,03	-0,100000001	3,75966978	-0,00027771856261375878	-0,099976757494197261	0,000375879608	-0,026659609092472134	0,00099470585946578138	0,026659609092472134
1	0	0	1	0	0	1	312491,03	-0,100000001	3,75176454	-0,00027771847744493021	-0,099976726834009331	0,000375089148	-0,028881358291937882	0,0010776023092714171	0,028881358291937882
1	0	0	1	0	0	1	312571,03	-0,100000001	3,74420285	-0,00027771840898899565	-0,09997670219151127	0,00037433306	-0,031103102911499859	0,0011604985881946858	0,031103102911499859
1	0	0	1	0	0	1	312651,03	-0,100000001	3,73679399	-0,00027771885673618979	-0,09997686337739753	0,000373592949	-0,033324851179669101	0,0012433950032523965	0,033324851179669101
1	0	0	1	0	0	1	312731,04	-0,100000001	3,72967172	-0,0002777191706055568	-0,099976976365866304	0,000372881303	-0,035546601598624774	0,0013262914985588411	0,035546601598624774
1	0	0	1	0	0	1	312811,04	-0,100000001	3,72247291	-0,0002777186416441368	-0,09997678594342167	0,000372160866	-0,03776835451996183	0,0014091880872324995	0,03776835451996183
1	0	0	1	0	0	1	312891,04	-0,100000001	3,71538877	-0,00027771869868785142	-0,099976806483418982	0,000371452712	-0,03999010437078713	0,0014920845613412358	0,03999010437078713
1	0	0	1	0	0	1	312971,04	-0,100000001	3,70838094	-0,00027771849825067654	-0,099976734327425357	0,000370751804	-0,042211854319744032	0,0015749810391113942	0,042211854319744032
1	0	0	1	0	0	1	313051,04	-0,100000001	3,70139217	-0,00027771802203108864	-0,099976562891674701	0,000370052468	-0,044433601594657331	0,0016578774171093907	0,044433601594657331
1	0	0	1	0	0	1	313131,04	-0,100000001	3,6944797	-0,00027771976943976349	-0,099977191946685248	0,000369363697	-0,046655353030660723	0,0017407739503632531	0,046655353030660723
1	0	0	1	0	0	1	313211,05	-0,100000001	3,68764377	-0,00027771897655228774	-0,099976906512689997	0,000368679204	-0,048877105767205165	0,0018236705321420509	0,048877105767205165
1	0	0	1	0	0	1	313291,05	-0,100000001	3,6808269	-0,00027771864375513462	-0,099976786708021709	0,000367997243	-0,051098857326800429	0,0019065670700072922	0,051098857326800429
1	0	0	1	0	0	1	313371,05	-0,100000001	3,67399096	-0,00027771911322615213	-0,099976955714333811	0,000367314438	-0,05332060745553488	0,0019894635544851923	0,05332060745553488
1	0	0	1	0	0	1	313451,05	-0,100000001	3,66730762	-0,00027771866357740429	-0,099976793843901376	0,000366645661	-0,05554235668295769	0,002072360005333944	0,05554235668295769
1	0	0	1	0	0	1	313531,05	-0,100000001	3,66054821	-0,00027771896303817632	-0,099976901647703552	0,000365970278	-0,057764109777828288	0,0021552566004823722	0,057764109777828288
1	0	0	1	0	0	1	313611,05	-0,100000001	3,65380764	-0,00027771905162557958	-0,099976933538554662	0,000365296495	-0,059985861837851725	0,0022381531570192614	0,059985861837851725
1	0	0	1	0	0	1	313691,05	-0,100000001	3,64702892	-0,00027771971795128451	-0,099977173406534285	0,000364619656	-0,062207613308706432	0,0023210496915734733	0,062207613308706432
1	0	0	1	0	0	1	313771,06	-0,100000001	3,64013577	-0,00027771915842551322	-0,099976971981135027	0,00036392975	-0,064429366545049894	0,0024039462920004445	0,064429366545049894
1	0	0	1	0	0	1	313851,06	-0,100000001	3,63335705	-0,00027771958100092083	-0,099977124105352627	0,000363252591	-0,066651118142838912	0,0024868428312907459	0,066651118142838912
1	0	0	1	0	0	1	313931,06	-0,100000001	3,62657833	-0,00027771936709971891	-0,099977047104730355	0,000362574589	-0,068872868494767514	0,0025697393240963197	0,068872868494767514
1	0	0	1	0	0	1	314011,06	-0,100000001	3,61964679	-0,00027771923633540672	-0,099977000029320512	0,000361881423	-0,071094621393850918	0,002652635911939665	0,071094621393850918
1	0	0	1	0	0	1	314091,06	-0,100000001	3,61273456	-0,00027771967254992986	-0,099977157063525158	0,000361190934	-0,073316375337481318	0,0027355325387564627	0,073316375337481318
1	0	0	1	0	0	1	314171,06	-0,100000001	3,60589862	-0,00027771869810546438	-0,09997680627027209	0,000360506237	-0,075538125037033344	0,0028184290072209898	0,075538125037033344
1	0	0	1	0	0	1	314251,07	-0,100000001	3,5987761	-0,00027771841882293421	-0,099976705729333261	0,000359793776	-0,077759874048221658	0,0029013254500017414	0,077759874048221658
1	0	0	1	0	0	1	314331,07	-0,100000001	3,59174919	-0,00027771793464033142	-0,099976531426952435	0,000359090627	-0,079981619587452262	0,0029842217632390829	0,079981619587452262
1	0	0	1	0	0	1	314411,07	-0,100000001	3,5846076	-0,000277717957712296	-0,09997653973269975	0,000358376652	-0,082203362759221146	0,0030671179881432442	0,082203362759221146
1	0	0	1	0	0	1	314491,07	-0,100000001	3,5773325	-0,00027771859798704582	-0,099976770227171533	0,000357650162	-0,084425109996984614	0,0031500143647551309	0,084425109996984614
1	0	0	1	0	0	1	314571,07	-0,100000001	3,57011461	-0,0002777180388520161	-0,099976568947091994	0,000356927805	-0,08664685731429751	0,003232910744335113	0,08664685731429751
1	0	0	1	0	0	1	314651,07	-0,100000001	3,56270576	-0,00027771757045843533	-0,099976400328649651	0,000356186501	-0,088868601948167936	0,0033158070237922483	0,088868601948167936
1	0	0	1	0	0	1	314731,07	-0,100000001	3,55537343	-0,00027771796944571866	-0,09997654396130601	0,000355453958	-0,091090343933831296	0,0033987032044412179	0,091090343933831296
1	0	0	1	0	0	1	314811,08	-0,100000001	3,54798365	-0,00027771862262570195	-0,099976779101572403	0,000354715972	-0,093312089058550502	0,0034815995022125818	0,093312089058550502
1	0	0	1	0	0	1	314891,08	-0,100000001	3,54044127	-0,00027771841852408317	-0,099976705626404403	0,000353961659	-0,095533835474588211	0,0035644958481647757	0,095533835474588211
1	0	0	1	0	0	1	314971,08	-0,100000001	3,53293681	-0,00027771881378980147	-0,099976847919323149	0,000353211886	-0,09775558306105417	0,0036473922377872205	0,09775558306105417
1	0	0	1	0	0	1	315051,08	-0,100000001	3,52512693	-0,00027771839349841075	-0,099976696617335795	0,000352430536	-0,099977333878777741	0,0037302887479722317	0,099977333878777741
1	0	0	1	0	0	1	315131,08	-0,100000001	3,51735544	-0,00027771883765483898	-0,099976856510571226	0,000351654133	-0,10219908239252187	0,003813185172192672	0,10219908239252187
1	0	0	1	0	0	1	315211,08	-0,100000001	3,50958371	-0,0002777188327378697	-0,099976854740496358	0,000350877148	-0,10442083174401962	0,0038960816276708256	0,10442083174401962
1	0	0	1	0	0	1	315291,09	-0,100000001	3,50164032	-0,00027771954586812192	-0,099977111462444006	0,000350083894	-0,10664258649727811	0,003978978284695936	0,10664258649727811
1	0	0	1	0	0	1	315371,09	-0,100000001	3,49331498	-0,00027771871724393632	-0,099976813158825459	0,000349250506	-0,10886433836163278	0,0040618748339321606	0,10886433836163278
1	0	0	1	0	0	1	315451,09	-0,100000001	3,48498964	-0,00027771824822202326	-0,099976644314187878	0,000348417583	-0,11108608561723626	0,0041447712112096819	0,11108608561723626
1	0	0	1	0	0	1	315531,09	-0,100000001	3,47660685	-0,00027771817492238349	-0,099976617926825626	0,000347579393	-0,11330783058472091	0,0042276675031144122	0,11330783058472091
1	0	0	1	0	0	1	315611,09	-0,100000001	3,46801424	-0,00027771870129389898	-0,099976807419250304	0,000346721004	-0,11552957822384758	0,0043105638947016992	0,11552957822384758
1	0	0	1	0	0	1	315691,09	-0,100000001	3,45913506	-0,0002777187490955823	-0,099976824626361114	0,000345833338	-0,11775132563736197	0,0043934602778710893	0,11775132563736197
1	0	0	1	0	0	1	315771,09	-0,100000001	3,45014143	-0,00027771894808361926	-0,099976896261257011	0,000344934437	-0,11997307527092629	0,0044763567438735258	0,11997307527092629
1	0	0	1	0	0	1	315851,10	-0,100000001	3,44120502	-0,0002777191528557903	-0,099976969978401126	0,00034404124	-0,1221948266276617	0,0045592532741697926	0,1221948266276617
1	0	0	1	0	0	1	315931,10	-0,100000001	3,43192482	-0,00027771819888676208	-0,099976626553835814	0,000343112275	-0,12441657630758307	0,0046421497419018752	0,12441657630758307
1	0	0	1	0	0	1	316011,10	-0,100000001	3,42237735	-0,00027771827111186256	-0,099976652554371341	0,000342157844	-0,1266383230923711	0,0047250461016126387	0,1266383230923711
1	0	0	1	0	0	1	316091,10	-0,100000001	3,41282988	-0,00027771892361508474	-0,099976887451008397	0,000341204111	-0,12886007132066114	0,0048079425151824019	0,12886007132066114
1	0	0	1	0	0	1	316171,10	-0,100000001	3,40291953	-0,00027771812495961782	-0,099976599945231757	0,000340212311	-0,13108181618101136	0,0048908388030898035	0,13108181618101136
1	0	0	1	0	0	1	316251,10	-0,100000001	3,3929522	-0,00027771833968907597	-0,09997667724634825	0,000339216087	-0,13330356191922957	0,0049737351237516397	0,13330356191922957
1	0	0	1	0	0	1	316331,11	-0,100000001	3,38277459	-0,00027771862279747926	-0,099976779163411046	0,000338198908	-0,13552531151429221	0,0050566315883175283	0,13552531151429221
1	0	0	1	0	0	1	316411,11	-0,100000001	3,37227225	-0,00027771826280032598	-0,099976649566931226	0,000337148493	-0,13774706106535331	0,0051395280512416595	0,13774706106535331
1	0	0	1	0	0	1	316491,11	-0,100000001	3,36152196	-0,00027771855077561408	-0,099976753236038797	0,000336074037	-0,13996881014495454	0,0052224244965749894	0,13996881014495454
1	0	0	1	0	0	1	316571,11	-0,100000001	3,35059953	-0,0002777185224480927	-0,099976743038327462	0,000334982033	-0,1421905582138481	0,005305320904197456	0,1421905582138481
1	0	0	1	0	0	1	316651,11	-0,100000001	3,33939099	-0,00027771830699592829	-0,099976665477041702	0,000333861186	-0,14441230747419917	0,0053882173562748058	0,14441230747419917
1	0	0	1	0	0	1	316731,11	-0,100000001	3,32810569	-0,00027771833850940067	-0,099976676821673331	0,000332732947	-0,14663405860041446	0,0054711138779700563	0,14663405860041446
1	0	0	1	0	0	1	316811,11	-0,100000001	3,31626701	-0,00027771818733877603	-0,09997662240129632	0,000331549178	-0,14885580591847862	0,0055540102575780704	0,14885580591847862
1	0	0	1	0	0	1	316891,12	-0,100000001	3,30423713	-0,00027771743032915725	-0,09997634988308087	0,00033034556	-0,15107754913682192	0,0056369064842199859	0,15107754913682192
1	0	0	1	0	0	1	316971,12	-0,100000001	3,29186368	-0,00027771762273833158	-0,099976419144394483	0,000329108734	-0,15329929022647264	0,0057198026314375187	0,15329929022647264
1	0	0	1	0	0	1	317051,12	-0,100000001	3,27924204	-0,00027771796113707952	-0,09997654096559808	0,000327847287	-0,1555210339213319	0,0058026988758588851	0,1555210339213319
1	0	0	1	0	0	1	317131,12	-0,100000001	3,26631474	-0,00027771866967860195	-0,09997679603563479	0,000326555688	-0,15774277800114896	0,0058855951346435456	0,15774277800114896
1	0	0	1	0	0	1	317211,12	-0,100000001	3,2530818	-0,00027771823733010224	-0,099976640395499494	0,000325232191	-0,15996452435724179	0,0059684914783591142	0,15996452435724179
1	0	0	1	0	0	1	317291,12	-0,100000001	3,2395246	-0,00027771869497373702	-0,099976805142871949	0,000323877321	-0,16218627214646954	0,0060513878755468736	0,16218627214646954
1	0	0	1	0	0	1	317371,13	-0,100000001	3,22564244	-0,00027771844093625744	-0,099976713691722125	0,000322489126	-0,1644080193397303	0,0061342842504983053	0,1644080193397303
1	0	0	1	0	0	1	317451,13	-0,100000001	3,2113595	-0,00027771828018873926	-0,09997665582431177	0,000321060972	-0,16662976295042733	0,0062171804917794662	0,16662976295042733
1	0	0	1	0	0	1	317531,13	-0,100000001	3,19677114	-0,00027771852633481226	-0,099976744432864128	0,000319602783	-0,16885151336565814	0,0063000769869469312	0,16885151336565814
1	0	0	1	0	0	1	317611,13	-0,100000001	3,18170524	-0,00027771875563015539	-0,099976826977598246	0,000318096805	-0,17107326261961456	0,006382973438785687	0,17107326261961456
1	0	0	1	0	0	1	317691,13	-0,100000001	3,16646743	-0,00027771834814258749	-0,099976680284898381	0,000316572899	-0,17329501233144141	0,0064658699077082035	0,17329501233144141
1	0	0	1	0	0	1	317771,13	-0,100000001	3,15069509	-0,00027771803968151408	-0,09997656924570551	0,000314995676	-0,1755167588964824	0,0065487662592199104	0,1755167588964824
1	0	0	1	0	0	1	317851,13	-0,100000001	3,13452172	-0,00027771870074214208	-0,099976807222949376	0,000313379482	-0,17773850613764915	0,0066316626359587776	0,17773850613764915
1	0	0	1	0	0	1	317931,14	-0,100000001	3,11790895	-0,00027771838481558694	-0,099976693491579405	0,000311718235	-0,17996025513325955	0,0067145590781582963	0,17996025513325955
1	0	0	1	0	0	1	318011,14	-0,100000001	3,10083818	-0,00027771897055746781	-0,09997690435459639	0,000310012198	-0,18218200603346477	0,0067974555914208077	0,18218200603346477
1	0	0	1	0	0	1	318091,14	-0,100000001	3,08319449	-0,00027771856618672608	-0,099976758783932288	0,000308247778	-0,18440375445390819	0,006880352012160073	0,18440375445390819
1	0	0	1	0	0	1	318171,14	-0,100000001	3,06501627	-0,0002777180589081513	-0,099976576167161638	0,000306429836	-0,18662550053232195	0,0069632483455150643	0,18662550053232195
1	0	0	1	0	0	1	318251,14	-0,100000001	3,04637957	-0,00027771824036331635	-0,09997664148976329	0,000304566784	-0,18884724505791683	0,0070461446209322931	0,18884724505791683
1	0	0	1	0	0	1	318331,14	-0,100000001	3,02718925	-0,00027771866687842541	-0,099976795032246093	0,000302648667	-0,1910689888397736	0,0071290408685996544	0,1910689888397736
1	0	0	1	0	0	1	318411,15	-0,100000001	3,00740695	-0,00027771890369802714	-0,099976880285661184	0,000300671178	-0,19329073824385542	0,0072119373260397901	0,19329073824385542
1	0	0	1	0	0	1	318491,15	-0,100000001	2,98703265	-0,00027771923758337898	-0,099977000482073459	0,000298634579	-0,19551248947612432	0,0072948338516920448	0,19551248947612432
1	0	0	1	0	0	1	318571,15	-0,100000001	2,96610451	-0,00027771890900242659	-0,099976882190552755	0,000296541868	-0,19773424043125194	0,0073777303670037862	0,19773424043125194
1	0	0	1	0	0	1	318651,15	-0,100000001	2,94467998	-0,0002777191207624144	-0,099976958422680525	0,000294400146	-0,19995599517896304	0,0074606270238219162	0,19995599517896304
1	0	0	1	0	0	1	318731,15	-0,100000001	2,92251086	-0,00027771873511208426	-0,09997681959123488	0,000292183337	-0,20217774556646195	0,0075435235179546662	0,20217774556646195
1	0	0	1	0	0	1	318811,15	-0,100000001	2,90001702	-0,00027771933354478746	-0,099977035025187622	0,000289935095	-0,20439949516345885	0,0076264199825927232	0,20439949516345885
1	0	0	1	0	0	1	318891,15	-0,100000001	2,87693143	-0,00027771926740722522	-0,099977011214959808	0,000287627015	-0,2066212474225527	0,0077093165465571968	0,2066212474225527
1	0	0	1	0	0	1	318971,16	-0,100000001	2,85338736	-0,00027771901968701018	-0,099976922037981414	0,000285272894	-0,20884300189858752	0,00779221319323872	0,20884300189858752
1	0	0	1	0	0	1	319051,16	-0,100000001	2,82940412	-0,00027771929421275853	-0,099977020864765978	0,000282875408	-0,21106475369043728	0,0078751097397696883	0,21106475369043728
1	0	0	1	0	0	1	319131,16	-0,100000001	2,80521083	-0,00027771933122268979	-0,099977034189248563	0,000280456647	-0,21328650476394096	0,007958006259498199	0,21328650476394096
1	0	0	1	0	0	1	319211,16	-0,100000001	2,78067398	-0,00027771905684719482	-0,099976935413644518	0,000278003252	-0,21550825719663418	0,0080409028299398989	0,21550825719663418
1	0	0	1	0	0	1	319291,16	-0,100000001	2,75567865	-0,00027771829061292944	-0,09997665957462025	0,000275503553	-0,21773000613173098	0,0081237992698815731	0,21773000613173098
1	0	0	1	0	0	1	319371,16	-0,100000001	2,73045421	-0,00027771830252309642	-0,099976663862197798	0,000272981706	-0,21995175413647958	0,0082066956751107072	0,21995175413647958
1	0	0	1	0	0	1	319451,17	-0,100000001	2,70517254	-0,00027771822305147846	-0,099976635257621645	0,000270454038	-0,22217349959799398	0,008289591985448352	0,22217349959799398
1	0	0	1	0	0	1	319531,17	-0,100000001	2,67981458	-0,00027771809027882086	-0,099976587460385254	0,000267918716	-0,22439524353884614	0,0083724882390480448	0,22439524353884614
1	0	0	1	0	0	1	319611,17	-0,100000001	2,65428472	-0,00027771927518521744	-0,099977014018474675	0,000265367475	-0,22661698887033466	0,008455384544534249	0,22661698887033466
1	0	0	1	0	0	1	319691,17	-0,100000001	2,62875485	-0,00027771883685431542	-0,099976856222388288	0,000262814632	-0,22883874146148432	0,0085382811208881728	0,22883874146148432
1	0	0	1	0	0	1	319771,17	-0,100000001	2,60324407	-0,00027771874375972486	-0,099976822708980992	0,00026026406	-0,23106049075333392	0,0086211775741407744	0,23106049075333392
1	0	0	1	0	0	1	319851,17	-0,100000001	2,5777142	-0,00027771785808561578	-0,099976503872440896	0,000257710868	-0,2332822363962791	0,0087040738912478464	0,2332822363962791
1	0	0	1	0	0	1	319931,17	-0,100000001	2,55226064	-0,00027771792121811043	-0,09997652659970135	0,000255166146	-0,23550398193178934	0,0087869702043463744	0,23550398193178934
1	0	0	1	0	0	1	320011,18	-0,100000001	2,5266161	-0,00027771862366009088	-0,099976779473945242	0,000252602942	-0,23772573139584214	0,0088698666640241088	0,23772573139584214
1	0	0	1	0	0	1	320091,18	-0,100000001	2,50118184	-0,00027771801296249034	-0,099976559627042189	0,000250059558	-0,23994747542709757	0,0089527629209968704	0,23994747542709757
1	0	0	1	0	0	1	320171,18	-0,100000001	2,47551823	-0,00027771957886053459	-0,099977123339483891	0,000247495191	-0,24216922615739024	0,0090356594279197146	0,24216922615739024
1	0	0	1	0	0	1	320251,18	-0,100000001	2,44991183	-0,00027771863103078467	-0,099976782122688486	0,000244934316	-0,24439097653051197	0,0091185559215160358	0,24439097653051197
1	0	0	1	0	0	1	320331,18	-0,100000001	2,42401934	-0,00027771844481345677	-0,099976715085741222	0,000242345486	-0,24661272469881814	0,009201452332847721	0,24661272469881814
1	0	0	1	0	0	1	320411,18	-0,100000001	2,39805007	-0,00027771892096019453	-0,099976886497594061	0,000239749585	-0,24883447435283885	0,0092843487996134131	0,24883447435283885
1	0	0	1	0	0	1	320491,19	-0,100000001	2,37156558	-0,00027771878068521622	-0,099976835999574195	0,000237101616	-0,25105622442918451	0,0093672452821366182	0,25105622442918451
1	0	0	1	0	0	1	320571,19	-0,100000001	2,34437442	-0,00027771801558840608	-0,099976560573517504	0,000234382489	-0,25327797063206893	0,0094501416201357747	0,25327797063206893
1	0	0	1	0	0	1	320651,19	-0,100000001	2,31626678	-0,00027771797888394858	-0,099976547355511795	0,000231572354	-0,2554997144574913	0,0095330378694286272	0,2554997144574913
1	0	0	1	0	0	1	320731,19	-0,100000001	2,28691792	-0,00027771710769500998	-0,099976233734696525	0,000228637437	-0,25772145610764224	0,009615934037559177	0,25772145610764224
1	0	0	1	0	0	1	320811,19	-0,100000001	2,25533485	-0,00027771826805257133	-0,099976651453047718	0,000225480821	-0,25994319656016192	0,0096988301610044954	0,25994319656016192
1	0	0	1	0	0	1	320891,19	-0,100000001	2,22092581	-0,00027771773631581005	-0,099976460031499469	0,000222040297	-0,26216494059621715	0,0097817264181563418	0,26216494059621715
1	0	0	1	0	0	1	320971,19	-0,100000001	2,18277431	-0,00027771786644144189	-0,099976506875824947	0,000218226152	-0,26438668293196294	0,0098646226118673574	0,26438668293196294
1	0	0	1	0	0	1	321051,20	-0,100000001	2,14028811	-0,00027771800116325421	-0,099976555379398963	0,000213978637	-0,2666084257048248	0,0099475188218877619	0,2666084257048248
1	0	0	1	0	0	1	321131,20	-0,100000001	2,09268451	-0,00027771797018787926	-0,099976544228478694	0,000209219361	-0,26883017011184534	0,010030415092880824	0,26883017011184534
1	0	0	1	0	0	1	321211,20	-0,100000001	2,04036427	-0,00027771898814290765	-0,099976910685232819	0,000203989315	-0,27105191887484736	0,010113311526401411	0,27105191887484736
1	0	0	1	0	0	1	321291,20	-0,100000001	1,98445439	-0,00027771816913286845	-0,099976615847295795	0,000198399037	-0,27327366602526771	0,010196207899754406	0,27327366602526771
1	0	0	1	0	0	1	321371,20	-0,100000001	1,92569935	-0,00027771910950086182	-0,099976954373255117	0,000192525549	-0,27549541519879216	0,010279104348592138	0,27549541519879216
1	0	0	1	0	0	1	321451,20	-0,100000001	1,86627603	-0,00027771840678403776	-0,099976701400069427	0,000186584119	-0,27771716452041635	0,01036200080295567	0,27771716452041635
1	0	0	1	0	0	1	321531,21	-0,100000001	1,80738735	-0,00027771764125343827	-0,099976425814359987	0,000180696123	-0,27993890963010771	0,010444897100166325	0,27993890963010771
1	0	0	1	0	0	1	321611,21	-0,100000001	1,75103736	-0,00027771837687037056	-0,099976690631356582	0,000175062916	-0,28216065280161622	0,010527793325060771	0,28216065280161622
1	0	0	1	0	0	1	321691,21	-0,100000001	1,69743788	-0,00027771740927298864	-0,099976342303006118	0,000169703635	-0,28438239778854813	0,010610689617691107	0,28438239778854813
1	0	0	1	0	0	1	321771,21	-0,100000001	1,64614904	-0,00027771810247210995	-0,099976591849884787	0,00016457637	-0,28660414028832182	0,010693585817522224	0,28660414028832182
1	0	0	1	0	0	1	321851,21	-0,100000001	1,59923279	-0,00027771836280450224	-0,099976685567741491	0,000159885996	-0,28882588340339507	0,010776482040310997	0,28882588340339507
1	0	0	1	0	0	1	321931,21	-0,100000001	1,55768228	-0,00027771836872233286	-0,099976687693464064	0,000155731919	-0,29104763060481088	0,010859378415566701	0,29104763060481088
1	0	0	1	0	0	1	322011,22	-0,100000001	1,52237582	-0,0002777184578714271	-0,099976719788847757	0,000152202134	-0,29326937789292333	0,010942274794057176	0,29326937789292333
1	1	0	0	1	0	2	322072,04	0,100000001	1,50767243	5,4901916947629715E-009	0,032941154995382195	4,96644716E-005	-0,29495841318277421	0,01100529497165361	5,4901916947629715E-009
1	1	0	0	0	0	2	322152,04	0,100000001	2,48052001	0,00027783174236367142	0,10001750141847952	0,000248095428	-0,29273575736095917	0,010922364694549155	0,0022226613120068278
1	1	0	0	0	0	2	322232,04	0,100000001	2,6954906	0,00027783184259467658	0,10001753750094659	0,000269596319	-0,29051310065662938	0,010839434384516891	0,0044453180163366093
1	1	0	0	0	0	2	322312,04	0,100000001	2,80486608	0,00027783183723812298	0,10001753557728179	0,00028053578	-0,28829044295168704	0,010756504037150422	0,0066679757212789517
1	1	0	0	0	0	2	322392,04	0,100000001	2,87887812	0,00027783196230770816	0,1000175806014655	0,000287938426	-0,28606778906006486	0,010673573832064061	0,0088906296129011418
1	1	0	0	0	0	2	322472,04	0,100000001	2,93329859	0,00027783245404354403	0,10001775762295787	0,000293381949	-0,28384513087366102	0,010590643466733619	0,01111328779930497
1	1	0	0	0	0	2	322552,04	0,100000001	2,97588015	0,00027783267609030006	0,10001783755825091	0,000297641091	-0,2816224695402777	0,010507712983985141	0,013335949132688341
1	1	0	0	0	0	2	322632,05	0,100000001	3,01124382	0,00027783220271848973	0,10001766714768042	0,000301177584	-0,27939980972167478	0,010424782557755157	0,01555860895129127
1	1	0	0	0	0	2	322712,05	0,100000001	3,04313231	0,0002778323769594232	0,10001772987320872	0,00030436719	-0,27717715246664237	0,010341852227175435	0,017781266206323683
1	1	0	0	0	0	2	322792,05	0,100000001	3,07418084	0,00027783204620372922	0,10001761080345155	0,000307472219	-0,27495449425685498	0,010258921860972522	0,020003924416111165
1	1	0	0	0	0	2	322872,05	0,100000001	3,10530543	0,00027783157536884154	0,10001744130615562	0,000310584699	-0,27273183660956029	0,010175991515756968	0,022226582063405882
1	1	0	0	0	0	2	322952,05	0,100000001	3,13799596	0,00027783185099893146	0,10001754053107744	0,000313854631	-0,27050918134070861	0,010093061259284318	0,024449237332257549
1	1	0	0	0	0	2	323032,05	0,100000001	3,17246222	0,00027783168891527587	0,10001748218208494	0,000317301688	-0,26828652529110269	0,01001013097368068	0,026671893381863421
1	1	0	0	0	0	2	323112,06	0,100000001	3,20860887	0,0002778320331627296	0,10001760610412475	0,000320917374	-0,26606386812481491	0,0099272006464121395	0,028894550548151136
1	1	0	0	0	0	2	323192,06	0,100000001	3,24584389	0,0002778313595060673	0,10001736359239587	0,000324640743	-0,2638412124766017	0,0098442703757850022	0,031117206196364435
1	1	0	0	0	0	2	323272,06	0,100000001	3,28302169	0,00027783129113622838	0,10001733897972778	0,000328359107	-0,26161855933319667	0,0097613401986156262	0,03333985933976951
1	1	0	0	0	0	2	323352,06	0,100000001	3,31888199	0,00027783187734459837	0,10001755001300624	0,000331946445	-0,2593959062513272	0,0096784100237422259	0,035562512421639008
1	1	0	0	0	0	2	323432,06	0,100000001	3,35289001	0,00027783176530235347	0,10001750967741038	0,000335347722	-0,25717325309398288	0,0095954798460527539	0,037785165578983309
1	1	0	0	0	0	2	323512,06	0,100000001	3,38390017	0,00027783134861373235	0,10001735967239512	0,000338448765	-0,25495059987469194	0,0095125496660519744	0,040007818798274221
1	1	0	0	0	0	2	323592,06	0,100000001	3,41229415	0,00027783159039666253	0,10001744671257405	0,000341288949	-0,25272794638260378	0,0094296194758727616	0,04223047229036233
1	1	0	0	0	0	2	323672,07	0,100000001	3,4376142	0,0002778317026036481	0,10001748710747539	0,000343821535	-0,25050529153840528	0,0093466892352444941	0,04445312713456071
1	1	0	0	0	0	2	323752,07	0,100000001	3,46054697	0,00027783210474211309	0,10001763187220662	0,000346115703	-0,2482826371789305	0,0092637590127019213	0,046675781494035494
1	1	0	0	0	0	2	323832,07	0,100000001	3,48111224	0,0002778324160120553	0,10001774392722821	0,000348172995	-0,24605997951050758	0,0091808286666980442	0,048898439162458394
1	1	0	0	0	0	2	323912,07	0,100000001	3,49950075	0,00027783259336608982	0,10001780777810864	0,000350012386	-0,24383731999793763	0,0090978982518865626	0,05112109867502832
1	1	0	0	0	0	2	323992,07	0,100000001	3,51597953	0,00027783197505482365	0,10001758519033874	0,000351659779	-0,24161466177912998	0,0090149678853470899	0,053343756893835955
1	1	0	0	0	0	2	324072,07	0,100000001	3,53117919	0,0002778311558349265	0,10001729027685429	0,00035317897	-0,23939200828996086	0,008932037695276791	0,055566410383005107
1	1	0	0	0	0	2	324152,08	0,100000001	3,54523301	0,00027783151006781392	0,10001741779823834	0,000354585063	-0,23716935652105546	0,0088491075693918426	0,057789062151910528
1	1	0	0	0	0	2	324232,08	0,100000001	3,55795026	0,00027783213339580432	0,10001764219199421	0,000355857803	-0,23494670104055638	0,0087661773050223462	0,0600117176324096
1	1	0	0	0	0	2	324312,08	0,100000001	3,56963634	0,00027783261709246371	0,10001781631943877	0,000357027224	-0,23272404284559018	0,0086832469393724314	0,062234375827375795
1	1	0	0	0	0	2	324392,08	0,100000001	3,58076859	0,00027783225184761818	0,10001768483382611	0,000358140183	-0,23050138550936054	0,0086003166057631309	0,064457033163605478
1	1	0	0	0	0	2	324472,08	0,100000001	3,59088898	0,00027783210368164714	0,10001763149510358	0,000359152211	-0,22827872732824538	0,0085173862406300173	0,066679691344720627
1	1	0	0	0	0	2	324552,08	0,100000001	3,60053182	0,0002778322491331233	0,10001768385662678	0,000360116857	-0,22605607053681869	0,0084344559273480499	0,068902348136147277
1	1	0	0	0	0	2	324632,08	0,100000001	3,60969734	0,00027783249251461686	0,10001777147227744	0,00036103389	-0,22383341053335936	0,0083515254942208243	0,071125008139606554
1	1	0	0	0	0	2	324712,09	0,100000001	3,61815643	0,00027783266627002096	0,10001783401836117	0,000361880171	-0,2216107512841016	0,0082685950892338726	0,073347667388864243
1	1	0	0	0	0	2	324792,09	0,100000001	3,6263864	0,00027783313297687306	0,10001800202959286	0,000362703926	-0,2193880889967144	0,0081856645708902285	0,075570329676251392
1	1	0	0	0	0	2	324872,09	0,100000001	3,63419628	0,00027783250480517741	0,1000177758921367	0,000363484229	-0,2171654280222793	0,008102734101534592	0,077792990650686502
1	1	0	0	0	0	2	324952,09	0,100000001	3,64147139	0,00027783281675063901	0,10001788819266923	0,00036421229	-0,21494276787128198	0,0080198036629025254	0,08001565080168384
1	1	0	0	0	0	2	325032,09	0,100000001	3,64857459	0,00027783251443091373	0,10001777935849936	0,000364922336	-0,21272010330985594	0,007936873059711433	0,082238315363109901
1	1	0	0	0	0	2	325112,09	0,100000001	3,65531516	0,00027783262877083488	0,10001782052007843	0,000365596643	-0,21049744391501715	0,0078539426492926592	0,084460974757948646
1	1	0	0	0	0	2	325192,10	0,100000001	3,66176915	0,00027783210623719629	0,10001763240926189	0,000366241467	-0,20827478587548704	0,007771012289442272	0,086683632797478758
1	1	0	0	0	0	2	325272,10	0,100000001	3,66799426	0,00027783203184314899	0,10001760563141354	0,000366863998	-0,20605212829983834	0,0076880819468999258	0,08890629037312745
1	1	0	0	0	0	2	325352,10	0,100000001	3,67400908	0,00027783209451246592	0,10001762818960458	0,000367465662	-0,20382947008129392	0,0076051515803702758	0,091128948591671821
1	1	0	0	0	0	2	325432,10	0,100000001	3,67998576	0,00027783331751616464	0,10001806846245867	0,000368065055	-0,20160680757160464	0,0075222210537322419	0,093351611101361165
1	1	0	0	0	0	2	325512,10	0,100000001	3,68569517	0,00027783282931935456	0,10001789271499106	0,000368635461	-0,19938414471444595	0,0074392905141296563	0,095574273958519898
1	1	0	0	0	0	2	325592,10	0,100000001	3,69148088	0,0002778321746347679	0,10001765703773525	0,00036921326	-0,19716148479882861	0,0073563600842799334	0,097796933874137254
1	1	0	0	0	0	2	325672,10	0,100000001	3,69675112	0,00027783320131442608	0,10001802663529563	0,000369741756	-0,19493882109734941	0,007273429513174615	0,10001959757561648
1	1	0	0	0	0	2	325752,11	0,100000001	3,7023077	0,00027783284267203674	0,10001789752652144	0,000370297028	-0,19271615804664656	0,0071904989663506355	0,10224226062631934
1	1	0	0	0	0	2	325832,11	0,100000001	3,70744419	0,00027783152916241021	0,10001742467216066	0,000370809023	-0,19049349956565466	0,0071075685900287181	0,10446491910731126
1	1	0	0	0	0	2	325912,11	0,100000001	3,71259975	0,00027783206453629664	0,10001761740304875	0,000371325383	-0,18827084397448214	0,007024638321529847	0,10668757469848374
1	1	0	0	0	0	2	325992,11	0,100000001	3,71758366	0,00027783166642031741	0,10001747408405581	0,00037182332	-0,18604818812786653	0,0069417080435000486	0,10891023054509936
1	1	0	0	0	0	2	326072,11	0,100000001	3,72249103	0,00027783227835554218	0,10001769437649501	0,000372314971	-0,18382552925956941	0,0068587776527272512	0,11113288941339645
1	1	0	0	0	0	2	326152,11	0,100000001	3,7273984	0,00027783211029693482	0,1000176338765613	0,000372805574	-0,18160287237759373	0,0067758473360667789	0,11335554629537206
1	1	0	0	0	0	2	326232,12	0,100000001	3,73226762	0,00027783174801369514	0,10001750345710622	0,000373292103	-0,17938021678611997	0,0066929170675566656	0,11557820188684592
1	1	0	0	0	0	2	326312,12	0,100000001	3,7368505	0,00027783171214411654	0,10001749054430658	0,000373750401	-0,17715756130434726	0,006609986803139648	0,11780085736861866
1	1	0	0	0	0	2	326392,12	0,100000001	3,74168134	0,00027783240102231501	0,10001773853102562	0,000374234514	-0,17493490466388963	0,0065270564954905382	0,12002351400907626
1	1	0	0	0	0	2	326472,12	0,100000001	3,74632144	0,0002778321967071129	0,10001766497896909	0,000374698313	-0,17271224622482838	0,0064441261207331085	0,12224617244813755
1	1	0	0	0	0	2	326552,12	0,100000001	3,75084686	0,00027783240531384947	0,10001774007827696	0,000375151227	-0,17048958712802858	0,006361195721434569	0,12446883154493734
1	1	0	0	0	0	2	326632,12	0,100000001	3,75550604	0,00027783202160025635	0,10001760194287886	0,000375616713	-0,16826692733507843	0,0062782652961617254	0,12669149133788749
1	1	0	0	0	0	2	326712,12	0,100000001	3,75999331	0,00027783168830225866	0,10001748195790998	0,000376065058	-0,16604427237105155	0,0061953350510624998	0,12891414630191438
1	1	0	0	0	0	2	326792,13	0,100000001	3,7644999	0,00027783215773395366	0,10001765095006626	0,000376516429	-0,16382161505485107	0,0061124047182005146	0,13113680361811486
1	1	0	0	0	0	2	326872,13	0,100000001	3,76896811	0,00027783206499616301	0,1000176175662688	0,000376963202	-0,16159895705802355	0,0060294743599434202	0,13335946161494238
1	1	0	0	0	0	2	326952,13	0,100000001	3,7733407	0,00027783219936821197	0,10001766593694632	0,00037740072	-0,15937630000154826	0,0059465440367721306	0,13558211867141768
1	1	0	0	0	0	2	327032,13	0,100000001	3,77765632	0,00027783247472014691	0,10001776506173424	0,000377832737	-0,15715364235027408	0,0058636136914080973	0,13780477632269186
1	1	0	0	0	0	2	327112,13	0,100000001	3,78216267	0,00027783180920489962	0,10001752548085835	0,000378282537	-0,15493098430684518	0,0057806833314122419	0,14002743436612075
1	1	0	0	0	0	2	327192,13	0,100000001	3,78655434	0,00027783195643168362	0,10001757848613739	0,000378722005	-0,15270832737220266	0,0056977530127866976	0,14225009130076326
1	1	0	0	0	0	2	327272,14	0,100000001	3,79092717	0,00027783110436755747	0,10001727174895819	0,000379158184	-0,15048567195685814	0,0056148227508482048	0,14447274671610781
1	1	0	0	0	0	2	327352,14	0,100000001	3,7953763	0,00027783140791662867	0,10001738102451973	0,000379603589	-0,1482630194389231	0,0055318925970159552	0,14669539923404285
1	1	0	0	0	0	2	327432,14	0,100000001	3,79971075	0,00027783170982491638	0,10001748970941059	0,000380037527	-0,14604036478579773	0,0054489623635168838	0,14891805388716819
1	1	0	0	0	0	2	327512,14	0,100000001	3,80402637	0,00027783199645661648	0,10001759289483579	0,000380469573	-0,14381771216660475	0,0053660322059065632	0,15114070650636118
1	1	0	0	0	0	2	327592,14	0,100000001	3,80845618	0,00027783191705329552	0,10001756431019064	0,000380912505	-0,14159505596468294	0,005283101914619815	0,15336336270828298
1	1	0	0	0	0	2	327672,14	0,100000001	3,81284809	0,00027783159596969686	0,10001744872232075	0,000381351332	-0,13937240065795502	0,0052001716567339539	0,15558601801501091
1	1	0	0	0	0	2	327752,14	0,100000001	3,81725907	0,00027783136061165066	0,10001736399505554	0,000381792197	-0,13714974754003838	0,005117241480515584	0,15780867113292755
1	1	0	0	0	0	2	327832,15	0,100000001	3,82165098	0,00027783147925800746	0,10001740670692157	0,000382231607	-0,13492709729400307	0,0050343114114509664	0,16003132137896288
1	1	0	0	0	0	2	327912,15	0,100000001	3,82587075	0,00027783212112387021	0,10001763777418299	0,000382654544	-0,13270444307212981	0,0049513811940424909	0,16225397560083613
1	1	0	0	0	0	2	327992,15	0,100000001	3,83026266	0,0002778314741990633	0,10001740488107941	0,000383092934	-0,13048179082883802	0,0048684510504575501	0,16447662784412794
1	1	0	0	0	0	2	328072,15	0,100000001	3,83486462	0,00027783204266594515	0,10001760952521648	0,000383553997	-0,12825913724466074	0,0047855208568423693	0,16669928142830522
1	1	0	0	0	0	2	328152,15	0,100000001	3,83937097	0,00027783214977135264	0,10001764808940675	0,000384004845	-0,12603647957699859	0,0047025905108668768	0,1689219390959673
1	1	0	0	0	0	2	328232,15	0,100000001	3,84387732	0,00027783209571490685	0,10001762862480365	0,000384455489	-0,12381382137682816	0,0046196601450227859	0,17114459729613773
1	1	0	0	0	0	2	328312,16	0,100000001	3,84840274	0,00027783174996409152	0,1000175041557424	0,000384907646	-0,12159116653996117	0,0045367299046680666	0,17336725213300477
1	1	0	0	0	0	2	328392,16	0,100000001	3,85296655	0,00027783199068324429	0,10001759081296883	0,00038536443	-0,11936851141624598	0,0044537996536106554	0,17558990725671997
1	1	0	0	0	0	2	328472,16	0,100000001	3,85749197	0,00027783087845229437	0,10001719041637211	0,000385815511	-0,11714586167515477	0,0043708696033861824	0,17781255699781123
1	1	0	0	0	0	2	328552,16	0,100000001	3,86209393	0,0002778319551236928	0,10001757801061243	0,000386277272	-0,11492320762702565	0,0042879393924603354	0,18003521104594032
1	1	0	0	0	0	2	328632,16	0,100000001	3,8668294	0,00027783182592855562	0,10001753150125859	0,000386750733	-0,11270055240908464	0,004205009137887232	0,18225786626388131
1	1	0	0	0	0	2	328712,16	0,100000001	3,87152672	0,00027783173245522714	0,10001749785150826	0,000387220411	-0,11047789807940389	0,0041220789164563142	0,18448052059356205
1	1	0	0	0	0	2	328792,16	0,100000001	3,87639594	0,00027783195551774563	0,10001757815712606	0,000387707725	-0,10825524083693688	0,0040391485863454246	0,18670317783602902
1	1	0	0	0	0	2	328872,17	0,100000001	3,88107419	0,00027783202617367107	0,10001760359276947	0,000388175744	-0,10603258594865507	0,0039562183440723507	0,18892583272431082
1	1	0	0	0	0	2	328952,17	0,100000001	3,88575244	0,00027783135804451178	0,10001736307090333	0,000388642715	-0,10380993220975862	0,0038732881446843891	0,19114848646320733
1	1	0	0	0	0	2	329032,17	0,100000001	3,89075541	0,00027783127382149302	0,10001733275120038	0,000389142981	-0,10158728038164344	0,0037903580165902451	0,19337113829132246
1	1	0	0	0	0	2	329112,17	0,100000001	3,89556718	0,0002778319126789768	0,10001756273546624	0,000389625144	-0,099364627093303872	0,0037074278340131667	0,19559379157966205
1	1	0	0	0	0	2	329192,17	0,100000001	3,90058923	0,0002778315985732608	0,10001744965958574	0,000390126981	-0,097141972842939533	0,0036244976155416506	0,19781644583002643
1	1	0	0	0	0	2	329272,17	0,100000001	3,90572572	0,00027783249394719798	0,10001777198799672	0,000390641973	-0,094919315870469978	0,003541567295504729	0,20003910280249597
1	1	0	0	0	0	2	329352,18	0,100000001	3,91080499	0,00027783225044939254	0,10001768433047459	0,000391149661	-0,0926966560389312	0,0034586368687920902	0,20226176263403475
1	1	0	0	0	0	2	329432,18	0,100000001	3,9159224	0,00027783257626410989	0,1000178016215144	0,000391661946	-0,090473996376992448	0,0033757064484074573	0,2044844222959735
1	1	0	0	0	0	2	329512,18	0,100000001	3,92113543	0,00027783197821511158	0,1000175863280205	0,000392182497	-0,088251338761365184	0,0032927761043734566	0,20670707991160077
1	1	0	0	0	0	2	329592,18	0,100000001	3,92653918	0,00027783246195606058	0,10001776046675165	0,000392723654	-0,086028683113544269	0,0032098458337609568	0,2089297355594217
1	1	0	0	0	0	2	329672,18	0,100000001	3,93190479	0,00027783211886924176	0,10001763695787504	0,000393259834	-0,083806028248012826	0,003126915592336729	0,21115239042495318
1	1	0	0	0	0	2	329752,18	0,100000001	3,93728971	0,00027783229610530867	0,10001770076163059	0,000393798662	-0,081583371188688538	0,0030439852690591405	0,21337504748427747
1	1	0	0	0	0	2	329832,18	0,100000001	3,94275069	0,00027783135322729747	0,10001736133441091	0,000394343515	-0,079360714870480102	0,0029610549734335808	0,21559770380248582
1	1	0	0	0	0	2	329912,19	0,100000001	3,94844103	0,00027783182881441382	0,10001753254131186	0,000394913339	-0,077138060395686502	0,0028781247465883075	0,21782035827727946
1	1	0	0	0	0	2	329992,19	0,100000001	3,95405483	0,00027783214813263885	0,10001764749365949	0,000395475276	-0,074915405056952947	0,002795194487508272	0,22004301361601302
1	1	0	0	0	0	2	330072,19	0,100000001	3,95984077	0,0002778315976804329	0,10001744933468086	0,000396053161	-0,072692751148372416	0,0027122642817891696	0,22226566752459357
1	1	0	0	0	0	2	330152,19	0,100000001	3,96576023	0,00027783121529594061	0,1000173116824072	0,000396644667	-0,070470098619643546	0,0026293341275541875	0,22448832005332246
1	1	0	0	0	0	2	330232,19	0,100000001	3,97167945	0,00027783115241759354	0,10001728904663811	0,00039723661	-0,068247445058225293	0,002546403934788176	0,2267109736147407
1	1	0	0	0	0	2	330312,19	0,100000001	3,97769451	0,00027783149800822138	0,10001741345221128	0,00039783871	-0,066024792648318682	0,0024634737849866122	0,22893362602464733
1	1	0	0	0	0	2	330392,20	0,100000001	3,98384309	0,00027783196602223648	0,10001758193866994	0,000398454344	-0,063802140607537843	0,0023805436489576278	0,23115627806542819
1	1	0	0	0	0	2	330472,20	0,100000001	3,99004889	0,00027783142520321741	0,10001738724757184	0,000399074255	-0,061579489886552038	0,0022976135621719696	0,23337892878641402
1	1	0	0	0	0	2	330552,20	0,100000001	3,99635005	0,00027783158225938678	0,10001744378670416	0,000399704702	-0,059356835344691187	0,002214683332824327	0,23560158332827485
1	1	0	0	0	0	2	330632,20	0,100000001	4,00272799	0,00027783159502098954	0,10001744838079272	0,000400342629	-0,057134182625784173	0,0021317531714935427	0,23782423604718182
1	1	0	0	0	0	2	330712,20	0,100000001	4,00929642	0,00027783135623691808	0,10001736242018216	0,000400999241	-0,054911533280865126	0,0020488231360507856	0,2400468853921009
1	1	0	0	0	0	2	330792,20	0,100000001	4,01596069	0,00027783153847439418	0,10001742802441034	0,000401666068	-0,052688883143174918	0,001965893071028671	0,2422695355297911
1	1	0	0	0	0	2	330872,20	0,100000001	4,0226059	0,00027783142678812141	0,1000173878181263	0,000402330537	-0,050466229336762522	0,001882962869121599	0,24449218933620346
1	1	0	0	0	0	2	330952,21	0,100000001	4,02946091	0,0002778319224446184	0,1000175662510295	0,000403016864	-0,04824357401418679	0,0018000326106444339	0,2467148446587792
1	1	0	0	0	0	2	331032,21	0,100000001	4,0362587	0,00027783249771305258	0,10001777334367827	0,000403697602	-0,046020918835464384	0,0017171023575346301	0,24893749983750157
1	1	0	0	0	0	2	331112,21	0,100000001	4,04332399	0,00027783226971328256	0,10001769126534147	0,000404403923	-0,043798259314256749	0,001634171942400864	0,25116015935870922
1	1	0	0	0	0	2	331192,21	0,100000001	4,05042696	0,00027783249429903101	0,10001777210999682	0,000405114668	-0,041575600355426816	0,0015512415482501661	0,25338281831753923
1	1	0	0	0	0	2	331272,21	0,100000001	4,05766392	0,00027783277979865674	0,10001787488788309	0,000405838917	-0,039352941594715674	0,0014683111614915462	0,25560547707825037
1	1	0	0	0	0	2	331352,21	0,100000001	4,06490088	0,00027783214643473427	0,10001764688126128	0,000406561827	-0,037130280765101658	0,0013853806975393787	0,25782813790786435
1	1	0	0	0	0	2	331432,22	0,100000001	4,07217598	0,00027783282188574474	0,10001789004127171	0,000407290441	-0,034907619918023878	0,001302450232935615	0,26005079875494214
1	1	0	0	0	0	2	331512,22	0,100000001	4,07962322	0,00027783186444474592	0,10001754537264178	0,000408033899	-0,032684962912542458	0,0012195199116669763	0,26227345576042355
1	1	0	0	0	0	2	331592,22	0,100000001	4,08714676	0,0002778318903313743	0,10001755468699122	0,000408786436	-0,030462309397831475	0,0011365897206436758	0,26449610927513456
1	1	0	0	0	0	2	331672,22	0,100000001	4,09449816	0,00027783243918750022	0,10001775227139208	0,000409522501	-0,028239652976328218	0,0010536594211640477	0,26671876569663789
1	1	0	0	0	0	2	331752,22	0,100000001	4,10200262	0,00027783197391488486	0,10001758477763998	0,000410272391	-0,026016997218279706	0,00097072914643880794	0,2689414214546864
1	1	0	0	0	0	2	331832,22	0,100000001	4,10969782	0,0002778319034833047	0,10001755942043067	0,000411041954	-0,023794341264398067	0,00088779886440677082	0,27116407740856806
1	1	0	0	0	0	2	331912,22	0,100000001	4,11731672	0,00027783194245522218	0,10001757345005083	0,000411804038	-0,021571687979907958	0,00080486868197332096	0,27338673069305818
1	1	0	0	0	0	2	331992,23	0,100000001	4,12497377	0,00027783202732519971	0,10001760400265443	0,000412569992	-0,019349031207632192	0,00072193836940589875	0,27560938746533392
1	1	0	0	0	0	2	332072,23	0,100000001	4,1326499	0,00027783219151281651	0,10001766311371574	0,000413337984	-0,017126373284539747	0,00063900801389995891	0,27783204538842637
1	1	0	0	0	0	2	332152,23	0,100000001	4,14028788	0,00027783188111459213	0,10001755137250653	0,000414101465	-0,014903718816514144	0,00055607778730720845	0,28005469985645197
1	1	0	0	0	0	2	332232,23	0,100000001	4,14786816	0,00027783110398178301	0,10001727161008205	0,000414858456	-0,01268106549192791	0,00047314760337771814	0,28227735318103824
1	1	0	0	0	0	2	332312,23	0,100000001	4,15541077	0,00027783186107170253	0,10001754415720522	0,000415613991	-0,010458412629453174	0,00039021743669022912	0,28450000604351293
1	1	0	0	0	0	2	332392,23	0,100000001	4,16276217	0,00027783208997754586	0,10001762656172213	0,000416349591	-0,0082357578054098624	0,0003072871968139792	0,28672266086755632
1	1	0	0	0	0	2	332472,24	0,100000001	4,17022848	0,00027783261171521411	0,10001781438366619	0,000417097152	-0,0060131007765841139	0,00022435687467433222	0,28894531789638202
1	1	0	0	0	0	2	332552,24	0,100000001	4,17754173	0,00027783223419636486	0,1000176784794973	0,000417828036	-0,0037904429818453056	0,00014142652395743917	0,29116797569112077
1	1	0	0	0	0	2	332632,24	0,100000001	4,18468332	0,00027783244784548883	0,10001775539170096	0,000418542622	-0,0015677823850586182	5,849606869237239E-005	0,29339063628790758
1	1	0	0	0	0	2	332712,24	0,100000001	4,19161463	0,00027783188659614989	0,10001755334582934	0,000419235032	0,00065487578364552717	-2,4434295977670176E-005	0,29561329445661171
1	1	0	0	0	0	2	332792,24	0,100000001	4,19782162	0,00027783232331524294	0,10001771056167566	0,000419856515	0,0028775343640145328	-0,00010736467600748214	0,29783595303698074
1	1	0	0	0	0	2	332818,52	0,100000001	4,19988394	0,00017451952634751795	0,10001763291032477	0,000420062453	0,0036077183790787226	-0,00013460882335237666	0,29856613705204493