File: Experimentelles/Rohdaten/Batterietests/AlteZelle/Studenten_Batterietests/Sonstige/ZView-Export/LiCoO2 vs Li_05_GCPL_C01_loop1.txt
EC-Lab ASCII FILE
Nb header lines : 3
mode	ox/red	error	control changes	Ns changes	counter inc.	Ns	time/s	control/V/mA	Ewe/V	dq/mA.h	<I>/mA	P/W	(Q-Qo)/mA.h	x	Capacity/mA.h
1	0	0	1	1	0	1	86641,19	-0,100000001	3,78430223	0	0	0	0	0	0
1	0	0	1	0	0	1	86731,19	-0,100000001	3,64135766	-0,00027772512548251283	-0,099979069056645043	0,000364059553	-0,0024981432693711734	9,3209084169586534E-005	0,0024981432693711734
1	0	0	1	0	0	1	86821,19	-0,100000001	3,58747196	-0,0002777258194564945	-0,099979318883504448	0,000358673016	-0,0049976745935325958	0,0001864699585296568	0,0049976745935325958
1	0	0	1	0	0	1	86911,19	-0,100000001	3,54089952	-0,0002777255877769656	-0,099979235852966848	0,000354016433	-0,0074972051731719885	0,00027973080511060906	0,0074972051731719885
1	0	0	1	0	0	1	87001,19	-0,100000001	3,49680924	-0,00027772539245213072	-0,099979165377963226	0,000349608075	-0,0099967351082012198	0,0003729916276402896	0,0099967351082012198
1	0	0	1	0	0	1	87091,20	-0,100000001	3,4535594	-0,00027772590318280787	-0,099979349023363123	0,000345284614	-0,012496264388884037	0,0004662524257554256	0,012496264388884037
1	0	0	1	0	0	1	87181,20	-0,100000001	3,41009927	-0,0002777256329945392	-0,099979252098382784	0,000340939179	-0,014995794999832429	0,00055951327350455859	0,014995794999832429
1	0	0	1	0	0	1	87271,20	-0,100000001	3,36606646	-0,0002777251733210352	-0,099979086651780352	0,000336536235	-0,017495322484215034	0,00065277400459731866	0,017495322484215034
1	0	0	1	0	0	1	87361,20	-0,100000001	3,32113624	-0,00027772560064949926	-0,099979240114543053	0,00033204467	-0,019994849776802307	0,00074603472853393702	0,019994849776802307
1	0	0	1	0	0	1	87451,20	-0,100000001	3,27509832	-0,00027772615129997338	-0,099979438464676416	0,000327442482	-0,022494382924889462	0,00083929567094712858	0,022494382924889462
1	0	0	1	0	0	1	87541,20	-0,100000001	3,22827768	-0,00027772592276127802	-0,099979356443772339	0,000322761131	-0,024993916928472963	0,00093255664528003917	0,024993916928472963
1	0	0	1	0	0	1	87631,21	-0,100000001	3,18021584	-0,00027772579428181056	-0,099979309876664051	0,000317955797	-0,027493448226490717	0,0010258175186646538	0,027493448226490717
1	0	0	1	0	0	1	87721,21	-0,100000001	3,13123727	-0,00027772512163842717	-0,09997906767396544	0,000313058175	-0,029992976925227725	0,0011190782950666093	0,029992976925227725
1	0	0	1	0	0	1	87811,21	-0,100000001	3,08157134	-0,00027772487057083181	-0,099978977662697024	0,000308092363	-0,032492505180552947	0,0012123390549242747	0,032492505180552947
1	0	0	1	0	0	1	87901,21	-0,100000001	3,03119898	-0,00027772537462289136	-0,099979159020086054	0,000303056731	-0,034992031454897523	0,0013055997408688891	0,034992031454897523
1	0	0	1	0	0	1	87991,21	-0,100000001	2,98046398	-0,00027772518214045299	-0,099979089454264243	0,000297984079	-0,037491557903321606	0,0013988604333086435	0,037491557903321606
1	0	0	1	0	0	1	88081,22	-0,100000001	2,92963338	-0,00027772533617251446	-0,099979145179387802	0,00029290223	-0,039991088275066611	0,0014921212721327766	0,039991088275066611
1	0	0	1	0	0	1	88171,22	-0,100000001	2,87933731	-0,00027772538958986598	-0,099979164505857024	0,000287873729	-0,042490616009681933	0,0015853820125620557	0,042490616009681933
1	0	0	1	0	0	1	88261,22	-0,100000001	2,82946134	-0,0002777266805275447	-0,099979628861937267	0,000282888504	-0,044990152247575341	0,001678643070260073	0,044990152247575341
1	0	0	1	0	0	1	88351,22	-0,100000001	2,78012013	-0,00027772745845342678	-0,099979908970096717	0,000277956162	-0,047489693122924947	0,0017719043009878163	0,047489693122924947
1	0	0	1	0	0	1	88441,22	-0,100000001	2,73114181	-0,00027772690886838573	-0,099979711436479808	0,000273058773	-0,049989235755196384	0,0018651655972686752	0,049989235755196384
1	0	0	1	0	0	1	88531,22	-0,100000001	2,68258333	-0,00027772667860239741	-0,099979628290961242	0,000268203672	-0,052488777311956224	0,0019584268534207501	0,052488777311956224
1	0	0	1	0	0	1	88621,23	-0,100000001	2,63440704	-0,00027772617964612112	-0,099979448548043264	0,000263386552	-0,054988314075732326	0,0020516879307401578	0,054988314075732326
1	0	0	1	0	0	1	88711,23	-0,100000001	2,5870707	-0,00027772548707160682	-0,099979199598590221	0,00025865325	-0,057487846778719302	0,002144948856546063	0,057487846778719302
1	0	0	1	0	0	1	88801,23	-0,100000001	2,53986812	-0,00027772626065545616	-0,099979478047192051	0,000253934675	-0,059987375526791578	0,0022382096347887837	0,059987375526791578
1	0	0	1	0	0	1	88891,23	-0,100000001	2,49300909	-0,0002777252565477457	-0,099979116240360179	0,000249248842	-0,062486905002369165	0,0023314704401757053	0,062486905002369165
1	0	0	1	0	0	1	88981,23	-0,100000001	2,4459784	-0,0002777255776412785	-0,09997923204473888	0,000244547031	-0,064986433405668698	0,0024247312055544915	0,064986433405668698
1	0	0	1	0	0	1	89071,23	-0,100000001	2,3985467	-0,00027772490051016211	-0,099978988440642944	0,000239804271	-0,067485959946206374	0,0025179919014311283	0,067485959946206374
1	0	0	1	0	0	1	89161,24	-0,100000001	2,34947276	-0,00027772449910764896	-0,099978843566150925	0,000234897569	-0,069985482192409869	0,0026112524370803827	0,069985482192409869
1	0	0	1	0	0	1	89251,24	-0,100000001	2,29826021	-0,00027772434772261315	-0,099978789069779098	0,000229777273	-0,072485001376168102	0,002704512858465687	0,072485001376168102
1	0	0	1	0	0	1	89341,24	-0,100000001	2,24361062	-0,00027772421719547773	-0,099978742453381555	0,000224313364	-0,074984521822159411	0,0027977733269466042	0,074984521822159411
1	0	0	1	0	0	1	89431,24	-0,100000001	2,18535209	-0,00027772426744384899	-0,099978760350397069	0,000218488785	-0,077484040761167731	0,002891033739199961	0,077484040761167731
1	0	0	1	0	0	1	89521,24	-0,100000001	2,12314081	-0,00027772405273011987	-0,099978682873416614	0,000212268817	-0,079983555278987853	0,002984293986492841	0,079983555278987853
1	0	0	1	0	0	1	89611,25	-0,100000001	2,05831361	-0,00027772404628826512	-0,099978680918689805	0,000205787481	-0,082483071427034765	0,0030775542946116736	0,082483071427034765
1	0	0	1	0	0	1	89701,25	-0,100000001	1,99171054	-0,00027772333992562362	-0,099978426642475008	0,000199128088	-0,08498258581849719	0,0031708145371899782	0,08498258581849719
1	0	0	1	0	0	1	89791,25	-0,100000001	1,92564213	-0,00027772274013194774	-0,099978210347414259	0,00019252226	-0,087482097089614669	0,0032640746633440173	0,087482097089614669
1	0	0	1	0	0	1	89881,25	-0,100000001	1,86190331	-0,00027772285252685347	-0,099978250962703322	0,000186149831	-0,089981607555577267	0,0033573347594566458	0,089981607555577267
1	0	0	1	0	0	1	89971,25	-0,100000001	1,8017925	-0,00027772408564305968	-0,099978695095446938	0,000180140865	-0,092481119715851571	0,0034505949187863213	0,092481119715851571
1	0	0	1	0	0	1	90061,25	-0,100000001	1,74677908	-0,0002777239594236016	-0,099978649312830989	0,00017464062	-0,094980634339057677	0,0035438551700112941	0,094980634339057677
1	0	0	1	0	0	1	90151,26	-0,100000001	1,69755244	-0,00027772434269140166	-0,099978787257414848	0,000169719235	-0,097480152624795738	0,0036371155578902586	0,097480152624795738
1	0	0	1	0	0	1	90241,26	-0,100000001	1,64989161	-0,00027772419273315206	-0,099978733645954458	0,000164954079	-0,09997967205941792	0,0037303759886356339	0,09997967205941792
1	0	0	1	0	0	1	90331,26	-0,100000001	1,60589695	-0,00027772451257208982	-0,099978848655341709	0,000160555734	-0,10247918882389232	0,0038236363197542061	0,10247918882389232
1	0	0	1	0	0	1	90421,26	-0,100000001	1,56705785	-0,00027772321379474467	-0,099978380863814746	0,0001566719	-0,10497870354885846	0,0039168965747759814	0,10497870354885846
1	0	0	1	0	0	1	90511,26	-0,100000001	1,53385186	-0,0002777231311057177	-0,099978351398961728	0,000153351983	-0,10747821570000744	0,0040101567337651795	0,10747821570000744
1	0	0	1	0	0	1	90601,26	-0,100000001	1,50635517	-0,00027772365503840976	-0,09997854007967241	0,000150603184	-0,10997772595707894	0,0041034168220837997	0,10997772595707894
1	1	0	0	0	0	2	90674,42	0,100000001	2,11987448	0,00027782985078833171	0,10001676955780659	0,000212022991	-0,10923152430640605	0,0040755750352184045	0,001389152225888024
1	1	0	0	0	0	2	90764,42	0,100000001	2,38004279	0,00027782958427112963	0,10001667385103224	0,000238043969	-0,10673106021004363	0,0039822793578733901	0,003889616322250416
1	1	0	0	0	0	2	90854,42	0,100000001	2,5213449	0,00027782975875669056	0,10001673633741755	0,000252176687	-0,10423059599173013	0,003888983675978215	0,0063900805405639117
1	1	0	0	0	0	2	90944,42	0,100000001	2,62991858	0,00027782974322636922	0,10001673070062154	0,00026303585	-0,10173013107970589	0,0037956879681997613	0,0088905454525881331
1	1	0	0	0	0	2	91034,42	0,100000001	2,72176504	0,00027782927287494138	0,10001656175061976	0,000272221572	-0,099229667072046797	0,0037023922941643866	0,011391009460247224
1	1	0	0	0	0	2	91124,43	0,100000001	2,8053627	0,00027782938839246832	0,10001660322433261	0,000280582841	-0,096729201669365427	0,003609096568078855	0,013891474862928605
1	1	0	0	0	0	2	91214,43	0,100000001	2,88212419	0,00027782978096314598	0,10001674428501051	0,000288260664	-0,094228734513812429	0,0035158007765913267	0,016391942018481587
1	1	0	0	0	0	2	91304,43	0,100000001	2,95218349	0,0002778297306680017	0,10001672646801454	0,000295267731	-0,091728265468811238	0,0034225049146059462	0,018892411063482774
1	1	0	0	0	0	2	91394,43	0,100000001	3,01559758	0,00027782910667815146	0,10001650192095771	0,000301609514	-0,089227800494745229	0,0033292092045126298	0,021392876037548813
1	1	0	0	0	0	2	91484,43	0,100000001	3,0732069	0,00027782996325691542	0,10001680991063472	0,000307372364	-0,086727335486615552	0,0032359134931483526	0,023893341045678486
1	1	0	0	0	0	2	91574,44	0,100000001	3,12680626	0,00027782960241950221	0,10001668008625021	0,000312732795	-0,08422687048266071	0,0031426177819398438	0,02639380604963336
1	1	0	0	0	0	2	91664,44	0,100000001	3,17769432	0,00027782929012924432	0,10001656796088176	0,000317822094	-0,081726408445654515	0,0030493221814321786	0,028894268086639546
1	1	0	0	0	0	2	91754,44	0,100000001	3,22596622	0,00027782958346067203	0,10001667329264302	0,00032265042	-0,079225942925391795	0,002956026450959529	0,031394733606902266
1	1	0	0	0	0	2	91844,44	0,100000001	3,27139282	0,00027782874555885795	0,1000163715479984	0,000327192829	-0,07672548268827081	0,0028627309176080003	0,03389519384402327
1	1	0	0	0	0	2	91934,44	0,100000001	3,31334448	0,00027782940898173386	0,10001661074809678	0,000331389485	-0,074225018174178803	0,0027694352246769328	0,036395658358115277
1	1	0	0	0	0	2	92024,44	0,100000001	3,35155344	0,00027782930490084822	0,10001657323198115	0,000335210876	-0,071724552299618214	0,0026761394809849533	0,038896124232675872
1	1	0	0	0	0	2	92114,45	0,100000001	3,38605785	0,00027782900423473779	0,10001646466831026	0,000338661543	-0,069224087903856742	0,0025828437924689571	0,04139658862843735
1	1	0	0	0	0	2	92204,45	0,100000001	3,4172399	0,00027782865349037786	0,10001633863220746	0,000341779814	-0,066723624123857165	0,0024895481269278653	0,043897052408436915
1	1	0	0	0	0	2	92294,45	0,100000001	3,44517565	0,00027783001714406742	0,10001682968221038	0,000344575557	-0,064223158384243136	0,0023962523882709235	0,046397518148050938
1	1	0	0	0	0	2	92384,45	0,100000001	3,47053361	0,0002778294373556144	0,10001662058874402	0,000347111054	-0,061722691077547264	0,0023029565911440509	0,048897985454746822
1	1	0	0	0	0	2	92474,45	0,100000001	3,49342847	0,00027782911401904291	0,10001650419933906	0,000349400507	-0,059222225636385293	0,0022096608636227562	0,0513984508959088
1	1	0	0	0	0	2	92564,46	0,100000001	3,51418471	0,00027782944878894422	0,10001662507957365	0,000351476891	-0,056721761583057869	0,0021163651878834349	0,053898914949236224
1	1	0	0	0	0	2	92654,46	0,100000001	3,53326058	0,0002778296857381033	0,10001671017349976	0,000353385112	-0,054221292621312358	0,0020230693290044349	0,056399383910981734
1	1	0	0	0	0	2	92744,46	0,100000001	3,55082774	0,00027782963834123478	0,1000166929433016	0,000355142052	-0,051720827206966688	0,0019297736024836931	0,058899849325327398
1	1	0	0	0	0	2	92834,46	0,100000001	3,56698203	0,00027782907264762458	0,10001648966904581	0,000356757024	-0,049220361147967808	0,001836477851910073	0,061400315384326285
1	1	0	0	0	0	2	92924,46	0,100000001	3,58202887	0,00027783014958517424	0,1000168773589023	0,000358263351	-0,046719894108656288	0,0017431820647596701	0,063900782423637798
1	1	0	0	0	0	2	93014,46	0,100000001	3,59606361	0,00027783001435341104	0,10001682830500958	0,000359666883	-0,044219425326139053	0,0016498862125679184	0,066401251206155021
1	1	0	0	0	0	2	93104,47	0,100000001	3,60918188	0,00027782992721266218	0,10001679709796565	0,000360978825	-0,041718956854419488	0,0015565903719724451	0,068901719677874586
1	1	0	0	0	0	2	93194,47	0,100000001	3,62128806	0,00027782981292199757	0,10001675616255374	0,000362189487	-0,039218490858639603	0,0014632946237576109	0,07140218567365449
1	1	0	0	0	0	2	93284,47	0,100000001	3,63280225	0,0002778289561031593	0,10001644735554742	0,000363339961	-0,03671802461760151	0,001369998866391863	0,073902651914692582
1	1	0	0	0	0	2	93374,47	0,100000001	3,64351439	0,00027782976483512259	0,10001673848020115	0,000364412437	-0,034217560402038118	0,0012767031845992995	0,076403116130255974
1	1	0	0	0	0	2	93464,47	0,100000001	3,65359664	0,00027782943330580986	0,10001661950226245	0,00036542039	-0,031717095819075411	0,0011834074890985736	0,078903580713218675
1	1	0	0	0	0	2	93554,47	0,100000001	3,66308665	0,00027782902188557718	0,10001647125651555	0,000366369	-0,029216634686746035	0,0010901119223456165	0,081404041845548058
1	1	0	0	0	0	2	93644,48	0,100000001	3,6722331	0,00027782913089460797	0,10001651026510782	0,000367283938	-0,026716171991571293	0,00099681629728079757	0,083904504540722803
1	1	0	0	0	0	2	93734,48	0,100000001	3,6808641	0,00027782939245510432	0,10001660474623317	0,000368147535	-0,024215705943189488	0,00090352054710331482	0,086404970589104614
1	1	0	0	0	0	2	93824,48	0,100000001	3,68903685	0,00027782939287357862	0,10001660494927549	0,000368964946	-0,021715240191439715	0,00081022480799357197	0,088905436340854387
1	1	0	0	0	0	2	93914,48	0,100000001	3,69684649	0,00027782917476197078	0,1000165260580651	0,000369745743	-0,019214779499451661	0,00071692925767034176	0,091405897032842445
1	1	0	0	0	0	2	94004,48	0,100000001	3,70433187	0,00027782943843512074	0,1000166210798191	0,000370494759	-0,016714316079988589	0,00062363360558135142	0,093906360452305523
1	1	0	0	0	0	2	94094,49	0,100000001	3,71112943	0,00027782916564577152	0,10001652314771712	0,000371174276	-0,014213849245544035	0,00053033782607481075	0,096406827286750067
1	1	0	0	0	0	2	94184,49	0,100000001	3,71787	0,00027782903429203562	0,10001647556440453	0,000371848262	-0,011713388123531235	0,00043704225970677901	0,098907288408762867
1	1	0	0	0	0	2	94274,49	0,100000001	3,72428584	0,00027782857734254662	0,10001631099132325	0,000372489332	-0,0092129271886824026	0,00034374670032208659	0,1014077493436117
1	1	0	0	0	0	2	94364,49	0,100000001	3,73041534	0,00027782869728406266	0,10001635454083389	0,00037310255	-0,006712470013205719	0,00025045128120462362	0,10390820651908837
1	1	0	0	0	0	2	94454,49	0,100000001	3,73618197	0,00027782874417387779	0,10001637134180547	0,000373679359	-0,004212007073733472	0,00015715564702473638	0,10640866945856062
1	1	0	0	0	0	2	94544,49	0,100000001	3,74162412	0,00027782960652766957	0,10001668149064448	0,000374224823	-0,0017115443874149818	6,3860022290356211E-005	0,10890913214487914
1	1	0	0	0	0	2	94634,50	0,100000001	3,74679875	0,00027782900850185085	0,10001646646175574	0,000374741561	0,00078891873724268864	-2,9435618799048141E-005	0,11140959526953678
1	1	0	0	0	0	2	94724,50	0,100000001	3,7518208	0,00027782879638382134	0,1000163902172063	0,000375243573	0,0032893787872812678	-0,00012273114517028034	0,11391005531957536
1	1	0	0	0	0	2	94814,50	0,100000001	3,7565372	0,00027782865089095299	0,10001633746706192	0,000375715084	0,005789837457024457	-0,00021602662004083571	0,11641051398931856
1	1	0	0	0	0	2	94904,50	0,100000001	3,76092911	0,00027782918841722941	0,10001653101461232	0,000376155076	0,0082902949339400435	-0,00030932205040538944	0,11891097146623414
1	1	0	0	0	0	2	94994,50	0,100000001	3,76518726	0,00027782855423374307	0,10001630304490078	0,000376580108	0,010790753291844566	-0,0004026175136408249	0,12141142982413866
1	1	0	0	0	0	2	95084,50	0,100000001	3,7693882	0,00027782921957390176	0,10001654232976013	0,000377001183	0,013291210883008594	-0,00049591294826814157	0,12391188741530269
1	1	0	0	0	0	2	95174,51	0,100000001	3,77330256	0,00027782888014697366	0,1000164199975981	0,000377392222	0,015791669880681635	-0,0005892084353742007	0,12641234641297574
1	1	0	0	0	0	2	95264,51	0,100000001	3,77687335	0,00027782865373417741	0,10001633886318498	0,000377749035	0,018292129728932829	-0,00068250395421647411	0,12891280626122694
1	1	0	0	0	0	2	95354,51	0,100000001	3,78055859	0,00027782912584518394	0,1000165088023239	0,000378118275	0,020792590064306291	-0,00077579949123393446	0,13141326659660042
1	1	0	0	0	0	2	95444,51	0,100000001	3,78382397	0,0002778289012052119	0,10001642757957834	0,000378444558	0,023293051038542618	-0,0008690950520882272	0,13391372757083672
1	1	0	0	0	0	2	95534,51	0,100000001	3,78712726	0,00027782874748855827	0,1000163724324611	0,000378774741	0,02579351121793487	-0,00096239058328581888	0,13641418775022893
1	1	0	0	0	0	2	95624,52	0,100000001	3,79012513	0,00027782862643649181	0,1000163290363579	0,000379074394	0,028293968287058237	-0,0010556859984350966	0,13891464481935226
1	1	0	0	0	0	2	95714,52	0,100000001	3,79325676	0,00027782878861700496	0,10001638704746064	0,000379387842	0,030794426623771654	-0,0011489814608798632	0,14141510315606565
1	1	0	0	0	0	2	95804,52	0,100000001	3,79608274	0,00027782832558370301	0,1000162203599309	0,000379669858	0,033294882214305779	-0,0012422768208609886	0,14391555874659976
1	1	0	0	0	0	2	95894,52	0,100000001	3,79885149	0,00027782888401423891	0,10001642176353325	0,000379947538	0,035795340381683213	-0,0013355722769876022	0,14641601691397712
1	1	0	0	0	0	2	95984,52	0,100000001	3,80165839	0,00027782876803684563	0,1000163798390129	0,000380228099	0,038295800695639149	-0,0014288678132059456	0,14891647722793312
1	1	0	0	0	0	2	96074,52	0,100000001	3,80425549	0,00027782867838111184	0,10001634736332349	0,000380487734	0,040796262301076646	-0,0015221633976112029	0,15141693883337062
1	1	0	0	0	0	2	96164,53	0,100000001	3,80664229	0,00027782916910573843	0,10001652436650117	0,000380727142	0,043296724605040858	-0,001615459008079431	0,15391740113733482
1	1	0	0	0	0	2	96254,53	0,100000001	3,809201	0,00027782935707395277	0,10001659206166486	0,000380983314	0,045797190435996109	-0,0017087547501444368	0,15641786696829008
1	1	0	0	0	0	2	96344,53	0,100000001	3,81139684	0,00027782929652929309	0,10001656989227038	0,000381202844	0,048297654862254067	-0,0018020504397982979	0,15891833139454803
1	1	0	0	0	0	2	96434,53	0,100000001	3,81380296	0,00027782874362336269	0,10001637098047349	0,000381442718	0,050798117787226662	-0,0018953460734371834	0,16141879431952061
1	1	0	0	0	0	2	96524,53	0,100000001	3,81599879	0,00027782903709138432	0,10001647687021661	0,000381662743	0,05329857811451831	-0,0019886416101531005	0,16391925464681229
1	1	0	0	0	0	2	96614,54	0,100000001	3,81813741	0,00027782949362736608	0,1000166408985688	0,000381877268	0,055799040672970778	-0,0020819372301166275	0,1664197172052647
1	1	0	0	0	0	2	96704,54	0,100000001	3,8202951	0,00027782988967373968	0,10001678342121502	0,000382093625	0,058299505661355994	-0,0021752329407442122	0,16892018219364989
1	1	0	0	0	0	2	96794,54	0,100000001	3,82245278	0,00027782926123547882	0,10001655755933173	0,000382308557	0,060799973986069811	-0,0022685287758547027	0,17142065051836371
1	1	0	0	0	0	2	96884,54	0,100000001	3,8243432	0,00027782918034411139	0,10001652832723992	0,000382497528	0,063300438097501837	-0,0023618244537619853	0,17392111462979571
1	1	0	0	0	0	2	96974,54	0,100000001	3,82644367	0,0002778295700343119	0,10001666835329539	0,000382708153	0,065800902498958042	-0,0024551201424904595	0,17642157903125194
1	1	0	0	0	0	2	97064,54	0,100000001	3,82852507	0,00027782898435410525	0,10001645779668285	0,000382915518	0,068301365800876621	-0,0025484157901937066	0,1789220423331705
1	1	0	0	0	0	2	97154,55	0,100000001	3,83045363	0,00027782944289967414	0,10001662295714968	0,000383109029	0,070801830479515546	-0,0026417114892642413	0,18142250701180941
1	1	0	0	0	0	2	97244,55	0,100000001	3,83228683	0,00027782937657957277	0,10001659870980149	0,000383292296	0,073302294090869978	-0,0027350071485129562	0,18392297062316381
1	1	0	0	0	0	2	97334,55	0,100000001	3,83417702	0,00027782833001265926	0,10001622202418278	0,000383479899	0,07580275455129897	-0,0028283026901964061	0,1864234310835928
1	1	0	0	0	0	2	97424,55	0,100000001	3,83618212	0,0002778294927999377	0,10001664092205387	0,000383682054	0,078303216558903104	-0,0029215982896070413	0,18892389309119696
1	1	0	0	0	0	2	97514,55	0,100000001	3,83795786	0,00027782932965374656	0,10001658192861296	0,000383859413	0,080803679104021504	-0,003014893909073056	0,19142435563631539
1	1	0	0	0	0	2	97604,55	0,100000001	3,83979106	0,00027782958276321491	0,10001667293459112	0,000384043116	0,083304146630986355	-0,0031081897144184608	0,19392482316328016
1	1	0	0	0	0	2	97694,56	0,100000001	3,84162402	0,00027782939409133459	0,10001660538649467	0,000384226179	0,085804613614662733	-0,0032014854994930413	0,19642529014695651
1	1	0	0	0	0	2	97784,56	0,100000001	3,84338093	0,00027782932776668	0,10001658146002494	0,000384401821	0,088305076640558413	-0,0032947811368975027	0,19892575317285216
1	1	0	0	0	0	2	97874,56	0,100000001	3,84527135	0,00027782915238953296	0,10001651800414666	0,000384590647	0,090805540086583232	-0,0033880767899775475	0,20142621661887693
1	1	0	0	0	0	2	97964,56	0,100000001	3,84695172	0,00027782899106583664	0,10001646015114933	0,000384758489	0,093306001798519347	-0,0034813723783564115	0,20392667833081306
1	1	0	0	0	0	2	98054,56	0,100000001	3,84874654	0,00027782933779391978	0,100016585120408	0,000384938496	0,095806463288612762	-0,0035746679584580256	0,20642713982090656
1	1	0	0	0	0	2	98144,57	0,100000001	3,85048413	0,00027782975158964592	0,10001673371192381	0,000385112857	0,09830692975855008	-0,0036679637243643117	0,20892760629084387
1	1	0	0	0	0	2	98234,57	0,100000001	3,85216451	0,00027782904619309638	0,1000164797834997	0,000385279942	0,10080739617619592	-0,0037612594883195315	0,21142807270848966
1	1	0	0	0	0	2	98324,57	0,100000001	3,85397863	0,00027782895338452522	0,1000164467351785	0,000385461259	0,10330785881442922	-0,0038545551112597888	0,21392853534672288
1	1	0	0	0	0	2	98414,57	0,100000001	3,85562062	0,0002778291129490568	0,10001650397701125	0,000385625695	0,10580831849468554	-0,0039478506238339475	0,2164289950269792
1	1	0	0	0	0	2	98504,57	0,100000001	3,85728192	0,00027782880402521958	0,10001639259430826	0,000385791413	0,10830878169049128	-0,0040411462675779821	0,21892945822278499
1	1	0	0	0	0	2	98594,57	0,100000001	3,85903859	0,00027782926074953539	0,10001655738555987	0,000385967753	0,11080924325399237	-0,0041344418504185357	0,22142991978628608
1	1	0	0	0	0	2	98684,58	0,100000001	3,86056638	0,00027782952299300166	0,10001665179134211	0,000386120926	0,11330970768386301	-0,004227737540207191	0,2239303842161567
1	1	0	0	0	0	2	98774,58	0,100000001	3,86224675	0,00027782954072993664	0,10001665780276448	0,000386289001	0,11581017119859251	-0,0043210331958507002	0,22643084773088621
1	1	0	0	0	0	2	98864,58	0,100000001	3,86385059	0,00027783019486400813	0,10001689344938158	0,000386450323	0,11831063805435818	-0,0044143289761527597	0,22893131458665181
1	1	0	0	0	0	2	98954,58	0,100000001	3,86551189	0,00027782977005177072	0,10001674073074141	0,000386615895	0,12081110818375408	-0,0045076248785983661	0,23143178471604778
1	1	0	0	0	0	2	99044,58	0,100000001	3,86726856	0,00027782863477120797	0,10001633168386182	0,000386790023	0,12331157170500864	-0,0046009205344853331	0,23393224823730237
1	1	0	0	0	0	2	99134,58	0,100000001	3,86871982	0,00027782899026034608	0,10001645963762867	0,000386935659	0,12581203210048264	-0,0046942160737452256	0,23643270863277638
1	1	0	0	0	0	2	99224,59	0,100000001	3,87030458	0,00027782928439602256	0,10001656589696272	0,000387094566	0,12831249462164531	-0,0047875116923174202	0,23893317115393904
1	1	0	0	0	0	2	99314,59	0,100000001	3,87196589	0,00027782933045758144	0,10001658234024173	0,000387260807	0,13081295647398971	-0,0048808072859351053	0,24143363300628346
1	1	0	0	0	0	2	99404,59	0,100000001	3,87358904	0,00027782910769639744	0,10001650191493587	0,000387422828	0,13331341934483421	-0,0049741029175543987	0,24393409587712794
1	1	0	0	0	0	2	99494,59	0,100000001	3,87517381	0,0002778290507636137	0,10001648173507011	0,00038758124	0,1358138783099656	-0,0050673984034462861	0,24643455484225936
1	1	0	0	0	0	2	99584,59	0,100000001	3,87662506	0,00027782934164297248	0,10001658650560296	0,000387726817	0,1383143403755667	-0,0051606940050208653	0,24893501690786045
1	1	0	0	0	0	2	99674,60	0,100000001	3,87809539	0,00027782989815539782	0,1000167864733873	0,000387874636	0,14081480526793925	-0,0052539897120660883	0,25143548180023296
1	1	0	0	0	0	2	99764,60	0,100000001	3,87969947	0,00027782984403396646	0,10001676709368206	0,000388034998	0,1433152739456831	-0,0053472855603486048	0,2539359504779768
1	1	0	0	0	0	2	99854,60	0,100000001	3,8811698	0,00027783002059658365	0,10001683092509168	0,000388182292	0,14581574329357731	-0,0054405814336353306	0,25643641982587091
1	1	0	0	0	0	2	99944,60	0,100000001	3,88263988	0,00027783001393948989	0,10001682823401077	0,000388329325	0,14831621111612118	-0,0055338772500091859	0,25893688764841478
1	1	0	0	0	0	2	100034,60	0,100000001	3,88424397	0,00027783029520801376	0,10001692941008602	0,000388490153	0,15081668029001162	-0,0056271731168035981	0,26143735682230518
1	1	0	0	0	0	2	100124,60	0,100000001	3,88565707	0,00027782941787565747	0,10001661394984602	0,000388630258	0,15331714561416099	-0,0057204688399589952	0,2639378221464544
1	1	0	0	0	0	2	100214,61	0,100000001	3,88708901	0,00027782955891721779	0,10001666464928762	0,000388773682	0,15581761379192458	-0,0058137646695865754	0,26643829032421789
1	1	0	0	0	0	2	100304,61	0,100000001	3,88855934	0,00027782928556121059	0,10001656594383872	0,000388920365	0,15831807866653446	-0,0059070603759690496	0,26893875519882781
1	1	0	0	0	0	2	100394,61	0,100000001	3,89002967	0,00027782930980746944	0,10001657492861602	0,000389067456	0,16081854086750224	-0,0060003559825943424	0,27143921739979565
1	1	0	0	0	0	2	100484,61	0,100000001	3,89161468	0,00027782921638091405	0,10001654141317181	0,000389225839	0,1633190034224608	-0,0060936516024275072	0,27393967995475414
1	1	0	0	0	0	2	100574,61	0,100000001	3,89293218	0,00027782906152514944	0,1000164852912865	0,000389357388	0,16581946743582624	-0,0061869472766757926	0,27644014396811955
1	1	0	0	0	0	2	100664,62	0,100000001	3,89444065	0,00027782926857637034	0,10001655986783973	0,000389508554	0,16831993003945859	-0,0062802428983250419	0,27894060657175184
1	1	0	0	0	0	2	100754,62	0,100000001	3,89572001	0,00027782977432550656	0,10001674227042021	0,000389637222	0,17082039576165395	-0,0063735386363320704	0,28144107229394733
1	1	0	0	0	0	2	100844,62	0,100000001	3,89719033	0,0002778282663503455	0,10001619917489762	0,000389782159	0,17332085532508355	-0,0064668341445472666	0,28394153185737693
1	1	0	0	0	0	2	100934,62	0,100000001	3,89864159	0,00027782863385727008	0,10001633133622158	0,000389927824	0,17582131099149562	-0,0065601295073595008	0,28644198752378902
1	1	0	0	0	0	2	101024,62	0,100000001	3,89999723	0,00027782917723721926	0,10001652732172016	0,000390064175	0,1783217714423175	-0,0066534250486844966	0,28894244797461094
1	1	0	0	0	0	2	101114,62	0,100000001	3,90148664	0,00027782997583349549	0,10001681479556214	0,000390214263	0,18082223506705523	-0,0067467207084325594	0,29144291159934874
1	1	0	0	0	0	2	101204,63	0,100000001	3,90282321	0,00027782929104773533	0,10001656791894859	0,000390346977	0,18332270274372461	-0,0068400165193636416	0,29394337927601818
1	1	0	0	0	0	2	101294,63	0,100000001	3,90404534	0,00027782925188003312	0,10001655401329642	0,000390469155	0,18582316350984509	-0,0069333120724528525	0,29644384004213862
1	1	0	0	0	0	2	101384,63	0,100000001	3,90551567	0,00027782912858327229	0,10001650980664538	0,000390616042	0,18832362535514451	-0,00702660766580768	0,29894430188743808
1	1	0	0	0	0	2	101474,63	0,100000001	3,90685225	0,00027782934393361213	0,10001658695748794	0,000390750036	0,19082408644424272	-0,0071199032309476237	0,30144476297653632
1	1	0	0	0	0	2	101564,63	0,100000001	3,90807438	0,00027782925553744038	0,10001655513564061	0,000390872126	0,19332455111021197	-0,0072131989295454362	0,30394522764250547
1	1	0	0	0	0	2	101654,63	0,100000001	3,90950656	0,00027782921222804323	0,10001653991700355	0,000391015317	0,19582501545734355	-0,007306494616246985	0,30644569198963699
1	1	0	0	0	0	2	101744,64	0,100000001	3,91080499	0,00027782875345523155	0,1000163745955572	0,000391144538	0,19832547903027328	-0,0073997902740620224	0,30894615556256672
1	1	0	0	0	0	2	101834,64	0,100000001	3,91212249	0,00027782943489112784	0,10001661970271072	0,000391277281	0,20082594449117062	-0,0074930860023196698	0,311446621023464
1	1	0	0	0	0	2	101924,64	0,100000001	3,91332555	0,00027782930564756195	0,10001657352407923	0,000391397421	0,20332641103692589	-0,0075863817710548262	0,31394708756921926
1	1	0	0	0	0	2	102014,64	0,100000001	3,91454768	0,00027782957949696317	0,10001667213178413	0,000391520036	0,20582687663155942	-0,0076796775043023514	0,3164475531638528
1	1	0	0	0	0	2	102104,64	0,100000001	3,91582704	0,00027782937245981565	0,10001659722788254	0,000391647685	0,20832734016837699	-0,0077729731607699955	0,3189480167006704
1	1	0	0	0	0	2	102194,65	0,100000001	3,91718268	0,00027783016393209498	0,10001688228267608	0,000391784386	0,2108278067309904	-0,0078662689301341517	0,32144848326328378
1	1	0	0	0	0	2	102284,65	0,100000001	3,91825199	0,00027783007375482058	0,10001685006051446	0,000391891226	0,21332827445565718	-0,0079595647428560794	0,32394895098795066
1	1	0	0	0	0	2	102374,65	0,100000001	3,9194932	0,00027782920366774	0,10001653650934493	0,000392014132	0,2158287388489968	-0,0080528604312817139	0,32644941538129043
1	1	0	0	0	0	2	102464,65	0,100000001	3,9206388	0,00027782960660258928	0,10001668151761504	0,000392129296	0,21832920177422643	-0,0081461560649301901	0,32894987830652006
1	1	0	0	0	0	2	102554,65	0,100000001	3,92197561	0,00027782930305682954	0,10001657261588477	0,000392262562	0,22082966692770288	-0,0082394517817175501	0,33145034345999654
1	1	0	0	0	0	2	102644,65	0,100000001	3,92312121	0,00027782937934704947	0,10001659997270349	0,000392377231	0,22333013041520627	-0,008332747436345216	0,33395080694749997
1	1	0	0	0	0	2	102734,66	0,100000001	3,92426682	0,0002778295251160032	0,10001665218200509	0,000392492017	0,22583059395535757	-0,0084260430929372454	0,33645127048765126
1	1	0	0	0	0	2	102824,66	0,100000001	3,92541265	0,00027782946894980141	0,10001663224652155	0,00039260654	0,22833106025974634	-0,0085193388526666931	0,33895173679204
1	1	0	0	0	0	2	102914,66	0,100000001	3,9267683	0,00027782879880070682	0,10001639108726789	0,000392741204	0,23083152315433754	-0,0086126344851720077	0,34145219968663117
1	1	0	0	0	0	2	103004,66	0,100000001	3,92799044	0,00027782879539330806	0,10001638948804586	0,000392863411	0,23333198540870115	-0,0087059300937895706	0,34395266194099482
1	1	0	0	0	0	2	103094,66	0,100000001	3,92917418	0,00027782946501589488	0,10001663061610762	0,000392982765	0,23583244739168608	-0,0087992256922816307	0,34645312392397984
1	1	0	0	0	0	2	103184,66	0,100000001	3,93047285	0,00027782949287320173	0,1000166409472641	0,000393112685	0,23833291296682691	-0,008892521424801856	0,34895358949912051
1	1	0	0	0	0	2	103274,67	0,100000001	3,93180943	0,00027782976928187741	0,10001674019277645	0,000393246766	0,24083337895010218	-0,0089858171725501274	0,35145405548239584
1	1	0	0	0	0	2	103364,67	0,100000001	3,93303156	0,00027782969730264611	0,10001671416899013	0,000393368886	0,24333384307299034	-0,0090791128508848525	0,35395451960528397
1	1	0	0	0	0	2	103454,67	0,100000001	3,93427253	0,00027782972453037894	0,10001672434219987	0,000393493043	0,24583430934082118	-0,0091724086092502733	0,35645498587311469
1	1	0	0	0	0	2	103544,67	0,100000001	3,93564749	0,00027782984883959094	0,10001676904620438	0,000393630733	0,24833477600058851	-0,0092657043822393741	0,35895545253288205
1	1	0	0	0	0	2	103634,67	0,100000001	3,93707967	0,00027782918674167664	0,10001653036950962	0,000393773051	0,2508352400369936	-0,0093590000573472986	0,36145591656928717
1	1	0	0	0	0	2	103724,68	0,100000001	3,93832064	0,00027782927986565565	0,10001656411819382	0,000393897295	0,25333570231731757	-0,0094522956669334771	0,36395637884961114
1	1	0	0	0	0	2	103814,68	0,100000001	3,93971467	0,00027782875978284416	0,10001637704111491	0,000394035975	0,25583616617607091	-0,0095455913354129792	0,36645684270836448
1	1	0	0	0	0	2	103904,68	0,100000001	3,9411087	0,00027782897704756925	0,10001645488112302	0,000394175731	0,25833662757039334	-0,009638886911941248	0,36895730410268691
1	1	0	0	0	0	2	103994,68	0,100000001	3,94252157	0,00027782880637215242	0,10001639344850195	0,000394316798	0,26083708784400899	-0,009732182446654441	0,37145776437630259
1	1	0	0	0	0	2	104084,68	0,100000001	3,94385839	0,00027782893789228464	0,10001644115924643	0,000394450675	0,26333754954249939	-0,0098254780345316275	0,37395822607479296
1	1	0	0	0	0	2	104174,68	0,100000001	3,94532847	0,0002778292599523233	0,10001655689830563	0,000394598173	0,26583801159216579	-0,0099187736355116634	0,37645868812445939
1	1	0	0	0	0	2	104264,69	0,100000001	3,94670343	0,00027782949088513853	0,10001663985899181	0,000394736009	0,26833847318799331	-0,010012069219558358	0,37895914972028691
1	1	0	0	0	0	2	104354,69	0,100000001	3,94832659	0,00027782954070054819	0,10001665816505966	0,000394898438	0,27083893774476813	-0,010105364914081979	0,3814596142770617
1	1	0	0	0	0	2	104444,69	0,100000001	3,94972038	0,00027783009373769168	0,10001685725537021	0,000395038631	0,27333940120721085	-0,010198660567774598	0,38396007773950438
1	1	0	0	0	0	2	104534,69	0,100000001	3,95122886	0,00027782954949430298	0,10001666095670966	0,000395188719	0,27583986736365341	-0,010291956321983971	0,38646054389594694
1	1	0	0	0	0	2	104624,69	0,100000001	3,95281386	0,00027782924144094182	0,10001655022386112	0,000395346811	0,27834033415165267	-0,010385252099757578	0,38896101068394624
1	1	0	0	0	0	2	104714,70	0,100000001	3,95437956	0,0002778295757489072	0,10001667078207402	0,000395503885	0,28084079951100483	-0,010478547824226438	0,39146147604329837
1	1	0	0	0	0	2	104804,70	0,100000001	3,95594525	0,00027782936023962166	0,10001659284616451	0,000395660172	0,28334126500374963	-0,010571843553672357	0,3939619415360432
1	1	0	0	0	0	2	104894,70	0,100000001	3,95753026	0,00027782920410401293	0,10001653662099149	0,000395818468	0,28584172926081107	-0,010665139237013269	0,39646240579310464
1	1	0	0	0	0	2	104984,70	0,100000001	3,95903873	0,00027782907236574426	0,10001648956873523	0,000395969168	0,28834219085802656	-0,01075843482111175	0,39896286739032013
1	1	0	0	0	0	2	105074,70	0,100000001	3,96071911	0,00027782918721354669	0,10001653077224402	0,000396137388	0,29084265078314406	-0,010851730342822011	0,40146332731543763
1	1	0	0	0	0	2	105164,70	0,100000001	3,96224666	0,00027782817225861882	0,10001616516282723	0,000396288728	0,29334311019037466	-0,010945025845209213	0,40396378672266822
1	1	0	0	0	0	2	105254,71	0,100000001	3,96404147	0,00027782879627620179	0,10001639012257664	0,000396469113	0,29584356936645312	-0,011038321338971818	0,40646424589874669
1	1	0	0	0	0	2	105344,71	0,100000001	3,96564555	0,00027782861869492464	0,10001632625046758	0,000396629301	0,29834402783457773	-0,01113161680631971	0,4089647043668713
1	1	0	0	0	0	2	105434,71	0,100000001	3,96732593	0,00027782844996369546	0,10001626513467886	0,000396797113	0,3008444850998567	-0,011224912228787818	0,41146516163215027
1	1	0	0	0	0	2	105524,71	0,100000001	3,96904445	0,0002778286544067992	0,10001633883534726	0,000396969292	0,3033449417192183	-0,01131820762715588	0,41396561825151187
1	1	0	0	0	0	2	105614,71	0,100000001	3,97076297	0,00027782897287607194	0,10001645375316098	0,000397141644	0,30584539922617382	-0,011411503058641266	0,41646607575846739
1	1	0	0	0	0	2	105704,71	0,100000001	3,97251964	0,00027782934526395462	0,10001658751674008	0,000397317868	0,30834586168381414	-0,011504798674843357	0,41896653821610771
1	1	0	0	0	0	2	105794,72	0,100000001	3,97435284	0,000277829122810728	0,10001650735598734	0,000397500902	0,31084632335421741	-0,011598094261672573	0,42146699988651098
1	1	0	0	0	0	2	105884,72	0,100000001	3,9761095	0,00027782959636797507	0,10001667820464621	0,000397677271	0,31334678813298259	-0,011691389964478954	0,42396746466527616
1	1	0	0	0	0	2	105974,72	0,100000001	3,97798085	0,00027782914687775904	0,10001651631219221	0,000397863798	0,31584724807932646	-0,011784685486981194	0,42646792461162003
1	1	0	0	0	0	2	106064,72	0,100000001	3,9798522	0,00027782874818974067	0,10001637249509747	0,000398050383	0,31834770966168947	-0,011877981070525512	0,42896838619398304
1	1	0	0	0	0	2	106154,72	0,100000001	3,98181891	0,0002778286395379239	0,10001633363736699	0,000398246921	0,32084816830277472	-0,011971276544326802	0,43146884483506829
1	1	0	0	0	0	2	106244,73	0,100000001	3,98357558	0,00027782815230016906	0,1000161583505092	0,000398421922	0,32334862519499482	-0,012064571952875579	0,43396930172728838
1	1	0	0	0	0	2	106334,73	0,100000001	3,9857142	0,00027782850043268666	0,10001628330315659	0,00039863633	0,32584908416901062	-0,012157867439098954	0,43646976070130419
1	1	0	0	0	0	2	106424,73	0,100000001	3,98752832	0,00027782845991229021	0,100016268759182	0,000398817705	0,32834954229685069	-0,012251162893750379	0,43897021882914426
1	1	0	0	0	0	2	106514,73	0,100000001	3,98957157	0,00027782933531784349	0,1000165842296203	0,000399023324	0,33085000224762682	-0,012344458416417994	0,44147067877992038
1	1	0	0	0	0	2	106604,73	0,100000001	3,99161458	0,00027782909366612634	0,10001649700269246	0,000399227312	0,33335046302419386	-0,012437753969896981	0,44397113955648742
1	1	0	0	0	0	2	106694,73	0,100000001	3,9935813	0,00027782928639484778	0,10001656624408771	0,000399424287	0,33585092662157882	-0,012531049628624477	0,44647160315387238
1	1	0	0	0	0	2	106784,74	0,100000001	3,9957583	0,00027782839697682195	0,10001624643236362	0,000399640732	0,33835138490258342	-0,012624345088990672	0,44897206143487699
1	1	0	0	0	0	2	106874,74	0,100000001	3,99778223	0,00027782889681557811	0,10001642635329514	0,000399843906	0,34085184285264032	-0,012717640537008763	0,45147251938493389
1	1	0	0	0	0	2	106964,74	0,100000001	3,99993992	0,00027782814956994522	0,10001615699623051	0,000400058605	0,34335229750454406	-0,012810935861968325	0,45397297403683763
1	1	0	0	0	0	2	107054,74	0,100000001	4,00219345	0,00027782893298069638	0,10001643921296835	0,000400285149	0,34585275591608192	-0,012904231327204894	0,45647343244837549
1	1	0	0	0	0	2	107144,74	0,100000001	4,0045228	0,00027782904293181171	0,10001647897214672	0,000400518271	0,34835321769151974	-0,012997526917953091	0,45897389422381331
1	1	0	0	0	0	2	107234,74	0,100000001	4,00660419	0,00027782865954728592	0,10001634058444448	0,000400725898	0,35085367675471898	-0,013090822407504021	0,46147435328701254
1	1	0	0	0	0	2	107324,75	0,100000001	4,00895309	0,00027782917279543149	0,10001652535012494	0,000400961551	0,35335413804067642	-0,013184117979989048	0,46397481457297005
1	1	0	0	0	0	2	107414,75	0,100000001	4,0112443	0,00027782843216053315	0,10001625909824933	0,000401189638	0,3558545942043472	-0,013277413361354672	0,46647527073664083
1	1	0	0	0	0	2	107504,75	0,100000001	4,01363134	0,0002778286435099112	0,10001633501020246	0,000401428697	0,35835505171895904	-0,013370708793125725	0,46897572825125261
1	1	0	0	0	0	2	107594,75	0,100000001	4,01592255	0,00027782754045973222	0,10001593771972355	0,00040165626	0,36085550375438323	-0,013464004020460918	0,4714761802866768
1	1	0	0	0	0	2	107684,75	0,100000001	4,01846218	0,00027782873785371584	0,10001636911884101	0,000401911995	0,36335596174669811	-0,01355729947005571	0,47397663827899168
1	1	0	0	0	0	2	107774,76	0,100000001	4,02081108	0,00027782885118408339	0,10001640994491078	0,000402147096	0,36585642166232954	-0,013650594991412032	0,4764770981946231
1	1	0	0	0	0	2	107864,76	0,100000001	4,02327394	0,00027782868212544259	0,1000163487112559	0,000402393169	0,36835688052464538	-0,013743890473467733	0,47897755705693894
1	1	0	0	0	0	2	107954,76	0,100000001	4,02581358	0,00027782855529338125	0,10001630318767741	0,000402646983	0,37085733737304941	-0,013837185880381675	0,48147801390534298
1	1	0	0	0	0	2	108044,76	0,100000001	4,02841043	0,00027782859408938221	0,10001631739264734	0,000402906764	0,37335779526950349	-0,013930481326399773	0,48397847180179706
1	1	0	0	0	0	2	108134,76	0,100000001	4,03087378	0,0002778287072338992	0,10001635779785878	0,000403153303	0,37585825438471558	-0,014023776817891374	0,48647893091700915
1	1	0	0	0	0	2	108224,76	0,100000001	4,03352785	0,00027782855930179357	0,10001630449561619	0,000403418555	0,37835871280169792	-0,01411707228333108	0,48897938933399149
1	1	0	0	0	0	2	108314,77	0,100000001	4,03631592	0,00027782886339475715	0,10001641433979325	0,000403697835	0,38085917605100384	-0,01421036792907128	0,49147985258329741
1	1	0	0	0	0	2	108404,77	0,100000001	4,03896999	0,00027782905032775466	0,10001648152576947	0,000403963553	0,38335963770750221	-0,014303663515381686	0,49398031423979578
1	1	0	0	0	0	2	108494,77	0,100000001	4,04185343	0,00027782925205015472	0,10001655388126139	0,000404252263	0,38586009897462451	-0,014396959087163947	0,49648077550691808
1	1	0	0	0	0	2	108584,77	0,100000001	4,04477501	0,00027782927373631133	0,10001656197105394	0,000404544495	0,38836056144187488	-0,014490254703724602	0,49898123797416845
1	1	0	0	0	0	2	108674,77	0,100000001	4,04769659	0,00027782919768575168	0,10001653468202757	0,000404836581	0,3908610270109161	-0,014583550436017242	0,50148170354320966
1	1	0	0	0	0	2	108764,78	0,100000001	4,05044603	0,00027782945004022784	0,10001662515511461	0,000405111932	0,39336149143945728	-0,014676846125756294	0,50398216797175078
1	1	0	0	0	0	2	108854,78	0,100000001	4,05359697	0,00027782939921733405	0,10001660692560091	0,00040542701	0,39586195571351475	-0,01477014180973135	0,50648263224580845
1	1	0	0	0	0	2	108944,78	0,100000001	4,05647993	0,00027782887102497949	0,1000164170898209	0,000405714585	0,39836241760562938	-0,014863437404832918	0,5089830941379232
1	1	0	0	0	0	2	109034,78	0,100000001	4,05957365	0,00027782848417510592	0,10001627755766059	0,000406023435	0,40086287705150573	-0,014956732908662045	0,51148355358379962
1	1	0	0	0	0	2	109124,78	0,100000001	4,06272411	0,00027782835898631152	0,10001623238405014	0,000406338368	0,40336333384439437	-0,015050028313504634	0,51398401037668794
1	1	0	0	0	0	2	109214,78	0,100000001	4,0659132	0,00027782847284939552	0,10001627374711466	0,000406657491	0,40586379203806285	-0,015143323770612202	0,51648446857035648
1	1	0	0	0	0	2	109304,79	0,100000001	4,06908274	0,00027782880968517728	0,10001639495902698	0,000406974985	0,40836424981160928	-0,015236619212044451	0,51898492634390272
1	1	0	0	0	0	2	109394,79	0,100000001	4,07242441	0,00027782882698997853	0,10001640086145808	0,000407309242	0,41086470861632877	-0,015329914691951155	0,52148538514862234
1	1	0	0	0	0	2	109484,79	0,100000001	4,07574701	0,00027782867327042752	0,10001634574706302	0,000407641317	0,41336516606079955	-0,015423210121105146	0,52398584259309312
1	1	0	0	0	0	2	109574,79	0,100000001	4,07918406	0,00027782865428345069	0,10001633906091947	0,000407985062	0,41586562565386534	-0,015516505630426112	0,5264863021861591
1	1	0	0	0	0	2	109664,79	0,100000001	4,08269739	0,00027782838793098928	0,1000162428021817	0,000408336055	0,41836608185064986	-0,015609801013027254	0,52898675838294374
1	1	0	0	0	0	2	109754,79	0,100000001	4,08626842	0,00027782796092993683	0,10001608909182701	0,000408692576	0,42086653688743539	-0,015703096352347277	0,53148721341972902
1	1	0	0	0	0	2	109844,80	0,100000001	4,0898962	0,00027782860502435101	0,10001632132799402	0,000409056374	0,42336699280493414	-0,015796391724527888	0,53398766933722771
1	1	0	0	0	0	2	109934,80	0,100000001	4,09358168	0,00027782915471701162	0,1000165190178351	0,000409425789	0,42586745102535814	-0,015889687182633741	0,53648812755765152
1	1	0	0	0	0	2	110024,80	0,100000001	4,09743881	0,0002778285491185056	0,10001630083086928	0,000409810687	0,42836790641713638	-0,015982982535199018	0,53898858294942976
1	1	0	0	0	0	2	110114,80	0,100000001	4,10120058	0,00027782891740815507	0,1000164337851055	0,000410187466	0,43086836231567373	-0,016076277906672154	0,5414890388479673
1	1	0	0	0	0	2	110204,80	0,100000001	4,10515308	0,00027782880933955309	0,10001639488001326	0,000410582608	0,43336882068828736	-0,01616957337045641	0,54398949722058099
1	1	0	0	0	0	2	110294,81	0,100000001	4,10920095	0,00027782870966527194	0,10001635862539853	0,000410987326	0,43586927525569536	-0,016262868692263322	0,54648995178798874
1	1	0	0	0	0	2	110384,81	0,100000001	4,11336374	0,00027782827717686688	0,1000162030921617	0,000411403016	0,43836973142466067	-0,016356164073826493	0,54899040795695398
1	1	0	0	0	0	2	110474,81	0,100000001	4,11758375	0,00027782877843537267	0,10001638375589248	0,000411825837	0,4408701886692759	-0,016449459495523606	0,55149086520156896
1	1	0	0	0	0	2	110564,81	0,100000001	4,12188005	0,0002778282382566896	0,10001618894029222	0,00041225474	0,44337064161081933	-0,016542754756667328	0,55399131814311264
1	1	0	0	0	0	2	110654,81	0,100000001	4,12636757	0,00027782914563475382	0,10001651557145546	0,000412704918	0,44587109955553946	-0,016636050204486298	0,55649177608783283
1	1	0	0	0	0	2	110744,81	0,100000001	4,13096952	0,00027782928325815338	0,10001656548733789	0,00041316537	0,44837156306320045	-0,01672934585986607	0,5589922395954937
1	1	0	0	0	0	2	110834,82	0,100000001	4,13568592	0,00027782907581784656	0,10001649067640613	0,000413636793	0,45087202549444294	-0,016822641475083222	0,56149270202673619
1	1	0	0	0	0	2	110924,82	0,100000001	4,14047861	0,00027782948590525325	0,10001663806743288	0,000414116745	0,45337249028062362	-0,016915937178166282	0,56399316681291667
1	1	0	0	0	0	2	111014,82	0,100000001	4,14551973	0,00027782929243768253	0,10001656873135829	0,000414620648	0,45587295725824973	-0,017009232963015123	0,56649363379054285
1	1	0	0	0	0	2	111104,82	0,100000001	4,15050364	0,00027782958471775056	0,10001667401123045	0,000415119575	0,4583734224581545	-0,017102528681534787	0,56899409899044762
1	1	0	0	0	0	2	111194,82	0,100000001	4,15567827	0,00027782948022252982	0,10001663602169288	0,000415636954	0,46087388794192134	-0,017195824410645728	0,57149456447421434
1	1	0	0	0	0	2	111284,82	0,100000001	4,16113949	0,00027782912089427312	0,10001650676388029	0,000416182622	0,46337435187423853	-0,01728912008186999	0,57399502840653152
1	1	0	0	0	0	2	111374,83	0,100000001	4,16665792	0,00027782927694792554	0,10001656321570075	0,000416734809	0,46587481498562342	-0,017382415722464173	0,57649549151791642
1	1	0	0	0	0	2	111464,83	0,100000001	4,17240524	0,00027782974148583078	0,10001673015743486	0,000417310337	0,46837528271464467	-0,017475711535348573	0,57899595924693786
1	1	0	0	0	0	2	111554,83	0,100000001	4,17807674	0,00027782919419722422	0,10001653305461803	0,000417876756	0,47087574671187008	-0,017569007208994653	0,5814964232441632
1	1	0	0	0	0	2	111644,83	0,100000001	4,18422508	0,00027782938034377168	0,10001660043863413	0,000418491982	0,47337621023376627	-0,017662302864905562	0,58399688676605939
1	1	0	0	0	0	2	111734,83	0,100000001	4,1903162	0,00027782981807572976	0,10001675794450818	0,000419101852	0,47587667537174624	-0,017755598581114726	0,58649735190403968
1	1	0	0	0	0	2	111824,84	0,100000001	4,19600773	0,00027782937816902998	0,10001659928199477	0,000419670425	0,47837714177280294	-0,017848894344450982	0,5889978183050967
1	1	0	0	0	0	2	111882,07	0,100000001	4,19994116	0,00020098896351415251	0,10001664803026386	0,000420064025	0,4799672789027625	-0,017908224498731882	0,59058795543505638