File: Experimentelles/Rohdaten/Batterietests/AlteZelle/Studenten_Batterietests/Sonstige/ZView-Export/LiCoO2 vs Li_01_OCV_C01_loop0.txt
EC-Lab ASCII FILE
Nb header lines : 3
mode	error	time/s	Ewe/V
3	1	0,00	3,12883139
3	0	5,00	3,12881231
3	0	10,00	3,12871671
3	0	15,00	3,12877417
3	0	20,00	3,12873578
3	0	25,00	3,12864041
3	0	30,00	3,12862134
3	0	35,00	3,12854481
3	0	40,00	3,12843037
3	0	45,00	3,12846851
3	0	50,00	3,12844944
3	0	55,00	3,12825847
3	0	60,00	3,12831569
3	0	65,00	3,128335
3	0	70,00	3,12818217
3	0	75,00	3,128335
3	0	80,00	3,12827754
3	0	85,00	3,12818217
3	0	90,00	3,12810564
3	0	95,00	3,12801027
3	0	100,00	3,12804842
3	0	105,00	3,12789559
3	0	110,00	3,12791491
3	0	115,00	3,12802935
3	0	120,00	3,12789559
3	0	125,00	3,12780023
3	0	130,00	3,1278193
3	0	135,00	3,12783837
3	0	140,00	3,12778115
3	0	145,00	3,12774301
3	0	150,00	3,1276474
3	0	155,00	3,12762833
3	0	160,00	3,12755203
3	0	165,00	3,12753296
3	0	170,00	3,12749481
3	0	175,00	3,12745643
3	0	180,00	3,12751389
3	0	185,00	3,12738013
3	0	190,00	3,12749481
3	0	195,00	3,12734199
3	0	200,00	3,12726545
3	0	205,00	3,12720823
3	0	210,00	3,12717009
3	0	215,00	3,12717009
3	0	220,00	3,12707472
3	0	225,00	3,12707472
3	0	230,00	3,12713194
3	0	235,00	3,12713194
3	0	240,00	3,12694097
3	0	245,00	3,12694097
3	0	250,00	3,12692189
3	0	255,00	3,12678814
3	0	260,00	3,12680721
3	0	265,00	3,12673092
3	0	270,00	3,12696004
3	0	275,00	3,12665462
3	0	280,00	3,12659717
3	0	285,00	3,12661624
3	0	290,00	3,12655902
3	0	295,00	3,12652087
3	0	300,00	3,12644458
3	0	305,00	3,12644458
3	0	310,00	3,12638712
3	0	315,00	3,12638712
3	0	320,00	3,1263299
3	0	325,00	3,12631083
3	0	330,00	3,12629175
3	0	335,00	3,12608171
3	0	340,00	3,12611985
3	0	345,00	3,12611985
3	0	350,00	3,12602448
3	0	355,00	3,12610078
3	0	360,00	3,12592888
3	0	365,00	3,12600541
3	0	370,00	3,12604356
3	0	375,00	3,12583351
3	0	380,00	3,12575698
3	0	385,00	3,12575698
3	0	390,00	3,12579536
3	0	395,00	3,12579536
3	0	400,00	3,12571883
3	0	405,00	3,12562346
3	0	410,00	3,12562346
3	0	415,00	3,12562346
3	0	420,00	3,12550879
3	0	425,00	3,12550879
3	0	430,00	3,12541342
3	0	435,00	3,12531781
3	0	440,00	3,12552786
3	0	445,00	3,12531781
3	0	450,00	3,12526059
3	0	455,00	3,12524152
3	0	460,00	3,12522244
3	0	465,00	3,12522244
3	0	470,00	3,12529874
3	0	475,00	3,12505054
3	0	480,00	3,12506962
3	0	485,00	3,12497425
3	0	490,00	3,12495518
3	0	495,00	3,12482142
3	0	500,00	3,12485957
3	0	505,00	3,1248405
3	0	510,00	3,1248405
3	0	515,00	3,1247642
3	0	520,00	3,1247642
3	0	525,00	3,1247642
3	0	530,00	3,12474513
3	0	535,00	3,1246686
3	0	540,00	3,12457323
3	0	545,00	3,12457323
3	0	550,00	3,12455416
3	0	555,00	3,12451601
3	0	560,00	3,12443948
3	0	565,00	3,1244967
3	0	570,00	3,12428665
3	0	575,00	3,12432504
3	0	580,00	3,1242485
3	0	585,00	3,12428665
3	0	590,00	3,12415314
3	0	595,00	3,12415314
3	0	600,00	3,12403846
3	0	605,00	3,12400031
3	0	610,00	3,1240766
3	0	615,00	3,12400031
3	0	620,00	3,12396216
3	0	625,00	3,12386656
3	0	630,00	3,12386656
3	0	635,00	3,12377119
3	0	640,00	3,12379026
3	0	645,00	3,12363744
3	0	650,00	3,1236949
3	0	655,00	3,12379026
3	0	660,00	3,1236949
3	0	665,00	3,12354207
3	0	670,00	3,12365651
3	0	675,00	3,12361836
3	0	680,00	3,12348485
3	0	685,00	3,12350392
3	0	690,00	3,12342739
3	0	695,00	3,1234467
3	0	700,00	3,12337017
3	0	705,00	3,1232748
3	0	710,00	3,12329388
3	0	715,00	3,12325573
3	0	720,00	3,1231792
3	0	725,00	3,1231792
3	0	730,00	3,1231029
3	0	735,00	3,1230073
3	0	740,00	3,12312198
3	0	745,00	3,1230073
3	0	750,00	3,12289286
3	0	755,00	3,12295008
3	0	760,00	3,12298822
3	0	765,00	3,12287378
3	0	770,00	3,12287378
3	0	775,00	3,12277818
3	0	780,00	3,12274003
3	0	785,00	3,12272096
3	0	790,00	3,12264466
3	0	795,00	3,1225872
3	0	800,00	3,12262559
3	0	805,00	3,12254906
3	0	810,00	3,12249184
3	0	815,00	3,12251091
3	0	820,00	3,12249184
3	0	825,00	3,12237716
3	0	830,00	3,12249184
3	0	835,00	3,12230086
3	0	840,00	3,1222055
3	0	845,00	3,12212896
3	0	850,00	3,12228179
3	0	855,00	3,12207174
3	0	860,00	3,12207174
3	0	865,00	3,12207174
3	0	870,00	3,1220336
3	0	875,00	3,1219573
3	0	880,00	3,12193799
3	0	885,00	3,12199545
3	0	890,00	3,12189984
3	0	895,00	3,1217854
3	0	900,00	3,12188077
3	0	905,00	3,12180448
3	0	910,00	3,12170887
3	0	915,00	3,12176633
3	0	920,00	3,12155628
3	0	925,00	3,1216135
3	0	930,00	3,12153721
3	0	935,00	3,12146068
3	0	940,00	3,12149882
3	0	945,00	3,12134624
3	0	950,00	3,12140346
3	0	955,00	3,12147975
3	0	960,00	3,12130785
3	0	965,00	3,12134624
3	0	970,00	3,12130785
3	0	975,00	3,12132716
3	0	980,00	3,1210978
3	0	985,00	3,12107873
3	0	990,00	3,12119341
3	0	995,00	3,12105966
3	0	1000,00	3,12096429
3	0	1005,00	3,12096429
3	0	1010,00	3,12094522
3	0	1015,00	3,1210978
3	0	1020,00	3,12092614
3	0	1025,00	3,12083054
3	0	1030,00	3,12083054
3	0	1035,00	3,12073517
3	0	1040,00	3,12079239
3	0	1045,00	3,12065864
3	0	1050,00	3,12063956
3	0	1055,00	3,12062049
3	0	1060,00	3,12050605
3	0	1065,00	3,12062049
3	0	1070,00	3,12039137
3	0	1075,00	3,1203723
3	0	1080,00	3,12056327
3	0	1085,00	3,12035322
3	0	1090,00	3,120296
3	0	1095,00	3,12035322
3	0	1100,00	3,120296
3	0	1105,00	3,1202004
3	0	1110,00	3,1201241
3	0	1115,00	3,12008595
3	0	1120,00	3,12018132
3	0	1125,00	3,12000942
3	0	1130,00	3,12004781
3	0	1135,00	3,12000942
3	0	1140,00	3,11987591
3	0	1145,00	3,11985683
3	0	1150,00	3,11999035
3	0	1155,00	3,12000942
3	0	1160,00	3,1197803
3	0	1165,00	3,11983776
3	0	1170,00	3,11974216
3	0	1175,00	3,1197803
3	0	1180,00	3,11970401
3	0	1185,00	3,11955118
3	0	1190,00	3,11957026
3	0	1195,00	3,11955118
3	0	1200,00	3,11953211
3	0	1205,00	3,11939836
3	0	1210,00	3,11947489
3	0	1215,00	3,11941767
3	0	1220,00	3,11936021
3	0	1225,00	3,11936021
3	0	1230,00	3,11922669
3	0	1235,00	3,11915016
3	0	1240,00	3,11926484
3	0	1245,00	3,11922669
3	0	1250,00	3,11905479
3	0	1255,00	3,11916924
3	0	1260,00	3,11901665
3	0	1265,00	3,11897826
3	0	1270,00	3,11890197
3	0	1275,00	3,11892104
3	0	1280,00	3,11888289
3	0	1285,00	3,11878753
3	0	1290,00	3,11876822
3	0	1295,00	3,1188066
3	0	1300,00	3,11873007
3	0	1305,00	3,11874914
3	0	1310,00	3,11859655
3	0	1315,00	3,11871099
3	0	1320,00	3,11865377
3	0	1325,00	3,11848187
3	0	1330,00	3,11857748
3	0	1335,00	3,11834836
3	0	1340,00	3,11836743
3	0	1345,00	3,11844373
3	0	1350,00	3,11842465
3	0	1355,00	3,1182909
3	0	1360,00	3,11832905
3	0	1365,00	3,11827183
3	0	1370,00	3,11815739
3	0	1375,00	3,11827183
3	0	1380,00	3,11817646
3	0	1385,00	3,11813831
3	0	1390,00	3,11798549
3	0	1395,00	3,11796641
3	0	1400,00	3,11796641
3	0	1405,00	3,11792827
3	0	1410,00	3,11787081
3	0	1415,00	3,11787081
3	0	1420,00	3,11781359
3	0	1425,00	3,11773729
3	0	1430,00	3,11779451
3	0	1435,00	3,11775637
3	0	1440,00	3,11769891
3	0	1445,00	3,11764169
3	0	1450,00	3,11766076
3	0	1455,00	3,11750817
3	0	1460,00	3,11766076
3	0	1465,00	3,11745071
3	0	1470,00	3,11746979
3	0	1475,00	3,11741257
3	0	1480,00	3,11750817
3	0	1485,00	3,11735535
3	0	1490,00	3,11733627
3	0	1495,00	3,11727881
3	0	1500,00	3,11739349
3	0	1505,00	3,11725974
3	0	1510,00	3,11722159
3	0	1515,00	3,11701155
3	0	1520,00	3,11701155
3	0	1525,00	3,11712623
3	0	1530,00	3,11701155
3	0	1535,00	3,11701155
3	0	1540,00	3,11699247
3	0	1545,00	3,11701155
3	0	1550,00	3,11687803
3	0	1555,00	3,11676335
3	0	1560,00	3,11683965
3	0	1565,00	3,1168015
3	0	1570,00	3,11672521
3	0	1575,00	3,11666799
3	0	1580,00	3,11670613
3	0	1585,00	3,11676335
3	0	1590,00	3,11659145
3	0	1595,00	3,11647701
3	0	1600,00	3,11659145
3	0	1605,00	3,11649609
3	0	1610,00	3,11643887
3	0	1615,00	3,11640048
3	0	1620,00	3,11636233
3	0	1625,00	3,11643887
3	0	1630,00	3,11619043
3	0	1635,00	3,11624789
3	0	1640,00	3,11613321
3	0	1645,00	3,11632419
3	0	1650,00	3,11615229
3	0	1655,00	3,11605692
3	0	1660,00	3,11609507
3	0	1665,00	3,11605692
3	0	1670,00	3,11596131
3	0	1675,00	3,11592317
3	0	1680,00	3,11594224
3	0	1685,00	3,11592317
3	0	1690,00	3,11598039
3	0	1695,00	3,11575127
3	0	1700,00	3,1158278
3	0	1705,00	3,11567497
3	0	1710,00	3,11567497
3	0	1715,00	3,11563683
3	0	1720,00	3,11561775
3	0	1725,00	3,11556029
3	0	1730,00	3,11550307
3	0	1735,00	3,11561775
3	0	1740,00	3,11544585
3	0	1745,00	3,11538863
3	0	1750,00	3,115484
3	0	1755,00	3,115484
3	0	1760,00	3,1153121
3	0	1765,00	3,1153121
3	0	1770,00	3,11525488
3	0	1775,00	3,11517859
3	0	1780,00	3,11517859
3	0	1785,00	3,11508298
3	0	1790,00	3,11502576
3	0	1795,00	3,11523581
3	0	1800,00	3,11504483
3	0	1805,00	3,11504483
3	0	1810,00	3,11500669
3	0	1815,00	3,11493015
3	0	1820,00	3,11493015
3	0	1825,00	3,11489201
3	0	1830,00	3,11485386
3	0	1835,00	3,11481571
3	0	1840,00	3,11473942
3	0	1845,00	3,11472011
3	0	1850,00	3,11473942
3	0	1855,00	3,11466289
3	0	1860,00	3,11456752
3	0	1865,00	3,11475849
3	0	1870,00	3,11447191
3	0	1875,00	3,11452937
3	0	1880,00	3,11445284
3	0	1885,00	3,11451006
3	0	1890,00	3,11443377
3	0	1895,00	3,11431932
3	0	1900,00	3,11428094
3	0	1905,00	3,11426187
3	0	1910,00	3,11431932
3	0	1915,00	3,1141665
3	0	1920,00	3,11422372
3	0	1925,00	3,11426187
3	0	1930,00	3,11414742
3	0	1935,00	3,11408997
3	0	1940,00	3,1139946
3	0	1945,00	3,11408997
3	0	1950,00	3,11387992
3	0	1955,00	3,11393738
3	0	1960,00	3,11397552
3	0	1965,00	3,11386085
3	0	1970,00	3,1138227
3	0	1975,00	3,1138227
3	0	1980,00	3,11378455
3	0	1985,00	3,11378455
3	0	1990,00	3,11351728
3	0	1995,00	3,1136508
3	0	2000,00	3,11359358
3	0	2005,00	3,1136508
3	0	2010,00	3,11359358
3	0	2015,00	3,11355543
3	0	2020,00	3,11353636
3	0	2025,00	3,11347914
3	0	2030,00	3,11346006
3	0	2035,00	3,11332631
3	0	2040,00	3,11326909
3	0	2045,00	3,11338353
3	0	2050,00	3,11323071
3	0	2055,00	3,11325002
3	0	2060,00	3,11325002
3	0	2065,00	3,11326909
3	0	2070,00	3,11315441
3	0	2075,00	3,11311626
3	0	2080,00	3,11300159
3	0	2085,00	3,11298251
3	0	2090,00	3,11300159
3	0	2095,00	3,11292529
3	0	2100,00	3,11292529
3	0	2105,00	3,11290622
3	0	2110,00	3,11277246
3	0	2115,00	3,11282992
3	0	2120,00	3,11281061
3	0	2125,00	3,11273432
3	0	2130,00	3,1126771
3	0	2135,00	3,11269617
3	0	2140,00	3,1126771
3	0	2145,00	3,11263895
3	0	2150,00	3,11263895
3	0	2155,00	3,11265802
3	0	2160,00	3,11246705
3	0	2165,00	3,11258149
3	0	2170,00	3,11240983
3	0	2175,00	3,11239052
3	0	2180,00	3,11237144
3	0	2185,00	3,11240983
3	0	2190,00	3,11237144
3	0	2195,00	3,11221886
3	0	2200,00	3,112257
3	0	2205,00	3,11206603
3	0	2210,00	3,11223793
3	0	2215,00	3,11210418
3	0	2220,00	3,11212325
3	0	2225,00	3,11204696
3	0	2230,00	3,11197066
3	0	2235,00	3,11200881
3	0	2240,00	3,11197066
3	0	2245,00	3,11198974
3	0	2250,00	3,11195135
3	0	2255,00	3,11176062
3	0	2260,00	3,11179876
3	0	2265,00	3,11168408
3	0	2270,00	3,1117413
3	0	2275,00	3,11156964
3	0	2280,00	3,11156964
3	0	2285,00	3,11166501
3	0	2290,00	3,11158872
3	0	2295,00	3,11143589
3	0	2300,00	3,11145496
3	0	2305,00	3,11160779
3	0	2310,00	3,1113596
3	0	2315,00	3,11147404
3	0	2320,00	3,11126399
3	0	2325,00	3,11134052
3	0	2330,00	3,1113596
3	0	2335,00	3,11134052
3	0	2340,00	3,11120677
3	0	2345,00	3,11116862
3	0	2350,00	3,11116862
3	0	2355,00	3,11114955
3	0	2360,00	3,11107302
3	0	2365,00	3,11122584
3	0	2370,00	3,11107302
3	0	2375,00	3,11111116
3	0	2380,00	3,11095858
3	0	2385,00	3,11107302
3	0	2390,00	3,1108439
3	0	2395,00	3,11078668
3	0	2400,00	3,11080575
3	0	2405,00	3,11063385
3	0	2410,00	3,1108439
3	0	2415,00	3,11071038
3	0	2420,00	3,11063385
3	0	2425,00	3,11071038
3	0	2430,00	3,11061478
3	0	2435,00	3,110672
3	0	2440,00	3,11051941
3	0	2445,00	3,11055756
3	0	2450,00	3,11044288
3	0	2455,00	3,11051941
3	0	2460,00	3,1104238
3	0	2465,00	3,11048126
3	0	2470,00	3,11027122
3	0	2475,00	3,11023283
3	0	2480,00	3,11021376
3	0	2485,00	3,11027122
3	0	2490,00	3,11023283
3	0	2495,00	3,11029029
3	0	2500,00	3,11021376
3	0	2505,00	3,11008024
3	0	2510,00	3,11013746
3	0	2515,00	3,11000371
3	0	2520,00	3,10994649
3	0	2525,00	3,10998464
3	0	2530,00	3,11000371
3	0	2535,00	3,10992742
3	0	2540,00	3,10992742
3	0	2545,00	3,10985112
3	0	2550,00	3,10983181
3	0	2555,00	3,10973644
3	0	2560,00	3,10967922
3	0	2565,00	3,10979366
3	0	2570,00	3,10958362
3	0	2575,00	3,10964108
3	0	2580,00	3,10958362
3	0	2585,00	3,1095264
3	0	2590,00	3,10941172
3	0	2595,00	3,10966015
3	0	2600,00	3,10933542
3	0	2605,00	3,1094501
3	0	2610,00	3,10941172
3	0	2615,00	3,10931635
3	0	2620,00	3,10924006
3	0	2625,00	3,10933542
3	0	2630,00	3,10931635
3	0	2635,00	3,10922098
3	0	2640,00	3,1091826
3	0	2645,00	3,1091063
3	0	2650,00	3,10912538
3	0	2655,00	3,10901093
3	0	2660,00	3,10903001
3	0	2665,00	3,10903001
3	0	2670,00	3,10899162
3	0	2675,00	3,10899162
3	0	2680,00	3,10891533
3	0	2685,00	3,10885811
3	0	2690,00	3,10878181
3	0	2695,00	3,1087625
3	0	2700,00	3,10885811
3	0	2705,00	3,10878181
3	0	2710,00	3,10880089
3	0	2715,00	3,10866714
3	0	2720,00	3,10872436
3	0	2725,00	3,10862899
3	0	2730,00	3,10860991
3	0	2735,00	3,10855246
3	0	2740,00	3,10839987
3	0	2745,00	3,10838079
3	0	2750,00	3,10843801
3	0	2755,00	3,10839987
3	0	2760,00	3,10838079
3	0	2765,00	3,10830426
3	0	2770,00	3,10843801
3	0	2775,00	3,10826612
3	0	2780,00	3,10824704
3	0	2785,00	3,10830426
3	0	2790,00	3,10811329
3	0	2795,00	3,10818982
3	0	2800,00	3,10809422
3	0	2805,00	3,10803699
3	0	2810,00	3,10809422
3	0	2815,00	3,10805607
3	0	2820,00	3,10788417
3	0	2825,00	3,10788417
3	0	2830,00	3,10788417
3	0	2835,00	3,10790324
3	0	2840,00	3,1076932
3	0	2845,00	3,10794163
3	0	2850,00	3,10759783
3	0	2855,00	3,10771227
3	0	2860,00	3,10763597
3	0	2865,00	3,10765505
3	0	2870,00	3,10757875
3	0	2875,00	3,10755968
3	0	2880,00	3,10750222
3	0	2885,00	3,1076169
3	0	2890,00	3,10738778
3	0	2895,00	3,10738778
3	0	2900,00	3,10742593
3	0	2905,00	3,10731149
3	0	2910,00	3,10740685
3	0	2915,00	3,10729241
3	0	2920,00	3,10729241
3	0	2925,00	3,10723495
3	0	2930,00	3,10717773
3	0	2935,00	3,10723495
3	0	2940,00	3,10723495
3	0	2945,00	3,10713959
3	0	2950,00	3,10698676
3	0	2955,00	3,10706306
3	0	2960,00	3,10685301
3	0	2965,00	3,10706306
3	0	2970,00	3,10689139
3	0	2975,00	3,10700583
3	0	2980,00	3,10692954
3	0	2985,00	3,10687232
3	0	2990,00	3,10675764
3	0	2995,00	3,10692954
3	0	3000,00	3,10675764
3	0	3005,00	3,10662389
3	0	3010,00	3,10666227
3	0	3015,00	3,10656667
3	0	3020,00	3,10650945
3	0	3025,00	3,10662389
3	0	3030,00	3,10654759
3	0	3035,00	3,10643291
3	0	3040,00	3,10652852
3	0	3045,00	3,10645223
3	0	3050,00	3,1064713
3	0	3055,00	3,10635662
3	0	3060,00	3,10622287
3	0	3065,00	3,10641384
3	0	3070,00	3,10620379
3	0	3075,00	3,10631847
3	0	3080,00	3,10620379
3	0	3085,00	3,10614657
3	0	3090,00	3,10620379
3	0	3095,00	3,10610843
3	0	3100,00	3,10597467
3	0	3105,00	3,10605121
3	0	3110,00	3,10603213
3	0	3115,00	3,10605121
3	0	3120,00	3,10584116
3	0	3125,00	3,10593653
3	0	3130,00	3,10589838
3	0	3135,00	3,10587931
3	0	3140,00	3,10591745
3	0	3145,00	3,10582209
3	0	3150,00	3,10584116
3	0	3155,00	3,10574555
3	0	3160,00	3,10574555
3	0	3165,00	3,10559297
3	0	3170,00	3,10555458
3	0	3175,00	3,10555458
3	0	3180,00	3,10555458
3	0	3185,00	3,10561204
3	0	3190,00	3,10544014
3	0	3195,00	3,10544014
3	0	3200,00	3,10540199
3	0	3205,00	3,10534453
3	0	3210,00	3,10540199
3	0	3215,00	3,10538292
3	0	3220,00	3,10534453
3	0	3225,00	3,10523009
3	0	3230,00	3,10536361
3	0	3235,00	3,10515356
3	0	3240,00	3,10524917
3	0	3245,00	3,10515356
3	0	3250,00	3,10505819
3	0	3255,00	3,10515356
3	0	3260,00	3,10517287
3	0	3265,00	3,10509634
3	0	3270,00	3,10494351
3	0	3275,00	3,10490537
3	0	3280,00	3,10482907
3	0	3285,00	3,10484815
3	0	3290,00	3,10475278
3	0	3295,00	3,10481
3	0	3300,00	3,10479093
3	0	3305,00	3,10479093
3	0	3310,00	3,1046381
3	0	3315,00	3,10479093
3	0	3320,00	3,1046381
3	0	3325,00	3,10459995
3	0	3330,00	3,10465717
3	0	3335,00	3,10465717
3	0	3340,00	3,10444713
3	0	3345,00	3,10454273
3	0	3350,00	3,10438991
3	0	3355,00	3,10440898
3	0	3360,00	3,10431337
3	0	3365,00	3,10437083
3	0	3370,00	3,10427523
3	0	3375,00	3,10425615
3	0	3380,00	3,1042943
3	0	3385,00	3,10431337
3	0	3390,00	3,10417986
3	0	3395,00	3,10419893
3	0	3400,00	3,1042943
3	0	3405,00	3,10414171
3	0	3410,00	3,10410333
3	0	3415,00	3,10396981
3	0	3420,00	3,10400796
3	0	3425,00	3,10398889
3	0	3430,00	3,10385513
3	0	3435,00	3,10393167
3	0	3440,00	3,10377884
3	0	3445,00	3,10385513
3	0	3450,00	3,10379791
3	0	3455,00	3,10387421
3	0	3460,00	3,10379791
3	0	3465,00	3,10368347
3	0	3470,00	3,10366416
3	0	3475,00	3,10377884
3	0	3480,00	3,10360694
3	0	3485,00	3,1034925
3	0	3490,00	3,10360694
3	0	3495,00	3,10356879
3	0	3500,00	3,1034925
3	0	3505,00	3,10351157
3	0	3510,00	3,1034925
3	0	3515,00	3,10347342
3	0	3520,00	3,10345411
3	0	3525,00	3,10333967
3	0	3530,00	3,1033206
3	0	3535,00	3,10326338
3	0	3540,00	3,10333967
3	0	3545,00	3,10333967
3	0	3550,00	3,10318685
3	0	3555,00	3,10326338
3	0	3560,00	3,10320592
3	0	3565,00	3,10309148
3	0	3570,00	3,1030724
3	0	3575,00	3,1029768
3	0	3580,00	3,1030724
3	0	3585,00	3,10316777
3	0	3590,00	3,10295773
3	0	3595,00	3,10293865
3	0	3600,00	3,10291958