File: Experimentelles/Rohdaten/Batterietests/AlteZelle/Studenten_Batterietests/Sonstige/ZView-Export/S vs Li_01_OCV_C02_loop0.txt
EC-Lab ASCII FILE
Nb header lines : 3
mode	error	time/s	Ewe/V
3	1	0,00	2,53045058
3	0	5,00	2,52724648
3	0	10,00	2,5240612
3	0	15,00	2,52102852
3	0	20,00	2,51801491
3	0	25,00	2,51488686
3	0	30,00	2,5117588
3	0	35,00	2,50880241
3	0	40,00	2,50584602
3	0	45,00	2,50296593
3	0	50,00	2,50004768
3	0	55,00	2,49712944
3	0	60,00	2,49434471
3	0	65,00	2,4916935
3	0	70,00	2,48898506
3	0	75,00	2,48620057
3	0	80,00	2,48364472
3	0	85,00	2,48105073
3	0	90,00	2,47853303
3	0	95,00	2,47593904
3	0	100,00	2,4735167
3	0	105,00	2,47101808
3	0	110,00	2,4685576
3	0	115,00	2,46619248
3	0	120,00	2,46382737
3	0	125,00	2,46142411
3	0	130,00	2,45888734
3	0	135,00	2,45659852
3	0	140,00	2,45413804
3	0	145,00	2,45202088
3	0	150,00	2,44978929
3	0	155,00	2,44780564
3	0	160,00	2,44572687
3	0	165,00	2,4440484
3	0	170,00	2,44240808
3	0	175,00	2,44088221
3	0	180,00	2,43941355
3	0	185,00	2,43811655
3	0	190,00	2,43702936
3	0	195,00	2,4359231
3	0	200,00	2,43485498
3	0	205,00	2,43390131
3	0	210,00	2,433043
3	0	215,00	2,43205118
3	0	220,00	2,43128824
3	0	225,00	2,43031549
3	0	230,00	2,42972422
3	0	235,00	2,42920923
3	0	240,00	2,42850351
3	0	245,00	2,4280076
3	0	250,00	2,42732096
3	0	255,00	2,42676783
3	0	260,00	2,42623377
3	0	265,00	2,42579508
3	0	270,00	2,42526102
3	0	275,00	2,42478418
3	0	280,00	2,42419291
3	0	285,00	2,42392588
3	0	290,00	2,42342997
3	0	295,00	2,42316294
3	0	300,00	2,42266703
3	0	305,00	2,42222834
3	0	310,00	2,42190409
3	0	315,00	2,42161798
3	0	320,00	2,42125559
3	0	325,00	2,42098856
3	0	330,00	2,42056894
3	0	335,00	2,42034006
3	0	340,00	2,41997766
3	0	345,00	2,41971064
3	0	350,00	2,4195199
3	0	355,00	2,41915751
3	0	360,00	2,41890955
3	0	365,00	2,41866159
3	0	370,00	2,41850901
3	0	375,00	2,4182229
3	0	380,00	2,4180131
3	0	385,00	2,41768885
3	0	390,00	2,41751719
3	0	395,00	2,41738367
3	0	400,00	2,41702127
3	0	405,00	2,41684961
3	0	410,00	2,41683054
3	0	415,00	2,41633463
3	0	420,00	2,41633463
3	0	425,00	2,41622019
3	0	430,00	2,41595316
3	0	435,00	2,4157052
3	0	440,00	2,41560984
3	0	445,00	2,41538095
3	0	450,00	2,41524744
3	0	455,00	2,41509485
3	0	460,00	2,41496134
3	0	465,00	2,41467524
3	0	470,00	2,41454172
3	0	475,00	2,41440821
3	0	480,00	2,41421747
3	0	485,00	2,41410303
3	0	490,00	2,41410303
3	0	495,00	2,41389322
3	0	500,00	2,41370249
3	0	505,00	2,41362619
3	0	510,00	2,41347361
3	0	515,00	2,41322565
3	0	520,00	2,4132638
3	0	525,00	2,41305399
3	0	530,00	2,41301584
3	0	535,00	2,41272974
3	0	540,00	2,41257715
3	0	545,00	2,41253901
3	0	550,00	2,41242456
3	0	555,00	2,4123292
3	0	560,00	2,4122529
3	0	565,00	2,41200495
3	0	570,00	2,41200495
3	0	575,00	2,41189051
3	0	580,00	2,41183329
3	0	585,00	2,41173792
3	0	590,00	2,41156626
3	0	595,00	2,41133738
3	0	600,00	2,41143274
3	0	605,00	2,41120386
3	0	610,00	2,41120386
3	0	615,00	2,41101313
3	0	620,00	2,4110322
3	0	625,00	2,41089869
3	0	630,00	2,4106698
3	0	635,00	2,41061258
3	0	640,00	2,41059351
3	0	645,00	2,41047907
3	0	650,00	2,41040277
3	0	655,00	2,41028833
3	0	660,00	2,41036463
3	0	665,00	2,41007853
3	0	670,00	2,41007853
3	0	675,00	2,40992594
3	0	680,00	2,40992594
3	0	685,00	2,40979242
3	0	690,00	2,4097352
3	0	695,00	2,40962076
3	0	700,00	2,40948725
3	0	705,00	2,40946817
3	0	710,00	2,40952539
3	0	715,00	2,40937281
3	0	720,00	2,40922022
3	0	725,00	2,40925837
3	0	730,00	2,40906763
3	0	735,00	2,4090867
3	0	740,00	2,40893412
3	0	745,00	2,40897226
3	0	750,00	2,4088769
3	0	755,00	2,4088006
3	0	760,00	2,40878153
3	0	765,00	2,40870523
3	0	770,00	2,40868616
3	0	775,00	2,40853357
3	0	780,00	2,40849543
3	0	785,00	2,40830469
3	0	790,00	2,40840006
3	0	795,00	2,4082284
3	0	800,00	2,40820932
3	0	805,00	2,40819025
3	0	810,00	2,40798044
3	0	815,00	2,407866
3	0	820,00	2,40782785
3	0	825,00	2,407866
3	0	830,00	2,40771341
3	0	835,00	2,40782785
3	0	840,00	2,40759897
3	0	845,00	2,40765619
3	0	850,00	2,40748453
3	0	855,00	2,4075036
3	0	860,00	2,40748453
3	0	865,00	2,40738916
3	0	870,00	2,40738916
3	0	875,00	2,4072938
3	0	880,00	2,40727472
3	0	885,00	2,40717936
3	0	890,00	2,40708399
3	0	895,00	2,40704584
3	0	900,00	2,4069314
3	0	905,00	2,4069314
3	0	910,00	2,40691233
3	0	915,00	2,40687418
3	0	920,00	2,40674067
3	0	925,00	2,40674067
3	0	930,00	2,40668344
3	0	935,00	2,40668344
3	0	940,00	2,40658808
3	0	945,00	2,40658808
3	0	950,00	2,40649271
3	0	955,00	2,40643549
3	0	960,00	2,40632105
3	0	965,00	2,40632105
3	0	970,00	2,40624475
3	0	975,00	2,40613031
3	0	980,00	2,40614939
3	0	985,00	2,40614939
3	0	990,00	2,40607309
3	0	995,00	2,40603495
3	0	1000,00	2,4059968
3	0	1005,00	2,40603495
3	0	1010,00	2,40574884
3	0	1015,00	2,40588236
3	0	1020,00	2,40569162
3	0	1025,00	2,40567255
3	0	1030,00	2,40567255
3	0	1035,00	2,4057107
3	0	1040,00	2,40567255
3	0	1045,00	2,4056344
3	0	1050,00	2,40550089
3	0	1055,00	2,40548182
3	0	1060,00	2,40546274
3	0	1065,00	2,40540552
3	0	1070,00	2,40546274
3	0	1075,00	2,40529108
3	0	1080,00	2,40525293
3	0	1085,00	2,40521479
3	0	1090,00	2,4050622
3	0	1095,00	2,40508127
3	0	1100,00	2,40508127
3	0	1105,00	2,40510035
3	0	1110,00	2,40504313
3	0	1115,00	2,40510035
3	0	1120,00	2,40481424
3	0	1125,00	2,40490961
3	0	1130,00	2,40479541
3	0	1135,00	2,40471911
3	0	1140,00	2,40479541
3	0	1145,00	2,40460467
3	0	1150,00	2,4045856
3	0	1155,00	2,40466189
3	0	1160,00	2,40460467
3	0	1165,00	2,4045856
3	0	1170,00	2,40450931
3	0	1175,00	2,40441394
3	0	1180,00	2,40450931
3	0	1185,00	2,40431857
3	0	1190,00	2,40435672
3	0	1195,00	2,40420413
3	0	1200,00	2,40424228
3	0	1205,00	2,40431857
3	0	1210,00	2,40414691
3	0	1215,00	2,40408969
3	0	1220,00	2,40412784
3	0	1225,00	2,40410876
3	0	1230,00	2,40387988
3	0	1235,00	2,40399432
3	0	1240,00	2,40389895
3	0	1245,00	2,40399432
3	0	1250,00	2,40386081
3	0	1255,00	2,40374637
3	0	1260,00	2,40378451
3	0	1265,00	2,40370822
3	0	1270,00	2,40376544
3	0	1275,00	2,40361285
3	0	1280,00	2,40355563
3	0	1285,00	2,40344119
3	0	1290,00	2,40346026
3	0	1295,00	2,40351748
3	0	1300,00	2,40346026
3	0	1305,00	2,40338397
3	0	1310,00	2,40332675
3	0	1315,00	2,40332675
3	0	1320,00	2,40338397
3	0	1325,00	2,40325046
3	0	1330,00	2,40323138
3	0	1335,00	2,40325046
3	0	1340,00	2,40315509
3	0	1345,00	2,40323138
3	0	1350,00	2,4030025
3	0	1355,00	2,40307879
3	0	1360,00	2,40311694
3	0	1365,00	2,40292621
3	0	1370,00	2,40288806
3	0	1375,00	2,40292621
3	0	1380,00	2,40288806
3	0	1385,00	2,40277362
3	0	1390,00	2,40281177
3	0	1395,00	2,40277362
3	0	1400,00	2,40275455
3	0	1405,00	2,40269732
3	0	1410,00	2,40273547
3	0	1415,00	2,40262103
3	0	1420,00	2,40258288
3	0	1425,00	2,40250659
3	0	1430,00	2,40250659
3	0	1435,00	2,40237308
3	0	1440,00	2,40256381
3	0	1445,00	2,40233493
3	0	1450,00	2,40231586
3	0	1455,00	2,40223956
3	0	1460,00	2,40218234
3	0	1465,00	2,40218234
3	0	1470,00	2,40218234
3	0	1475,00	2,40218234
3	0	1480,00	2,40210605
3	0	1485,00	2,40201068
3	0	1490,00	2,40202975
3	0	1495,00	2,40197253
3	0	1500,00	2,40197253
3	0	1505,00	2,40193439
3	0	1510,00	2,40191531
3	0	1515,00	2,4017818
3	0	1520,00	2,40187716
3	0	1525,00	2,40189624
3	0	1530,00	2,40172458
3	0	1535,00	2,4017818
3	0	1540,00	2,40174365
3	0	1545,00	2,40168643
3	0	1550,00	2,40164828
3	0	1555,00	2,40159106
3	0	1560,00	2,40161014
3	0	1565,00	2,40155292
3	0	1570,00	2,40145755
3	0	1575,00	2,40147662
3	0	1580,00	2,4014194
3	0	1585,00	2,40132403
3	0	1590,00	2,40147662
3	0	1595,00	2,40122867
3	0	1600,00	2,40134311
3	0	1605,00	2,40120959
3	0	1610,00	2,40115237
3	0	1615,00	2,40122867
3	0	1620,00	2,40103793
3	0	1625,00	2,40122867
3	0	1630,00	2,40101886
3	0	1635,00	2,40103793
3	0	1640,00	2,40103793
3	0	1645,00	2,40101886
3	0	1650,00	2,401057
3	0	1655,00	2,40090442
3	0	1660,00	2,40094256
3	0	1665,00	2,40092349
3	0	1670,00	2,4007709
3	0	1675,00	2,40071368
3	0	1680,00	2,40073276
3	0	1685,00	2,40080905
3	0	1690,00	2,40069461
3	0	1695,00	2,40069461
3	0	1700,00	2,40067554
3	0	1705,00	2,40073276
3	0	1710,00	2,40067554
3	0	1715,00	2,40052295
3	0	1720,00	2,40063739
3	0	1725,00	2,40052295
3	0	1730,00	2,4004848
3	0	1735,00	2,40037036
3	0	1740,00	2,40033221
3	0	1745,00	2,40027499
3	0	1750,00	2,40031314
3	0	1755,00	2,40029407
3	0	1760,00	2,40016055
3	0	1765,00	2,40027499
3	0	1770,00	2,40014148
3	0	1775,00	2,40016055
3	0	1780,00	2,4001987
3	0	1785,00	2,40002704
3	0	1790,00	2,40006518
3	0	1795,00	2,40008426
3	0	1800,00	2,40010333
3	0	1805,00	2,39998889
3	0	1810,00	2,39996982
3	0	1815,00	2,3998363
3	0	1820,00	2,39981723
3	0	1825,00	2,39977908
3	0	1830,00	2,39985538
3	0	1835,00	2,39979815
3	0	1840,00	2,39974093
3	0	1845,00	2,39968371
3	0	1850,00	2,39977908
3	0	1855,00	2,39964557
3	0	1860,00	2,39966464
3	0	1865,00	2,39958835
3	0	1870,00	2,3995502
3	0	1875,00	2,39956927
3	0	1880,00	2,39937854
3	0	1885,00	2,39949298
3	0	1890,00	2,39943576
3	0	1895,00	2,39939761
3	0	1900,00	2,39947391
3	0	1905,00	2,39934039
3	0	1910,00	2,39939761
3	0	1915,00	2,3992641
3	0	1920,00	2,39928317
3	0	1925,00	2,3992641
3	0	1930,00	2,39930224
3	0	1935,00	2,3991878
3	0	1940,00	2,39907336
3	0	1945,00	2,39911151
3	0	1950,00	2,39924502
3	0	1955,00	2,39903522
3	0	1960,00	2,39901614
3	0	1965,00	2,39895892
3	0	1970,00	2,39907336
3	0	1975,00	2,39892077
3	0	1980,00	2,39895892
3	0	1985,00	2,3989017
3	0	1990,00	2,3989017
3	0	1995,00	2,39878726
3	0	2000,00	2,39878726
3	0	2005,00	2,39874911
3	0	2010,00	2,39855838
3	0	2015,00	2,39863467
3	0	2020,00	2,39865375
3	0	2025,00	2,3986156
3	0	2030,00	2,39846301
3	0	2035,00	2,39850116
3	0	2040,00	2,39855838
3	0	2045,00	2,3985393
3	0	2050,00	2,39842486
3	0	2055,00	2,39836764
3	0	2060,00	2,3983295
3	0	2065,00	2,3983295
3	0	2070,00	2,39836764
3	0	2075,00	2,39836764
3	0	2080,00	2,3983295
3	0	2085,00	2,3982532
3	0	2090,00	2,39821506
3	0	2095,00	2,39827228
3	0	2100,00	2,39821506
3	0	2105,00	2,39821506
3	0	2110,00	2,39813876
3	0	2115,00	2,39819598
3	0	2120,00	2,39789081
3	0	2125,00	2,39802432
3	0	2130,00	2,39804339
3	0	2135,00	2,39800525
3	0	2140,00	2,39787173
3	0	2145,00	2,39785266
3	0	2150,00	2,39787173
3	0	2155,00	2,39789081
3	0	2160,00	2,39785266
3	0	2165,00	2,39785266
3	0	2170,00	2,39777637
3	0	2175,00	2,39775729
3	0	2180,00	2,39777637
3	0	2185,00	2,39773822
3	0	2190,00	2,39770007
3	0	2195,00	2,39749026
3	0	2200,00	2,39750934
3	0	2205,00	2,39752841
3	0	2210,00	2,39764285
3	0	2215,00	2,39743304
3	0	2220,00	2,39750934
3	0	2225,00	2,39749026
3	0	2230,00	2,39729953
3	0	2235,00	2,39747119
3	0	2240,00	2,39735675
3	0	2245,00	2,3973186
3	0	2250,00	2,39737582
3	0	2255,00	2,3973186
3	0	2260,00	2,3973186
3	0	2265,00	2,39724231
3	0	2270,00	2,39712787
3	0	2275,00	2,39718509
3	0	2280,00	2,39712787
3	0	2285,00	2,39714694
3	0	2290,00	2,39710879
3	0	2295,00	2,3970325
3	0	2300,00	2,39708972
3	0	2305,00	2,39693713
3	0	2310,00	2,39701343
3	0	2315,00	2,39684176
3	0	2320,00	2,39689898
3	0	2325,00	2,39691806
3	0	2330,00	2,39680362
3	0	2335,00	2,39676547
3	0	2340,00	2,39672732
3	0	2345,00	2,39676547
3	0	2350,00	2,39676547
3	0	2355,00	2,39661288
3	0	2360,00	2,39663196
3	0	2365,00	2,39676547
3	0	2370,00	2,39663196
3	0	2375,00	2,39657474
3	0	2380,00	2,39659381
3	0	2385,00	2,39653659
3	0	2390,00	2,39653659
3	0	2395,00	2,39655566
3	0	2400,00	2,39655566
3	0	2405,00	2,396384
3	0	2410,00	2,39630771
3	0	2415,00	2,39634585
3	0	2420,00	2,39626956
3	0	2425,00	2,39626956
3	0	2430,00	2,39621234
3	0	2435,00	2,39630771
3	0	2440,00	2,39619327
3	0	2445,00	2,3960979
3	0	2450,00	2,39617419
3	0	2455,00	2,39605975
3	0	2460,00	2,39619327
3	0	2465,00	2,39621234
3	0	2470,00	2,39613605
3	0	2475,00	2,3960216
3	0	2480,00	2,39594531
3	0	2485,00	2,39596438
3	0	2490,00	2,39596438
3	0	2495,00	2,39592624
3	0	2500,00	2,39590716
3	0	2505,00	2,39588809
3	0	2510,00	2,39604068
3	0	2515,00	2,3958118
3	0	2520,00	2,39575458
3	0	2525,00	2,39575458
3	0	2530,00	2,39571643
3	0	2535,00	2,39569736
3	0	2540,00	2,39560199
3	0	2545,00	2,39550662
3	0	2550,00	2,39558291
3	0	2555,00	2,39558291
3	0	2560,00	2,39552569
3	0	2565,00	2,39552569
3	0	2570,00	2,39543033
3	0	2575,00	2,39546847
3	0	2580,00	2,39556384
3	0	2585,00	2,39546847
3	0	2590,00	2,39531589
3	0	2595,00	2,39539218
3	0	2600,00	2,39523959
3	0	2605,00	2,39533496
3	0	2610,00	2,39529681
3	0	2615,00	2,3951633
3	0	2620,00	2,39522052
3	0	2625,00	2,39514422
3	0	2630,00	2,39518237
3	0	2635,00	2,3951633
3	0	2640,00	2,3951633
3	0	2645,00	2,39501071
3	0	2650,00	2,39501071
3	0	2655,00	2,39510608
3	0	2660,00	2,39506793
3	0	2665,00	2,39506793
3	0	2670,00	2,39493442
3	0	2675,00	2,39493442
3	0	2680,00	2,3948772
3	0	2685,00	2,39485812
3	0	2690,00	2,39476275
3	0	2695,00	2,39483905
3	0	2700,00	2,39485812
3	0	2705,00	2,39483905
3	0	2710,00	2,39483905
3	0	2715,00	2,39468646
3	0	2720,00	2,39462924
3	0	2725,00	2,39476275
3	0	2730,00	2,39466739
3	0	2735,00	2,39466739
3	0	2740,00	2,39457202
3	0	2745,00	2,39455295
3	0	2750,00	2,39457202
3	0	2755,00	2,3945148
3	0	2760,00	2,39449573
3	0	2765,00	2,39443851
3	0	2770,00	2,39445758
3	0	2775,00	2,39430499
3	0	2780,00	2,39428592
3	0	2785,00	2,39434314
3	0	2790,00	2,39432406
3	0	2795,00	2,39434314
3	0	2800,00	2,39424777
3	0	2805,00	2,3942287
3	0	2810,00	2,39426684
3	0	2815,00	2,39426684
3	0	2820,00	2,39411426
3	0	2825,00	2,39411426
3	0	2830,00	2,39419055
3	0	2835,00	2,39411426
3	0	2840,00	2,39409518
3	0	2845,00	2,39401889
3	0	2850,00	2,39407611
3	0	2855,00	2,39398074
3	0	2860,00	2,39382815
3	0	2865,00	2,39398074
3	0	2870,00	2,39390445
3	0	2875,00	2,39375186
3	0	2880,00	2,39382815
3	0	2885,00	2,39390445
3	0	2890,00	2,39384723
3	0	2895,00	2,39377093
3	0	2900,00	2,39373279
3	0	2905,00	2,39365649
3	0	2910,00	2,39371371
3	0	2915,00	2,39365649
3	0	2920,00	2,39361835
3	0	2925,00	2,39365649
3	0	2930,00	2,39352298
3	0	2935,00	2,39356112
3	0	2940,00	2,39348483
3	0	2945,00	2,3935802
3	0	2950,00	2,39338946
3	0	2955,00	2,39338946
3	0	2960,00	2,39337039
3	0	2965,00	2,39344668
3	0	2970,00	2,39333224
3	0	2975,00	2,39335132
3	0	2980,00	2,39333224
3	0	2985,00	2,39327502
3	0	2990,00	2,39333224
3	0	2995,00	2,39325595
3	0	3000,00	2,39319873
3	0	3005,00	2,3932178
3	0	3010,00	2,39316058
3	0	3015,00	2,39310336
3	0	3020,00	2,39304614
3	0	3025,00	2,39304614
3	0	3030,00	2,39298892
3	0	3035,00	2,39302707
3	0	3040,00	2,39298892
3	0	3045,00	2,39300799
3	0	3050,00	2,39295077
3	0	3055,00	2,39289355
3	0	3060,00	2,39295077
3	0	3065,00	2,39285541
3	0	3070,00	2,39281726
3	0	3075,00	2,39283633
3	0	3080,00	2,39287448
3	0	3085,00	2,39281726
3	0	3090,00	2,39276004
3	0	3095,00	2,39268374
3	0	3100,00	2,39277911
3	0	3105,00	2,39266467
3	0	3110,00	2,3926456
3	0	3115,00	2,39266467
3	0	3120,00	2,39249301
3	0	3125,00	2,3925693
3	0	3130,00	2,3925693
3	0	3135,00	2,39253116
3	0	3140,00	2,39255023
3	0	3145,00	2,39243579
3	0	3150,00	2,39243579
3	0	3155,00	2,39245486
3	0	3160,00	2,39249301
3	0	3165,00	2,3922832
3	0	3170,00	2,39243579
3	0	3175,00	2,39226413
3	0	3180,00	2,39220691
3	0	3185,00	2,39226413
3	0	3190,00	2,39226413
3	0	3195,00	2,39222598
3	0	3200,00	2,39216876
3	0	3205,00	2,39211154
3	0	3210,00	2,39216876
3	0	3215,00	2,39209247
3	0	3220,00	2,39216876
3	0	3225,00	2,39193988
3	0	3230,00	2,39201617
3	0	3235,00	2,39190173
3	0	3240,00	2,39197803
3	0	3245,00	2,3919208
3	0	3250,00	2,3919208
3	0	3255,00	2,39184451
3	0	3260,00	2,39197803
3	0	3265,00	2,39184451
3	0	3270,00	2,39180636
3	0	3275,00	2,39174914
3	0	3280,00	2,39173007
3	0	3285,00	2,39178729
3	0	3290,00	2,39169192
3	0	3295,00	2,39169192
3	0	3300,00	2,39153934
3	0	3305,00	2,39155841
3	0	3310,00	2,3916347
3	0	3315,00	2,39150119
3	0	3320,00	2,39159656
3	0	3325,00	2,39148211
3	0	3330,00	2,39150119
3	0	3335,00	2,39150119
3	0	3340,00	2,39153934
3	0	3345,00	2,39142489
3	0	3350,00	2,39127231
3	0	3355,00	2,39142489
3	0	3360,00	2,39131045
3	0	3365,00	2,39119601
3	0	3370,00	2,39129138
3	0	3375,00	2,39125323
3	0	3380,00	2,39113879
3	0	3385,00	2,39104342
3	0	3390,00	2,39117694
3	0	3395,00	2,39121509
3	0	3400,00	2,39119601
3	0	3405,00	2,3910625
3	0	3410,00	2,39102435
3	0	3415,00	2,39108157
3	0	3420,00	2,39117694
3	0	3425,00	2,3909862
3	0	3430,00	2,39090991
3	0	3435,00	2,39102435
3	0	3440,00	2,39096713
3	0	3445,00	2,39094806
3	0	3450,00	2,39085269
3	0	3455,00	2,39100528
3	0	3460,00	2,39085269
3	0	3465,00	2,39089084
3	0	3470,00	2,39071918
3	0	3475,00	2,3907001
3	0	3480,00	2,39075732
3	0	3485,00	2,3907764
3	0	3490,00	2,39066195
3	0	3495,00	2,39068103
3	0	3500,00	2,39062381
3	0	3505,00	2,39058566
3	0	3510,00	2,39054751
3	0	3515,00	2,39052844
3	0	3520,00	2,39047122
3	0	3525,00	2,39058566
3	0	3530,00	2,39043307
3	0	3535,00	2,39035678
3	0	3540,00	2,39037585
3	0	3545,00	2,39050937
3	0	3550,00	2,39043307
3	0	3555,00	2,39045215
3	0	3560,00	2,39035678
3	0	3565,00	2,39037585
3	0	3570,00	2,39033771
3	0	3575,00	2,39029956
3	0	3580,00	2,39031863
3	0	3585,00	2,39028049
3	0	3590,00	2,39029956
3	0	3595,00	2,39022326
3	0	3600,00	2,39018512