File: Experimentelles/Rohdaten/Batterietests/AlteZelle/Studenten_Batterietests/Sonstige/ZView-Export/S vs Li_05_GCPL_C02_loop1.txt
EC-Lab ASCII FILE
Nb header lines : 3
mode	ox/red	error	control changes	Ns changes	counter inc.	Ns	time/s	control/V/mA	Ewe/V	dq/mA.h	<I>/mA	P/W	(Q-Qo)/mA.h	x	Capacity/mA.h
1	0	0	1	1	0	1	82050,01	-0,100000001	2,34276867	0	0	0	0	0	0
1	0	0	1	0	0	1	82270,01	-0,100000001	2,24660063	-0,0002777128064942857	-0,099974634519191552	0,000224603078	-0,0061082923941341645	0,00022790860191161558	0,0061082923941341645
1	0	0	1	0	0	1	82490,02	-0,100000001	2,23691154	-0,00027771290665782157	-0,099974670367861491	0,000223634488	-0,012217966615444931	0,00045586876165307654	0,012217966615444931
1	0	0	1	0	0	1	82710,02	-0,100000001	2,22672629	-0,0002777121893970503	-0,099974412157923558	0,00022261565	-0,018327630233833203	0,00068382852578524365	0,018327630233833203
1	0	0	1	0	0	1	82930,03	-0,100000001	2,2175138	-0,00027771234313812522	-0,099974467635129741	0,000221694761	-0,024437312474366944	0,00091178898473469581	0,024437312474366944
1	0	0	1	0	0	1	83150,03	-0,100000001	2,20681357	-0,00027771323539358045	-0,09997478908165952	0,00022062572	-0,030547001318498867	0,0011397496900732747	0,030547001318498867
1	0	0	1	0	0	1	83370,04	-0,100000001	2,1968956	-0,00027771340523246262	-0,099974850221285018	0,000219634312	-0,036656691307117376	0,0013677104381141872	0,036656691307117376
1	0	0	1	0	0	1	83590,04	-0,100000001	2,18867493	-0,00027771252537353168	-0,099974533358454349	0,000218811751	-0,042766371035034291	0,001595670803314527	0,042766371035034291
1	0	0	1	0	0	1	83810,04	-0,100000001	2,17530441	-0,00027771266606988176	-0,099974583757915034	0,000217475157	-0,048876047760629664	0,0018236310564942138	0,048876047760629664
1	0	0	1	0	0	1	84030,05	-0,100000001	2,163517	-0,00027771390029705232	-0,099975028069750605	0,000216297674	-0,0549857334815672	0,0020515916453022106	0,0549857334815672
1	0	0	1	0	0	1	84250,05	-0,100000001	2,14963174	-0,00027771485672808352	-0,099975372472387802	0,000214910237	-0,061095435298778368	0,0022795528346838192	0,061095435298778368
1	0	0	1	0	0	1	84470,06	-0,100000001	2,13679528	-0,00027771278777097661	-0,099974627941870362	0,000213625317	-0,067205142420747482	0,0025075142219930787	0,067205142420747482
1	0	0	1	0	0	1	84690,06	-0,100000001	2,12552285	-0,00027771465728638902	-0,099975300952955213	0,000212499785	-0,073314843947414144	0,00273547540053408	0,073314843947414144
1	0	0	1	0	0	1	84910,07	-0,100000001	2,11694002	-0,0002777142001564304	-0,099975136306789466	0,000211641367	-0,079424557032546458	0,002963437010336976	0,079424557032546458
1	0	0	1	0	0	1	85130,07	-0,100000001	2,10757494	-0,00027771426798361872	-0,099975160434298291	0,00021070514	-0,085534267279849114	0,0031913985142566323	0,085534267279849114
1	0	0	1	0	0	1	85350,07	-0,100000001	2,09859133	-0,00027771472115400765	-0,099975323573577664	0,000209807346	-0,09164398527238336	0,0034193603071612922	0,09164398527238336
1	0	0	1	0	0	1	85570,08	-0,100000001	2,09098101	-0,00027771560335490438	-0,09997564120995968	0,000209047168	-0,097753703838001766	0,0036473221214484928	0,097753703838001766
1	0	0	1	0	0	1	85790,08	-0,100000001	2,0828557	-0,00027771462762604157	-0,099975290276604966	0,000208234109	-0,10386343020178032	0,0038752842266955328	0,10386343020178032
1	0	0	1	0	0	1	86010,09	-0,100000001	2,07549357	-0,00027771504767859978	-0,099975441491373824	0,000207498393	-0,10997316281521058	0,0041032465651254816	0,10997316281521058
1	0	0	1	0	0	1	86230,09	-0,100000001	2,06790233	-0,00027771359748351907	-0,099974919395382515	0,000206738361	-0,11608287998583608	0,0043312083273636218	0,11608287998583608
1	0	0	1	0	0	1	86450,10	-0,100000001	2,06115031	-0,00027771489299088717	-0,099975385442942349	0,000206064302	-0,12219259544542832	0,0045591700257608096	0,12219259544542832
1	0	0	1	0	0	1	86670,10	-0,100000001	2,05600047	-0,00027771442574221229	-0,099975217226269466	0,000205549091	-0,12830231643879525	0,0047871319306305715	0,12830231643879525
1	0	0	1	0	0	1	86890,10	-0,100000001	2,05260539	-0,00027771494800431862	-0,099975405252041626	0,000205210061	-0,13441204207806237	0,0050150940088451168	0,13441204207806237
1	0	0	1	0	0	1	87110,11	-0,100000001	2,0508697	-0,00027771536267755757	-0,099975554846859277	0,000205036835	-0,14052178116018146	0,0052430565886305421	0,14052178116018146
1	0	0	1	0	0	1	87330,11	-0,100000001	2,05016398	-0,00027771439802977773	-0,099975207621255667	0,000204965574	-0,14663150805431754	0,0054710187136659354	0,14663150805431754
1	0	0	1	0	0	1	87550,12	-0,100000001	2,05025935	-0,00027771493836782045	-0,099975402140270912	0,000204975498	-0,15274123484034403	0,0056989808346676147	0,15274123484034403
1	0	0	1	0	0	1	87770,12	-0,100000001	2,05010676	-0,00027771452595459088	-0,09997525335904096	0,000204959942	-0,15885095466980774	0,005926942696110583	0,15885095466980774
1	0	0	1	0	0	1	87990,13	-0,100000001	2,05081248	-0,00027771465201841459	-0,099975298684092262	0,000205030592	-0,16496067182977939	0,0061549044579512115	0,16496067182977939
1	0	0	1	0	0	1	88210,13	-0,100000001	2,05144191	-0,00027771642443620493	-0,099975936743049203	0,000205094824	-0,17107040622884928	0,0063828668630057766	0,17107040622884928
1	0	0	1	0	0	1	88430,14	-0,100000001	2,0534637	-0,00027771610514902403	-0,099975822095225818	0,000205296717	-0,1771801610026983	0,006610830028270743	0,1771801610026983
1	0	0	1	0	0	1	88650,14	-0,100000001	2,05487514	-0,00027771574370231894	-0,099975692054961203	0,000205437565	-0,18328991532574525	0,00683879317671568	0,18328991532574525
1	0	0	1	0	0	1	88870,14	-0,100000001	2,05567622	-0,00027771561078478896	-0,099975644206759821	0,000205517557	-0,18939964955307597	0,007066755575362423	0,18939964955307597
1	0	0	1	0	0	1	89090,15	-0,100000001	2,0581367	-0,00027771503069086205	-0,099975435096731955	0,000205763106	-0,19550938007642998	0,0072947178358088166	0,19550938007642998
1	0	0	1	0	0	1	89310,15	-0,100000001	2,05939555	-0,00027771470806209574	-0,099975318860582541	0,000205888733	-0,20161910713809898	0,0075226799670950886	0,20161910713809898
1	0	0	1	0	0	1	89530,16	-0,100000001	2,06034923	-0,00027771472070117792	-0,099975323409689306	0,000205984077	-0,20772882209343706	0,0077506416466778752	0,20772882209343706
1	0	0	1	0	0	1	89750,16	-0,100000001	2,06103587	-0,00027771351624321606	-0,099974890065655066	0,000206051831	-0,21383853920042717	0,0079786034065416934	0,21383853920042717
1	0	0	1	0	0	1	89970,17	-0,100000001	2,06120753	-0,00027771462788350054	-0,099975290368124544	0,000206069817	-0,21994825589609389	0,0082065651510584819	0,21994825589609389
1	0	0	1	0	0	1	90190,17	-0,100000001	2,06168437	-0,00027771561617611187	-0,099975646146433882	0,000206118231	-0,22605798774707808	0,0084345274610405427	0,22605798774707808
1	0	0	1	0	0	1	90410,17	-0,100000001	2,0616653	-0,00027771529666375786	-0,099975530887998835	0,000206116078	-0,23216772098869942	0,0086624898229091456	0,23216772098869942
1	0	0	1	0	0	1	90630,18	-0,100000001	2,06172252	-0,00027771410856809882	-0,099975103045845414	0,000206120923	-0,2382774513859975	0,0088904520786522214	0,2382774513859975
1	0	0	1	0	0	1	90850,18	-0,100000001	2,06162715	-0,0002777135451688535	-0,099974900227289728	0,00020611097	-0,24438715949654944	0,0091184135028468365	0,24438715949654944
1	0	0	1	0	0	1	91070,19	-0,100000001	2,06149364	-0,00027771397187105485	-0,099975054045518886	0,000206097931	-0,25049686419272822	0,0093463747996465971	0,25049686419272822
1	0	0	1	0	0	1	91290,19	-0,100000001	2,06124568	-0,00027771397687205008	-0,099975056009797517	0,000206073149	-0,25660657439738166	0,009574336301974953	0,25660657439738166
1	0	0	1	0	0	1	91510,20	-0,100000001	2,06092143	-0,00027771451476216317	-0,099975249645247834	0,000206041135	-0,26271629427011622	0,0098022981650324134	0,26271629427011622
1	0	0	1	0	0	1	91730,20	-0,100000001	2,06044459	-0,00027771286304170883	-0,099974654838618854	0,000205992241	-0,2688259991024544	0,010030259466912467	0,2688259991024544
1	0	0	1	0	0	1	91950,20	-0,100000001	2,06038737	-0,00027771369569210544	-0,099974954413425574	0,000205987133	-0,27493570890315315	0,010258220954168731	0,27493570890315315
1	0	0	1	0	0	1	92170,21	-0,100000001	2,06006312	-0,00027771437249415453	-0,099975198057347546	0,000205955221	-0,28104541700193763	0,010486182377924285	0,28104541700193763
1	0	0	1	0	0	1	92390,21	-0,100000001	2,05975795	-0,00027771399337632787	-0,099975061746384294	0,000205924429	-0,28715512941093424	0,010714143962499646	0,28715512941093424
1	0	0	1	0	0	1	92610,22	-0,100000001	2,05926204	-0,00027771408571799594	-0,099975095192399859	0,000205874923	-0,29326483693292038	0,010942105364734078	0,29326483693292038
1	0	0	1	0	0	1	92830,22	-0,100000001	2,05909038	-0,00027771438419694701	-0,099975202643862694	0,000205857985	-0,29937454601912902	0,011170066825331755	0,29937454601912902
1	0	0	1	0	0	1	93050,23	-0,100000001	2,05880427	-0,00027771461138212019	-0,099975284269607898	0,000205829536	-0,30548426285619546	0,011398028575124358	0,30548426285619546
1	0	0	1	0	0	1	93270,23	-0,100000001	2,05830836	-0,00027771455370510614	-0,099975263293164582	0,000205779914	-0,31159398341479238	0,011625990463772267	0,31159398341479238
1	0	0	1	0	0	1	93490,24	-0,100000001	2,0581367	-0,00027771443594661021	-0,099975220899780096	0,00020576267	-0,3177036997894919	0,011853952196313339	0,3177036997894919
1	0	0	1	0	0	1	93710,24	-0,100000001	2,05777431	-0,00027771357900939053	-0,099974912539992154	0,00020572581	-0,32381339758652346	0,01208191323569664	0,32381339758652346
1	0	0	1	0	0	1	93930,24	-0,100000001	2,05725932	-0,00027771299110311603	-0,099974701138830208	0,000205673889	-0,3299230887803145	0,012309874028704162	0,3299230887803145
1	0	0	1	0	0	1	94150,25	-0,100000001	2,05680156	-0,00027771405191057261	-0,099975083021967974	0,000205628909	-0,33603278502101069	0,012537835010018496	0,33603278502101069
1	0	0	1	0	0	1	94370,25	-0,100000001	2,05661082	-0,00027771446652420694	-0,099975232164706406	0,000205610151	-0,34214249753852704	0,012765796598642877	0,34214249753852704
1	0	0	1	0	0	1	94590,26	-0,100000001	2,05548549	-0,00027771398957197862	-0,099975060208088858	0,000205497287	-0,3482522048132889	0,012993757991653038	0,3482522048132889
1	0	0	1	0	0	1	94810,26	-0,100000001	2,05470347	-0,00027771395706178413	-0,09997504850581399	0,000205419085	-0,35436191237643379	0,01322171939542316	0,35436191237643379
1	0	0	1	0	0	1	95030,27	-0,100000001	2,0540359	-0,00027771400167420509	-0,099975064653401574	0,000205352379	-0,36047162525962931	0,013449680997691525	0,36047162525962931
1	0	0	1	0	0	1	95250,27	-0,100000001	2,05353999	-0,00027771394963024394	-0,099975046202941107	0,000205302757	-0,36658133326478662	0,013677642417953723	0,36658133326478662
1	0	0	1	0	0	1	95470,27	-0,100000001	2,05268168	-0,00027771386105691395	-0,099975014318336256	0,000205216886	-0,37269103194413158	0,013905603490257322	0,37269103194413158
1	0	0	1	0	0	1	95690,28	-0,100000001	2,0518806	-0,00027771419254317882	-0,099975133575383757	0,000205137039	-0,37880073961780416	0,014133564898151378	0,37880073961780416
1	0	0	1	0	0	1	95910,28	-0,100000001	2,05119395	-0,0002777140697038008	-0,099975089054974669	0,000205068296	-0,38491044906095936	0,014361526372067213	0,38491044906095936
1	0	0	1	0	0	1	96130,29	-0,100000001	2,05033565	-0,00027771445135979187	-0,099975226448415834	0,000204982774	-0,39102016282107488	0,01458948800705464	0,39102016282107488
1	0	0	1	0	0	1	96350,29	-0,100000001	2,04968715	-0,00027771434940977232	-0,099975189794851686	0,000204917858	-0,39712988702874157	0,01481745003185425	0,39712988702874157
1	0	0	1	0	0	1	96570,30	-0,100000001	2,0490005	-0,00027771456416199606	-0,099975267424180864	0,000204849377	-0,40323960397767552	0,015045411785820778	0,40323960397767552
1	0	0	1	0	0	1	96790,30	-0,100000001	2,04774165	-0,00027771520799025891	-0,099975499203594496	0,000204723998	-0,40934932740514918	0,015273373781510336	0,40934932740514918
1	0	0	1	0	0	1	97010,30	-0,100000001	2,04732203	-0,00027771521248585648	-0,099975500783716237	0,000204682045	-0,41545905594327872	0,015501335967885334	0,41545905594327872
1	0	0	1	0	0	1	97230,31	-0,100000001	2,04634929	-0,00027771674362487264	-0,099976051667320051	0,000204585929	-0,42156880906091213	0,015729299071354669	0,42156880906091213
1	0	0	1	0	0	1	97450,31	-0,100000001	2,04573894	-0,00027771537865863904	-0,099975560269402739	0,000204523894	-0,42767855396368102	0,015957261868316368	0,42767855396368102
1	0	0	1	0	0	1	97670,32	-0,100000001	2,04505229	-0,00027771407056558461	-0,099975089371029901	0,000204454293	-0,43378827303605901	0,01618522370151145	0,43378827303605901
1	0	0	1	0	0	1	97890,32	-0,100000001	2,0443275	-0,00027771555279650621	-0,09997562328483671	0,000204382915	-0,43989799747218803	0,016413185734835293	0,43989799747218803
1	0	0	1	0	0	1	98110,33	-0,100000001	2,04297328	-0,00027771523885346118	-0,099975510312963904	0,000204247292	-0,44600773258238234	0,016641148166422867	0,44600773258238234
1	0	0	1	0	0	1	98330,33	-0,100000001	2,04236293	-0,00027771578595828678	-0,099975707267972851	0,000204186683	-0,45211747245847757	0,016869110775832605	0,45211747245847757
1	0	0	1	0	0	1	98550,34	-0,100000001	2,041085	-0,00027771601049767603	-0,099975787782825011	0,000204059077	-0,45822722089033197	0,017097073704469229	0,45822722089033197
1	0	0	1	0	0	1	98770,34	-0,100000001	2,03997874	-0,00027771598403900864	-0,099975778203192128	0,000203948468	-0,46433696389031686	0,017325036430435494	0,46433696389031686
1	0	0	1	0	0	1	98990,34	-0,100000001	2,03877711	-0,00027771459225316842	-0,099975277169174362	0,000203827309	-0,4704466940625904	0,017552998677782605	0,4704466940625904
1	0	0	1	0	0	1	99210,35	-0,100000001	2,03812861	-0,00027771575704465309	-0,099975696770818022	0,000203763324	-0,47655642860445696	0,017780961088165104	0,47655642860445696
1	0	0	1	0	0	1	99430,35	-0,100000001	2,03660274	-0,0002777154238782823	-0,099975576921165171	0,000203610529	-0,48266616019307558	0,018008923388357952	0,48266616019307558
1	0	0	1	0	0	1	99650,36	-0,100000001	2,0356493	-0,00027771587530523536	-0,09997573943223872	0,000203515548	-0,48877590626271712	0,018236886228857235	0,48877590626271712
1	0	0	1	0	0	1	99870,36	-0,100000001	2,03418064	-0,0002777150671908425	-0,09997544824097513	0,000203368123	-0,49488564460775149	0,01846484878114104	0,49488564460775149
1	0	0	1	0	0	1	100090,37	-0,100000001	2,03299809	-0,00027771497791384656	-0,099975416004128883	0,000203249831	-0,50099537231381133	0,0186928109364704	0,50099537231381133
1	0	0	1	0	0	1	100310,37	-0,100000001	2,03149128	-0,00027771438118442893	-0,099975201186948339	0,000203098753	-0,50710509312892102	0,018920772834689146	0,50710509312892102
1	0	0	1	0	0	1	100530,37	-0,100000001	2,02998447	-0,00027771571083159907	-0,09997568009604041	0,000202949072	-0,51321481742444442	0,019148734862766803	0,51321481742444442
1	0	0	1	0	0	1	100750,38	-0,100000001	2,02887821	-0,00027771481645603974	-0,099975358254060979	0,000202837822	-0,51932453781893293	0,01937669674529161	0,51932453781893293
1	0	0	1	0	0	1	100970,38	-0,100000001	2,0271616	-0,00027771462954663568	-0,099975290966986829	0,000202666066	-0,52543426987066778	0,019604659062763942	0,52543426987066778
1	0	0	1	0	0	1	101190,39	-0,100000001	2,02664661	-0,00027771403573618998	-0,099975076967701107	0,000202614145	-0,5315440027839913	0,019832621412383312	0,5315440027839913
1	0	0	1	0	0	1	101410,39	-0,100000001	2,02481556	-0,00027771459350403811	-0,099975277619914982	0,000202431504	-0,53765372158826797	0,020060583235575174	0,53765372158826797
1	0	0	1	0	0	1	101630,40	-0,100000001	2,02384281	-0,00027771445851400496	-0,099975229025045478	0,000202334151	-0,54376345277240358	0,020288545520676218	0,54376345277240358
1	0	0	1	0	0	1	101850,40	-0,100000001	2,02214527	-0,00027771380310133101	-0,099974993285982042	0,000202163967	-0,54987316650145677	0,020516507154504669	0,54987316650145677
1	0	0	1	0	0	1	102070,40	-0,100000001	2,02035236	-0,00027771435888235766	-0,09997519352962679	0,000201985124	-0,55598288158896358	0,020744468839018848	0,55598288158896358
1	0	0	1	0	0	1	102290,41	-0,100000001	2,01894093	-0,0002777140496845047	-0,0999750822217632	0,000201843781	-0,56209259238668531	0,020972430363475379	0,56209259238668531
1	0	0	1	0	0	1	102510,41	-0,100000001	2,01848316	-0,0002777139687409831	-0,099975052890637696	0,000201797957	-0,56820229864323194	0,02120039171849456	0,56820229864323194
1	0	0	1	0	0	1	102730,42	-0,100000001	2,01604176	-0,00027771417000848384	-0,099975125165110682	0,000201554023	-0,57431201507675942	0,021428353453230586	0,57431201507675942
1	0	0	1	0	0	1	102950,42	-0,100000001	2,01504993	-0,00027771407442291578	-0,099975090753822477	0,000201454794	-0,58042172585480973	0,021656314976953146	0,58042172585480973
1	0	0	1	0	0	1	103170,43	-0,100000001	2,01344776	-0,00027771433199238445	-0,099975183645755494	0,00020129481	-0,58653144084869952	0,021884276657974349	0,58653144084869952
1	0	0	1	0	0	1	103390,43	-0,100000001	2,01108265	-0,00027771380146551462	-0,099974992864110682	0,000201057977	-0,59264114480570061	0,0221122379271944	0,59264114480570061
1	0	0	1	0	0	1	103610,44	-0,100000001	2,00915623	-0,00027771424139415226	-0,099975151235872486	0,000200865703	-0,59875085094955699	0,022340199278008954	0,59875085094955699
1	0	0	1	0	0	1	103830,44	-0,100000001	2,00705814	-0,00027771335083991286	-0,099974830487891379	0,000200655297	-0,60486055180749414	0,022568160431598765	0,60486055180749414
1	0	0	1	0	0	1	104050,44	-0,100000001	2,00587559	-0,00027771328890861738	-0,099974807974264282	0,000200537033	-0,61097024478908557	0,02279612129131152	0,61097024478908557
1	0	0	1	0	0	1	104270,45	-0,100000001	2,0037775	-0,00027771328762132262	-0,099974807512011149	0,000200327268	-0,61707993946026739	0,023024082214065162	0,61707993946026739
1	0	0	1	0	0	1	104490,45	-0,100000001	2,00486469	-0,00027771315454070768	-0,09997475972381184	0,000200435868	-0,62318964107807834	0,02325204339600688	0,62318964107807834
1	0	0	1	0	0	1	104710,46	-0,100000001	1,9996767	-0,000277713269189828	-0,099974801249232051	0,000199917282	-0,6292993297180169	0,023480004093726733	0,6292993297180169
1	0	0	1	0	0	1	104930,46	-0,100000001	1,99721622	-0,00027771274290937514	-0,099974611790703654	0,000199670918	-0,63540901174698867	0,023707964544782522	0,63540901174698867
1	0	0	1	0	0	1	105150,47	-0,100000001	1,99603367	-0,00027771367925074368	-0,099974948756515994	0,000199553368	-0,64151869948524186	0,023935925208859277	0,64151869948524186
1	0	0	1	0	0	1	105370,47	-0,100000001	1,99355423	-0,0002777129981095592	-0,099974703288672474	0,000199304995	-0,64762839092258995	0,02416388601095424	0,64762839092258995
1	0	0	1	0	0	1	105590,47	-0,100000001	1,99096024	-0,00027771256886381245	-0,099974548764421722	0,000199045346	-0,6537380716983017	0,024391846415249213	0,6537380716983017
1	0	0	1	0	0	1	105810,48	-0,100000001	1,98970139	-0,00027771331591076323	-0,099974817778640922	0,000198920039	-0,65984776075473498	0,02461980712850904	0,65984776075473498
1	0	0	1	0	0	1	106030,48	-0,100000001	1,98495209	-0,00027771353665573728	-0,099974897533892787	0,000198445385	-0,66595745422546611	0,024847768006472259	0,66595745422546611
1	0	0	1	0	0	1	106250,49	-0,100000001	1,98226273	-0,00027771251884847878	-0,099974531131684262	0,000198175781	-0,6720671395462935	0,025075728580351606	0,6720671395462935
1	0	0	1	0	0	1	106470,49	-0,100000001	1,97871506	-0,00027771319085111222	-0,099974772972202291	0,000197821588	-0,67817683873270874	0,025303689671574682	0,67817683873270874
1	0	0	1	0	0	1	106690,50	-0,100000001	1,97469056	-0,00027771300987733734	-0,099974707526152717	0,000197419111	-0,68428651258789901	0,025531649817655693	0,68428651258789901
1	0	0	1	0	0	1	106910,50	-0,100000001	1,97076154	-0,00027771344138557715	-0,099974862865030349	0,000197026617	-0,69039621525473139	0,025759611038737814	0,69039621525473139
1	0	0	1	0	0	1	107130,50	-0,100000001	1,96715665	-0,0002777131345036129	-0,099974752432623258	0,000196666006	-0,69650590403937446	0,025987571741856784	0,69650590403937446
1	0	0	1	0	0	1	107350,51	-0,100000001	1,96322751	-0,00027771274797038902	-0,099974613603467456	0,000196272915	-0,70261559326394829	0,026215532461390163	0,70261559326394829
1	0	0	1	0	0	1	107570,51	-0,100000001	1,95790601	-0,00027771236558465494	-0,099974475957798016	0,00019574062	-0,7087252771966455	0,026443492983476506	0,7087252771966455
1	0	0	1	0	0	1	107790,52	-0,100000001	1,95248926	-0,00027771320743817424	-0,099974778991143923	0,000195199682	-0,71483494835671616	0,026671453028998982	0,71483494835671616
1	0	0	1	0	0	1	108010,52	-0,100000001	1,94566095	-0,00027771325328573587	-0,099974795168901798	0,000194517052	-0,72094464104664448	0,026899413877829395	0,72094464104664448
1	0	0	1	0	0	1	108230,53	-0,100000001	1,93772638	-0,00027771298695438438	-0,099974699274052749	0,000193723608	-0,72705432648397517	0,027127374456055642	0,72705432648397517
1	0	0	1	0	0	1	108450,53	-0,100000001	1,92803717	-0,00027771314460163315	-0,099974756029432102	0,000192755047	-0,7331640105589399	0,027355334983450182	0,7331640105589399
1	0	0	1	0	0	1	108670,54	-0,100000001	1,91331244	-0,00027771166442086298	-0,09997422349261248	0,000191281928	-0,7392736829112983	0,027583295073458518	0,7392736829112983
1	0	0	1	0	0	1	108890,54	-0,100000001	1,89713824	-0,00027771270423423914	-0,099974597870693952	0,000189665632	-0,74538336439657203	0,027811255504228202	0,74538336439657203
1	0	0	1	0	0	1	109110,54	-0,100000001	1,87117946	-0,00027771305924157302	-0,099974725669353818	0,000187070647	-0,75149304964007974	0,028039216075222653	0,75149304964007974
1	0	0	1	0	0	1	109330,55	-0,100000001	1,78866804	-0,0002777128669669231	-0,099974656143431386	0,000178821472	-0,75760274564949286	0,028267177047907504	0,75760274564949286
1	0	0	1	0	0	1	109550,55	-0,100000001	1,58221781	-0,00027771271060821085	-0,099974599791396582	0,000158181589	-0,76371243663854605	0,028495137833275981	0,76371243663854605
1	0	0	1	0	0	1	109770,56	-0,100000001	1,46024358	-0,0002777133815040191	-0,099974841309113882	0,000145987622	-0,76982212953107904	0,028723098689665846	0,76982212953107904
1	0	0	1	0	0	1	109990,56	-0,100000001	1,37904823	-0,00027771343324043686	-0,099974860216668685	0,000137870156	-0,77593182506277453	0,028951059644526419	0,77593182506277453
1	0	0	1	0	0	1	110210,57	-0,100000001	1,29712808	-0,00027771290238160227	-0,099974669200880256	0,000129679946	-0,78204152155110822	0,029179020635080435	0,78204152155110822
1	0	0	1	0	0	1	110430,57	-0,100000001	1,20328701	-0,00027771335074553885	-0,099974830607543936	0,000120298413	-0,78815121027601958	0,029406981335970739	0,78815121027601958
1	0	0	1	0	0	1	110650,57	-0,100000001	1,08840811	-0,00027771328247628278	-0,099974805762251085	0,000108813387	-0,79426092227639552	0,029634942905299917	0,79426092227639552
1	1	0	0	0	0	2	110855,89	0,100000001	2,11110353	0,00027781118091485568	0,10001004873178266	0,00021113157	-0,79718518837802253	0,02974405120526921	0,0013890646571061678
1	1	0	0	0	0	2	111075,90	0,100000001	2,35743618	0,00027781101407483222	0,10000998834806486	0,000235767162	-0,7910733466367465	0,029516010172443584	0,0075009063983820378
1	1	0	0	0	0	2	111295,90	0,100000001	2,34484768	0,00027781086319933338	0,10000993402580909	0,000234508057	-0,78496150520829939	0,029287969151290022	0,013612747826829136
1	1	0	0	0	0	2	111515,91	0,100000001	2,32550716	0,00027781088540289139	0,10000994203173869	0,000232573831	-0,77884966124409152	0,029059928035523821	0,019724591791037056
1	1	0	0	0	0	2	111735,91	0,100000001	2,31692433	0,00027781074312825997	0,10000989113987242	0,000231715356	-0,77273782735108685	0,02883188729552775	0,025836425684041856
1	1	0	0	0	0	2	111955,92	0,100000001	2,3138535	0,0002778108843333191	0,10000994200645229	0,000231408354	-0,76662598759120128	0,028603846336630464	0,031948265443927296
1	1	0	0	0	0	2	112175,92	0,100000001	2,31419683	0,00027781020400590368	0,10000969708760138	0,000231442129	-0,76051414652428467	0,028375805328966099	0,038060106510844077
1	1	0	0	0	0	2	112395,93	0,100000001	2,31618047	0,0002778112847577367	0,10001008583040464	0,000231641403	-0,75440231538853376	0,02814776469184687	0,044171937646595142
1	1	0	0	0	0	2	112615,93	0,100000001	2,31711507	0,00027781238660423296	0,10001048243971464	0,000231735801	-0,74829046126695565	0,027919723197095526	0,050283791768173389
1	1	0	0	0	0	2	112835,93	0,100000001	2,31879354	0,00027781059646896186	0,10000983800477323	0,000231902159	-0,74217861825556006	0,027691682116880032	0,056395634779568755
1	1	0	0	0	0	2	113055,94	0,100000001	2,3208344	0,00027781100126480064	0,10000998402062077	0,000232106613	-0,73606677394273472	0,027463640988106442	0,062507479092394304
1	1	0	0	0	0	2	113275,94	0,100000001	2,32228398	0,00027781040848419072	0,10000977070415126	0,000232251085	-0,7299549359515977	0,027235600095203546	0,068619317083531392
1	1	0	0	0	0	2	113495,95	0,100000001	2,32319927	0,00027781047102353638	0,10000979321670658	0,000232342674	-0,7238430877854976	0,027007558822659098	0,074731165249631245
1	1	0	0	0	0	2	113715,95	0,100000001	2,32518291	0,00027781128521511952	0,10001008603580789	0,000232541744	-0,71773124464624858	0,026779517737673216	0,080843008388880243
1	1	0	0	0	0	2	113935,96	0,100000001	2,32602215	0,0002778110347874463	0,10000999579630883	0,000232625462	-0,71161940036362483	0,02655147661002649	0,086954852671504038
1	1	0	0	0	0	2	114155,96	0,100000001	2,32710934	0,00027781201560091638	0,10001034888101498	0,000232735023	-0,70550753611758182	0,026323434737517744	0,093066716917547098
1	1	0	0	0	0	2	114375,96	0,100000001	2,32760525	0,0002778116722781625	0,10001022554456552	0,000232784325	-0,69939568414504102	0,026095393322949875	0,099178568890087718
1	1	0	0	0	0	2	114595,97	0,100000001	2,32770061	0,00027781039262687168	0,10000976499461053	0,000232792794	-0,69328383571203571	0,025867352040446832	0,10529041732309302
1	1	0	0	0	0	2	114815,97	0,100000001	2,32791042	0,00027781110739087066	0,10001002230558402	0,000232814375	-0,68717199509062477	0,025639311049404877	0,11140225794450403
1	1	0	0	0	0	2	115035,98	0,100000001	2,32844448	0,00027781161645758483	0,10001020532265155	0,000232868217	-0,68106014627644646	0,025411269752679763	0,11751410675868227
1	1	0	0	0	0	2	115255,98	0,100000001	2,32848263	0,00027781221261372166	0,1000104198053873	0,000232872524	-0,67494828431734246	0,025183227965499786	0,12362596871778659
1	1	0	0	0	0	2	115475,99	0,100000001	2,32825375	0,00027781138668954378	0,10001012247739574	0,000232848935	-0,66883643253931162	0,024955186558189344	0,12973782049581731
1	1	0	0	0	0	2	115695,99	0,100000001	2,32777691	0,00027781083700723117	0,10000992480989565	0,000232800798	-0,66272458996957082	0,024727145494452586	0,13584966306555798
1	1	0	0	0	0	2	115915,99	0,100000001	2,32741451	0,00027781143450612822	0,10001014006474962	0,000232765058	-0,65661274134496934	0,024499104204800829	0,14196151169015952
1	1	0	0	0	0	2	116136,00	0,100000001	2,32688046	0,00027781177167842784	0,10001026144321459	0,000232711929	-0,65050089657633907	0,024271063059020544	0,1480733564587897
1	1	0	0	0	0	2	116356,00	0,100000001	2,32686138	0,00027780996179911827	0,10000960970045328	0,000232708495	-0,64438904543833267	0,024043021675590275	0,15418520759679571
1	1	0	0	0	0	2	116576,01	0,100000001	2,32630825	0,00027781123847597174	0,10001006912170997	0,000232654245	-0,63827720209541542	0,023814980583005261	0,16029705093971296
1	1	0	0	0	0	2	116796,01	0,100000001	2,32571697	0,00027781092384002275	0,10000995585602579	0,000232594859	-0,63216536426889101	0,023586939696244282	0,16640888876623731
1	1	0	0	0	0	2	117016,02	0,100000001	2,32575512	0,00027781029905337427	0,10000973110900384	0,000232598148	-0,6260535294796457	0,023358898922808266	0,17252072355548278
1	1	0	0	0	0	2	117236,02	0,100000001	2,32548809	0,00027781198070032726	0,10001033669077565	0,000232572842	-0,6199416856492064	0,023130857812033149	0,17863256738592211
1	1	0	0	0	0	2	117456,03	0,100000001	2,32524014	0,00027781106622599891	0,10001000748768728	0,000232547289	-0,6138298401206071	0,022902816637897405	0,18474441291452144
1	1	0	0	0	0	2	117676,03	0,100000001	2,32522106	0,0002778122192621231	0,10001042241182254	0,000232546343	-0,60771798584487411	0,022674775137394333	0,19085626719025466
1	1	0	0	0	0	2	117896,03	0,100000001	2,32514477	0,00027781058983546163	0,10000983561676035	0,00023253735	-0,60160614179580378	0,022446734018461798	0,19696811123932515
1	1	0	0	0	0	2	118116,04	0,100000001	2,32537365	0,000277811024878588	0,1000099922280261	0,000232560604	-0,59549429992163226	0,022218692980677661	0,20307995311349661
1	1	0	0	0	0	2	118336,04	0,100000001	2,32558346	0,00027781065854968291	0,10000986048378653	0,000232581282	-0,58938245667210701	0,021990651891577229	0,2091917963630217
1	1	0	0	0	0	2	118556,05	0,100000001	2,32573605	0,00027781041166558858	0,10000977184841315	0,000232596329	-0,58327062081696064	0,021762611078371014	0,2153036322181679
1	1	0	0	0	0	2	118776,05	0,100000001	2,32619381	0,00027781068763178253	0,10000987119529846	0,000232642342	-0,5771587770142839	0,021534569968631754	0,22141547602084474
1	1	0	0	0	0	2	118996,06	0,100000001	2,32640362	0,00027781215083847443	0,10001039781763398	0,000232664548	-0,57104692182987603	0,021306528434224806	0,22752733120525283
1	1	0	0	0	0	2	119216,06	0,100000001	2,3272047	0,00027781154052995971	0,10001017786001512	0,000232744162	-0,56493506688709446	0,021078486908833258	0,2336391861480345
1	1	0	0	0	0	2	119436,06	0,100000001	2,3272047	0,00027781106805097722	0,10001000777094328	0,000232743754	-0,55882321377586355	0,020850445451779325	0,23975103925926515
1	1	0	0	0	0	2	119656,07	0,100000001	2,32827282	0,00027781117782038118	0,10001004737446619	0,000232850682	-0,55271137189103302	0,020622404413597491	0,24586288114409584
1	1	0	0	0	0	2	119876,07	0,100000001	2,32871151	0,00027781093335068893	0,1000099596523567	0,000232894337	-0,54659953564470611	0,020394363585795802	0,25197471739042282
1	1	0	0	0	0	2	120096,08	0,100000001	2,32934093	0,00027781180906958051	0,10001027490376354	0,000232958031	-0,54048768684985126	0,020166322289791667	0,2580865661852776
1	1	0	0	0	0	2	120316,08	0,100000001	2,33006573	0,00027781204696537722	0,10001036046655315	0,000233030718	-0,53437583212059738	0,019938280772367123	0,26419842091453142
1	1	0	0	0	0	2	120536,09	0,100000001	2,33061886	0,00027781156910417805	0,10001018814536618	0,000233085637	-0,52826398109330419	0,019710239393067712	0,27031027194182429
1	1	0	0	0	0	2	120756,09	0,100000001	2,33132458	0,00027781092448160051	0,10000995608698922	0,000233155675	-0,52215213743561414	0,019482198288738102	0,27642211559951402
1	1	0	0	0	0	2	120976,09	0,100000001	2,33210659	0,00027781064856300752	0,10000985680890365	0,000233233644	-0,51604029392858029	0,019254157190029677	0,28253395910654762
1	1	0	0	0	0	2	121196,10	0,100000001	2,33265972	0,00027781138840110765	0,10001012346727022	0,000233289582	-0,5099284520267369	0,019026116151213066	0,28864580100839098
1	1	0	0	0	0	2	121416,10	0,100000001	2,33338451	0,00027781113563353818	0,10001003247274339	0,000233361861	-0,50381660606076365	0,018798074960758304	0,29475764697436416
1	1	0	0	0	0	2	121636,11	0,100000001	2,33430004	0,00027781162801881629	0,10001020968952046	0,000233453829	-0,49770475977268589	0,018570033758285392	0,30086949326244166
1	1	0	0	0	0	2	121856,11	0,100000001	2,33498669	0,00027781085691973565	0,10000993177916955	0,00023352186	-0,49159291249641965	0,01834199251894184	0,30698134053870797
1	1	0	0	0	0	2	122076,12	0,100000001	2,33616924	0,00027781123269225162	0,10001006703946634	0,000233640443	-0,48548105979812486	0,018113951077295114	0,31309319323700269
1	1	0	0	0	0	2	122296,12	0,100000001	2,33697033	0,00027781089105995165	0,10000994406474739	0,000233720275	-0,47936921544097786	0,017885909946867821	0,31920503759414976
1	1	0	0	0	0	2	122516,13	0,100000001	2,337924	0,00027781111933663485	0,10001002656289699	0,000233815837	-0,47325736435199206	0,017657868565266576	0,32531688868313549
1	1	0	0	0	0	2	122736,13	0,100000001	2,3388586	0,00027781160025505555	0,10001019973318434	0,000233909712	-0,46714551701321338	0,017429827323590602	0,33142873602191418
1	1	0	0	0	0	2	122956,13	0,100000001	2,33941174	0,00027781047741985981	0,10000979551933749	0,000233964092	-0,46103366285031053	0,017201785827297376	0,33754059018481702
1	1	0	0	0	0	2	123176,14	0,100000001	2,3398695	0,00027781103895935747	0,10000999735405101	0,000234010338	-0,45492181843811533	0,016973744694816166	0,34365243459701222
1	1	0	0	0	0	2	123396,14	0,100000001	2,34074688	0,00027781035030343466	0,10000974938577075	0,000234097504	-0,44880997804375296	0,016745703712245696	0,34976427499137466
1	1	0	0	0	0	2	123616,15	0,100000001	2,34156704	0,00027781006550416352	0,10000964686005958	0,000234179286	-0,44269815058961357	0,016517663212492349	0,35587610244551398
1	1	0	0	0	0	2	123836,15	0,100000001	2,34286404	0,0002778100394772159	0,10000963778509698	0,000234308987	-0,43658631626428685	0,01628962245636576	0,3619879367708407
1	1	0	0	0	0	2	124056,16	0,100000001	2,3439703	0,00027781096875419219	0,10000997239620176	0,000234420411	-0,43047448691613965	0,016061581885944435	0,3680997661189879
1	1	0	0	0	0	2	124276,16	0,100000001	2,34530544	0,00027781001636592883	0,10000962954436651	0,000234553125	-0,42436265753109946	0,015833541314146579	0,37421159550402803
1	1	0	0	0	0	2	124496,16	0,100000001	2,34582043	0,00027781003903432022	0,10000963742904624	0,000234604653	-0,4182508221650768	0,015605500519190227	0,38032343087005069
1	1	0	0	0	0	2	124716,17	0,100000001	2,34723186	0,00027781007117322749	0,10000964890204653	0,000234745836	-0,41213898897579674	0,015377459805451069	0,38643526405933075
1	1	0	0	0	0	2	124936,17	0,100000001	2,34803295	0,000277811079059624	0,10001001173281354	0,000234826803	-0,40602715081213453	0,015149418906111021	0,39254710222299302
1	1	0	0	0	0	2	125156,18	0,100000001	2,34990215	0,00027781164524248902	0,10001021580725843	0,000235014217	-0,39991530382729901	0,014921377677641142	0,39865894920782854
1	1	0	0	0	0	2	125376,18	0,100000001	2,35077953	0,00027781155509211949	0,10001018347484864	0,000235101892	-0,39380346322425011	0,014693336687284298	0,40477078981087744
1	1	0	0	0	0	2	125596,19	0,100000001	2,35179043	0,00027781055525359184	0,10000982353892728	0,00023520214	-0,38769163024209107	0,014465295981273107	0,41088262279303642
1	1	0	0	0	0	2	125816,19	0,100000001	2,35262966	0,0002778114353037543	0,10001014011438269	0,000235286818	-0,38157980132765747	0,014237255427034214	0,41699445170747008
1	1	0	0	0	0	2	126036,19	0,100000001	2,3536787	0,00027781122926912368	0,10001006580716464	0,000235391562	-0,37546795965890675	0,014009214396914606	0,42310629337622074
1	1	0	0	0	0	2	126256,20	0,100000001	2,35489941	0,00027781010087124173	0,10000965959079186	0,000235512693	-0,36935612057664992	0,01378117346330056	0,42921813245847763
1	1	0	0	0	0	2	126476,20	0,100000001	2,35690212	0,00027781066490502819	0,10000986284501306	0,000235713451	-0,36324427973358662	0,013553132463988459	0,43532997330154086
1	1	0	0	0	0	2	126696,21	0,100000001	2,35760784	0,00027781132087318435	0,10001009915769821	0,000235784595	-0,35713243480784198	0,013325091312346027	0,4414418182272855
1	1	0	0	0	0	2	126916,21	0,100000001	2,35833263	0,00027781104891291923	0,10001000125277326	0,000235856845	-0,35102059037893005	0,013097050179241091	0,44755366265619744
1	1	0	0	0	0	2	127136,22	0,100000001	2,35917187	0,00027781019834097888	0,10000969485849712	0,000235940053	-0,34490875146743392	0,012869009251998358	0,45366550156769357
1	1	0	0	0	0	2	127356,22	0,100000001	2,36010647	0,00027781158893803754	0,1000101952865787	0,000236034713	-0,33879690027048634	0,012640967866368914	0,45977735276464115
1	1	0	0	0	0	2	127576,23	0,100000001	2,3609457	0,00027781148035948477	0,100010156197908	0,000236118547	-0,33268506061833843	0,012412926911491464	0,46588919241678912
1	1	0	0	0	0	2	127796,23	0,100000001	2,36147976	0,0002778108568944865	0,10000993192376048	0,000236171429	-0,32657322057612602	0,012184885942060186	0,47200103245900147
1	1	0	0	0	0	2	128016,23	0,100000001	2,36189938	0,00027781092537732589	0,1000099567808385	0,000236213455	-0,32046137821845197	0,011956844886235922	0,47811287481667552
1	1	0	0	0	0	2	128236,24	0,100000001	2,36327267	0,00027781080891523101	0,10000991485647707	0,000236350694	-0,31434954190776429	0,011728804056032845	0,48422471112736326
1	1	0	0	0	0	2	128456,24	0,100000001	2,36405444	0,00027781046005959315	0,10000978911171885	0,00023642859	-0,30823770046218483	0,011500763034240058	0,49033655257294266
1	1	0	0	0	0	2	128676,25	0,100000001	2,36493182	0,0002778107464392152	0,10000989199299734	0,000236516571	-0,30212585717032838	0,01127272194356019	0,4964483958647991
1	1	0	0	0	0	2	128896,25	0,100000001	2,36519885	0,0002778117584453689	0,10001025630684763	0,000236544147	-0,29601400699663789	0,011044680596109842	0,50256024603848973
1	1	0	0	0	0	2	129116,26	0,100000001	2,36628604	0,00027781049004693827	0,10000979981934035	0,000236651787	-0,28990216461611462	0,01081663953943304	0,50867208841901312
1	1	0	0	0	0	2	129336,26	0,100000001	2,36729693	0,00027781193789798349	0,10001032128223638	0,000236754131	-0,28379031587648074	0,010588598245489274	0,5147839371586471
1	1	0	0	0	0	2	129556,26	0,100000001	2,37118793	0,00027781030107455123	0,10000973203628091	0,000237141867	-0,27767847063691731	0,01036055708213784	0,52089578239821056
1	1	0	0	0	0	2	129776,27	0,100000001	2,37330508	0,00027781104761403466	0,10001000067458062	0,000237354237	-0,27156662535723402	0,010132515917289482	0,52700762767789376
1	1	0	0	0	0	2	129996,27	0,100000001	2,37345767	0,00027781084083144861	0,10000992597236547	0,000237369328	-0,26545478549440438	0,0099044749545512154	0,53311946754072339
1	1	0	0	0	0	2	130216,28	0,100000001	2,37439227	0,00027781053373590109	0,10000981541898923	0,000237462533	-0,25934295552392787	0,0096764343609099469	0,53923129751119994
1	1	0	0	0	0	2	130436,28	0,100000001	2,37410617	0,00027781189388616218	0,10001030515305251	0,000237435088	-0,25323111446807568	0,0094483933536584038	0,54534313856705216
1	1	0	0	0	0	2	130656,29	0,100000001	2,37586093	0,00027781085232645277	0,1000099304842081	0,000237609682	-0,24711926746700323	0,0092203521245827008	0,55145498556812486
1	1	0	0	0	0	2	130876,29	0,100000001	2,37692904	0,00027781157224252819	0,100010189650038	0,000237717119	-0,24100742305622038	0,0089923109921541862	0,55756682997890758
1	1	0	0	0	0	2	131096,29	0,100000001	2,3775394	0,00027780589055435526	0,10001010495176758	0,00023777796	-0,23489558023353667	0,0087642699189797862	0,56367867280159136
1	1	0	0	0	0	2	131316,29	0,100000001	2,37696719	0,00027780537216944826	0,10000991833323029	0,000237720291	-0,22878385750151382	0,0085362333265494042	0,56979039553361408
1	1	0	0	0	0	2	131536,29	0,100000001	2,37837863	0,00027780532313262422	0,10000990067997638	0,000237861415	-0,22267213504009021	0,0083081967442154445	0,57590211799503731
1	1	0	0	0	0	2	131756,29	0,100000001	2,37971377	0,00027780526817217469	0,10000988089421765	0,000237994886	-0,21656041658097126	0,0080801603112128538	0,58201383645415603
1	1	0	0	0	0	2	131976,29	0,100000001	2,38238406	0,00027780516815847824	0,10000984488929256	0,000238261855	-0,21044869016853261	0,0078521235814612096	0,58812556286659456
1	1	0	0	0	0	2	132196,29	0,100000001	2,38638949	0,0002778063150892655	0,10001025778431138	0,00023866343	-0,20433695137181702	0,0076240863896355456	0,59423730166331008
1	1	0	0	0	0	2	132416,29	0,100000001	2,38808703	0,00027780585673285853	0,10001009277603069	0,000238832799	-0,19822521729364733	0,0073960493738651712	0,60034903574148006
1	1	0	0	0	0	2	132636,29	0,100000001	2,3894794	0,00027780570788847078	0,10001003919205947	0,00023897193	-0,19211348578400656	0,0071680124539300634	0,60646076725112102
1	1	0	0	0	0	2	132856,29	0,100000001	2,39132953	0,00027780610448825686	0,10001018196796013	0,000239157307	-0,1860017637386408	0,0069399758871197811	0,61257248929648653
1	1	0	0	0	0	2	133076,29	0,100000001	2,39295077	0,00027780598595241706	0,10001013929506446	0,000239319343	-0,17989003732993398	0,0067119391575073792	0,61868421570519322
1	1	0	0	0	0	2	133296,29	0,100000001	2,39464831	0,00027780671976920627	0,10001040346906725	0,000239489746	-0,17377830361043443	0,0064839021551194688	0,62479594942469261
1	1	0	0	0	0	2	133516,29	0,100000001	2,39533496	0,00027780613524011443	0,1000101930386271	0,000239557907	-0,16766657420290621	0,0062558653136170074	0,63090767883222093
1	1	0	0	0	0	2	133736,29	0,100000001	2,39611697	0,00027780598724136755	0,10001013975908656	0,000239635992	-0,1615548440758295	0,0060278284452672243	0,63701940895929766
1	1	0	0	0	0	2	133956,29	0,100000001	2,39735675	0,00027780592056032685	0,10001011575391568	0,000239759931	-0,15544311136835021	0,0057997914806391526	0,64313114166677696
1	1	0	0	0	0	2	134176,29	0,100000001	2,39848208	0,00027780606512104474	0,10001016779576598	0,000239872592	-0,14933137832781418	0,0055717545035842842	0,64924287470731315
1	1	0	0	0	0	2	134396,29	0,100000001	2,39934039	0,00027780551051348451	0,10000996813707552	0,000239957953	-0,1432196532000427	0,0053437178217653011	0,65535459983508454
1	1	0	0	0	0	2	134616,29	0,100000001	2,40023685	0,00027780552349405155	0,10000997281473602	0,000240047622	-0,13710793921243109	0,0051156815556006605	0,6614663138226967
1	1	0	0	0	0	2	134836,29	0,100000001	2,40168643	0,00027780691287335418	0,10001047298654963	0,000240193796	-0,13099620674021875	0,0048876445997507142	0,66757804629490893
1	1	0	0	0	0	2	135056,29	0,100000001	2,40258288	0,00027780604743626381	0,10001016142924586	0,000240282709	-0,12488447067008251	0,0046596075096573894	0,67368978236504486
1	1	0	0	0	0	2	135276,29	0,100000001	2,40386081	0,00027780570023631056	0,10001003643728224	0,000240410212	-0,11877274342191014	0,0044315707487233984	0,67980150961321728
1	1	0	0	0	0	2	135496,30	0,100000001	2,40540552	0,00027780587253967917	0,10001009846648523	0,000240564841	-0,11266101693340806	0,0042035340161337261	0,68591323610171942
1	1	0	0	0	0	2	135716,30	0,100000001	2,40634012	0,00027780617321324016	0,10001020670895024	0,00024065857	-0,10654929323745848	0,0039754973877379437	0,69202495979766899
1	1	0	0	0	0	2	135936,30	0,100000001	2,40681696	0,00027780590861042346	0,10001011145195112	0,000240706038	-0,10043755847439293	0,003747460346413184	0,69813669456073434
1	1	0	0	0	0	2	136156,30	0,100000001	2,40830469	0,00027780524796992534	0,10000987362140904	0,00024085425	-0,094325835417602189	0,0035194237418652762	0,70424841761752512
1	1	0	0	0	0	2	136376,30	0,100000001	2,40977335	0,0002778052775176863	0,10000988425860131	0,000241001151	-0,088214115147506982	0,0032913872412927258	0,71036013788762048
1	1	0	0	0	0	2	136596,30	0,100000001	2,41097498	0,00027780543625065018	0,10000994140245938	0,000241121466	-0,082102392578907277	0,0030633506549598829	0,7164718604562199
1	1	0	0	0	0	2	136816,30	0,100000001	2,41036463	0,0002778054385946857	0,100009942246312	0,000241060421	-0,075990673179327603	0,0028353141868674371	0,72258357985579981
1	1	0	0	0	0	2	137036,30	0,100000001	2,41059351	0,00027780614080942339	0,10001019504357802	0,000241083922	-0,069878941504342259	0,0026072772607631021	0,72869531153078502
1	1	0	0	0	0	2	137256,30	0,100000001	2,41246271	0,00027780680801678035	0,10001043523818896	0,000241271453	-0,06376721255439977	0,0023792404363337789	0,73480704048072768
1	1	0	0	0	0	2	137476,30	0,100000001	2,41379786	0,00027780523240235117	0,1000098680170832	0,000241403599	-0,057655478515915571	0,0021512034220441235	0,7409187745192119
1	1	0	0	0	0	2	137696,30	0,100000001	2,41463709	0,0002778040365576744	0,10000943751306693	0,000241486501	-0,05154376468937927	0,0019231671618894195	0,74703048834574822
1	1	0	0	0	0	2	137916,30	0,100000001	2,41581964	0,00027780509447720314	0,10000981836403766	0,000241605681	-0,045432041538432653	0,0016951305538284298	0,75314221149669453
1	1	0	0	0	0	2	138136,30	0,100000001	2,41602945	0,0002778059360223512	0,10001012132024357	0,000241627393	-0,039320332588225184	0,0014670944756161107	0,75925392044690189
1	1	0	0	0	0	2	138356,30	0,100000001	2,41749811	0,00027780394852823683	0,10000940582247434	0,000241772548	-0,033208626214507123	0,0012390584935360755	0,7653656268206199
1	1	0	0	0	0	2	138576,30	0,100000001	2,41751719	0,00027780406827852134	0,10000944893257002	0,000241774556	-0,02709693578719967	0,0010110231064380605	0,77147731724792755
1	1	0	0	0	0	2	138796,30	0,100000001	2,41908121	0,00027780435806016131	0,1000095532539441	0,000241931237	-0,020985224970180112	0,00078298695857247232	0,77758902806494694
1	1	0	0	0	0	2	139016,30	0,100000001	2,41881418	0,00027780520958122275	0,10000985980147826	0,000241905262	-0,014873525162606592	0,00055495122148411821	0,78370072787252058
1	1	0	0	0	0	2	139236,30	0,100000001	2,42131281	0,00027780592938388387	0,1000101189303957	0,000242155787	-0,008761799977851401	0,00032691453753899603	0,78981245305727565
1	1	0	0	0	0	2	139456,30	0,100000001	2,41585779	0,00027780565347563888	0,10001001960344304	0,000241609989	-0,002650065928467849	9,8877522842671104E-005	0,79592418710665907
1	1	0	0	0	0	2	139676,30	0,100000001	2,41496134	0,0002778045633215871	0,10000962714804581	0,000241519389	0,0034616578916096134	-0,00012915911018449019	0,80203591092673664
1	1	0	0	0	0	2	139896,30	0,100000001	2,41675425	0,00027780460140564374	0,10000964085830406	0,000241698726	0,0095733574440466944	-0,0003571948377533607	0,80814761047917363
1	1	0	0	0	0	2	140116,30	0,100000001	2,41719294	0,0002778062992174592	0,100010252070462	0,00024174407	0,015685076773409226	-0,00058523130322591002	0,81425932980853594
1	1	0	0	0	0	2	140336,30	0,100000001	2,41925287	0,00027780416110778851	0,10000948235110096	0,000241948233	0,021796779619326205	-0,00081326715367894362	0,82037103265445274
1	1	0	0	0	0	2	140556,30	0,100000001	2,42098856	0,00027780466158646675	0,10000966252339696	0,000242122245	0,027908480548815184	-0,0010413029326274717	0,82648273358394176
1	1	0	0	0	0	2	140776,30	0,100000001	2,4226861	0,00027780556412206758	0,1000099874361624	0,000242292808	0,034020203120234944	-0,0012693395190655355	0,83259445615536154
1	1	0	0	0	0	2	140996,30	0,100000001	2,42560434	0,00027780526288474598	0,1000098789907436	0,0002425844	0,040131915451784115	-0,0014973757234402598	0,83870616848691059
1	1	0	0	0	0	2	141216,30	0,100000001	2,42764521	0,00027780465627089139	0,10000966060979013	0,000242787966	0,046243625121072371	-0,0017254118284824496	0,84481787815619891
1	1	0	0	0	0	2	141436,30	0,100000001	2,42777872	0,00027780483413653242	0,10000972464141086	0,000242801485	0,052355340032713306	-0,0019534481291238666	0,85092959306783974
1	1	0	0	0	0	2	141656,30	0,100000001	2,42981958	0,00027780428408044902	0,10000952662125186	0,00024300511	0,058467054391549709	-0,0021814844091394035	0,85704130742667597
1	1	0	0	0	0	2	141876,30	0,100000001	2,43109751	0,00027780560789588422	0,10001000319473395	0,000243134069	0,064578760870002253	-0,0024095203951272227	0,86315301390512845
1	1	0	0	0	0	2	142096,30	0,100000001	2,43241358	0,00027780546605587005	0,10000995213233683	0,00024326556	0,070690475768879091	-0,0026375566952923939	0,86926472880400486
1	1	0	0	0	0	2	142316,30	0,100000001	2,43321466	0,00027780625500778352	0,10001023615498125	0,000243346367	0,076802203914632013	-0,0028655934897163226	0,87537645694975782
1	1	0	0	0	0	2	142536,30	0,100000001	2,43495035	0,00027780553235237795	0,10000997599907594	0,000243519331	0,082913932644798131	-0,0030936303059454931	0,8814881856799241
1	1	0	0	0	0	2	142756,30	0,100000001	2,43619013	0,00027780468319977328	0,10000967030418608	0,000243642571	0,089025648787666112	-0,0033216666525256467	0,88759990182279181
1	1	0	0	0	0	2	142976,30	0,100000001	2,43760157	0,00027780535004494918	0,10000991036841186	0,000243784321	0,095137370672342246	-0,0035497032133403827	0,89371162370746778
1	1	0	0	0	0	2	143196,30	0,100000001	2,43952799	0,00027780475062338842	0,10000969457668374	0,00024397645	0,10124909631691666	-0,0037777399144419776	0,89982334935204198
1	1	0	0	0	0	2	143416,30	0,100000001	2,44076777	0,00027780558840930458	0,10000999617956637	0,000244101175	0,10736083206137098	-0,0040057769923836723	0,90593508509649626
1	1	0	0	0	0	2	143636,30	0,100000001	2,44288492	0,00027780599561788973	0,10001014277463408	0,000244313269	0,11347255796865742	-0,0042338137032874067	0,91204681100378266
1	1	0	0	0	0	2	143856,30	0,100000001	2,44496393	0,0002778061824569272	0,10001021003667704	0,000244521361	0,11958429383738376	-0,0044618507858658573	0,9181585468725088
1	1	0	0	0	0	2	144076,30	0,100000001	2,44650865	0,00027780594201179014	0,10001012347644126	0,000244675641	0,12569603584267362	-0,0046898880974077427	0,92427028887779866
1	1	0	0	0	0	2	144296,30	0,100000001	2,4476912	0,00027780510761961338	0,10000982309530462	0,000244793162	0,13180777387647122	-0,0049179252607679136	0,93038202691159629
1	1	0	0	0	0	2	144516,30	0,100000001	2,44860673	0,00027780664369298349	0,10001037608163133	0,000244886091	0,13791951023785515	-0,0051459623617280813	0,93649376327298022
1	1	0	0	0	0	2	144736,30	0,100000001	2,45043778	0,00027780486197438502	0,10000973466303626	0,00024506764	0,14403123838801837	-0,0053739991563165638	0,9426054914231433
1	1	0	0	0	0	2	144956,30	0,100000001	2,45162034	0,00027780593525038819	0,10001012104233694	0,000245186849	0,1501429566926951	-0,0056020355835567091	0,94871720972782029
1	1	0	0	0	0	2	145176,30	0,100000001	2,45270753	0,00027780715572213136	0,10001056041209571	0,000245296658	0,15625470396784803	-0,0058300730917242726	0,95482895700297306
1	1	0	0	0	0	2	145396,30	0,100000001	2,45198274	0,00027780594236238138	0,10001012360265408	0,000245223084	0,16236644967401757	-0,0060581105413509542	0,9609407027091424
1	1	0	0	0	0	2	145616,30	0,100000001	2,45043778	0,00027780542956706547	0,10000993899636925	0,000245068135	0,16847817708794592	-0,0062861473084695232	0,9670524301230711
1	1	0	0	0	0	2	145836,30	0,100000001	2,45039964	0,00027780488651825322	0,10000974349882741	0,000245063828	0,1745898925540024	-0,0065141836297969306	0,97316414558912742
1	1	0	0	0	0	2	146056,30	0,100000001	2,4534514	0,0002778069848277503	0,10001049889012816	0,000245370902	0,18070162946653315	-0,0067422207513211264	0,97927588250165786
1	1	0	0	0	0	2	146276,30	0,100000001	2,45614076	0,00027780518177110288	0,10000984978983667	0,000245638279	0,18681336345341584	-0,0069702577636854605	0,98538761648854054
1	1	0	0	0	0	2	146496,30	0,100000001	2,45924973	0,00027780618389033613	0,10001021055270418	0,000245950097	0,192925105896876	-0,0071982950915760704	0,99149935893200051
1	1	0	0	0	0	2	146716,30	0,100000001	2,45974565	0,00027780620307433936	0,10001021745894429	0,00024599969	0,19903683676563478	-0,0074263319875990067	0,99761108980075968
1	1	0	0	0	0	2	146805,89	0,100000001	2,45966935	0,0002665491483422617	0,10001008712225898	0,000245991745	0,20152583500684739	-0,0075191998584723776	1,0001000880419722