File: Experimentelles/Rohdaten/Batterietests/AlteZelle/Studenten_Batterietests/Sonstige/ZView-Export/S vs Li_05_GCPL_C02_loop7.txt
EC-Lab ASCII FILE
Nb header lines : 3
mode	ox/red	error	control changes	Ns changes	counter inc.	Ns	time/s	control/V/mA	Ewe/V	dq/mA.h	<I>/mA	P/W	(Q-Qo)/mA.h	x	Capacity/mA.h
1	0	0	1	1	0	1	469384,62	-0,100000001	2,51067162	0	0	0	0	0	0
1	0	0	1	0	0	1	469604,63	-0,100000001	2,19323349	-0,00027771384943814739	-0,099975060787138752	0,000219268652	-0,0061083169246345498	0,00022790951717756659	0,0061083169246345498
1	0	0	1	0	0	1	469824,63	-0,100000001	2,18543243	-0,00027771433675992819	-0,099975236214946522	0,00021848912	-0,012218027087938926	0,0004558710179631337	0,012218027087938926
1	0	0	1	0	0	1	470044,64	-0,100000001	2,17818451	-0,00027771294824116762	-0,099974736362472794	0,000217763416	-0,018327721800851792	0,00068383194227382042	0,018327721800851792
1	0	0	1	0	0	1	470264,64	-0,100000001	2,17072678	-0,00027771278319549229	-0,099974676947173709	0,000217017703	-0,024437418944618826	0,00091179295728294426	0,024437418944618826
1	0	0	1	0	0	1	470484,64	-0,100000001	2,16664505	-0,00027771315013865629	-0,099974809044169242	0,000216609929	-0,03054712570421776	0,001139754331071685	0,03054712570421776
1	0	0	1	0	0	1	470704,65	-0,100000001	2,16115189	-0,00027771321147349146	-0,099974831124284749	0,000216060798	-0,036656813968394835	0,0013677150147713686	0,036656813968394835
1	0	0	1	0	0	1	470924,65	-0,100000001	2,15396142	-0,00027771337275662355	-0,099974889182766656	0,00021534205	-0,042766503930294323	0,0015956757618153584	0,042766503930294323
1	0	0	1	0	0	1	471144,66	-0,100000001	2,15396142	-0,00027771348155745203	-0,099974928349728819	0,000215342137	-0,048876194168515552	0,0018236365191692838	0,048876194168515552
1	0	0	1	0	0	1	471364,66	-0,100000001	2,14810586	-0,00027771306634652947	-0,09997477887492905	0,000214756408	-0,054985886327546957	0,0020515973481912195	0,054985886327546957
1	0	0	1	0	0	1	471584,67	-0,100000001	2,1463511	-0,00027771367085890637	-0,09997499649984983	0,000214581451	-0,061095580424008717	0,0022795582495012864	0,061095580424008717
1	0	0	1	0	0	1	471804,67	-0,100000001	2,13998055	-0,00027771366075881654	-0,099974992863887488	0,000213944542	-0,067205274266900736	0,0025075191413503251	0,067205274266900736
1	0	0	1	0	0	1	472024,67	-0,100000001	2,13792062	-0,00027771332089437376	-0,099974870515043904	0,000213738342	-0,073314966658121638	0,0027354799790355629	0,073314966658121638
1	0	0	1	0	0	1	472244,68	-0,100000001	2,13383889	-0,00027771295667936403	-0,099974739400165018	0,000213329986	-0,079424654443769024	0,0029634406448806611	0,079424654443769024
1	0	0	1	0	0	1	472464,68	-0,100000001	2,12855554	-0,00027771291257482435	-0,099974723518181094	0,000212801751	-0,085534336987063283	0,0031914011151265152	0,085534336987063283
1	0	0	1	0	0	1	472684,69	-0,100000001	2,12559915	-0,00027771253240356838	-0,099974586660327987	0,000212505896	-0,091644025738927219	0,0034193618170224512	0,091644025738927219
1	0	0	1	0	0	1	472904,69	-0,100000001	2,1236155	-0,00027771295330011181	-0,099974738179002278	0,000212307903	-0,097753712715184934	0,0036473224526681325	0,097753712715184934
1	0	0	1	0	0	1	473124,70	-0,100000001	2,12262368	-0,0002777135695086585	-0,09997496000980777	0,000212209212	-0,10386340223720995	0,0038752831832998144	0,10386340223720995
1	0	0	1	0	0	1	473344,70	-0,100000001	2,11776018	-0,00027771324765723616	-0,099974844150182029	0,000211722741	-0,10997308718098445	0,0041032437431108134	0,10997308718098445
1	0	0	1	0	0	1	473564,70	-0,100000001	2,11583376	-0,00027771347439289091	-0,099974925773446093	0,000211530321	-0,11608277824767834	0,0043312045313761677	0,11608277824767834
1	0	0	1	0	0	1	473784,71	-0,100000001	2,11316347	-0,00027771362004304925	-0,099974978206493491	0,000211263468	-0,12219247874125085	0,0045591656713710374	0,12219247874125085
1	0	0	1	0	0	1	474004,71	-0,100000001	2,10955858	-0,00027771314429822893	-0,099974806937000512	0,000210902712	-0,12830218383815546	0,0047871269831224179	0,12830218383815546
1	0	0	1	0	0	1	474224,72	-0,100000001	2,10572481	-0,00027771305525840986	-0,099974774885610522	0,000210519371	-0,1344118762495049	0,0050150878215586784	0,1344118762495049
1	0	0	1	0	0	1	474444,72	-0,100000001	2,10110903	-0,00027771263450011613	-0,099974623412049818	0,00021005758	-0,14052155878145994	0,0052430482913814515	0,14052155878145994
1	0	0	1	0	0	1	474664,72	-0,100000001	2,09752321	-0,00027771373316148915	-0,099975018923692416	0,000209699923	-0,14663126288804867	0,0054710095661828141	0,14663126288804867
1	0	0	1	0	0	1	474884,73	-0,100000001	2,09187746	-0,00027771382119216854	-0,099975050618782144	0,000209135556	-0,15274097037426848	0,0056989709670827571	0,15274097037426848
1	0	0	1	0	0	1	475104,73	-0,100000001	2,08783388	-0,00027771344122538963	-0,099974913833375539	0,000208731013	-0,15885067413012864	0,0059269322287979661	0,15885067413012864
1	0	0	1	0	0	1	475324,74	-0,100000001	2,08335161	-0,0002777140008161465	-0,099975115282169126	0,000208283323	-0,16496036620324864	0,0061548930546144307	0,16496036620324864
1	0	0	1	0	0	1	475544,74	-0,100000001	2,07747698	-0,00027771373408329155	-0,099975019260190246	0,000207695804	-0,1710700609443288	0,0063828539799760768	0,1710700609443288
1	0	0	1	0	0	1	475764,75	-0,100000001	2,07314754	-0,00027771406727573936	-0,099975139202506522	0,00020726322	-0,17717975618685418	0,0066108149240473178	0,17717975618685418
1	0	0	1	0	0	1	475984,75	-0,100000001	2,07019114	-0,00027771385730513267	-0,099975063613379712	0,000206967496	-0,18328945634517702	0,0068387760515335718	0,18328945634517702
1	0	0	1	0	0	1	476204,75	-0,100000001	2,06456447	-0,00027771300279390483	-0,099974755996424691	0,000206404322	-0,18939914562445222	0,0070667367731079322	0,18939914562445222
1	0	0	1	0	0	1	476424,76	-0,100000001	2,05714488	-0,0002777136056737767	-0,099974973033654976	0,000205663004	-0,1955088258040055	0,007294697155159433	0,1955088258040055
1	0	0	1	0	0	1	476644,76	-0,100000001	2,05081248	-0,00027771250172124966	-0,09997457561839744	0,000205029108	-0,20161850699385389	0,0075226575749064013	0,20161850699385389
1	0	0	1	0	0	1	476864,77	-0,100000001	2,04421306	-0,00027771277327628598	-0,099974673376328192	0,000204369528	-0,20772819070625322	0,0077506180887731366	0,20772819070625322
1	0	0	1	0	0	1	477084,77	-0,100000001	2,03437138	-0,00027771261227089501	-0,099974615415503488	0,000203385498	-0,21383787595007581	0,0079785786597793357	0,21383787595007581
1	0	0	1	0	0	1	477304,78	-0,100000001	2,02605534	-0,0002777133879938887	-0,099974894665748826	0,000202554671	-0,21994756527091418	0,008206539382904471	0,21994756527091418
1	0	0	1	0	0	1	477524,78	-0,100000001	2,01651859	-0,00027771395769508346	-0,099975099755393818	0,000201601651	-0,22605725977792691	0,0084345002995327462	0,22605725977792691
1	0	0	1	0	0	1	477744,78	-0,100000001	2,0062952	-0,00027771343704685571	-0,099974912326804595	0,00020057919	-0,2321669575653951	0,0086624613385592269	0,2321669575653951
1	0	0	1	0	0	1	477964,79	-0,100000001	1,9996767	-0,0002777134960724248	-0,099974933573272653	0,000199917544	-0,23827665784900522	0,008890422470720119	0,23827665784900522
1	0	0	1	0	0	1	478184,79	-0,100000001	1,99107468	-0,00027771290762515533	-0,099974721740989914	0,000199057133	-0,24438635135627261	0,009118383350046551	0,24438635135627261
1	0	0	1	0	0	1	478404,80	-0,100000001	1,98449433	-0,00027771325624527203	-0,099974847241815411	0,000198399517	-0,25049603986973779	0,0093463440430475098	0,25049603986973779
1	0	0	1	0	0	1	478624,80	-0,100000001	1,97926819	-0,00027771297563653853	-0,099974746224616422	0,000197876841	-0,2566057289171737	0,0095743047559716326	0,2566057289171737
1	0	0	1	0	0	1	478844,81	-0,100000001	1,97112393	-0,0002777138196076784	-0,099975050043721331	0,000197063215	-0,26271542712857994	0,0098022658108158118	0,26271542712857994
1	0	0	1	0	0	1	479064,81	-0,100000001	1,96832013	-0,00027771383029512234	-0,099975053893454733	0,000196782916	-0,26882513520625699	0,010030227233783819	0,26882513520625699
1	0	0	1	0	0	1	479284,81	-0,100000001	1,96416211	-0,0002777135726739135	-0,099974961151023373	0,000196367037	-0,2749348379492777	0,010258188457708626	0,2749348379492777
1	0	0	1	0	0	1	479504,82	-0,100000001	1,96025205	-0,00027771377718614208	-0,099975034772262285	0,000195976259	-0,28104452873113638	0,010486149235346395	0,28104452873113638
1	0	0	1	0	0	1	479724,82	-0,100000001	1,95773435	-0,00027771270992441309	-0,099974650570093094	0,000195723813	-0,28715421141391923	0,010714109710796757	0,28715421141391923
1	0	0	1	0	0	1	479944,83	-0,100000001	1,9554646	-0,00027771317321600189	-0,099974817351853696	0,00019549721	-0,29326389774898285	0,010942070322518624	0,29326389774898285
1	0	0	1	0	0	1	480164,83	-0,100000001	1,95525479	-0,00027771216933801773	-0,099974455962737907	0,000195475528	-0,29937358097445069	0,011170030818217291	0,29937358097445069
1	0	0	1	0	0	1	480384,83	-0,100000001	1,95439649	-0,00027771378001819056	-0,099975035796435494	0,000195390865	-0,30548326534028128	0,011397991356464427	0,30548326534028128
1	0	0	1	0	0	1	480604,84	-0,100000001	1,95464444	-0,00027771256907615398	-0,099974599861040781	0,000195414803	-0,31159296722134272	0,011625952548228374	0,31159296722134272
1	0	0	1	0	0	1	480824,84	-0,100000001	1,95462537	-0,0002777129285575615	-0,09997472927301952	0,000195413144	-0,31770265569825626	0,011853913239865544	0,31770265569825626
1	0	0	1	0	0	1	481044,85	-0,100000001	1,9548924	-0,0002777133694804377	-0,099974888003362458	0,000195440152	-0,32381234173784691	0,012081873840562914	0,32381234173784691
1	0	0	1	0	0	1	481264,85	-0,100000001	1,9548924	-0,00027771350011602045	-0,099974935033594406	0,00019544024	-0,32992204729319782	0,012309835169419541	0,32992204729319782
1	0	0	1	0	0	1	481484,86	-0,100000001	1,95437741	-0,00027771312348337638	-0,099974799448453235	0,000195388493	-0,33603173843689786	0,012537795960558101	0,33603173843689786
1	0	0	1	0	0	1	481704,86	-0,100000001	1,95435834	-0,00027771219632609021	-0,099974465678256934	0,000195385932	-0,34214142398829914	0,01276575654304047	0,34214142398829914
1	0	0	1	0	0	1	481924,86	-0,100000001	1,95319498	-0,00027771273858472701	-0,099974660887607437	0,000195270011	-0,34825111567572838	0,012993717354466294	0,34825111567572838
1	0	0	1	0	0	1	482144,87	-0,100000001	1,95437741	-0,00027771344605129629	-0,09997491556601312	0,000195388711	-0,35436080047512467	0,01322167790889035	0,35436080047512467
1	0	0	1	0	0	1	482364,87	-0,100000001	1,95456815	-0,00027771361332345341	-0,099974975785157888	0,000195407905	-0,36047050106423846	0,013449639052449994	0,36047050106423846
1	0	0	1	0	0	1	482584,88	-0,100000001	1,95374811	-0,00027771439746270573	-0,09997525806985335	0,000195326473	-0,36658019641066458	0,013677600000397914	0,36658019641066458
1	0	0	1	0	0	1	482804,88	-0,100000001	1,95466352	-0,00027771486068765325	-0,099975424825295846	0,00019541831	-0,37268991538353811	0,013905561829880349	0,37268991538353811
1	0	0	1	0	0	1	483024,89	-0,100000001	1,95235574	-0,00027771395903908547	-0,099975100242716749	0,000195186964	-0,37879962984855981	0,014133523491168773	0,37879962984855981
1	0	0	1	0	0	1	483244,89	-0,100000001	1,95361459	-0,00027771419695723386	-0,099975185891600998	0,000195312983	-0,38490934518567411	0,014361485184996144	0,38490934518567411
1	0	0	1	0	0	1	483464,89	-0,100000001	1,9523176	-0,00027771398662403222	-0,099975110173106355	0,000195183165	-0,39101908218396301	0,014589447687031062	0,39101908218396301
1	0	0	1	0	0	1	483684,90	-0,100000001	1,95088708	-0,00027771346538803645	-0,099974922531760909	0,000195039785	-0,39712880468929427	0,01481740964831425	0,39712880468929427
1	0	0	1	0	0	1	483904,90	-0,100000001	1,94648111	-0,0002777145416442719	-0,099975309974217766	0,000194600056	-0,40323852607508698	0,015045371567825946	0,40323852607508698
1	0	0	1	0	0	1	484124,91	-0,100000001	1,94686258	-0,00027771332275370755	-0,099974871180899674	0,000194637338	-0,40934824177099309	0,01527333327504032	0,40934824177099309
1	0	0	1	0	0	1	484344,91	-0,100000001	1,94873178	-0,0002777134344374968	-0,099974911385125811	0,000194824286	-0,41545794093631379	0,01550129436547633	0,41545794093631379
1	0	0	1	0	0	1	484564,92	-0,100000001	1,94705331	-0,00027771364975679254	-0,099974988903235123	0,000194656634	-0,42156763178160179	0,015729255145480733	0,42156763178160179
1	0	0	1	0	0	1	484784,92	-0,100000001	1,94833124	-0,00027771326767280701	-0,099974851355648781	0,000194784123	-0,42767733661159808	0,015957216447273405	0,42767733661159808
1	0	0	1	0	0	1	485004,92	-0,100000001	1,94924676	-0,00027771476126379437	-0,099975389038051226	0,000194876702	-0,4337870484167968	0,016185178009320259	0,4337870484167968
1	0	0	1	0	0	1	485224,93	-0,100000001	1,94781625	-0,00027771470836632781	-0,099975369995329907	0,000194733657	-0,43989676809544762	0,016413139865136195	0,43989676809544762
1	0	0	1	0	0	1	485444,93	-0,100000001	1,94648111	-0,00027771495241423446	-0,099975457846229286	0,000194600347	-0,44600648987231853	0,016641101799239542	0,44600648987231853
1	0	0	1	0	0	1	485664,94	-0,100000001	1,9437536	-0,00027771263451791472	-0,099974623420784845	0,000194326029	-0,45211618864514925	0,016869062875031222	0,45211618864514925
1	0	0	1	0	0	1	485884,94	-0,100000001	1,94300973	-0,00027771352641408643	-0,099974944498388198	0,000194252294	-0,45822588206911546	0,017097023751249574	0,45822588206911546
1	0	0	1	0	0	1	486104,94	-0,100000001	1,94142663	-0,00027771368156249325	-0,099975000348411546	0,000194094129	-0,46433558221037843	0,017324984878099306	0,46433558221037843
1	0	0	1	0	0	1	486324,95	-0,100000001	1,94169366	-0,00027771328183056579	-0,099974856452343821	0,000194120541	-0,47044527676707744	0,01755294579658144	0,47044527676707744
1	0	0	1	0	0	1	486544,95	-0,100000001	1,94148386	-0,00027771316390981277	-0,099974814001690112	0,000194099484	-0,47655495969304506	0,017780906281105354	0,47655495969304506
1	0	0	1	0	0	1	486764,96	-0,100000001	1,94072092	-0,00027771347203726573	-0,099974924925437363	0,000194023421	-0,48266464129548755	0,018008866716246762	0,48266464129548755
1	0	0	1	0	0	1	486984,96	-0,100000001	1,94033945	-0,00027771406218450931	-0,099975137369698982	0,000193985703	-0,48877434139977069	0,018236827841716723	0,48877434139977069
1	0	0	1	0	0	1	487204,97	-0,100000001	1,93971002	-0,00027771338908125958	-0,099974895064177843	0,0001939223	-0,4948840465446992	0,018464789155259939	0,4948840465446992
1	0	0	1	0	0	1	487424,97	-0,100000001	1,93911874	-0,00027771359438614714	-0,099974968966695066	0,000193863336	-0,50099375100827648	0,018692750443381024	0,50099375100827648
1	0	0	1	0	0	1	487644,97	-0,100000001	1,93915689	-0,00027771421633743578	-0,099975192863683994	0,000193867585	-0,50710345341366803	0,018920711654708432	0,50710345341366803
1	0	0	1	0	0	1	487864,98	-0,100000001	1,9392904	-0,00027771364296765792	-0,099974986459193715	0,000193880536	-0,51321315036975078	0,019148672662714806	0,51321315036975078
1	0	0	1	0	0	1	488084,98	-0,100000001	1,9380697	-0,00027771337209766109	-0,099974888947872422	0,0001937583	-0,5193228499492025	0,019376633768602602	0,5193228499492025
1	0	0	1	0	0	1	488304,99	-0,100000001	1,93822229	-0,0002777133067287505	-0,099974865415517709	0,000193773507	-0,52543254069971744	0,019604594545070893	0,52543254069971744
1	0	0	1	0	0	1	488524,99	-0,100000001	1,93745935	-0,00027771272311566605	-0,099974655318852723	0,000193696833	-0,53154222919797165	0,01983255523750431	0,53154222919797165
1	0	0	1	0	0	1	488745,00	-0,100000001	1,93593347	-0,00027771291319943139	-0,099974723747690637	0,000193544416	-0,53765193087535488	0,020060516421668749	0,53765193087535488
1	0	0	1	0	0	1	488965,00	-0,100000001	1,9346174	-0,00027771416601952579	-0,099975174750749018	0,000193413711	-0,54376162609238522	0,020288477364788736	0,54376162609238522
1	0	0	1	0	0	1	489185,00	-0,100000001	1,93402612	-0,00027771280388409894	-0,099974684390273344	0,000193353655	-0,5498713147531801	0,020516438063286762	0,5498713147531801
1	0	0	1	0	0	1	489405,01	-0,100000001	1,93377817	-0,00027771414809260102	-0,099975168300671898	0,000193329804	-0,55598100778510752	0,020744398924877622	0,55598100778510752
1	0	0	1	0	0	1	489625,01	-0,100000001	1,93303442	-0,00027771416494540042	-0,099975174367562854	0,000193255459	-0,56209070750893984	0,020972360036152451	0,56209070750893984
1	0	0	1	0	0	1	489845,02	-0,100000001	1,93114614	-0,00027771320842372048	-0,099974830026388326	0,000193066007	-0,5682004031084663	0,021200320993543885	0,5682004031084663
1	0	0	1	0	0	1	490065,02	-0,100000001	1,92956305	-0,00027771322201978826	-0,099974834920878477	0,000192907741	-0,5743100939718576	0,021428281774223744	0,5743100939718576
1	0	0	1	0	0	1	490285,03	-0,100000001	1,9276557	-0,00027771173569435878	-0,0999742998493712	0,000192716034	-0,58041977728190502	0,021656242273078189	0,58041977728190502
1	0	0	1	0	0	1	490505,03	-0,100000001	1,92660666	-0,000277713321218888	-0,099974870628375258	0,00019261225	-0,58652945500795802	0,021884202563586298	0,58652945500795802
1	0	0	1	0	0	1	490725,03	-0,100000001	1,92452765	-0,00027771312141004538	-0,099974798699740774	0,000192404259	-0,59263914136730291	0,022112163176214131	0,59263914136730291
1	0	0	1	0	0	1	490945,04	-0,100000001	1,92328787	-0,00027771265990618205	-0,099974632559221286	0,00019228	-0,59874882127396493	0,02234012354808369	0,59874882127396493
1	0	0	1	0	0	1	491165,04	-0,100000001	1,92128515	-0,0002777132533002231	-0,099974846181618214	0,000192080188	-0,60485850130457894	0,022568083924578067	0,60485850130457894
1	0	0	1	0	0	1	491385,05	-0,100000001	1,91912985	-0,00027771236821677949	-0,099974527557713574	0,000191864106	-0,61096817202842534	0,022796043953824429	0,61096817202842534
1	0	0	1	0	0	1	491605,05	-0,100000001	1,91668844	-0,00027771209406521584	-0,099974428865050995	0,000191619838	-0,61707784446681203	0,023024004047042595	0,61707784446681203
1	0	0	1	0	0	1	491825,06	-0,100000001	1,91539145	-0,00027771384068702656	-0,099975057632140557	0,000191491374	-0,62318753502219802	0,023251964816230365	0,62318753502219802
1	0	0	1	0	0	1	492045,06	-0,100000001	1,91272128	-0,00027771224441876013	-0,099974482988957069	0,000191223327	-0,62929721773064602	0,023479925292638326	0,62929721773064602
1	0	0	1	0	0	1	492265,06	-0,100000001	1,91039431	-0,00027771194334700704	-0,099974374604630963	0,000190990482	-0,63540688569794099	0,023707885219034048	0,63540688569794099
1	0	0	1	0	0	1	492485,07	-0,100000001	1,9077431	-0,00027771254832090605	-0,099974592389295386	0,000190725841	-0,64151657181572147	0,023935845822648794	0,64151657181572147
1	0	0	1	0	0	1	492705,07	-0,100000001	1,90545428	-0,00027771312144771219	-0,099974798715628237	0,000190497405	-0,64762625464545907	0,02416380630358223	0,64762625464545907
1	0	0	1	0	0	1	492925,08	-0,100000001	1,90280306	-0,00027771290996422371	-0,09997472258303831	0,000190232211	-0,6537359360162528	0,024391766730080512	0,6537359360162528
1	0	0	1	0	0	1	493145,08	-0,100000001	1,89998019	-0,00027771258072927597	-0,099974604060739251	0,000189949773	-0,65984561638136781	0,024619727119055571	0,65984561638136781
1	0	0	1	0	0	1	493365,08	-0,100000001	1,89658511	-0,0002777116406642728	-0,099974265643854298	0,000189609709	-0,66595528793999718	0,02484768717944881	0,66595528793999718
1	0	0	1	0	0	1	493585,09	-0,100000001	1,89223647	-0,00027771304125297405	-0,099974769841423027	0,000189175902	-0,67206495264114509	0,025075646983980192	0,67206495264114509
1	0	0	1	0	0	1	493805,09	-0,100000001	1,88956618	-0,00027771230888822013	-0,099974506196351949	0,000188908452	-0,67817462577873818	0,025303607103286694	0,67817462577873818
1	0	0	1	0	0	1	494025,10	-0,100000001	1,884588	-0,00027771230868457091	-0,099974506124203482	0,000188410748	-0,68428430879236237	0,02553156759108119	0,68428430879236237
1	0	0	1	0	0	1	494245,10	-0,100000001	1,8795526	-0,00027771289063369235	-0,099974715619525658	0,000187907732	-0,69039399720826266	0,025759528280441872	0,69039399720826266
1	0	0	1	0	0	1	494465,11	-0,100000001	1,8745172	-0,00027771352949821286	-0,099974945610980006	0,000187404759	-0,69650368437159795	0,025987488923067667	0,69650368437159795
1	0	0	1	0	0	1	494685,11	-0,100000001	1,86898601	-0,00027771364794340397	-0,099974988250427802	0,000186851859	-0,70261337661594752	0,026215449755272941	0,70261337661594752
1	0	0	1	0	0	1	494905,11	-0,100000001	1,86246288	-0,00027771238452610042	-0,09997453342895607	0,000186198857	-0,70872306688298701	0,026443410513702112	0,70872306688298701
1	0	0	1	0	0	1	495125,12	-0,100000001	1,85412776	-0,00027771422734649648	-0,09997519682686953	0,000185366793	-0,71483276032294528	0,026671371390517149	0,71483276032294528
1	0	0	1	0	0	1	495345,12	-0,100000001	1,84478188	-0,00027771352530684736	-0,099974944099789811	0,000184431963	-0,72094246614528602	0,026899332729335526	0,72094246614528602
1	0	0	1	0	0	1	495565,13	-0,100000001	1,83398628	-0,00027771308683769568	-0,099974786252770688	0,000183352386	-0,72705215837932467	0,027127293561156083	0,72705215837932467
1	0	0	1	0	0	1	495785,13	-0,100000001	1,81832707	-0,00027771297822230394	-0,099974747150818714	0,000181786789	-0,73316184333163674	0,027355254121285629	0,73316184333163674
1	0	0	1	0	0	1	496005,14	-0,100000001	1,79639268	-0,00027771256830377715	-0,099974599587645798	0,00017959364	-0,73927153691002573	0,027583215003265709	0,73927153691002573
1	0	0	1	0	0	1	496225,14	-0,100000001	1,74535239	-0,00027771303314632835	-0,099974766927742131	0,000174491201	-0,74538122895548992	0,027811175828050294	0,74538122895548992
1	0	0	1	0	0	1	496445,14	-0,100000001	1,63985753	-0,0002777129201818671	-0,099974726261319104	0,000163944307	-0,75149091144274522	0,028039136296205264	0,75149091144274522
1	0	0	1	0	0	1	496665,15	-0,100000001	1,50888062	-0,0002777122245190872	-0,099974475827540416	0,000150849548	-0,75760058952430259	0,028267096599977715	0,75760058952430259
1	0	0	1	0	0	1	496885,15	-0,100000001	1,41158736	-0,00027771280081032051	-0,099974683286062106	0,000141123004	-0,7637102753534633	0,028495057192823661	0,7637102753534633
1	0	0	1	0	0	1	497105,16	-0,100000001	1,33861268	-0,0002777135627679527	-0,09997495758494615	0,000133827751	-0,76981996510057958	0,028723017931853802	0,76981996510057958
1	0	0	1	0	0	1	497325,16	-0,100000001	1,27341986	-0,00027771272712656192	-0,099974656758092083	0,000127309715	-0,77592965927575258	0,028950978836100691	0,77592965927575258
1	0	0	1	0	0	1	497545,17	-0,100000001	1,20029247	-0,00027771317100814646	-0,099974816557041037	0,000119999022	-0,78203935344686784	0,029178939740196179	0,78203935344686784
1	0	0	1	0	0	1	497765,17	-0,100000001	1,11301279	-0,0002777129878397617	-0,099974750617692173	0,000111273177	-0,78814904649698291	0,029406900602465645	0,78814904649698291
1	0	0	1	0	0	1	497985,17	-0,100000001	1,00866234	-0,00027771308626482883	-0,099974786050034112	0,0001008408	-0,79425873261382451	0,029634861206045357	0,79425873261382451
1	1	0	0	0	0	2	498192,28	0,100000001	2,45297456	0,0002778108729819457	0,10000998858746387	0,000245321949	-0,7894553270021056	0,029455639684424595	0,005278408570265191
1	1	0	0	0	0	2	498412,29	0,100000001	2,48343492	0,00027781041423686678	0,10000982344066896	0,000248367898	-0,78334348658644058	0,029227598701059296	0,01139024898593045
1	1	0	0	0	0	2	498632,29	0,100000001	2,47670197	0,00027781095856759283	0,10001001940061421	0,000247695018	-0,7772316467182071	0,028999557738119405	0,017502088854163885
1	1	0	0	0	0	2	498852,30	0,100000001	2,4634459	0,00027781129848584534	0,10001014176882893	0,000246369571	-0,77111980782686938	0,02877151681162881	0,023613927745501622
1	1	0	0	0	0	2	499072,30	0,100000001	2,45701814	0,00027781073277692	0,1000099381175371	0,000245726231	-0,76500796712429376	0,02854347581755849	0,029725768448077146
1	1	0	0	0	0	2	499292,30	0,100000001	2,44818711	0,00027781107359296742	0,10001006080895178	0,000244843337	-0,75889612447542426	0,028315434750869328	0,035837611096946733
1	1	0	0	0	0	2	499512,31	0,100000001	2,4440484	0,00027781153182519808	0,10001022576472149	0,00024442983	-0,75278428356227277	0,028087393748942147	0,041949452010098042
1	1	0	0	0	0	2	499732,31	0,100000001	2,44006205	0,00027781174693546362	0,10001030320409027	0,00024403134	-0,74667244359927334	0,02785935278246641	0,048061291973097478
1	1	0	0	0	0	2	499952,32	0,100000001	2,4365716	0,00027781128838741117	0,10001013813113411	0,000243681861	-0,74056059790085696	0,027631311601994554	0,054173137671513715
1	1	0	0	0	0	2	500172,32	0,100000001	2,43475962	0,00027781172730815075	0,10001029613722946	0,000243501025	-0,73444874701890662	0,02740327022811808	0,060284988553464026
1	1	0	0	0	0	2	500392,32	0,100000001	2,4347024	0,00027781107861672842	0,10001006261747088	0,000243494738	-0,72833689883261888	0,027175228954820403	0,066396836739751616
1	1	0	0	0	0	2	500612,33	0,100000001	2,43670511	0,00027781080712543597	0,10000996488248747	0,000243694798	-0,7222250575618624	0,02694718793955049	0,072508678010508032
1	1	0	0	0	0	2	500832,33	0,100000001	2,43607569	0,00027781071992549632	0,10000993349111365	0,000243631774	-0,71611321701079066	0,026719146951132989	0,078620518561580134
1	1	0	0	0	0	2	501052,34	0,100000001	2,43664789	0,00027780957785041798	0,10000952234734493	0,000243687988	-0,71000138568097702	0,026491106306773021	0,084732349891393549
1	1	0	0	0	0	2	501272,34	0,100000001	2,43702936	0,00027780990755682192	0,10000964104169341	0,000243726434	-0,70388955906220941	0,026263065838188518	0,090844176510161024
1	1	0	0	0	0	2	501492,35	0,100000001	2,43826914	0,00027781058190017939	0,10000988379946357	0,000243851013	-0,69777772579020877	0,026035025121362944	0,096956009782162035
1	1	0	0	0	0	2	501712,35	0,100000001	2,44076777	0,00027781070812377664	0,10000992923791939	0,000244101015	-0,69166588593782387	0,025806984159014384	0,10306784963454683
1	1	0	0	0	0	2	501932,35	0,100000001	2,439013	0,00027781093363422486	0,10001001042477458	0,000243925722	-0,68555404461982656	0,025578943141981856	0,10917969095254406
1	1	0	0	0	0	2	502152,36	0,100000001	2,44015741	0,00027781060661541091	0,10000989270026832	0,000244039882	-0,67944220075177088	0,025350902029803216	0,11529153482059974
1	1	0	0	0	0	2	502372,36	0,100000001	2,44086313	0,00027781060196749037	0,10000989102704914	0,000244110459	-0,67333035970846157	0,02512286102301967	0,12140337586390894
1	1	0	0	0	0	2	502592,37	0,100000001	2,44126368	0,00027781079880603485	0,10000996188756074	0,000244150695	-0,66721851852763533	0,024894820011105181	0,12751521704473523
1	1	0	0	0	0	2	502812,37	0,100000001	2,44183588	0,00027781059688453872	0,1000098891948933	0,000244207738	-0,66110668450427597	0,024666779266245402	0,13362705106809461
1	1	0	0	0	0	2	503032,38	0,100000001	2,44261789	0,00027781100946954554	0,10001003772205374	0,000244286319	-0,65499484342550042	0,024438738258138557	0,13973889214687027
1	1	0	0	0	0	2	503252,38	0,100000001	2,44221735	0,00027781104947295453	0,10001005212125731	0,000244246272	-0,6488830000119735	0,024210697162919002	0,14585073556039706
1	1	0	0	0	0	2	503472,38	0,100000001	2,44381952	0,00027781079196184877	0,1000099594237012	0,000244406285	-0,64277115854694822	0,023982656140400662	0,1519625770254224
1	1	0	0	0	0	2	503692,39	0,100000001	2,44692826	0,00027781132497928208	0,10001015130628253	0,000244717667	-0,63665932848081882	0,023754615543190454	0,15807440709155158
1	1	0	0	0	0	2	503912,39	0,100000001	2,44730973	0,00027781101698925098	0,10001004043200619	0,00024475556	-0,63054748592401997	0,023526574479936576	0,16418624964835062
1	1	0	0	0	0	2	504132,40	0,100000001	2,44761491	0,00027781185815690288	0,10001034324653022	0,000244786817	-0,62443563821595942	0,023298533224482195	0,17029809735641114
1	1	0	0	0	0	2	504352,40	0,100000001	2,44692826	0,0002778106249666048	0,10000989930191395	0,000244717055	-0,61832380365615654	0,023070492459606986	0,17640993191621389
1	1	0	0	0	0	2	504572,41	0,100000001	2,4492743	0,00027781047953416902	0,10000984694840941	0,000244951545	-0,61221197514801626	0,022842451920527446	0,18252176042435421
1	1	0	0	0	0	2	504792,41	0,100000001	2,45001817	0,0002778108087927103	0,10000996548036618	0,000245026225	-0,60610014094529907	0,022614411168975584	0,18863359462707142
1	1	0	0	0	0	2	505012,41	0,100000001	2,44980836	0,00027781000574015907	0,10000967638468574	0,000245004543	-0,59998831651454451	0,02238637078202879	0,19474541905782602
1	1	0	0	0	0	2	505232,42	0,100000001	2,45129609	0,00027781037748894758	0,10000981021632976	0,000245153671	-0,59387648478010522	0,022158330122571696	0,20085725079226522
1	1	0	0	0	0	2	505452,42	0,100000001	2,45257401	0,0002778101107006272	0,1000097141743837	0,000245281233	-0,58776465785764941	0,021930289642656176	0,20696907771472118
1	1	0	0	0	0	2	505672,43	0,100000001	2,45383286	0,00027781007648921674	0,10000970185851307	0,000245407107	-0,58165283307448	0,021702249242560307	0,21308090249789078
1	1	0	0	0	0	2	505892,43	0,100000001	2,45476747	0,0002778098796233535	0,10000963098350994	0,000245500385	-0,57554100198038227	0,021474208606995219	0,21919273359198848
1	1	0	0	0	0	2	506112,43	0,100000001	2,45575929	0,00027780975604926547	0,10000958650002328	0,000245599484	-0,5694291762479177	0,021246168171479872	0,22530455932445306
1	1	0	0	0	0	2	506332,44	0,100000001	2,45772386	0,0002778101602995561	0,10000973203081853	0,000245796313	-0,56331735111079616	0,021018127758177574	0,23141638446157488
1	1	0	0	0	0	2	506552,44	0,100000001	2,45825791	0,0002778112229435808	0,10001011456948034	0,00024585065	-0,5572055350354441	0,02079008768298208	0,23752820053692682
1	1	0	0	0	0	2	506772,45	0,100000001	2,45856309	0,00027781021864008573	0,10000975303184056	0,000245880277	-0,55109371028362861	0,020562047284056067	0,2436400252887423
1	1	0	0	0	0	2	506992,45	0,100000001	2,4618628	0,00027781015069906909	0,10000972857354552	0,000246210227	-0,54498188453455462	0,020334006847921002	0,24975185103781635
1	1	0	0	0	0	2	507212,46	0,100000001	2,46060395	0,00027781123617581197	0,10001011933764882	0,000246085285	-0,53887004400621254	0,020105965860351571	0,25586369156615894
1	1	0	0	0	0	2	507432,46	0,100000001	2,4621489	0,00027781089773277443	0,10000999750050128	0,000246239506	-0,5327581999333657	0,019877924740531901	0,26197553563900589
1	1	0	0	0	0	2	507652,46	0,100000001	2,46272111	0,00027781216938131382	0,10001045528050386	0,000246297859	-0,52664635365183795	0,019649883538303382	0,26808738192053354
1	1	0	0	0	0	2	507872,47	0,100000001	2,46357942	0,00027781120425669683	0,10001010784815288	0,000246382842	-0,52053450381506304	0,019421842203423808	0,27419923175730854
1	1	0	0	0	0	2	508092,47	0,100000001	2,46453309	0,00027781068523931834	0,10000992099967301	0,00024647775	-0,51442265835339629	0,019193801031785398	0,28031107721897507
1	1	0	0	0	0	2	508312,48	0,100000001	2,4643805	0,00027781065873346397	0,10000991146240616	0,00024646247	-0,50831081958626266	0,018965760109929027	0,28642291598610874
1	1	0	0	0	0	2	508532,48	0,100000001	2,46520066	0,00027781198855613667	0,1000103901893505	0,000246545678	-0,50219897568469229	0,01873771899649991	0,29253475988767923
1	1	0	0	0	0	2	508752,49	0,100000001	2,46422791	0,00027781133945534624	0,10001015651756528	0,000246447831	-0,4960871231585031	0,018509677561274675	0,29864661241386835
1	1	0	0	0	0	2	508972,49	0,100000001	2,46581101	0,0002778123728161057	0,10001052852027581	0,000246607058	-0,48997527020657581	0,018281636110164576	0,30475846536579565
1	1	0	0	0	0	2	509192,49	0,100000001	2,46630692	0,0002778112409652935	0,10001012105717198	0,000246655662	-0,4838634107493168	0,018053594416331805	0,31087032482305472
1	1	0	0	0	0	2	509412,50	0,100000001	2,46851945	0,00027781161482301024	0,10001025564917981	0,000246877258	-0,47775156077264627	0,017825553076232538	0,31698217479972518
1	1	0	0	0	0	2	509632,50	0,100000001	2,46851945	0,00027781131131326157	0,10001014638428136	0,000246876996	-0,47163970750787322	0,017597511613449741	0,3230940280644983
1	1	0	0	0	0	2	509852,51	0,100000001	2,47185731	0,00027781071961381366	0,10000993337425307	0,000247210293	-0,4655278663668464	0,017369470603020221	0,32920586920552506
1	1	0	0	0	0	2	510072,51	0,100000001	2,47199082	0,00027781098804415926	0,10001003001197381	0,000247223885	-0,45941601193796038	0,01714142909680281	0,33531772363441107
1	1	0	0	0	0	2	510292,52	0,100000001	2,47395539	0,00027781110485560362	0,10001007206328408	0,000247420452	-0,45330416269294246	0,016913387784002483	0,34142957287942899
1	1	0	0	0	0	2	510512,52	0,100000001	2,47302079	0,00027781057331918013	0,10000988071385605	0,000247326505	-0,44719231346277907	0,016685346471756397	0,34754142210959245
1	1	0	0	0	0	2	510732,52	0,100000001	2,47479463	0,00027781078237667677	0,10000995596844874	0,000247504096	-0,44108046488934394	0,016457305184013731	0,35365327068302752
1	1	0	0	0	0	2	510952,53	0,100000001	2,47475648	0,00027781165394849251	0,10001026973058947	0,00024750107	-0,43496861654232045	0,016229263904718784	0,35976511903005101
1	1	0	0	0	0	2	511172,53	0,100000001	2,4753859	0,00027781142868060202	0,10001018863512826	0,000247563818	-0,42885677163310323	0,016001222753693014	0,36587696393926829
1	1	0	0	0	0	2	511392,54	0,100000001	2,47681642	0,00027781116793056333	0,10001009476517538	0,00024770663	-0,42274492459040026	0,015773181523064019	0,3719888109819712
1	1	0	0	0	0	2	511612,54	0,100000001	2,47962022	0,00027781048041954634	0,10000984727063184	0,000247986434	-0,41663307546518547	0,015545140214733712	0,37810066010718598
1	1	0	0	0	0	2	511832,54	0,100000001	2,47912431	0,0002778114057386087	0,1000101803790803	0,000247937656	-0,41052123436184531	0,01531709920571033	0,38421250121052621
1	1	0	0	0	0	2	512052,55	0,100000001	2,48017335	0,00027781082328408954	0,10000997069949078	0,000248042052	-0,40440938674254426	0,015089057953567686	0,3903243488298272
1	1	0	0	0	0	2	512272,55	0,100000001	2,48276734	0,0002778109774659905	0,10001002620390638	0,000248301629	-0,39829754236869152	0,014861016822517082	0,39643619320367994
1	1	0	0	0	0	2	512492,56	0,100000001	2,48105073	0,00027781112732282941	0,10001008014667266	0,000248130091	-0,3921856905608009	0,014632975414092531	0,40254804501157062
1	1	0	0	0	0	2	512712,56	0,100000001	2,48173738	0,00027781277158318298	0,10001067207016675	0,000248200231	-0,38607383310692275	0,014404933795008592	0,40865990246544877
1	1	0	0	0	0	2	512932,57	0,100000001	2,48129869	0,00027781126120314	0,10001012834498494	0,000248155004	-0,37996196576821357	0,014176891807108318	0,41477176980415789
1	1	0	0	0	0	2	513152,57	0,100000001	2,48219514	0,0002778109529117743	0,10001001735990178	0,000248244382	-0,3738501093300064	0,013948850225920432	0,42088362624236506
1	1	0	0	0	0	2	513372,57	0,100000001	2,48353028	0,00027781210746160813	0,10001043299449602	0,000248378929	-0,36773825066247418	0,01372080856155343	0,42699548490989728
1	1	0	0	0	0	2	513592,58	0,100000001	2,48250031	0,00027781292395169533	0,10001072692526781	0,000248276658	-0,3616263781031831	0,013492766378866227	0,43310735746918835
1	1	0	0	0	0	2	513812,58	0,100000001	2,482939	0,00027781193420042592	0,10001037062167141	0,000248319644	-0,3555145173161984	0,013264724635419602	0,43921921825617306
1	1	0	0	0	0	2	514032,59	0,100000001	2,48187089	0,00027781131669258077	0,1000101483184705	0,00024821228	-0,34940265704604096	0,013036682911256496	0,4453310785263305
1	1	0	0	0	0	2	514252,59	0,100000001	2,48118424	0,00027781066898546282	0,10000991515072619	0,000248143013	-0,34329081152252531	0,012808641737310426	0,45144292404984614
1	1	0	0	0	0	2	514472,60	0,100000001	2,47736955	0,00027781066325638029	0,10000991308713195	0,00024776152	-0,33717896865973882	0,012580600662639734	0,4575547669126327
1	1	0	0	0	0	2	514692,60	0,100000001	2,48232865	0,00027781164086568685	0,10001026501854162	0,000248258351	-0,33106712679653338	0,01235255962526476	0,46366660877583808
1	1	0	0	0	0	2	514912,60	0,100000001	2,47942948	0,0002778096742903193	0,10000955706969789	0,000247966644	-0,32495529278885626	0,012124518880990106	0,4697784427835152
1	1	0	0	0	0	2	515132,61	0,100000001	2,4757483	0,00027781092769818176	0,10001000828784019	0,000247599615	-0,3188434683271545	0,011896478492888627	0,47589026724521696
1	1	0	0	0	0	2	515352,61	0,100000001	2,47527146	0,00027780953680103027	0,10000950757450685	0,000247550692	-0,31273164822667437	0,011668438267510192	0,48200208734569709
1	1	0	0	0	0	2	515572,62	0,100000001	2,47506166	0,00027781054628847373	0,1000098709829891	0,00024753061	-0,30661981850180467	0,011440397683032843	0,48811391707056678
1	1	0	0	0	0	2	515792,62	0,100000001	2,47654939	0,00027781006577114269	0,10000969799775221	0,000247678952	-0,30050799159015334	0,011212357203520451	0,49422574398221811
1	1	0	0	0	0	2	516012,63	0,100000001	2,47376466	0,00027780917075028026	0,10000937579528146	0,000247399672	-0,29439618109795648	0,010984317336639986	0,50033755447441498
1	1	0	0	0	0	2	516232,63	0,100000001	2,47466111	0,00027781000852295091	0,10000967738647152	0,000247490068	-0,28828437144727539	0,010756277501157602	0,506449364125096
1	1	0	0	0	0	2	516452,63	0,100000001	2,47458482	0,00027780957727382582	0,1000095221444327	0,000247482036	-0,28217255427738637	0,010528237385123459	0,51256118129498483
1	1	0	0	0	0	2	516672,64	0,100000001	2,4744513	0,00027781021662553149	0,10000975230661501	0,000247469259	-0,2760607345928639	0,010300197175264965	0,5186730009795072
1	1	0	0	0	0	2	516892,64	0,100000001	2,47609162	0,00027781049837254816	0,10000985373358805	0,00024763355	-0,26994890426580915	0,01007215656831928	0,52478483130656192
1	1	0	0	0	0	2	517112,65	0,100000001	2,47822785	0,00027781001553187766	0,10000967991429354	0,000247846765	-0,26383707371079312	0,0098441159528680538	0,53089666186157766
1	1	0	0	0	0	2	517332,65	0,100000001	2,47818971	0,00027781092510289613	0,10001000734889838	0,000247843767	-0,25772523864029363	0,0096160751689380685	0,53700849693207699
1	1	0	0	0	0	2	517552,66	0,100000001	2,47935319	0,00027781191391911766	0,10001036331704827	0,000247961027	-0,25161337898165421	0,0093880334675915251	0,54312035659071667
1	1	0	0	0	0	2	517772,66	0,100000001	2,48076463	0,00027781152830769619	0,1000102245007737	0,000248101831	-0,24550152154795184	0,0091599918492603725	0,54923221402441926
1	1	0	0	0	0	2	517992,66	0,100000001	2,4858191	0,00027781141569092867	0,10001018395718952	0,000248607219	-0,23938966231702042	0,0089319501638721882	0,55534407325535072
1	1	0	0	0	0	2	518212,67	0,100000001	2,48349214	0,00027781210053877702	0,10001043050232478	0,000248375116	-0,23327779560673549	0,0087039081994192678	0,56145593996563571
1	1	0	0	0	0	2	518432,67	0,100000001	2,48663926	0,00027781139068884979	0,10001017496127144	0,000248689234	-0,22716593082047686	0,0084758663067543565	0,56756780475189408
1	1	0	0	0	0	2	518652,68	0,100000001	2,48570466	0,00027781214683502912	0,10001044716865464	0,000248596421	-0,22105406644277459	0,0082478244293332326	0,57367966912959635
1	1	0	0	0	0	2	518872,68	0,100000001	2,48869896	0,00027781208295954598	0,10001042416926646	0,000248895842	-0,21494220409954563	0,0080197826278210419	0,57979153147282547
1	1	0	0	0	0	2	519092,68	0,100000001	2,49470711	0,0002778119868085616	0,10001038955790709	0,000249496632	-0,20883034189017587	0,007791740831303319	0,5859033936821952
1	1	0	0	0	0	2	519312,69	0,100000001	2,49310493	0,00027781176269799475	0,10001030887849221	0,000249336183	-0,20271847436779133	0,0075636988365498714	0,59201526120457984
1	1	0	0	0	0	2	519532,69	0,100000001	2,49621391	0,00027781217945367101	0,10001045890648261	0,000249647506	-0,19660660574409504	0,007335656800705001	0,59812712982827635
1	1	0	0	0	0	2	519752,70	0,100000001	2,49680519	0,00027781170649992096	0,10001028865106794	0,000249706209	-0,1904947440370103	0,0071076150229282061	0,60423899153536102
1	1	0	0	0	0	2	519972,70	0,100000001	2,49670982	0,00027781245225212643	0,10001055711669264	0,000249697332	-0,18438287867765603	0,0068795731088803264	0,61035085689471539
1	1	0	0	0	0	2	520192,71	0,100000001	2,49854088	0,00027781285951369334	0,10001070372803376	0,000249880832	-0,17827100761380486	0,0066515309819899968	0,61646272795856653
1	1	0	0	0	0	2	520412,71	0,100000001	2,50191689	0,00027781251281541254	0,10001057891905584	0,000250218145	-0,17215912871546202	0,0064234885627842483	0,62257460685690931
1	1	0	0	0	0	2	520632,71	0,100000001	2,50121117	0,0002778129859574967	0,10001074924226947	0,000250148005	-0,16604724383794419	0,0061954459204874445	0,62868649173442714
1	1	0	0	0	0	2	520852,72	0,100000001	2,5105381	0,00027781183721290694	0,1000103357033441	0,000251079764	-0,15993536763612874	0,0059674036018927578	0,63479836793624282
1	1	0	0	0	0	2	521072,72	0,100000001	2,51011848	0,00027781229813728064	0,10001050163175942	0,000251038204	-0,1538234989827841	0,0057393615649416685	0,64091023658958746
1	1	0	0	0	0	2	521292,73	0,100000001	2,51130104	0,00027781236203014854	0,10001052463740598	0,00025115654	-0,14771162068229114	0,005511319168042503	0,64702211489008038
1	1	0	0	0	0	2	521512,73	0,100000001	2,51524925	0,00027781287315860397	0,10001070864010698	0,000251551857	-0,14159974429692062	0,0052832768425991328	0,65313399127545101
1	1	0	0	0	0	2	521732,74	0,100000001	2,51725197	0,00027781239709796176	0,10001053726157568	0,000251751713	-0,13548786495958546	0,0050552344070139904	0,6592458706127863
1	1	0	0	0	0	2	521952,74	0,100000001	2,51479149	0,00027781219362012218	0,10001046401096386	0,000251505466	-0,12937599017480128	0,0048271921412906477	0,6653577453975703
1	1	0	0	0	0	2	522172,74	0,100000001	2,50937462	0,00027781324833383158	0,10001084369593133	0,000250964658	-0,12326410284860501	0,0045991494076303578	0,67146963272376653
1	1	0	0	0	0	2	522392,75	0,100000001	2,50885963	0,00027781269816433386	0,10001064563988998	0,000250912679	-0,11715221721347448	0,0043711067370660032	0,67758151835889715
1	1	0	0	0	0	2	522612,75	0,100000001	2,49173164	0,00027781281849369405	0,10001068895646131	0,000249199802	-0,11104033489898576	0,0041430641903992608	0,68369340067338586
1	1	0	0	0	0	2	522832,76	0,100000001	2,48549485	0,00027781293687058822	0,10001073157132266	0,000248576165	-0,10492844217416051	0,0039150212553088646	0,68980529339821146
1	1	0	0	0	0	2	523052,76	0,100000001	2,48541856	0,00027781274462946582	0,10001066237050819	0,000248568365	-0,098816545490764378	0,0036869781725188666	0,69591719008160806
1	1	0	0	0	0	2	523272,77	0,100000001	2,48389268	0,00027781309971503085	0,10001079019885024	0,000248416065	-0,092704648358061786	0,00345893507296464	0,70202908721431066
1	1	0	0	0	0	2	523492,77	0,100000001	2,48620057	0,00027781326778978109	0,10001085070459531	0,000248647033	-0,086592765314727488	0,0032308924991036883	0,70814097025764506
1	1	0	0	0	0	2	523712,77	0,100000001	2,48473191	0,00027781261538465818	0,10001061583861627	0,000248499564	-0,080480887499105037	0,0030028501202956941	0,71425284807326746
1	1	0	0	0	0	2	523932,78	0,100000001	2,4885273	0,00027781167187790074	0,10001027618505216	0,000248878292	-0,07436900262499584	0,0027748074781260694	0,72036473294737651
1	1	0	0	0	0	2	524152,78	0,100000001	2,49432564	0,00027781276208327875	0,10001066865026707	0,000249459175	-0,068257134189565005	0,0025467654493056365	0,72647660138280742
1	1	0	0	0	0	2	524372,79	0,100000001	2,49434471	0,00027781252803198163	0,10001063208478262	0,00024946098	-0,062145249337240896	0,0023187228079488429	0,73258848623513126
1	1	0	0	0	0	2	524592,79	0,100000001	2,49302864	0,0002778129649919768	0,10001078938742702	0,000249329751	-0,056033356406091245	0,0020906798651602058	0,73870037916628122
1	1	0	0	0	0	2	524812,79	0,100000001	2,49615669	0,000277813478126708	0,10001097411246147	0,000249643053	-0,049921464628139981	0,0018626369653989514	0,74481227094423258
1	1	0	0	0	0	2	525032,80	0,100000001	2,49497414	0,00027781359716132285	0,10001101696411814	0,000249524892	-0,043809566849064352	0,0016345938417276781	0,75092416872330829
1	1	0	0	0	0	2	525252,80	0,100000001	2,49495506	0,00027781351256536112	0,10001098651014378	0,000249522913	-0,037697672199974726	0,0014065508348403907	0,7570360633723977
1	1	0	0	0	0	2	525472,81	0,100000001	2,49745369	0,00027781343119301728	0,10001095721199306	0,00024977274	-0,031585782529494675	0,0011785080137117206	0,7631479530428777
1	1	0	0	0	0	2	525692,81	0,100000001	2,49829292	0,00027781381204475965	0,10001109431488147	0,000249856996	-0,025473882274371734	0,00095046479765579302	0,76925985329800051
1	1	0	0	0	0	2	525912,82	0,100000001	2,49968529	0,00027781422563145562	0,10001124320678898	0,000249996636	-0,019361976771056912	0,00072242138578277018	0,77537175880131494
1	1	0	0	0	0	2	526132,82	0,100000001	2,50243187	0,0002778132145777345	0,10001087923195555	0,000250270416	-0,013250082455331098	0,00049437839133373504	0,78148365311704077
1	1	0	0	0	0	2	526352,82	0,100000001	2,50861168	0,0002778133662732111	0,10001093384595872	0,00025088861	-0,0071381823618853389	0,00026633518131020054	0,78759555321048691
1	1	0	0	0	0	2	526572,83	0,100000001	2,5080204	0,00027781310864786307	0,10001084110257496	0,000250829238	-0,0010262825644321034	3,8291982330545062E-005	0,79370745300794022
1	1	0	0	0	0	2	526792,83	0,100000001	2,50952721	0,00027781357556912634	0,10001100919107338	0,000250980345	0,0050856160305379872	-0,00018975117178284755	0,79981935160291021
1	1	0	0	0	0	2	527012,84	0,100000001	2,51088142	0,00027781376829495037	0,10001107857106718	0,000251115969	0,011197519448855427	-0,00041779450586181478	0,80593125502122765
1	1	0	0	0	0	2	527232,84	0,100000001	2,51297951	0,00027781357513575088	0,10001100903506114	0,000251325604	0,017309417317635635	-0,0006458376328800864	0,81204315289000794
1	1	0	0	0	0	2	527452,84	0,100000001	2,51509666	0,00027781300250482234	0,10001080289179781	0,00025153684	0,023421312247504934	-0,0008738806502436407	0,81815504781987738
1	1	0	0	0	0	2	527672,85	0,100000001	2,5155735	0,00027781344889683856	0,10001096358990606	0,000251584919	0,029533212225195981	-0,0011019238559482114	0,82426694779756851
1	1	0	0	0	0	2	527892,85	0,100000001	2,51830101	0,00027781244132088294	0,10001060086937323	0,000251856807	0,035645097009998368	-0,0013299664947856789	0,83037883258237094
1	1	0	0	0	0	2	528112,86	0,100000001	2,51933098	0,00027781356389572224	0,10001100498872682	0,000251960824	0,041756992872672922	-0,0015580095469534512	0,83649072844504538
1	1	0	0	0	0	2	528332,86	0,100000001	2,51872063	0,00027781378547681702	0,10001108475642304	0,000251899968	0,047868899589599539	-0,0017860530041079622	0,8426026351619721
1	1	0	0	0	0	2	528552,86	0,100000001	2,51978874	0,00027781480220788058	0,10001145077273283	0,00025200774	0,053980814567779622	-0,0020140967695009469	0,84871455014015232
1	1	0	0	0	0	2	528772,87	0,100000001	2,52318382	0,00027781383734072243	0,10001110342242136	0,000252346392	0,060092725044404186	-0,0022421403669348429	0,8548264606167767
1	1	0	0	0	0	2	528992,87	0,100000001	2,52533913	0,00027781449340532221	0,10001133960240653	0,000252562546	0,066204642811808845	-0,0024701842363975472	0,8609383783841815
1	1	0	0	0	0	2	529212,88	0,100000001	2,52676964	0,0002778147350301345	0,10001142658454134	0,000252705824	0,07231655788820704	-0,0026982280054551814	0,86705029346057971
1	1	0	0	0	0	2	529432,88	0,100000001	2,53048873	0,00027781388344615702	0,10001112002006613	0,000253077014	0,078428471869965082	-0,0029262717336703206	0,87316220744233805
1	1	0	0	0	0	2	529652,89	0,100000001	2,53359771	0,00027781391093383235	0,10001112992010046	0,00025338796	0,084540380603380211	-0,003154315266062729	0,87927411617575322
1	1	0	0	0	0	2	529872,89	0,100000001	2,53584838	0,00027781397340819238	0,10001115241044778	0,000253613107	0,09065229446154761	-0,003382358989666535	0,8853860300339209
1	1	0	0	0	0	2	530092,89	0,100000001	2,53909087	0,00027781457524208557	0,10001136906658093	0,000253937964	0,096764216020246029	-0,0036104030005875059	0,89149795159261952
1	1	0	0	0	0	2	530312,90	0,100000001	2,54097915	0,00027781427970818346	0,10001126267637397	0,000254126528	0,10287613067405846	-0,0038384467538778982	0,89760986624643226
1	1	0	0	0	0	2	530532,90	0,100000001	2,5434587	0,00027781394323872195	0,10001114154964235	0,000254374201	0,10898803347624722	-0,0040664900649682752	0,90372176904862118
1	1	0	0	0	0	2	530752,91	0,100000001	2,54593825	0,00027781386207789184	0,10001111233229214	0,000254622108	0,11509993855791998	-0,0042945334611092666	0,90983367413029427
1	1	0	0	0	0	2	530972,91	0,100000001	2,54803634	0,00027781448359042403	0,10001133607260234	0,000254832528	0,1212118491623721	-0,0045225770633125798	0,91594558473474637
1	1	0	0	0	0	2	531192,91	0,100000001	2,55120254	0,00027781436194603638	0,1000112922814451	0,000255149062	0,12732376589442917	-0,0047506208941450739	0,92205750146680358
1	1	0	0	0	0	2	531412,92	0,100000001	2,55400634	0,00027781409351817437	0,10001119564922934	0,000255429215	0,13343567424291706	-0,0049786644121753286	0,92816940981529139
1	1	0	0	0	0	2	531632,92	0,100000001	2,5582788	0,00027781375995692275	0,10001107556943363	0,000255856226	0,13954757678520677	-0,0052067077135685235	0,93428131235758118
1	1	0	0	0	0	2	531852,93	0,100000001	2,56226516	0,00027781355596002608	0,10001100213192982	0,000256254716	0,14565947873027165	-0,005434750992678457	0,94039321430264614
1	1	0	0	0	0	2	532072,93	0,100000001	2,56627059	0,00027781333238631485	0,1000109216422481	0,000256655097	0,15177137856079142	-0,0056627941928918694	0,94650511413316582
1	1	0	0	0	0	2	532292,94	0,100000001	2,57121038	0,00027781310511132077	0,10001083982711514	0,000257148902	0,15788327231330144	-0,0058908371663265651	0,95261700788567565
1	1	0	0	0	0	2	532512,94	0,100000001	2,57649374	0,00027781343655536573	0,1000109591435665	0,000257677602	0,16399515418923075	-0,0061188796966300685	0,95872888976160512
1	1	0	0	0	0	2	532732,94	0,100000001	2,58330297	0,00027781321355452138	0,10001087886360576	0,000258358399	0,1701070392086113	-0,0063469223442199629	0,96484077478098586
1	1	0	0	0	0	2	532952,95	0,100000001	2,58984518	0,00027781335817608566	0,10001093093104829	0,000259012828	0,17621893125692755	-0,0065749652540688986	0,9709526668293024
1	1	0	0	0	0	2	533172,95	0,100000001	2,59873343	0,00027781383729477725	0,10001110341053843	0,000259902212	0,18233083088178771	-0,0068030084466088755	0,97706456645416256
1	1	0	0	0	0	2	533392,96	0,100000001	2,61240888	0,00027781349058656227	0,10001097859792477	0,000261269568	0,18844272586116278	-0,0070310514658195558	0,98317646143353779
1	1	0	0	0	0	2	533612,96	0,100000001	2,63588834	0,0002778131287557383	0,10001084834127414	0,000263617432	0,19455461228452461	-0,007259094165793879	0,98928834785689958
1	1	0	0	0	0	2	533832,96	0,100000001	2,67939472	0,00027781298663177421	0,10001079717760782	0,000267968397	0,20066649487024595	-0,0074871367225806758	0,99540023044262093
1	1	0	0	0	0	2	534002,25	0,100000001	2,71592021	0,00025781191023811696	0,1000112078723067	0,00027162247	0,20536932207043021	-0,0076626055284379699	1,0001030576428054