File: Experimentelles/Rohdaten/Batterietests/AlteZelle/Studenten_Batterietests/Sonstige/ZView-Export/S vs Li_02_CV_C02_loop2.txt
EC-Lab ASCII FILE
Nb header lines : 3
mode	ox/red	error	control changes	counter inc.	time/s	control/V	Ewe/V	<I>/mA	cycle number	(Q-Qo)/C	P/W
2	0	0	1	0	5080,30	2,39125252	2,39142251	-0,062920480966567987	3	0	0,000150469452
2	0	0	0	0	5081,62	2,37805033	2,37850428	-0,14292184011234621	3	-0,000135217735	0,000339940219
2	0	0	1	0	5082,92	2,36504841	2,36524606	-0,2271489874304584	3	-0,00037596497	0,000537263229
2	0	0	0	0	5084,22	2,35204673	2,35249853	-0,31541051754417504	3	-0,0007287318	0,000742002798
2	0	0	1	0	5085,52	2,33904505	2,33931017	-0,40708494621018509	3	-0,0011985196	0,000952297938
2	0	0	0	0	5086,82	2,32604313	2,32647252	-0,50346215208992365	3	-0,00179044902	0,00117129087
2	0	0	1	0	5088,12	2,31304145	2,31341457	-0,60291295809050509	3	-0,00250975299	0,00139478757
2	0	0	0	0	5089,42	2,30003977	2,30043697	-0,70747530010218714	3	-0,00336131849	0,00162750238
2	0	0	0	0	5090,72	2,28703761	2,2876308	-0,81388650849816102	3	-0,00435027434	0,0018618718
2	0	0	1	0	5092,02	2,27403617	2,27475142	-0,92354229806612058	3	-0,00548008271	0,00210082927
2	0	0	0	0	5093,36	2,26063442	2,26115251	-1,0400165521229336	3	-0,00679615	0,00235163607
2	0	0	1	0	5094,66	2,2476325	2,2480545	-1,156806955424453	3	-0,00822541118	0,00260056509
2	0	0	0	0	5095,96	2,23463058	2,23506689	-1,2738508849094323	3	-0,00980609935	0,00284714205
2	0	0	1	0	5097,26	2,22162867	2,22213888	-1,3916465385506562	3	-0,0115398532	0,00309243193
2	0	0	0	0	5098,56	2,20862699	2,20932126	-1,5070575838908554	3	-0,0134248482	0,00332957436
2	0	0	1	0	5099,86	2,19562531	2,19607282	-1,624141982446119	3	-0,0154617112	0,00356673403
2	0	0	0	0	5101,16	2,18262339	2,18316531	-1,7338968950013296	3	-0,0176461414	0,00378538365
2	0	0	1	0	5102,46	2,16962171	2,16997671	-1,8473976263155619	3	-0,0199724827	0,00400881004
2	0	0	1	0	5103,76	2,15662003	2,15680909	-1,9486169535666704	3	-0,0224380139	0,00420279475
2	0	0	0	0	5105,06	2,14361811	2,14405131	-2,0620062587161901	3	-0,0250474755	0,0044210474
2	0	0	1	0	5106,36	2,13061643	2,13095331	-2,1778618382910934	3	-0,0278016776	0,00464092195
2	0	0	0	0	5107,66	2,11761451	2,11811543	-2,2874048513670714	3	-0,0307083279	0,0048449873
2	0	0	1	0	5108,96	2,10461259	2,10509777	-2,3983233297864678	3	-0,0337561779	0,00504870526
2	0	0	0	0	5110,26	2,09161091	2,09222007	-2,5017401675383296	3	-0,0369473919	0,00523419119
2	0	0	1	0	5111,57	2,07860923	2,07913184	-2,6227440610527994	3	-0,0402823053	0,00545303058
2	0	0	0	0	5112,87	2,06560731	2,06609416	-2,7402351504812685	3	-0,043768324	0,00566158397
2	0	0	1	0	5114,17	2,05260587	2,05304599	-2,8522043271611091	3	-0,0474071093	0,00585570652
2	0	0	1	0	5115,47	2,0396049	2,0400281	-2,9680916765299904	3	-0,0511920676	0,00605499046
2	0	0	0	0	5116,77	2,02660203	2,02709007	-3,0933835351218874	3	-0,0551309697	0,00627056696
2	0	0	1	0	5118,07	2,01360035	2,01429272	-3,2228445845345651	3	-0,0592377707	0,00649175234
2	0	0	0	0	5119,37	2,00059867	2,00092411	-3,3470784736176429	3	-0,0635097772	0,00669725006
2	0	0	1	0	5120,67	1,98759687	1,98816669	-3,4639681962629114	3	-0,067936413	0,00688694604
2	0	0	0	0	5121,97	1,97459507	1,97504842	-3,5902081839740275	3	-0,0725194812	0,0070908349
2	0	0	1	0	5123,27	1,96159327	1,96213067	-3,7181343547999891	3	-0,0772739649	0,00729546556
2	0	0	0	0	5124,57	1,94859147	1,9490428	-3,8490260305504051	3	-0,082197085	0,00750191649
2	0	0	1	0	5125,87	1,93558967	1,93612492	-3,9761283174157146	3	-0,0872816965	0,0076982812
2	0	0	1	0	5127,17	1,92258763	1,92309678	-4,0956233468933478	3	-0,0925284624	0,00787627976
2	0	0	0	0	5128,47	1,90958619	1,90998912	-4,2269749467571584	3	-0,0979439691	0,00807347614
2	0	0	1	0	5129,77	1,89658439	1,89700103	-4,3448890807727878	3	-0,103518337	0,0082422588
2	0	0	0	0	5131,07	1,88358247	1,88402307	-4,4665288664400614	3	-0,109243102	0,00841504335
2	0	0	1	0	5132,37	1,87058091	1,87121546	-4,5861979040006989	3	-0,115123421	0,00858176406
2	0	0	0	0	5133,67	1,85757911	1,85823774	-4,6929139544566355	3	-0,12115448	0,00872054975
2	0	0	1	0	5134,97	1,84457719	1,84501946	-4,812427626301847	3	-0,12733914	0,00887902267
2	0	0	0	0	5136,27	1,83157539	1,83183122	-4,9254904463887142	3	-0,133680344	0,00902266707
2	0	0	1	0	5137,57	1,81857359	1,81906366	-5,0349053020278662	3	-0,14015533	0,00915881339
2	0	0	0	0	5138,87	1,80557179	1,80614591	-5,1362810743351802	3	-0,146765217	0,00927687343
2	0	0	0	0	5140,17	1,79257011	1,79313791	-5,2050247055788806	3	-0,153491527	0,00933332741
2	0	0	1	0	5141,47	1,77956831	1,78015006	-5,2556958720087866	3	-0,160294622	0,00935592689
2	0	0	0	0	5142,77	1,76656651	1,76694179	-5,3092652273674899	3	-0,16715236	0,00938116293
2	0	0	1	0	5144,07	1,75356472	1,75384367	-5,4024292342364787	3	-0,174113646	0,00947501604
2	0	0	0	0	5145,37	1,74056292	1,74117625	-5,4972693050900998	3	-0,181198642	0,00957171433
2	0	0	1	0	5146,67	1,727561	1,72808838	-5,5754285144309216	3	-0,188397661	0,00963483285
2	0	0	0	0	5147,97	1,71455944	1,71504033	-5,6652854196727418	3	-0,195710003	0,00971619319
2	0	0	1	0	5149,27	1,70155764	1,70200241	-5,7476199790835667	3	-0,203126982	0,00978246331
2	0	0	0	0	5150,57	1,68855572	1,68921471	-5,8329103936751923	3	-0,21065098	0,00985303801
2	0	0	0	0	5151,87	1,67555416	1,6760565	-5,9160517466564787	3	-0,218293801	0,00991563685
2	0	0	1	0	5153,17	1,66255236	1,6632489	-6,0101431980729242	3	-0,226040795	0,00999636389
2	0	0	0	0	5154,47	1,64955044	1,65009081	-6,0934354277948582	3	-0,233909905	0,0100547215
2	0	0	1	0	5155,77	1,63654864	1,63711286	-6,1775914840400499	3	-0,241879776	0,0101134144
2	0	0	0	0	5157,07	1,62354684	1,62399495	-6,2583281273643648	3	-0,249958321	0,0101634935
2	0	0	1	0	5158,37	1,61054504	1,61097693	-6,3343632196386752	3	-0,258141696	0,0102045126
2	0	0	0	0	5159,67	1,59754336	1,59778869	-6,4055305918058138	3	-0,266421765	0,0102346847
2	0	0	1	0	5160,97	1,58454156	1,58513141	-6,4905867079893798	3	-0,274804026	0,0102884332
2	0	0	0	0	5162,27	1,57153976	1,57194316	-6,5517513702313152	3	-0,283275545	0,0102989804
2	0	0	0	0	5163,57	1,55853868	1,55912662	-6,6180593790640499	3	-0,291833758	0,0103183929
2	0	0	1	0	5164,87	1,54553628	1,5461278	-6,6803373768925811	3	-0,300484508	0,0103286551
2	0	0	0	0	5166,17	1,53253448	1,53322005	-6,7356926227609216	3	-0,309206724	0,0103272991
2	0	0	1	0	5167,47	1,51953268	1,52002168	-6,8130429958304154	3	-0,318011671	0,0103559727
2	0	0	0	0	5168,77	1,506531	1,50702381	-6,8642546211679872	3	-0,326892406	0,0103445947
2	0	0	1	0	5170,07	1,4935292	1,49400592	-6,9802252600590298	3	-0,335888475	0,0104284976
2	0	0	0	0	5171,37	1,4805274	1,48109806	-7,038296863436727	3	-0,344993293	0,0104244081
2	0	0	1	0	5172,67	1,46752548	1,46806026	-7,1068287144104742	3	-0,354192853	0,0104332529
2	0	0	0	0	5173,97	1,4545238	1,45512223	-7,1776625191172058	3	-0,363485247	0,0104443766
2	0	0	1	0	5175,27	1,441522	1,44174397	-7,2472398529450291	3	-0,372867554	0,0104486644
2	0	0	1	0	5176,57	1,4285202	1,42918658	-7,305746031304192	3	-0,382325411	0,0104412744
2	0	0	0	0	5177,87	1,4155184	1,41614854	-7,381364191571904	3	-0,391866416	0,0104531078
2	0	0	1	0	5179,17	1,40251672	1,40307057	-7,4240046441555238	3	-0,401488125	0,0104164025
2	0	0	0	0	5180,47	1,38951492	1,38984239	-7,4868505895137792	3	-0,411177009	0,0104055423
2	0	0	1	0	5181,77	1,376513	1,3770448	-7,5541169221202726	3	-0,420954168	0,0104023572
2	0	0	0	0	5183,07	1,3635112	1,36403692	-7,6145252063870144	3	-0,430821627	0,0103864931
2	0	0	1	0	5184,38	1,35050964	1,35094893	-7,6703345974286349	3	-0,440766394	0,0103622302
2	0	0	0	0	5185,68	1,33750772	1,33797097	-7,6991406828165197	3	-0,450760007	0,0103012268
2	0	0	1	0	5186,98	1,32450593	1,32490301	-7,7439381678899366	3	-0,46080181	0,0102599673
2	0	0	1	0	5188,28	1,31150436	1,3120954	-7,7831779221693722	3	-0,470900446	0,0102122724
2	0	0	0	0	5189,58	1,29850245	1,29884684	-7,8563472951452275	3	-0,481069118	0,0102041923
2	0	0	1	0	5190,88	1,28550065	1,2859292	-7,8969595978657446	3	-0,491307944	0,0101549309
2	0	0	0	0	5192,18	1,27249873	1,2731216	-7,9517384643356058	3	-0,501617253	0,0101235304
2	0	0	1	0	5193,48	1,25949705	1,26001346	-7,995414892832471	3	-0,511977971	0,0100743305
2	0	0	0	0	5194,78	1,24649525	1,24723601	-8,0497900495926733	3	-0,52240777	0,010039988
2	0	0	1	0	5196,08	1,23349333	1,23420811	-8,0875845029950349	3	-0,532900453	0,00998176262
2	0	0	0	0	5197,38	1,22049177	1,22101986	-8,1217896913488806	3	-0,543442309	0,0099168662
2	0	0	1	0	5198,68	1,20748997	1,20809197	-8,1673691074053491	3	-0,554028988	0,00986693334
2	0	0	1	0	5199,98	1,19448805	1,19513416	-8,2074393779039488	3	-0,564679623	0,0098089911
2	0	0	0	0	5201,28	1,18148637	1,182006	-8,2529803762833472	3	-0,575381815	0,00975507218
2	0	0	1	0	5202,58	1,16848457	1,16908836	-8,2912824402252877	3	-0,586141706	0,00969324168
2	0	0	0	0	5203,88	1,15548277	1,15593016	-8,3606112152338317	3	-0,596978426	0,00966428313
2	0	0	1	0	5205,18	1,14248097	1,14290214	-8,3986016139388442	3	-0,607876182	0,00959877949
2	0	0	0	0	5206,48	1,12947917	1,13002443	-8,4495556131005568	3	-0,618824303	0,00954820402
2	0	0	1	0	5207,78	1,11647749	1,11700654	-8,493568534652375	3	-0,629842699	0,00948737189
2	0	0	0	0	5209,08	1,10347569	1,1040386	-8,5449921414256666	3	-0,640927672	0,00943400152
2	0	0	1	0	5210,38	1,09047389	1,09126103	-8,5899754092097638	3	-0,652065039	0,00937390514
2	0	0	1	0	5211,68	1,07747281	1,0779537	-8,6236056505309338	3	-0,663246334	0,00929584727
2	0	0	0	0	5212,98	1,06447029	1,06522524	-8,6618341182669389	3	-0,674484551	0,0092268046
2	0	0	1	0	5214,28	1,05146849	1,05198705	-8,7088991651932877	3	-0,685776651	0,00916164927
2	0	0	0	0	5215,58	1,03846657	1,03902912	-8,7349320302407066	3	-0,697119892	0,00907584839
2	0	0	1	0	5216,88	1,02546501	1,02623141	-8,7580652112761933	3	-0,708484471	0,00898780115
2	0	0	0	0	5218,18	1,01246321	1,0127629	-8,8018940041462195	3	-0,719906986	0,00891423132
2	0	0	1	0	5219,48	0,999461472	1,00007534	-8,8256199633082138	3	-0,731369436	0,00882628467
2	0	0	0	0	5220,78	0,986459732	0,987067521	-8,8638895948728026	3	-0,742874742	0,00874925777
2	0	0	1	0	5222,08	0,973457932	0,973949432	-8,9252697105209216	3	-0,754440129	0,00869276095
2	0	0	0	0	5223,38	0,960456073	0,960911512	-8,9634742985168858	3	-0,766054094	0,00861310586
2	0	0	0	0	5224,68	0,947454274	0,948163927	-9,0102960790197107	3	-0,777735412	0,00854323804
2	0	0	1	0	5225,98	0,934452415	0,934915662	-9,0436674853166042	3	-0,789470434	0,00845506601
2	0	0	0	0	5227,28	0,921450794	0,922158122	-9,0785474379857331	3	-0,801246881	0,00837185606
2	0	0	1	0	5228,58	0,908448994	0,908929825	-9,0857314641276966	3	-0,813064814	0,00825829245
2	0	0	0	0	5229,88	0,895447135	0,896002114	-9,136412908633559	3	-0,824912727	0,00818624534
2	0	0	1	0	5231,18	0,882445455	0,882944047	-9,1590684528152333	3	-0,836816072	0,00808694493
2	0	0	0	0	5232,48	0,869443715	0,86971581	-9,2102959925929894	3	-0,848760188	0,00801033992
2	0	0	1	0	5233,78	0,856441855	0,857038379	-9,2357806066672051	3	-0,860741258	0,0079154186
2	0	0	0	0	5235,08	0,843440056	0,844090581	-9,2681958402197043	3	-0,872780979	0,00782319717
2	0	0	0	0	5236,38	0,830438256	0,830912352	-9,2962065835794125	3	-0,884852707	0,00772433309
2	0	0	1	0	5237,68	0,817436397	0,81809479	-9,3440212110678822	3	-0,896970451	0,00764429523
2	0	0	0	0	5238,98	0,804434717	0,804856479	-9,3755076229572582	3	-0,909140706	0,00754593825
2	0	0	1	0	5240,28	0,791432977	0,791888654	-9,393076027433047	3	-0,921351433	0,00743827038
2	0	0	0	0	5241,58	0,778431177	0,778960884	-9,4052029649416794	3	-0,933583856	0,00732628535
2	0	0	1	0	5242,88	0,765429378	0,765902817	-9,4190197661519117	3	-0,945810914	0,007214054
2	0	0	0	0	5244,18	0,752427578	0,752854884	-9,4803536161780352	3	-0,958093703	0,00713733071
2	0	0	1	0	5245,48	0,739425838	0,739746809	-9,5052737742661965	3	-0,970432937	0,00703149615
2	0	0	0	0	5246,78	0,726424038	0,726718843	-9,5013720492522112	3	-0,982783914	0,00690482603
2	0	0	0	0	5248,08	0,713422	0,714021623	-9,5406826415188557	3	-0,9951666	0,0068122535
2	0	0	1	0	5249,38	0,700420439	0,700763106	-9,5557444989681242	3	-1,00759447	0,00669631315
2	0	0	0	0	5250,68	0,687418699	0,687835276	-9,5752995585401946	3	-1,02002347	0,00658622896
2	0	0	1	0	5251,98	0,674416959	0,67480737	-9,5978300794959347	3	-1,0324856	0,00647668634
2	0	0	0	0	5253,28	0,6614151	0,662039816	-9,5843861028552192	3	-1,04496658	0,00634524506
2	0	0	1	0	5254,58	0,648413301	0,648811519	-9,6066512217124685	3	-1,05743372	0,00623290613
2	0	0	0	0	5255,88	0,635411501	0,635773599	-9,5977562020221965	3	-1,06991339	0,0061019999
2	0	0	1	0	5257,19	0,622409761	0,62276572	-9,6021926701068877	3	-1,08239865	0,00597991655
2	0	0	0	0	5258,49	0,609408021	0,610028148	-9,6126213520765453	3	-1,09489799	0,00586396968
2	0	0	1	0	5259,79	0,596406162	0,596769869	-9,6194502289096704	3	-1,10739625	0,00574059784
2	0	0	1	0	5261,09	0,583404422	0,583832026	-9,6210957840085312	3	-1,11990237	0,00561710401
2	0	0	0	0	5262,39	0,570402622	0,570924222	-9,6133840704957555	3	-1,1324091	0,00548851397
2	0	0	1	0	5263,69	0,557400882	0,55779618	-9,6101826851566733	3	-1,14490604	0,00536052324
2	0	0	0	0	5264,99	0,544399083	0,544878364	-9,7936613485217242	3	-1,15760219	0,00533635402
2	0	0	1	0	5266,29	0,531397283	0,532060683	-9,788023059566825	3	-1,17033052	0,00520782219
2	0	0	0	0	5267,59	0,518395543	0,518952608	-9,7903413300712922	3	-1,1830641	0,0050807232
2	0	0	1	0	5268,89	0,505393744	0,505854607	-9,7825437982876902	3	-1,19578767	0,00494854478
2	1	0	0	0	5270,11	0,506793916	0,507276595	-9,6500088771184384	3	-1,20767605	0,00489522377
2	1	0	1	0	5271,41	0,519795716	0,520354629	-9,4380232815941274	3	-1,2200793	0,00491111912
2	1	0	0	0	5272,71	0,532797456	0,533442616	-9,2676057964563328	3	-1,23223722	0,0049437359
2	1	0	1	0	5274,01	0,545799255	0,546270251	-9,1068061192830502	3	-1,24417579	0,00497477734
2	1	0	0	0	5275,31	0,558801055	0,55938834	-8,9453690275549888	3	-1,25590336	0,00500393519
2	1	0	1	0	5276,61	0,571802795	0,572145939	-8,8077669516205888	3	-1,26744115	0,00503932824
2	1	0	0	0	5277,91	0,584804595	0,585283995	-8,6807363207141747	3	-1,2788074	0,0050806962
2	1	0	1	0	5279,21	0,597806394	0,598161757	-8,5445623795191526	3	-1,29000068	0,0051110303
2	1	0	1	0	5280,51	0,610808134	0,611299872	-8,4490572313467853	3	-1,30104029	0,00516490778
2	1	0	0	0	5281,81	0,623809993	0,624147534	-8,3438073694705958	3	-1,31195736	0,00520776678
2	1	0	1	0	5283,11	0,636811733	0,637305677	-8,2266847193241267	3	-1,32272577	0,00524291303
2	1	0	0	0	5284,41	0,649813533	0,650373697	-8,141928084194688	3	-1,33335984	0,00529529573
2	1	0	1	0	5285,71	0,662815273	0,663181305	-8,0454390123486515	3	-1,34388947	0,00533558475
2	1	0	0	0	5287,01	0,675817072	0,676269352	-7,9553143357237274	3	-1,35428584	0,00537993526
2	1	0	1	0	5288,31	0,688818932	0,689297259	-7,8514593094587187	3	-1,36455917	0,00541198952
2	1	0	0	0	5289,61	0,701820672	0,702415407	-7,7771052221457216	3	-1,37472141	0,00546275871
2	1	0	1	0	5290,91	0,714822412	0,715393245	-7,687277952830016	3	-1,38476801	0,00549942674
2	1	0	1	0	5292,21	0,727824211	0,728200912	-7,6125989779830054	3	-1,39472187	0,00554350158
2	1	0	0	0	5293,51	0,740826011	0,741359115	-7,5295815989375296	3	-1,40456426	0,00558212399
2	1	0	1	0	5294,81	0,753827751	0,754377007	-7,4523011321822925	3	-1,4142946	0,00562184444
2	1	0	0	0	5296,11	0,76682955	0,767224669	-7,3576624666651469	3	-1,42392302	0,00564498035
2	1	0	1	0	5297,41	0,77983135	0,780222654	-7,2661991069714163	3	-1,43342805	0,00566925295
2	1	0	0	0	5298,71	0,79283309	0,793260515	-7,1836558679739546	3	-1,44282031	0,00569851045
2	1	0	1	0	5300,01	0,805834949	0,806188345	-7,0930515974760346	3	-1,45209837	0,00571833551
2	1	0	0	0	5301,31	0,818836689	0,819466591	-7,0083160797754931	3	-1,46126103	0,00574308075
2	1	0	1	0	5302,61	0,831838369	0,832524598	-6,9374009544650906	3	-1,47032797	0,0057755569
2	1	0	1	0	5303,91	0,844839931	0,845422447	-6,8503573947680256	3	-1,47929084	0,00579144573
2	1	0	0	0	5305,21	0,857842028	0,858139873	-6,762640595436096	3	-1,48813546	0,00580329169
2	1	0	1	0	5306,51	0,870843828	0,871117771	-6,680906663338327	3	-1,49687469	0,00581985665
2	1	0	0	0	5307,81	0,883845687	0,884325981	-6,5999504029750963	3	-1,50550973	0,00583650777
2	1	0	1	0	5309,11	0,896847427	0,897323847	-6,5345323806007936	3	-1,51404321	0,00586359156
2	1	0	0	0	5310,41	0,909849107	0,910431981	-6,438851942618697	3	-1,52247202	0,00586213684
2	1	0	1	0	5311,71	0,922850966	0,923179507	-6,3634070058663642	3	-1,53079093	0,00587456673
2	1	0	0	0	5313,01	0,935852766	0,936447799	-6,280732023219287	3	-1,53901076	0,00588157773
2	1	0	1	0	5314,31	0,948854387	0,949425578	-6,2049754820764211	3	-1,54712665	0,00589116244
2	1	0	0	0	5315,61	0,961856246	0,96216321	-6,119642893473312	3	-1,55513418	0,00588809513
2	1	0	0	0	5316,91	0,974858046	0,975361347	-6,0357898126045914	3	-1,56303489	0,00588707626
2	1	0	1	0	5318,21	0,987859905	0,988419414	-5,9619445167481894	3	-1,57083416	0,00589290168
2	1	0	0	0	5319,51	1,00086153	1,00121701	-5,8873019603391578	3	-1,57853878	0,00589446677
2	1	0	1	0	5320,81	1,01386333	1,0144552	-5,8083476523558349	3	-1,58614159	0,00589230843
2	1	0	0	0	5322,11	1,02686512	1,02757335	-5,7290533731381005	3	-1,5936414	0,00588702271
2	1	0	1	0	5323,41	1,03986692	1,04044116	-5,6468754460414419	3	-1,60103655	0,00587524148
2	1	0	0	0	5324,71	1,05286872	1,05336881	-5,5687457583844806	3	-1,60832679	0,00586594315
2	1	0	1	0	5326,02	1,06587052	1,06641686	-5,4849879095951622	3	-1,61551178	0,00584928365
2	1	0	0	0	5327,32	1,0788722	1,07936466	-5,3956527610619853	3	-1,62259316	0,00582387671
2	1	0	0	0	5328,62	1,09187341	1,09249043	-5,3252176684487117	3	-1,6295619	0,00581774954
2	1	0	1	0	5329,92	1,1048758	1,10529041	-5,2359637084106579	3	-1,63642275	0,00578726036
2	1	0	0	0	5331,22	1,11787748	1,11852872	-5,1577806000908237	3	-1,64317858	0,00576912565
2	1	0	1	0	5332,52	1,13087928	1,13137627	-5,0757819910844403	3	-1,64983511	0,00574261928
2	1	0	0	0	5333,82	1,1438812	1,14440417	-4,9985068701207782	3	-1,65638268	0,00572031224
2	1	0	1	0	5335,12	1,156883	1,15751231	-4,9207655737797606	3	-1,66282892	0,00569584686
2	1	0	0	0	5336,42	1,1698848	1,17045021	-4,8373060437540013	3	-1,66916943	0,00566182565
2	1	0	1	0	5337,72	1,1828866	1,18349814	-4,758897167940944	3	-1,67540503	0,0056321458
2	1	0	0	0	5339,02	1,19588828	1,19642603	-4,6640364130338125	3	-1,68153	0,00558017474
2	1	0	1	0	5340,32	1,20889008	1,20948386	-4,5644456731776442	3	-1,68751287	0,00552062318
2	1	0	1	0	5341,62	1,22189188	1,22235155	-4,4933022074401376	3	-1,69339657	0,00549239479
2	1	0	0	0	5342,92	1,23489368	1,23540962	-4,405441387246057	3	-1,69918168	0,00544252479
2	1	0	1	0	5344,22	1,2478956	1,24855769	-4,3193622504671366	3	-1,70485699	0,00539297285
2	1	0	0	0	5345,52	1,26089728	1,26136541	-4,2419355660677101	3	-1,71042311	0,00535063073
2	1	0	1	0	5346,82	1,27389896	1,27444351	-4,1635307533045702	3	-1,7158848	0,00530618476
2	1	0	0	0	5348,12	1,28690088	1,28738117	-4,0822850589950976	3	-1,72124779	0,00525545701
2	1	0	1	0	5349,42	1,29990256	1,30002868	-4,0004305951297152	3	-1,72650111	0,00520067429
2	1	0	0	0	5350,72	1,31290424	1,31326687	-3,9278306265672141	3	-1,73165059	0,0051582898
2	1	0	1	0	5352,02	1,32590616	1,32649505	-3,842513229697943	3	-1,73669922	0,0050970749
2	1	0	1	0	5353,32	1,33890796	1,33935285	-3,7620850553115302	3	-1,74164283	0,00503875921
2	1	0	0	0	5354,62	1,35190976	1,35230064	-3,6808842010796211	3	-1,74648356	0,00497766212
2	1	0	1	0	5355,92	1,36491144	1,36524844	-3,6117520282665773	3	-1,75122309	0,00493093906
2	1	0	0	0	5357,22	1,37791336	1,37864697	-3,5372103564441344	3	-1,75586998	0,00487656426
2	1	0	1	0	5358,52	1,39091504	1,39161479	-3,4671290628612186	3	-1,76042497	0,00482490798
2	1	0	0	0	5359,82	1,40391672	1,40437233	-3,3878602795302886	3	-1,76488221	0,00475781737
2	1	0	1	0	5361,12	1,41691864	1,41738045	-3,3128023507694522	3	-1,7692374	0,00469550118
2	1	0	0	0	5362,42	1,42992043	1,43034828	-3,2405151029427872	3	-1,77349889	0,00463506533
2	1	0	1	0	5363,72	1,44292223	1,44333613	-3,1708370422323494	3	-1,77766907	0,00457658386
2	1	0	1	0	5365,02	1,45592391	1,4564141	-3,0927877053618464	3	-1,78173673	0,00450437982
2	1	0	0	0	5366,32	1,46892571	1,46950221	-3,020422893265881	3	-1,78571022	0,00443851808
2	1	0	1	0	5367,62	1,48192751	1,48228979	-2,9512929301709005	3	-1,78959072	0,00437467126
2	1	0	0	0	5368,92	1,49492919	1,49533784	-2,8782811208317635	3	-1,79337978	0,0043040025
2	1	0	1	0	5370,22	1,50793099	1,50836563	-2,8106542509049178	3	-1,79707861	0,00423949445
2	1	0	0	0	5371,52	1,52093291	1,52168393	-2,7366460214058605	3	-1,80068302	0,00416431017
2	1	0	1	0	5372,82	1,53393471	1,53434145	-2,6744592549900189	3	-1,8041966	0,00410353392
2	1	0	0	0	5374,12	1,54693651	1,54735935	-2,5951840467750992	3	-1,80761802	0,00401568227
2	1	0	1	0	5375,42	1,55993819	1,56046748	-2,5257705791542976	3	-1,81094873	0,00394138275
2	1	0	1	0	5376,72	1,57293928	1,57363558	-2,4555892184134579	3	-1,81418657	0,00386420265
2	1	0	0	0	5378,02	1,58594167	1,58640313	-2,3871550528953501	3	-1,81733286	0,00378699019
2	1	0	1	0	5379,32	1,59894347	1,59936118	-2,320202646156151	3	-1,82039285	0,00371084199
2	1	0	0	0	5380,62	1,61194539	1,6124289	-2,2527098618447802	3	-1,82336545	0,00363233453
2	1	0	1	0	5381,92	1,62494719	1,62536669	-2,1861365586519312	3	-1,82624996	0,00355327362
2	1	0	0	0	5383,22	1,63794875	1,63835466	-2,1207292253772448	3	-1,82904983	0,00347450655
2	1	0	1	0	5384,52	1,65095067	1,65142262	-2,0608621158947571	3	-1,83176887	0,0034033542
2	1	0	0	0	5385,82	1,66395247	1,66447067	-1,9948371959229264	3	-1,8344059	0,00332034798
2	1	0	1	0	5387,12	1,67695403	1,67753875	-1,9285568216194662	3	-1,83695602	0,00323522883
2	1	0	0	0	5388,42	1,68995595	1,69038641	-1,8623503403117286	3	-1,83942032	0,00314809172
2	1	0	0	0	5389,72	1,70295775	1,70338428	-1,8004488578687158	3	-1,84180176	0,00306685618
2	1	0	1	0	5391,02	1,71595955	1,71665251	-1,7388919088989568	3	-1,84410167	0,00298507325
2	1	0	0	0	5392,32	1,72896135	1,72949016	-1,6720152615259139	3	-1,84631753	0,00289173401
2	1	0	1	0	5393,62	1,74196315	1,7426784	-1,6085582897067062	3	-1,84844995	0,00280319969
2	1	0	0	0	5394,92	1,75496507	1,75548601	-1,548102125215033	3	-1,85049987	0,00271767168
2	1	0	1	0	5396,22	1,76796687	1,76880431	-1,4824274623145718	3	-1,85246778	0,00262212404
2	1	0	0	0	5397,52	1,78096843	1,78160191	-1,4189225351437899	3	-1,85435414	0,00252795499
2	1	0	1	0	5398,83	1,79397035	1,79425955	-1,3559633949771558	3	-1,85615873	0,00243295031
2	1	0	0	0	5400,13	1,80697215	1,80764794	-1,2951395511627211	3	-1,85788178	0,00234115636
2	1	0	0	0	5401,43	1,81997371	1,82040548	-1,2331820782274013	3	-1,85952449	0,00224489137
2	1	0	1	0	5402,73	1,83297563	1,83354366	-1,1668354139352859	3	-1,8610841	0,00213944376
2	1	0	0	0	5404,03	1,84597743	1,84653139	-1,1047744356716685	3	-1,8625598	0,00204000063
2	1	0	1	0	5405,33	1,85897923	1,85936928	-1,0403156721343621	3	-1,86395121	0,00193433103
2	1	0	0	0	5406,63	1,87198091	1,8724674	-0,97750456569095514	3	-1,86526227	0,00183034549
2	1	0	1	0	5407,93	1,88498271	1,88553512	-0,9177128970623017	3	-1,86649287	0,00173037988
2	1	0	0	0	5409,23	1,8979845	1,89865339	-0,85638869522760205	3	-1,8676461	0,00162598526
2	1	0	1	0	5410,53	1,9109863	1,9113909	-0,79786589710662886	3	-1,8687216	0,00152503361
2	1	0	0	0	5411,83	1,9239881	1,92467916	-0,73664247725779866	3	-1,86971843	0,00141780043
2	1	0	0	0	5413,13	1,93699002	1,93750679	-0,67423971571649229	3	-1,87063515	0,00130634406
2	1	0	1	0	5414,43	1,94999182	1,950665	-0,61485214360679219	3	-1,87147284	0,0011993706
2	1	0	0	0	5415,73	1,96299338	1,96336246	-0,55321462017794598	3	-1,87223256	0,00108616077
2	1	0	1	0	5417,07	1,97639537	1,97703123	-0,492996328510344	3	-1,87293231	0,000974669121
2	1	0	0	0	5418,37	1,98939693	1,99004912	-0,43235312324638285	3	-1,87353373	0,000860403932
2	1	0	1	0	5419,67	2,00239873	2,00284672	-0,3744677994400272	3	-1,87405837	0,000750001578
2	1	0	0	0	5420,97	2,01540065	2,01602483	-0,31653341487981338	3	-1,87450683	0,000638139201
2	1	0	1	0	5422,27	2,02840233	2,02883244	-0,25931860102961491	3	-1,87488055	0,000526114018
2	1	0	0	0	5423,57	2,04140425	2,04176044	-0,2018649089150135	3	-1,87517977	0,000412159774
2	1	0	1	0	5424,87	2,05440593	2,05505896	-0,14581283725177286	3	-1,87540507	0,00029965397
2	1	0	1	0	5426,17	2,06740737	2,06794477	-0,089427226892321741	3	-1,8755573	0,00018493057
2	1	0	0	0	5427,51	2,08080959	2,08129478	-0,032630559115204992	3	-1,8756386	6,79138102E-005
2	1	0	1	0	5428,81	2,09381127	2,09437275	0,022123976887087226	3	-1,87564468	4,63358556E-005
2	1	0	0	0	5430,11	2,10681295	2,10734057	0,077083719448031168	3	-1,8755796	0,000162441647
2	1	0	1	0	5431,45	2,12021518	2,12053895	0,13351186570556229	3	-1,87543797	0,000283117115
2	1	0	0	0	5432,75	2,13321662	2,1337471	0,18802248391633158	3	-1,8752284	0,000401192432
2	1	0	1	0	5434,05	2,1462183	2,14646459	0,2420331021615616	3	-1,87494826	0,000519515481
2	1	0	0	0	5435,35	2,15922046	2,15968299	0,29658991913311181	3	-1,87459767	0,000640540209
2	1	0	1	0	5436,65	2,17222214	2,17259049	0,35045655545157664	3	-1,87417674	0,00076139858
2	1	0	0	0	5437,95	2,18522453	2,1857295	0,40393266961943654	3	-1,8736856	0,000882887573
2	1	0	0	0	5439,25	2,19822574	2,19862676	0,45789696602150797	3	-1,87312472	0,00100674457
2	1	0	1	0	5440,55	2,21122742	2,21147442	0,51031074766069472	3	-1,87249494	0,00112853921
2	1	0	0	0	5441,85	2,2242291	2,22462225	0,56401594014217517	3	-1,87179637	0,00125472236
2	1	0	1	0	5443,15	2,23723102	2,23783064	0,6180354836396873	3	-1,87102747	0,00138305873
2	1	0	0	0	5444,45	2,2502327	2,25062799	0,67063587314138662	3	-1,87018967	0,00150935189
2	1	0	1	0	5445,75	2,26323438	2,26383638	0,7221263448397312	3	-1,8692832	0,00163477589
2	1	0	0	0	5447,05	2,2762363	2,27671432	0,77611720282584474	3	-1,86830866	0,00176699716
2	1	0	1	0	5448,35	2,28923798	2,28962207	0,82666916617502746	3	-1,86726606	0,00189275993
2	1	0	0	0	5449,65	2,30223989	2,30278993	0,87842651965717517	3	-1,86615741	0,0020228317
2	1	0	0	0	5450,95	2,31524181	2,31596828	0,93035385943948864	3	-1,86498129	0,00215466996
2	1	0	1	0	5452,25	2,32824326	2,32860541	0,98031583117941773	3	-1,86373925	0,00228276872
2	1	0	0	0	5453,58	2,34154534	2,34197402	1,0330901993438566	3	-1,86239958	0,00241947034
2	1	0	1	0	5454,88	2,35454702	2,35512209	1,087209559045732	3	-1,8610208	0,00256051123
2	1	0	0	0	5456,18	2,36754894	2,36800981	1,1382970825458578	3	-1,85957313	0,00269549876
2	1	0	1	0	5457,48	2,38055062	2,38107777	1,1887095831334555	3	-1,85805964	0,00283040991
2	1	0	0	0	5458,78	2,3935523	2,39408565	1,2375596649944747	3	-1,85648	0,00296282372
2	1	0	1	0	5460,08	2,40655446	2,40694356	1,2878001034259797	3	-1,85483623	0,00309966225
2	1	0	0	0	5461,38	2,4195559	2,42001152	1,341751182141401	3	-1,85312724	0,00324705336
2	1	0	1	0	5462,68	2,43255877	2,43284965	1,3880114117919717	3	-1,85135376	0,00337682315
2	1	0	1	0	5463,98	2,44555974	2,44605732	1,4423664587860294	3	-1,84951484	0,00352811115
2	1	0	0	0	5465,28	2,45856142	2,45897508	1,4935946374510714	3	-1,84760749	0,00367271202
2	1	0	1	0	5466,58	2,4715631	2,47225332	1,546364046012359	3	-1,84562957	0,00382300373
2	1	0	0	0	5467,88	2,48456502	2,48519111	1,6044124687711373	3	-1,8435787	0,0039872718
2	1	0	1	0	5469,18	2,49756694	2,49808931	1,6612071643272941	3	-1,84145546	0,00414984394
2	1	0	0	0	5470,48	2,51056862	2,51095676	1,7161060000459328	3	-1,83925843	0,00430906797
2	1	0	1	0	5471,79	2,5235703	2,52399492	1,7674598762144608	3	-1,83699071	0,00446105981
2	1	0	0	0	5473,09	2,53657222	2,53723311	1,8233029066274506	3	-1,83465707	0,00462614466
2	1	0	1	0	5474,39	2,54957414	2,55008078	1,875863111019143	3	-1,8322494	0,00478360243
2	1	0	1	0	5475,69	2,56257558	2,56295848	1,9437630927811043	3	-1,8297658	0,00498178415
2	1	0	0	0	5476,99	2,5755775	2,57616663	1,9993922319263149	3	-1,82720256	0,00515076751
2	1	0	1	0	5478,29	2,58857942	2,58914471	2,0625388671954451	3	-1,82456028	0,00534021156
2	1	0	0	0	5479,59	2,60158086	2,60195208	2,1159264364590272	3	-1,82183933	0,00550553901
2	1	0	1	0	5480,89	2,61458278	2,61493993	2,1780361222724096	3	-1,81904721	0,00569543382
2	1	0	0	0	5482,19	2,6275847	2,62821817	2,2431748552868669	3	-1,81617212	0,00589555269
2	1	0	1	0	5483,49	2,64058614	2,64103627	2,2980594827483075	3	-1,81322122	0,00606925832
2	1	0	0	0	5484,79	2,65358806	2,65410399	2,3567914211501558	3	-1,81019223	0,0062551694
2	1	0	1	0	5486,09	2,66658998	2,66730213	2,4238039602835997	3	-1,80708468	0,00646501733
2	1	0	1	0	5487,39	2,67959166	2,68017983	2,4923502473781552	3	-1,80388498	0,00667994702
2	1	0	0	0	5488,69	2,69259357	2,6931076	2,5618959963321616	3	-1,80059826	0,00689946162
2	1	0	1	0	5489,99	2,70559525	2,70620561	2,6300957916925328	3	-1,79722571	0,00711758016
2	1	0	0	0	5491,29	2,71859694	2,71886325	2,6863785690317526	3	-1,79377413	0,00730389589
2	1	0	1	0	5492,59	2,73159885	2,73216152	2,742344072088592	3	-1,79024386	0,0074925269
2	1	0	0	0	5493,89	2,74460053	2,74499917	2,8007034429659398	3	-1,78663862	0,00768792862
2	1	0	1	0	5495,19	2,75760245	2,75805712	2,8639264926314211	3	-1,78295565	0,00789887272
2	1	0	0	0	5496,49	2,77060413	2,77117515	2,9224581476300954	3	-1,77918947	0,00809864327
2	1	0	1	0	5497,79	2,78360581	2,784163	2,9832040866216013	3	-1,77535152	0,00830572657
2	1	0	1	0	5499,09	2,79660797	2,79696107	3,0408924306329011	3	-1,77143061	0,00850525778
2	1	0	0	0	5500,39	2,80960941	2,81017923	3,1018648588408941	3	-1,76743686	0,00871679652
2	1	0	1	0	5501,69	2,82261109	2,82285643	3,1711850749949664	3	-1,76335633	0,00895179994
2	1	0	0	0	5502,99	2,83561325	2,83612466	3,234160512685776	3	-1,75919366	0,00917248242
2	1	0	1	0	5504,29	2,84861493	2,84900236	3,2909718627730912	3	-1,7549566	0,00937598664
2	1	0	0	0	5505,59	2,86161661	2,86198044	3,347949227939047	3	-1,75064552	0,00958176516
2	1	0	1	0	5506,89	2,87461853	2,87514853	3,3840433930357395	3	-1,74626791	0,00972962752
2	1	0	0	0	5508,19	2,88762021	2,88835669	3,4362040249009882	3	-1,74183416	0,00992498267
2	1	0	1	0	5509,49	2,90062189	2,90107417	3,5045869909226861	3	-1,73731709	0,0101670669
2	1	0	0	0	5510,79	2,91362476	2,91401291	3,5636039408499725	3	-1,73272085	0,0103843883
2	1	0	0	0	5512,09	2,92662549	2,92714	3,6195563785731795	3	-1,72805619	0,0105949482
2	1	0	1	0	5513,39	2,93962717	2,9401381	3,7007123418152333	3	-1,72329473	0,0108806053
2	1	0	0	0	5514,69	2,95262909	2,95314598	3,7631419499715123	3	-1,71844053	0,0111131072
2	1	0	1	0	5515,99	2,96563077	2,96620417	3,8231183439493107	3	-1,71351409	0,0113401497
2	1	0	0	0	5517,29	2,97863269	2,97898149	3,8820923790335514	3	-1,7085073	0,0115646813
2	1	0	1	0	5518,59	2,99163461	2,99208951	3,9554273734490016	3	-1,70341349	0,011834993
2	1	0	0	0	5519,89	3,00463605	3,00499725	4,0035551910598957	3	-1,69824338	0,0120306723
2	1	0	1	0	5521,19	3,01763797	3,01821566	4,0642180778086182	3	-1,69299304	0,0122666862
2	1	0	0	0	5522,49	3,03063989	3,03094316	4,139441561897584	3	-1,68766475	0,0125464117
2	1	0	0	0	5523,79	3,04364157	3,04412127	4,2040006170670099	3	-1,68223751	0,0127974879
2	1	0	1	0	5525,09	3,05664349	3,05714917	4,2574020276466912	3	-1,67673087	0,0130155133
2	1	0	0	0	5526,39	3,06964517	3,07011724	4,3352127373218464	3	-1,67114425	0,013309611
2	1	0	1	0	5527,69	3,08264685	3,08309507	4,403457167247929	3	-1,66546082	0,0135762775
2	1	0	0	0	5528,99	3,09564877	3,09635329	4,4621553557614464	3	-1,65969479	0,0138164097
2	1	0	1	0	5530,29	3,10865045	3,10914087	4,5205968953668998	3	-1,65384972	0,0140551729
2	1	0	0	0	5531,59	3,12165213	3,12227893	4,5993927270174029	3	-1,64792359	0,0143605871
2	1	0	1	0	5532,89	3,13465405	3,13519645	4,6649027218421184	3	-1,64189458	0,0146253863
2	1	0	0	0	5534,19	3,14765573	3,14793396	4,7300491258501965	3	-1,6357888	0,0148898819
2	1	0	0	0	5535,49	3,16065645	3,16119146	4,7949572306029114	3	-1,62958753	0,0151577778
2	1	0	1	0	5536,79	3,17365932	3,17416024	4,8732045330107213	3	-1,62330627	0,015468332
2	1	0	0	0	5538,09	3,18666124	3,18715811	4,9230189137160723	3	-1,61693549	0,0156904403
2	1	0	1	0	5539,39	3,19966292	3,20009589	4,9975748819609363	3	-1,61048496	0,0159927197
2	1	0	0	0	5540,69	3,2126646	3,21305394	5,052930358797296	3	-1,60394776	0,0162353385
2	1	0	1	0	5541,99	3,22566652	3,22604179	5,1434671034415514	3	-1,59731698	0,016593039
2	1	0	0	0	5543,29	3,2386682	3,2391901	5,2236232583721645	3	-1,59059119	0,0169203095
2	1	0	1	0	5544,60	3,25167012	3,25226784	5,3391509664555411	3	-1,58371389	0,0173643492
2	1	0	0	0	5545,90	3,2646718	3,26535606	5,3898250050842765	3	-1,5767225	0,0175996982
2	1	0	0	0	5547,20	3,27767348	3,27821279	5,5363558105972288	3	-1,56961775	0,0181493517
2	1	0	1	0	5548,50	3,2906754	3,29121161	5,5841170276204723	3	-1,56240499	0,0183785111
2	1	0	0	0	5549,80	3,30367708	3,30405903	5,6247124187648013	3	-1,55513036	0,0185843818
2	1	0	1	0	5551,10	3,31667876	3,31714749	5,6651620281239232	3	-1,54778636	0,0187921785
2	1	0	0	0	5552,40	3,32968068	3,32992506	5,7877106182277197	3	-1,54034531	0,0192726422
2	1	0	1	0	5553,70	3,34268236	3,34338355	5,9478247811397018	3	-1,53277743	0,0198858604
2	1	0	0	0	5555,00	3,35568404	3,35627103	5,9995933994650701	3	-1,52501726	0,0201362614
2	1	0	1	0	5556,30	3,36868596	3,36919904	6,0481175693372787	3	-1,51719856	0,0203773119
2	1	0	0	0	5557,60	3,38168764	3,38229704	6,1112537235021734	3	-1,50926232	0,020670075
2	1	0	1	0	5558,90	3,39468932	3,39514494	6,1867744053403584	3	-1,50127804	0,0210049953
2	1	0	1	0	5560,20	3,40769196	3,40836334	6,2625277123284915	3	-1,49314559	0,021344969
2	1	0	0	0	5561,50	3,42069292	3,42128086	6,2367848902940685	3	-1,48501861	0,0213377923
2	1	0	1	0	5562,80	3,43369484	3,43414831	6,345203732450784	3	-1,47686791	0,0217903703
2	1	0	0	0	5564,10	3,44669652	3,44708633	6,4171077335873997	3	-1,46856415	0,0221203249
2	1	0	1	0	5565,40	3,45969868	3,46032476	6,481756610174976	3	-1,46019113	0,0224289838
2	1	0	0	0	5566,70	3,47270012	3,4731822	6,5594928438464986	3	-1,4517343	0,0227823146
2	1	0	1	0	5568,00	3,4857018	3,48634028	6,7142165650923853	3	-1,44308317	0,0234080441
2	1	0	0	0	5569,30	3,49870396	3,49916816	6,7737008283535834	3	-1,43431675	0,0237023178
2	1	0	1	0	5570,60	3,5117054	3,51237607	6,8563601250449728	3	-1,42547691	0,0240821149
2	1	0	0	0	5571,90	3,52470827	3,52512431	7,1135297995846822	3	-1,4164629	0,0250760764
2	1	0	0	0	5573,20	3,53770924	3,53814197	7,232586992283657	3	-1,40714955	0,0255899187
2	1	0	1	0	5574,50	3,55071115	3,55125999	7,2903940603137011	3	-1,39770091	0,025890084
2	1	0	0	0	5575,80	3,56371284	3,56414747	7,3926369523008755	3	-1,38815558	0,0263484474
2	1	0	1	0	5577,10	3,57671475	3,57709551	7,4676873832940915	3	-1,37847495	0,0267126318
2	1	0	0	0	5578,40	3,58971643	3,59015298	7,6077422772844582	3	-1,36867666	0,0273129586
2	1	0	1	0	5579,70	3,60271811	3,60334158	7,7543104539314957	3	-1,35868371	0,02794143
2	1	0	0	0	5581,00	3,61572003	3,61607909	7,905852988362327	3	-1,3484937	0,0285881888
2	1	0	1	0	5582,30	3,62872171	3,62922716	7,9498613302906445	3	-1,33820069	0,0288518518
2	1	0	1	0	5583,60	3,6417222	3,64203405	8,064810046942313	3	-1,32779145	0,0293723121
2	1	0	0	0	5584,90	3,65472531	3,65520287	8,1462202221155021	3	-1,3172586	0,029776087
2	1	0	1	0	5586,20	3,66772699	3,66831112	8,4052589486042419	3	-1,30661678	0,0308331046
2	1	0	0	0	5587,50	3,68072867	3,68109846	8,7631113380193715	3	-1,29528856	0,0322578773
2	1	0	1	0	5588,80	3,69373059	3,69424701	8,8451206857959334	3	-1,2838521	0,0326760598
2	1	0	0	0	5590,10	3,70673227	3,70731497	8,9752838984131238	3	-1,27229178	0,0332742035
2	1	0	1	0	5591,40	3,71973395	3,72030282	9,073995644847543	3	-1,26057208	0,0337580107
2	1	0	0	0	5592,70	3,73273587	3,73316026	9,341998008390249	3	-1,24868047	0,0348751768
2	1	0	1	0	5594,00	3,74573755	3,74624825	9,4695398434996608	3	-1,23645914	0,0354752466
2	1	0	1	0	5595,30	3,75873923	3,75933814	9,5416155669924403	3	-1,22412694	0,0358701609
2	1	0	0	0	5596,60	3,77174115	3,77227426	9,7011489023764813	3	-1,21161437	0,036595393
2	1	0	1	0	5597,90	3,78474283	3,78526211	9,7758380596836506	3	-1,19896293	0,0370041095
2	1	0	0	0	5599,20	3,79774475	3,79847026	9,8687265490492134	3	-1,18620348	0,0374860652
2	1	0	1	0	5600,54	3,8111465	3,81157827	10,150953980783613	3	-1,17273438	0,0386911556
2	1	0	0	0	5601,84	3,82414865	3,82462621	10,268619467814758	3	-1,15946674	0,0392736308
2	1	0	1	0	5603,14	3,83715034	3,83758426	10,385005320111901	3	-1,14605451	0,0398533344
2	1	0	0	0	5604,44	3,85015225	3,85064244	10,494826629757882	3	-1,13247371	0,0404118262
2	1	0	1	0	5605,74	3,86315393	3,86352015	10,901491232216358	3	-1,11858428	0,0421181321
2	1	0	0	0	5607,04	3,87615561	3,87651801	11,073738756279141	3	-1,10431266	0,0429275483
2	1	0	1	0	5608,34	3,88915825	3,8896153	11,205260125090731	3	-1,08983564	0,0435841493
2	1	0	1	0	5609,64	3,90215921	3,90256381	11,269278575976685	3	-1,07522619	0,0439790785
2	1	0	0	0	5610,94	3,91516113	3,91556191	11,313067329426602	3	-1,0605669	0,0442970172
2	1	0	1	0	5612,24	3,92816281	3,92879987	11,502879497905582	3	-1,0457232	0,0451925099
2	1	0	0	0	5613,54	3,94116473	3,94157767	11,609986456731973	3	-1,03069091	0,0457616635
2	1	0	1	0	5614,84	3,95416641	3,95483589	11,729216307401629	3	-1,01551771	0,0463871248
2	1	0	0	0	5616,14	3,96716809	3,96760345	11,815180497864874	3	-1,00020587	0,0468779504
2	1	0	1	0	5617,45	3,98017001	3,98086143	11,936453133821458	3	-0,984749377	0,0475173667
2	1	0	0	0	5618,75	3,99317169	3,99383974	12,092225988705955	3	-0,969128549	0,0482944138
2	1	0	1	0	5620,05	4,00617361	4,00675726	12,183137195408336	3	-0,953396201	0,0488148741
2	1	0	0	0	5621,35	4,01917601	4,01952744	12,406285331816794	3	-0,937373936	0,0498674028
2	1	0	0	0	5622,65	4,03217697	4,03266287	12,720025564233424	3	-0,921057105	0,0512955748
2	1	0	1	0	5623,95	4,04517889	4,0457406	13,147043446699741	3	-0,904181838	0,0531895272
2	1	0	0	0	5625,25	4,05818033	4,05878878	13,548703685402842	3	-0,886881173	0,0549913272
2	1	0	1	0	5626,55	4,07118225	4,07174683	14,043515081206947	3	-0,868991971	0,0571816377
2	1	0	0	0	5627,85	4,08418417	4,08458424	14,145491252342878	3	-0,85065341	0,0577784516
2	1	0	1	0	5629,15	4,09718561	4,09776306	14,350045854846656	3	-0,832189798	0,058803089
2	1	0	0	0	5630,45	4,11018801	4,11077023	14,112449298302323	3	-0,813625991	0,0580130368
2	1	0	1	0	5631,75	4,1231885	4,1238389	14,190789012193165	3	-0,795245826	0,0585205294
2	1	0	1	0	5633,05	4,13619089	4,13677454	14,227741300321117	3	-0,776780069	0,0588569567
2	1	0	0	0	5634,35	4,14919281	4,14976358	14,32682686980651	3	-0,758190334	0,0594529435
2	1	0	1	0	5635,65	4,16219473	4,16266203	14,607589294513046	3	-0,739370346	0,060806457
2	1	0	0	0	5636,95	4,17519665	4,17579985	15,356189529101059	3	-0,719917655	0,0641243756
2	1	0	1	0	5638,25	4,18819857	4,18898869	15,288431773583056	3	-0,699946821	0,0640430674
2	0	0	0	1	5639,51	4,19919968	4,19959259	15,348066871364835	3	-0,680639446	0,0644556284
2	0	0	1	1	5640,81	4,18619776	4,18658495	15,109903658429715	3	-0,660819411	0,0632588938
2	0	0	0	1	5642,11	4,17319632	4,17360735	15,115959281722723	3	-0,641305387	0,0630880818
2	0	0	1	1	5643,41	4,1601944	4,16077948	14,663718178868272	3	-0,621978819	0,061012499
2	0	0	0	1	5644,71	4,14719248	4,14775133	14,639534071087837	3	-0,603059351	0,0607211478
2	0	0	1	1	5646,01	4,13419104	4,13481331	14,403173064192118	3	-0,584276438	0,0595544316
2	0	0	1	1	5647,31	4,12118959	4,12159777	14,268438616020147	3	-0,565674663	0,0588087663
2	0	0	0	1	5648,61	4,10818768	4,10861731	14,336319944992427	3	-0,547201753	0,0589024536
2	0	0	1	1	5649,91	4,09518576	4,09564972	14,015118176738411	3	-0,528799534	0,0574010164
2	0	0	0	1	5651,21	4,08218384	4,08272219	13,74328406155105	3	-0,510754764	0,0561100096
2	0	0	1	1	5652,51	4,06918192	4,06955433	13,502380748589814	3	-0,49303925	0,0549486727
2	0	0	0	1	5653,81	4,05618	4,05663586	13,189308101932178	3	-0,47568357	0,0535042211
2	0	0	1	1	5655,11	4,04317856	4,04364824	12,828036040067614	3	-0,458767802	0,0518720672
2	0	0	0	1	5656,41	4,03017664	4,03062057	12,706488380829512	3	-0,442175418	0,051215034
2	0	0	1	1	5657,71	4,01717472	4,01760197	12,388950429856778	3	-0,425874442	0,0497738719
2	0	0	0	1	5659,01	4,00417233	4,00466442	12,030556533284795	3	-0,409970522	0,0481783412
2	0	0	0	1	5660,31	3,99117255	3,99164772	11,747257240627938	3	-0,394520462	0,0468909144
2	0	0	1	1	5661,61	3,97816968	3,97869849	11,462106049060794	3	-0,379465878	0,0456042625
2	0	0	0	1	5662,91	3,965168	3,96567082	11,158318504691101	3	-0,364756644	0,0442502163
2	0	0	1	1	5664,21	3,95216584	3,95271277	10,773811509211853	3	-0,350524813	0,0425857827
2	0	0	0	1	5665,51	3,9391644	3,9395144	10,436806082725525	3	-0,336807549	0,0411159471
2	0	0	1	1	5666,81	3,92616224	3,92663693	10,166385519007818	3	-0,32341072	0,0399197042
2	0	0	0	1	5668,11	3,91316056	3,91366887	9,902352695663808	3	-0,310370296	0,0387545303
2	0	0	1	1	5669,41	3,90015912	3,90047073	9,634678557515145	3	-0,297664642	0,0375797823
2	0	0	0	1	5670,71	3,88715696	3,88751316	9,3789214591185088	3	-0,285299987	0,036460679
2	0	0	1	1	5672,01	3,87415528	3,87456512	9,1485300287604326	3	-0,273255587	0,0354465768
2	0	0	1	1	5673,31	3,86115336	3,86166739	8,8947342485189581	3	-0,261553228	0,0343485065
2	0	0	0	1	5674,61	3,84815168	3,84833908	8,6656914204359155	3	-0,250139356	0,0333485194
2	0	0	1	1	5675,91	3,83514977	3,83552122	8,4629594882329114	3	-0,239011154	0,0324598625
2	0	0	0	1	5677,21	3,82214808	3,82246375	8,2181607608993664	3	-0,228171051	0,0314136222
2	0	0	1	1	5678,51	3,8091464	3,80936551	7,9916959082086784	3	-0,21764195	0,0304432902
2	0	0	0	1	5679,81	3,79614449	3,79656768	7,7430045207341325	3	-0,20742628	0,0293968413
2	0	0	1	1	5681,11	3,78314281	3,78346992	7,5383312751849306	3	-0,197483182	0,0285210498
2	0	0	0	1	5682,41	3,77014112	3,77038193	7,3458889201283174	3	-0,187799141	0,0276968069
2	0	0	1	1	5683,71	3,75713921	3,75759411	7,1247304603457306	3	-0,178387895	0,0267718453
2	0	0	1	1	5685,01	3,74413753	3,74438572	6,9415139804283686	3	-0,169247314	0,0259917062
2	0	0	0	1	5686,31	3,73113585	3,73152828	6,7602260832985331	3	-0,160344437	0,0252259746
2	0	0	1	1	5687,62	3,71813393	3,7186904	6,5906318351626253	3	-0,151652411	0,0245085191
2	0	0	0	1	5688,92	3,70513225	3,70566249	6,4191898604233805	3	-0,143189728	0,0237873513
2	0	0	1	1	5690,22	3,69213057	3,69247437	6,262240660687255	3	-0,134930521	0,0231231637
2	0	0	0	1	5691,52	3,67912865	3,67970681	6,1081013704339533	3	-0,12689279	0,0224760231
2	0	0	1	1	5692,82	3,66612697	3,66661882	5,948250276346999	3	-0,119060941	0,0218099672
2	0	0	0	1	5694,12	3,65312505	3,65341043	5,7813267471889651	3	-0,111440726	0,0211215597
2	0	0	1	1	5695,42	3,64012337	3,64056301	5,6564756172398842	3	-0,104012609	0,0205927566
2	0	0	1	1	5696,72	3,62712216	3,62756586	5,5062853639929158	3	-0,0967569575	0,0199744124
2	0	0	0	1	5698,02	3,61411977	3,61469722	5,3498963850239891	3	-0,0897032395	0,0193382557
2	0	0	1	1	5699,32	3,60111809	3,60155916	5,2227627647420006	3	-0,0828311518	0,0188100897
2	0	0	0	1	5700,62	3,58811617	3,58857131	5,0746193006634643	3	-0,0761367977	0,0182106327
2	0	0	1	1	5701,96	3,57471442	3,5751729	4,9403558683892045	3	-0,069416225	0,0176626258
2	0	0	0	1	5703,26	3,56171227	3,56218505	4,8016671836376243	3	-0,0630850941	0,0171044264
2	0	0	1	1	5704,56	3,54871058	3,54941726	4,6697742305696013	3	-0,0569302402	0,016574977
2	0	0	0	1	5705,86	3,53570867	3,53644919	4,5500200341145389	3	-0,0509383343	0,0160909146
2	0	0	1	1	5707,16	3,52270699	3,52323127	4,438053213059888	3	-0,0450930521	0,0156362876
2	0	0	0	1	5708,46	3,50970531	3,51025295	4,3415783469875462	3	-0,0393898487	0,0152400378
2	0	0	0	1	5709,76	3,49670339	3,49708414	4,2267832594353101	3	-0,0338167474	0,0147814164
2	0	0	1	1	5711,06	3,48370171	3,48449779	4,1139930499096666	3	-0,0283946563	0,0143351993
2	0	0	0	1	5712,36	3,47069979	3,47115946	4,0005875267088339	3	-0,0231152438	0,0138866771
2	0	0	1	1	5713,66	3,45769811	3,45817161	3,8906359622875789	3	-0,0179806985	0,0134544866
2	0	0	0	1	5714,96	3,44469643	3,44532371	3,7892470670243059	3	-0,0129831517	0,013055183
2	0	0	1	1	5716,26	3,43169451	3,4320755	3,6923473787804397	3	-0,0081232423	0,012672415
2	0	0	0	1	5717,56	3,41869283	3,41924787	3,5946390964090822	3	-0,00338665675	0,012290962
2	0	0	1	1	5718,86	3,40569115	3,40634012	3,512913768490151	3	0,00123217038	0,0119661791
2	0	0	0	1	5720,16	3,39268923	3,39327216	3,4356283893187846	3	0,00574303605	0,0116580222
2	0	0	1	1	5721,46	3,37968707	3,38018274	3,3615205833647258	3	0,0101737119	0,0113625536
2	0	0	1	1	5722,76	3,36668587	3,36720634	3,2938107599814541	3	0,0145044737	0,0110909408
2	0	0	0	1	5724,06	3,35368395	3,35407853	3,2175370032588544	3	0,01873192	0,0107918717
2	0	0	1	1	5725,36	3,34068227	3,34124064	3,1353135779499866	3	0,0228578933	0,0104758367
2	0	0	0	1	5726,66	3,32768059	3,32820249	3,0678515223165325	3	0,0268918071	0,0102104312
2	0	0	1	1	5727,96	3,31467867	3,31500411	3,0045201722532512	3	0,0308387689	0,00995999668
2	0	0	0	1	5729,26	3,30167699	3,3022666	2,9372189690669402	3	0,0347031839	0,00969947968
2	0	0	1	1	5730,56	3,28867507	3,2890687	2,8776156374563834	3	0,0384840183	0,00946467556
2	0	0	0	1	5731,86	3,27567339	3,27630115	2,8162930049002134	3	0,0421850532	0,00922702439
2	0	0	1	1	5733,16	3,26267123	3,2631731	2,7449239192903008	3	0,045798704	0,00895716157
2	0	0	1	1	5734,46	3,24966979	3,25027514	2,6789016649127021	3	0,0493302159	0,00870716758
2	0	0	0	1	5735,76	3,23666763	3,23714709	2,6258680863926819	3	0,0527813695	0,00850032084
2	0	0	1	1	5737,06	3,22366595	3,22404861	2,5660223979502858	3	0,0561545305	0,00827298127
2	0	0	0	1	5738,36	3,21066451	3,21107125	2,508638471364975	3	0,0594534427	0,00805541687
2	0	0	1	1	5739,66	3,19766235	3,19807339	2,4543620863308534	3	0,0626799315	0,00784923043
2	0	0	0	1	5740,96	3,18466067	3,18499541	2,4044020095219158	3	0,0658382848	0,00765800942
2	0	0	1	1	5742,26	3,17165875	3,17222762	2,3505405516674003	3	0,0689299479	0,00745644979
2	0	0	0	1	5743,56	3,15865707	3,15908957	2,300887887055673	3	0,0719522461	0,00726871099
2	0	0	1	1	5744,86	3,14565516	3,14625192	2,2571579683571984	3	0,0749097839	0,00710158749
2	0	0	1	1	5746,16	3,13265347	3,13319373	2,2025069637844973	3	0,0778072253	0,00690088095
2	0	0	0	1	5747,46	3,11965203	3,1203661	2,1628421992063453	3	0,0806417242	0,0067488593
2	0	0	1	1	5748,76	3,10665011	3,1070683	2,1151999520758765	3	0,0834187418	0,00657207053
2	0	0	0	1	5750,06	3,09364843	3,09413004	2,0658710760374746	3	0,0861395895	0,00639207382
2	0	0	1	1	5751,36	3,08064675	3,08123231	2,024332933127873	3	0,0887979195	0,00623743981
2	0	0	0	1	5752,66	3,06764483	3,0680244	1,9752671321233101	3	0,0913998485	0,00606016768
2	0	0	1	1	5753,96	3,05464292	3,05507636	1,9360223021358234	3	0,0939446762	0,00591469603
2	0	0	0	1	5755,26	3,04164147	3,04172802	1,8910348843783139	3	0,0964331031	0,005752014
2	0	0	1	1	5756,56	3,02863955	3,02934122	1,8490057699382234	3	0,0988670662	0,00560126919
2	0	0	1	1	5757,86	3,01563692	3,0162015	1,8152832867810531	3	0,101248384	0,00547526032
2	0	0	0	1	5759,16	3,00263619	3,00310469	1,7735857237130403	3	0,103582986	0,00532626361
2	0	0	1	1	5760,47	2,98963428	2,98998666	1,7327206917107104	3	0,10586334	0,00518081198
2	0	0	0	1	5761,77	2,97663236	2,97718906	1,6980902751286848	3	0,108095467	0,00505553558
2	0	0	1	1	5763,07	2,96363044	2,96402097	1,6590059113999162	3	0,11027734	0,00491732825
2	0	0	0	1	5764,37	2,950629	2,95122337	1,6242614295333622	3	0,112413086	0,00479355827
2	0	0	1	1	5765,67	2,93762708	2,93811512	1,5925481977562086	3	0,114503965	0,00467908988
2	0	0	0	1	5766,97	2,92462516	2,92525744	1,5728586865589024	3	0,116550751	0,00460101664
2	0	0	1	1	5768,27	2,91162372	2,9121294	1,5308409969632813	3	0,118568309	0,00445800694
2	0	0	0	1	5769,57	2,89862061	2,89922953	1,4987674070751494	3	0,120538361	0,00434527081
2	0	0	0	1	5770,87	2,88561988	2,88622403	1,4615006589641197	3	0,122462668	0,00421821838
2	0	0	1	1	5772,17	2,87261796	2,87311578	1,4264206138129011	3	0,12433932	0,00409827149
2	0	0	0	1	5773,47	2,85961628	2,86003757	1,3937656634176782	3	0,1261729	0,0039862222
2	0	0	1	1	5774,77	2,8466146	2,84720993	1,3584744598095568	3	0,127961501	0,00386786205
2	0	0	0	1	5776,07	2,83361268	2,83393168	1,326225905679161	3	0,129707173	0,00375843351
2	0	0	1	1	5777,37	2,820611	2,82101393	1,2908333316445333	3	0,131408006	0,00364145869
2	0	0	0	1	5778,67	2,80760932	2,80813646	1,2564289790267757	3	0,133061856	0,00352822407
2	0	0	1	1	5779,97	2,7946074	2,79492784	1,2228227720285467	3	0,134670645	0,00341770146
2	0	0	0	1	5781,27	2,78160572	2,78235054	1,1900075970838434	3	0,136239409	0,00331101823
2	0	0	0	1	5782,57	2,7686038	2,76907253	1,1599047112589091	3	0,137766495	0,00321186031
2	0	0	1	1	5783,87	2,75560188	2,75607443	1,1271476646264373	3	0,13925232	0,00310650282
2	0	0	0	1	5785,17	2,74260044	2,74318671	1,0929234052697794	3	0,140693977	0,00299809291
2	0	0	1	1	5786,47	2,72959852	2,73009872	1,0590323200449314	3	0,142091855	0,00289126276
2	0	0	0	1	5787,77	2,7165966	2,71699047	1,0251280904437046	3	0,143446669	0,00278526335
2	0	0	1	1	5789,07	2,70359492	2,7040627	0,99664692642787853	3	0,144762382	0,00269499584
2	0	0	0	1	5790,37	2,69059324	2,69126511	0,96388854707280563	3	0,146036088	0,00259407959
2	0	0	1	1	5791,67	2,67759132	2,67803693	0,93070707501222925	3	0,147268549	0,00249246787
2	0	0	0	1	5792,97	2,66458964	2,66505909	0,89875930299361498	3	0,148457929	0,00239524664
2	0	0	0	1	5794,27	2,65158868	2,65211105	0,86527494036957005	3	0,14960444	0,00229480513
2	0	0	1	1	5795,57	2,63858604	2,63901305	0,83170801928887667	3	0,15070723	0,00219488842
2	0	0	0	1	5796,87	2,62558436	2,62619543	0,79565359620998426	3	0,151764736	0,00208954187
2	0	0	1	1	5798,17	2,61258268	2,61316752	0,76043993964170381	3	0,152776927	0,00198715692
2	0	0	0	1	5799,47	2,59958076	2,60023975	0,72461229392016883	3	0,153743312	0,00188416569
2	0	0	1	1	5800,77	2,58657885	2,58708167	0,69043178825328691	3	0,154662788	0,00178620347
2	0	0	0	1	5802,07	2,57357693	2,57395339	0,65298011045281971	3	0,155535832	0,00168074039
2	0	0	1	1	5803,37	2,56057549	2,56106591	0,61318428860977114	3	0,156358346	0,00157040532
2	0	0	0	1	5804,67	2,54757357	2,54809785	0,57455317862331776	3	0,157131493	0,00146401767
2	0	0	0	1	5805,97	2,53457189	2,53495955	0,53429425185571008	3	0,157851964	0,00135441427
2	0	0	1	1	5807,31	2,5211699	2,52158117	0,49019119702279437	3	0,158538163	0,00123605691
2	0	0	0	1	5808,61	2,50816822	2,50849342	0,44524026072273702	3	0,159144789	0,00111688231
2	0	0	1	1	5809,91	2,4951663	2,49576569	0,39911513263359488	3	0,15969342	0,000996097806
2	0	0	0	1	5811,21	2,48216462	2,48271775	0,34972086013294714	3	0,160180032	0,000868258183
2	0	0	1	1	5812,51	2,46916294	2,46969986	0,29878338030539366	3	0,160601676	0,000737905269
2	0	0	0	1	5813,81	2,45616102	2,45670223	0,24661292818685344	3	0,160956159	0,000605854555
2	0	0	1	1	5815,11	2,44315934	2,44362426	0,18982558460750899	3	0,161239326	0,000463862409
2	0	0	0	1	5816,41	2,43015742	2,43068624	0,13089144198844816	3	0,161447227	0,000318156031
2	0	0	1	1	5817,71	2,41715503	2,41751719	0,069988683796308122	3	0,161577538	0,000169198844
2	0	0	1	1	5819,05	2,40375423	2,40425062	0,0044099939418568608	3	0,161627412	1,0602731E-005
2	0	0	1	1	5820,27	2,39145255	2,39190316	-0,057678006589412685	3	0,161594748	0,000137960204