File: Experimentelles/Rohdaten/Batterietests/AlteZelle/Studenten_Batterietests/Sonstige/ZView-Export/S vs Li_04_OCV_C02_loop0.txt
EC-Lab ASCII FILE
Nb header lines : 3
mode	error	time/s	Ewe/V
3	0	11741,20	2,3973949
3	0	11746,20	2,38957477
3	0	11751,20	2,38463473
3	0	11756,20	2,38082004
3	0	11761,20	2,37784457
3	0	11766,20	2,37526965
3	0	11771,20	2,37298083
3	0	11776,20	2,37105441
3	0	11781,20	2,36918521
3	0	11786,20	2,36762118
3	0	11791,20	2,36622882
3	0	11796,20	2,36491275
3	0	11801,20	2,36363506
3	0	11806,20	2,36270046
3	0	11811,20	2,36167049
3	0	11816,20	2,36069775
3	0	11821,20	2,35985851
3	0	11826,20	2,35911465
3	0	11831,20	2,35856152
3	0	11836,20	2,35776043
3	0	11841,20	2,35726452
3	0	11846,20	2,35653973
3	0	11851,20	2,35608196
3	0	11856,20	2,3556242
3	0	11861,20	2,35518551
3	0	11866,20	2,3546896
3	0	11871,20	2,35436535
3	0	11876,20	2,35385036
3	0	11881,20	2,35362148
3	0	11886,20	2,35325909
3	0	11891,20	2,35280132
3	0	11896,20	2,35255337
3	0	11901,20	2,35228634
3	0	11906,20	2,35198116
3	0	11911,20	2,3518858
3	0	11916,20	2,35146618
3	0	11921,20	2,35127544
3	0	11926,20	2,35108471
3	0	11931,20	2,35077953
3	0	11936,20	2,35049343
3	0	11941,20	2,35039806
3	0	11946,20	2,35011196
3	0	11951,20	2,35009289
3	0	11956,20	2,34988308
3	0	11961,20	2,34967327
3	0	11966,20	2,34948254
3	0	11971,20	2,34915829
3	0	11976,20	2,34915829
3	0	11981,20	2,34892941
3	0	11986,20	2,34866238
3	0	11991,20	2,34868145
3	0	11996,20	2,34845257
3	0	12001,20	2,34816647
3	0	12006,20	2,3480711
3	0	12011,20	2,34793758
3	0	12016,20	2,34780407
3	0	12021,20	2,34767056
3	0	12026,20	2,34761333
3	0	12031,20	2,34732723
3	0	12036,20	2,34709835
3	0	12041,20	2,34692669
3	0	12046,20	2,34694576
3	0	12051,20	2,34681225
3	0	12056,20	2,34665966
3	0	12061,20	2,34656429
3	0	12066,20	2,34639263
3	0	12071,20	2,34627819
3	0	12076,20	2,34622097
3	0	12081,20	2,34589672
3	0	12086,20	2,3458395
3	0	12091,20	2,34585857
3	0	12096,20	2,34562969
3	0	12101,20	2,34557247
3	0	12106,20	2,34540081
3	0	12111,20	2,34524822
3	0	12116,20	2,34513378
3	0	12121,20	2,34515285
3	0	12126,20	2,34500027
3	0	12131,20	2,34480953
3	0	12136,20	2,34473324
3	0	12141,20	2,34458065
3	0	12146,20	2,34442806
3	0	12151,20	2,34438992
3	0	12156,20	2,34419918
3	0	12161,20	2,34412289
3	0	12166,20	2,34412289
3	0	12171,20	2,343894
3	0	12176,20	2,34387493
3	0	12181,20	2,34374142
3	0	12186,20	2,3436079
3	0	12191,20	2,34345531
3	0	12196,20	2,34337902
3	0	12201,20	2,34328365
3	0	12206,20	2,34313107
3	0	12211,20	2,3430357
3	0	12216,20	2,34282589
3	0	12221,20	2,34284496
3	0	12226,20	2,34282589
3	0	12231,20	2,34253979
3	0	12236,20	2,34265423
3	0	12241,20	2,34252071
3	0	12246,20	2,34231091
3	0	12251,20	2,34219646
3	0	12256,20	2,34215832
3	0	12261,20	2,34212017
3	0	12266,20	2,34175777
3	0	12271,20	2,34185314
3	0	12276,20	2,34162426
3	0	12281,20	2,34158611
3	0	12286,20	2,34156704
3	0	12291,20	2,34143353
3	0	12296,20	2,34139538
3	0	12301,20	2,34118557
3	0	12306,20	2,34122372
3	0	12311,20	2,34112835
3	0	12316,20	2,34091854
3	0	12321,20	2,34095669
3	0	12326,20	2,3408041
3	0	12331,20	2,34068966
3	0	12336,20	2,34068966
3	0	12341,20	2,34057522
3	0	12346,20	2,34032726
3	0	12351,20	2,34032726
3	0	12356,20	2,34028912
3	0	12361,20	2,34019375
3	0	12366,20	2,34013653
3	0	12371,20	2,34004116
3	0	12376,20	2,33996487
3	0	12381,20	2,33988857
3	0	12386,20	2,33971691
3	0	12391,20	2,33960247
3	0	12396,20	2,33956432
3	0	12401,20	2,33954525
3	0	12406,20	2,33944988
3	0	12411,20	2,33933544
3	0	12416,20	2,33920193
3	0	12421,20	2,33912563
3	0	12426,20	2,33912563
3	0	12431,20	2,33895397
3	0	12436,20	2,33908749
3	0	12441,20	2,33883953
3	0	12446,20	2,3386488
3	0	12451,20	2,33874416
3	0	12456,20	2,33868694
3	0	12461,20	2,33853436
3	0	12466,20	2,33840084
3	0	12471,20	2,33822918
3	0	12476,20	2,33824825
3	0	12481,20	2,33822918
3	0	12486,20	2,33803844
3	0	12491,20	2,33817196
3	0	12496,20	2,33798122
3	0	12501,20	2,33801937
3	0	12506,20	2,33782864
3	0	12511,20	2,33777142
3	0	12516,20	2,3376379
3	0	12521,20	2,33759975
3	0	12526,20	2,33756161
3	0	12531,20	2,33738995
3	0	12536,20	2,33733273
3	0	12541,20	2,33719921
3	0	12546,20	2,33727551
3	0	12551,20	2,33719921
3	0	12556,20	2,33702755
3	0	12561,20	2,33693218
3	0	12566,20	2,33687496
3	0	12571,20	2,33681774
3	0	12576,20	2,33679867
3	0	12581,20	2,33672237
3	0	12586,20	2,3367033
3	0	12591,20	2,33651257
3	0	12596,20	2,33662701
3	0	12601,20	2,33645535
3	0	12606,20	2,33628368
3	0	12611,20	2,33626461
3	0	12616,20	2,33622646
3	0	12621,20	2,3361311
3	0	12626,20	2,3360548
3	0	12631,20	2,33609295
3	0	12636,20	2,33588314
3	0	12641,20	2,33592129
3	0	12646,20	2,33578777
3	0	12651,20	2,33567333
3	0	12656,20	2,33553982
3	0	12661,20	2,33565426
3	0	12666,20	2,33544445
3	0	12671,20	2,33534908
3	0	12676,20	2,33542538
3	0	12681,20	2,33533001
3	0	12686,20	2,33521557
3	0	12691,20	2,33513927
3	0	12696,20	2,3351202
3	0	12701,20	2,33502483
3	0	12706,20	2,33491039
3	0	12711,20	2,33481503
3	0	12716,20	2,33477688
3	0	12721,20	2,33471966
3	0	12726,20	2,33470058
3	0	12731,20	2,33464336
3	0	12736,20	2,33449078
3	0	12741,20	2,33460522
3	0	12746,20	2,33431911
3	0	12751,20	2,33435726
3	0	12756,20	2,33430004
3	0	12761,20	2,33424282
3	0	12766,20	2,3341856
3	0	12771,20	2,3341856
3	0	12776,20	2,33409023
3	0	12781,20	2,33391857
3	0	12786,20	2,33384228
3	0	12791,20	2,33386135
3	0	12796,20	2,33374691
3	0	12801,20	2,33370876
3	0	12806,20	2,33365154
3	0	12811,20	2,33351803
3	0	12816,20	2,33349895
3	0	12821,20	2,33351803
3	0	12826,20	2,33346081
3	0	12831,20	2,33332729
3	0	12836,20	2,33315563
3	0	12841,20	2,33313656
3	0	12846,20	2,33307934
3	0	12851,20	2,33302212
3	0	12856,20	2,33298397
3	0	12861,20	2,33298397
3	0	12866,20	2,33292675
3	0	12871,20	2,33283138
3	0	12876,20	2,33275509
3	0	12881,20	2,33267879
3	0	12886,20	2,33262157
3	0	12891,20	2,33254528
3	0	12896,20	2,33258343
3	0	12901,20	2,33248806
3	0	12906,20	2,33237362
3	0	12911,20	2,33243084
3	0	12916,20	2,3322401
3	0	12921,20	2,3323164
3	0	12926,20	2,33214474
3	0	12931,20	2,33208752
3	0	12936,20	2,33201122
3	0	12941,20	2,33201122
3	0	12946,20	2,33191586
3	0	12951,20	2,33197308
3	0	12956,20	2,33178234
3	0	12961,20	2,33185863
3	0	12966,20	2,33161068
3	0	12971,20	2,33178234
3	0	12976,20	2,33161068
3	0	12981,20	2,33157253
3	0	12986,20	2,33147717
3	0	12991,20	2,33143902
3	0	12996,20	2,33136272
3	0	13001,20	2,33128643
3	0	13006,20	2,33136272
3	0	13011,20	2,33115292
3	0	13016,20	2,33117199
3	0	13021,20	2,3310194
3	0	13026,20	2,33098125
3	0	13031,20	2,33111477
3	0	13036,20	2,33100033
3	0	13041,20	2,33090496
3	0	13046,20	2,3307333
3	0	13051,20	2,33069515
3	0	13056,20	2,33063793
3	0	13061,20	2,33071423
3	0	13066,20	2,33059978
3	0	13071,20	2,33048534
3	0	13076,20	2,33048534
3	0	13081,20	2,33042812
3	0	13086,20	2,33035183
3	0	13091,20	2,33027554
3	0	13096,20	2,33023739
3	0	13101,20	2,33018017
3	0	13106,20	2,33018017
3	0	13111,20	2,33012295
3	0	13116,20	2,32998943
3	0	13121,20	2,32989407
3	0	13126,20	2,32989407
3	0	13131,20	2,32976055
3	0	13136,20	2,32981777
3	0	13141,20	2,32977962
3	0	13146,20	2,3297224
3	0	13151,20	2,32958889
3	0	13156,20	2,32968426
3	0	13161,20	2,32953167
3	0	13166,20	2,32953167
3	0	13171,20	2,3294363
3	0	13176,20	2,32934093
3	0	13181,20	2,32928371
3	0	13186,20	2,32926464
3	0	13191,20	2,32928371
3	0	13196,20	2,3291502
3	0	13201,20	2,32909298
3	0	13206,20	2,32901669
3	0	13211,20	2,32905483
3	0	13216,20	2,32895947
3	0	13221,20	2,32892132
3	0	13226,20	2,3287878
3	0	13231,20	2,32871151
3	0	13236,20	2,3287878
3	0	13241,20	2,3287878
3	0	13246,20	2,32863522
3	0	13251,20	2,328578
3	0	13256,20	2,32853985
3	0	13261,20	2,32838726
3	0	13266,20	2,32836819
3	0	13271,20	2,32838726
3	0	13276,20	2,32834911
3	0	13281,20	2,32825375
3	0	13286,20	2,32812023
3	0	13291,20	2,32813931
3	0	13296,20	2,32808208
3	0	13301,20	2,32804394
3	0	13306,20	2,32794857
3	0	13311,20	2,32789135
3	0	13316,20	2,32794857
3	0	13321,20	2,32781506
3	0	13326,20	2,32775784
3	0	13331,20	2,32777691
3	0	13336,20	2,32773876
3	0	13341,20	2,32760525
3	0	13346,20	2,32758617
3	0	13351,20	2,32750988
3	0	13356,20	2,32741451
3	0	13361,20	2,32749081
3	0	13366,20	2,32737637
3	0	13371,20	2,3272047
3	0	13376,20	2,32726192
3	0	13381,20	2,3272047
3	0	13386,20	2,32712841
3	0	13391,20	2,32718563
3	0	13396,20	2,32709026
3	0	13401,20	2,32712841
3	0	13406,20	2,32695675
3	0	13411,20	2,32693768
3	0	13416,20	2,32684231
3	0	13421,20	2,32684231
3	0	13426,20	2,32672787
3	0	13431,20	2,32672787
3	0	13436,20	2,32667065
3	0	13441,20	2,32661343
3	0	13446,20	2,32659435
3	0	13451,20	2,32655621
3	0	13456,20	2,32653713
3	0	13461,20	2,32646084
3	0	13466,20	2,32630825
3	0	13471,20	2,32625103
3	0	13476,20	2,3262701
3	0	13481,20	2,3262701
3	0	13486,20	2,32628918
3	0	13491,20	2,32613659
3	0	13496,20	2,32611752
3	0	13501,20	2,32602215
3	0	13506,20	2,32592678
3	0	13511,20	2,32588863
3	0	13516,20	2,32585049
3	0	13521,20	2,32581234
3	0	13526,20	2,32575512
3	0	13531,20	2,32565975
3	0	13536,20	2,32558346
3	0	13541,20	2,3256216
3	0	13546,20	2,32556438
3	0	13551,20	2,32552624
3	0	13556,20	2,32539272
3	0	13561,20	2,32543087
3	0	13566,20	2,32525921
3	0	13571,20	2,32539272
3	0	13576,20	2,3253355
3	0	13581,20	2,32512569
3	0	13586,20	2,32516384
3	0	13591,20	2,3250494
3	0	13596,20	2,32508755
3	0	13601,20	2,32501125
3	0	13606,20	2,32501125
3	0	13611,20	2,32495403
3	0	13616,20	2,32482052
3	0	13621,20	2,32487774
3	0	13626,20	2,32472515
3	0	13631,20	2,32466793
3	0	13636,20	2,32470608
3	0	13641,20	2,32459164
3	0	13646,20	2,32455349
3	0	13651,20	2,32441998
3	0	13656,20	2,32445812
3	0	13661,20	2,32449627
3	0	13666,20	2,32438183
3	0	13671,20	2,32428646
3	0	13676,20	2,32428646
3	0	13681,20	2,32417202
3	0	13686,20	2,32417202
3	0	13691,20	2,32405758
3	0	13696,20	2,32396221
3	0	13701,20	2,32405758
3	0	13706,20	2,32388592
3	0	13711,20	2,32390499
3	0	13716,20	2,32388592
3	0	13721,20	2,32379055
3	0	13726,20	2,32365704
3	0	13731,20	2,32369518
3	0	13736,20	2,32369518
3	0	13741,20	2,32359982
3	0	13746,20	2,32350445
3	0	13751,20	2,3234663
3	0	13756,20	2,32342815
3	0	13761,20	2,32337093
3	0	13766,20	2,32333279
3	0	13771,20	2,32319927
3	0	13776,20	2,32325649
3	0	13781,20	2,32312298
3	0	13786,20	2,32316113
3	0	13791,20	2,32304668
3	0	13796,20	2,32295132
3	0	13801,20	2,32298946
3	0	13806,20	2,32285595
3	0	13811,20	2,32279897
3	0	13816,20	2,32287502
3	0	13821,20	2,3227036
3	0	13826,20	2,32268453
3	0	13831,20	2,32264638
3	0	13836,20	2,32258916
3	0	13841,20	2,32251287
3	0	13846,20	2,32257009
3	0	13851,20	2,32253194
3	0	13856,20	2,32236028
3	0	13861,20	2,32230306
3	0	13866,20	2,32224584
3	0	13871,20	2,32226491
3	0	13876,20	2,32215047
3	0	13881,20	2,32211232
3	0	13886,20	2,32199788
3	0	13891,20	2,32186437
3	0	13896,20	2,32192159
3	0	13901,20	2,32178807
3	0	13906,20	2,321769
3	0	13911,20	2,32180715
3	0	13916,20	2,32174993
3	0	13921,20	2,32157826
3	0	13926,20	2,32154012
3	0	13931,20	2,32152104
3	0	13936,20	2,32142568
3	0	13941,20	2,32142568
3	0	13946,20	2,32125401
3	0	13951,20	2,32131124
3	0	13956,20	2,32113957
3	0	13961,20	2,32113957
3	0	13966,20	2,32106328
3	0	13971,20	2,32110143
3	0	13976,20	2,32092977
3	0	13981,20	2,32089162
3	0	13986,20	2,32091069
3	0	13991,20	2,3208344
3	0	13996,20	2,32079625
3	0	14001,20	2,32062459
3	0	14006,20	2,32056737
3	0	14011,20	2,32056737
3	0	14016,20	2,32035756
3	0	14021,20	2,32045293
3	0	14026,20	2,32031941
3	0	14031,20	2,32028127
3	0	14036,20	2,32024312
3	0	14041,20	2,32016683
3	0	14046,20	2,32007146
3	0	14051,20	2,31991887
3	0	14056,20	2,31997609
3	0	14061,20	2,31991887
3	0	14066,20	2,31978536
3	0	14071,20	2,31974721
3	0	14076,20	2,31965184
3	0	14081,20	2,31968999
3	0	14086,20	2,31955647
3	0	14091,20	2,31940389
3	0	14096,20	2,31934667
3	0	14101,20	2,31930852
3	0	14106,20	2,31928945
3	0	14111,20	2,31915593
3	0	14116,20	2,31902242
3	0	14121,20	2,31886983
3	0	14126,20	2,31892705
3	0	14131,20	2,31881261
3	0	14136,20	2,31867909
3	0	14141,20	2,31875539
3	0	14146,20	2,31864095
3	0	14151,20	2,31854558
3	0	14156,20	2,31854558
3	0	14161,20	2,31835485
3	0	14166,20	2,31833577
3	0	14171,20	2,31829762
3	0	14176,20	2,31820226
3	0	14181,20	2,3180306
3	0	14186,20	2,31806874
3	0	14191,20	2,31787801
3	0	14196,20	2,31778264
3	0	14201,20	2,31772542
3	0	14206,20	2,31768727
3	0	14211,20	2,31770635
3	0	14216,20	2,31757283
3	0	14221,20	2,31755376
3	0	14226,20	2,31732488
3	0	14231,20	2,31726766
3	0	14236,20	2,31728673
3	0	14241,20	2,31711507
3	0	14246,20	2,31713414
3	0	14251,20	2,31694341
3	0	14256,20	2,31694341
3	0	14261,20	2,31680989
3	0	14266,20	2,31661916
3	0	14271,20	2,31654286
3	0	14276,20	2,31650472
3	0	14281,20	2,31660008
3	0	14286,20	2,31629491
3	0	14291,20	2,31631398
3	0	14296,20	2,31625676
3	0	14301,20	2,31600881
3	0	14306,20	2,31600881
3	0	14311,20	2,31591344
3	0	14316,20	2,31581807
3	0	14321,20	2,31576085
3	0	14326,20	2,31568456
3	0	14331,20	2,31555104
3	0	14336,20	2,31547475
3	0	14341,20	2,3154366
3	0	14346,20	2,31526494
3	0	14351,20	2,3151505
3	0	14356,20	2,31511235
3	0	14361,20	2,31497884
3	0	14366,20	2,31488347
3	0	14371,20	2,31473088
3	0	14376,20	2,3147881
3	0	14381,20	2,31469274
3	0	14386,20	2,31444478
3	0	14391,20	2,31448293
3	0	14396,20	2,31436849
3	0	14401,20	2,3142159
3	0	14406,20	2,31423497
3	0	14411,20	2,31406331
3	0	14416,20	2,31394887
3	0	14421,20	2,3139298
3	0	14426,20	2,31381536
3	0	14431,20	2,31366277
3	0	14436,20	2,31362462
3	0	14441,20	2,31349111
3	0	14446,20	2,31322408
3	0	14451,20	2,3132813
3	0	14456,20	2,31314778
3	0	14461,20	2,3129952
3	0	14466,20	2,31303334
3	0	14471,20	2,31280446
3	0	14476,20	2,31269002
3	0	14481,20	2,31261373
3	0	14486,20	2,31249928
3	0	14491,20	2,31244206
3	0	14496,20	2,31232762
3	0	14501,20	2,31211782
3	0	14506,20	2,31206059
3	0	14511,20	2,31194615
3	0	14516,20	2,31194615
3	0	14521,20	2,31183171
3	0	14526,20	2,31166005
3	0	14531,20	2,31158376
3	0	14536,20	2,31146932
3	0	14541,20	2,3114121
3	0	14546,20	2,31131673
3	0	14551,20	2,31116414
3	0	14556,20	2,31112599
3	0	14561,20	2,3110497
3	0	14566,20	2,31089711
3	0	14571,20	2,31083989
3	0	14576,20	2,31063008
3	0	14581,20	2,31053472
3	0	14586,20	2,31049657
3	0	14591,20	2,31042027
3	0	14596,20	2,31022954
3	0	14601,20	2,31022954
3	0	14606,20	2,31001973
3	0	14611,20	2,30996251
3	0	14616,20	2,30984807
3	0	14621,20	2,30969548
3	0	14626,20	2,30971456
3	0	14631,20	2,30952382
3	0	14636,20	2,30935216
3	0	14641,20	2,30937123
3	0	14646,20	2,30921865
3	0	14651,20	2,30908513
3	0	14656,20	2,30893254
3	0	14661,20	2,30895162
3	0	14666,20	2,30879903
3	0	14671,20	2,30870366
3	0	14676,20	2,30849385
3	0	14681,20	2,30845571
3	0	14686,20	2,30832219
3	0	14691,20	2,3081696
3	0	14696,20	2,30809331
3	0	14701,20	2,30807424
3	0	14706,20	2,30780721
3	0	14711,20	2,30761647
3	0	14716,20	2,30750203
3	0	14721,20	2,30750203
3	0	14726,20	2,3073113
3	0	14731,20	2,30713964
3	0	14736,20	2,30712056
3	0	14741,20	2,30704427
3	0	14746,20	2,30687261
3	0	14751,20	2,30670094
3	0	14756,20	2,3065865
3	0	14761,20	2,30649114
3	0	14766,20	2,30643392
3	0	14771,20	2,30626225
3	0	14776,20	2,30614781
3	0	14781,20	2,3060143
3	0	14786,20	2,30588078
3	0	14791,20	2,30578542
3	0	14796,20	2,30559468
3	0	14801,20	2,30570912
3	0	14806,20	2,30542302
3	0	14811,20	2,30532765
3	0	14816,20	2,30523229
3	0	14821,20	2,3050797
3	0	14826,20	2,30486989
3	0	14831,20	2,30483174
3	0	14836,20	2,3047173
3	0	14841,20	2,30456471
3	0	14846,20	2,30460286
3	0	14851,20	2,30429769
3	0	14856,20	2,30427861
3	0	14861,20	2,30399251
3	0	14866,20	2,30391622
3	0	14871,20	2,30383992
3	0	14876,20	2,30364919
3	0	14881,20	2,30353475
3	0	14886,20	2,30345845
3	0	14891,20	2,30338216
3	0	14896,20	2,30319142
3	0	14901,20	2,30303884
3	0	14906,20	2,30292439
3	0	14911,20	2,30279088
3	0	14916,20	2,3024857
3	0	14921,20	2,30252385
3	0	14926,20	2,30239034
3	0	14931,20	2,30223775
3	0	14936,20	2,30214238
3	0	14941,20	2,3021996
3	0	14946,20	2,30193257
3	0	14951,20	2,30176091
3	0	14956,20	2,3016274
3	0	14961,20	2,30158925
3	0	14966,20	2,30137944
3	0	14971,20	2,30116963
3	0	14976,20	2,30115056
3	0	14981,20	2,30101705
3	0	14986,20	2,30095983
3	0	14991,20	2,30075002
3	0	14996,20	2,30071187
3	0	15001,20	2,30048299
3	0	15006,20	2,30046391
3	0	15011,20	2,30029225
3	0	15016,20	2,30013967
3	0	15021,20	2,30008245
3	0	15026,20	2,29991078
3	0	15031,20	2,29973912
3	0	15036,20	2,29966283
3	0	15041,20	2,29956746
3	0	15046,20	2,29928136
3	0	15051,20	2,29920506
3	0	15056,20	2,29916692
3	0	15061,20	2,29907155
3	0	15066,20	2,29876637
3	0	15071,20	2,29876637
3	0	15076,20	2,29859471
3	0	15081,20	2,29842305
3	0	15086,20	2,2983849
3	0	15091,20	2,29819417
3	0	15096,20	2,29807973
3	0	15101,20	2,29779363
3	0	15106,20	2,29762197
3	0	15111,20	2,29762197
3	0	15116,20	2,29748845
3	0	15121,20	2,29735494
3	0	15126,20	2,29731679
3	0	15131,20	2,29708791
3	0	15136,20	2,29697347
3	0	15141,20	2,29678273
3	0	15146,20	2,29670644
3	0	15151,20	2,29655385
3	0	15156,20	2,29640126
3	0	15161,20	2,29624867
3	0	15166,20	2,29601979
3	0	15171,20	2,29598165
3	0	15176,20	2,2958672
3	0	15181,20	2,29575276
3	0	15186,20	2,29567647
3	0	15191,20	2,29540944
3	0	15196,20	2,29523778
3	0	15201,20	2,29525685
3	0	15206,20	2,29508519
3	0	15211,20	2,2949326
3	0	15216,20	2,2947228
3	0	15221,20	2,29460835
3	0	15226,20	2,29453206
3	0	15231,20	2,29424596
3	0	15236,20	2,29415059
3	0	15241,20	2,29403615
3	0	15246,20	2,29388356
3	0	15251,20	2,2937119
3	0	15256,20	2,29355931
3	0	15261,20	2,29338765
3	0	15266,20	2,29329228
3	0	15271,20	2,2931397
3	0	15276,20	2,29287267
3	0	15281,20	2,29272008
3	0	15286,20	2,29262471
3	0	15291,20	2,29262471
3	0	15296,20	2,29239583
3	0	15301,20	2,29218602
3	0	15306,20	2,2922051
3	0	15311,20	2,29199529
3	0	15316,20	2,29176641
3	0	15321,20	2,29170918
3	0	15326,20	2,29161382
3	0	15331,20	2,29149938
3	0	15336,20	2,29128957
3	0	15341,20	2,29113698