File: Experimentelles/Rohdaten/Batterietests/AlteZelle/Studenten_Batterietests/Sonstige/ZView-Export/S vs Li_02_CV_C02_loop9.txt
EC-Lab ASCII FILE
Nb header lines : 3
mode	ox/red	error	control changes	counter inc.	time/s	control/V	Ewe/V	<I>/mA	cycle number	(Q-Qo)/C	P/W
2	0	0	1	0	10261,08	2,39505315	2,39566827	-0,010790958069264888	10	0	2,58515556E-005
2	0	0	0	0	10262,41	2,38175106	2,38215923	-0,067788070048360845	10	-5,23516537E-005	0,000161481978
2	0	0	1	0	10263,80	2,36784887	2,36831045	-0,12960906637211634	10	-0,000189753846	0,00030695452
2	0	0	0	0	10265,15	2,35434699	2,35486197	-0,1911513947804151	10	-0,000406651554	0,00045013515
2	0	0	1	0	10266,50	2,34084511	2,34142327	-0,25623809344445635	10	-0,00070883939	0,000599961844
2	0	0	0	0	10267,85	2,32734323	2,3279345	-0,32329132943414285	10	-0,00110007927	0,000752601016
2	0	0	1	0	10269,20	2,31384134	2,31421566	-0,3922918901468311	10	-0,00158350938	0,000907848007
2	0	0	0	0	10270,55	2,3003397	2,30076718	-0,4652962010974688	10	-0,00216210936	0,00107053819
2	0	0	1	0	10271,90	2,28683758	2,2872889	-0,54115279298275712	10	-0,00284255203	0,00123777275
2	0	0	0	0	10273,25	2,27333617	2,27380991	-0,61749630561098496	10	-0,00362596731	0,00140406925
2	0	0	1	0	10274,60	2,25983429	2,26027131	-0,69839624455198822	10	-0,00451487256	0,00157856499
2	0	0	1	0	10275,95	2,24633241	2,24665308	-0,780717247873632	10	-0,00551353814	0,00175400078
2	0	0	0	0	10277,30	2,23283076	2,23342514	-0,86295563538194381	10	-0,00662444578	0,00192734681
2	0	0	1	0	10278,65	2,21932864	2,2200563	-0,94558252797772723	10	-0,00784547161	0,00209924649
2	0	0	0	0	10280,03	2,20552659	2,2059164	-1,0313600379352765	10	-0,00921152718	0,00227509392
2	0	0	1	0	10281,38	2,19202495	2,19254827	-1,1141009672234467	10	-0,0106614353	0,00244272011
2	0	0	0	0	10282,73	2,1785233	2,17888951	-1,2001514683167134	10	-0,0122227017	0,00261499756
2	0	0	1	0	10284,08	2,16502118	2,16542101	-1,2841942496597784	10	-0,0138996057	0,00278082117
2	0	0	0	0	10285,43	2,1515193	2,15197206	-1,3766016025717037	10	-0,0156986881	0,00296240812
2	0	0	1	0	10286,78	2,13801742	2,13841367	-1,4634487812096867	10	-0,0176157672	0,00312945899
2	0	0	0	0	10288,13	2,12451553	2,1250751	-1,551218433926504	10	-0,0196509566	0,0032964556
2	0	0	1	0	10289,49	2,11101365	2,11163664	-1,6404399747649786	10	-0,0218036864	0,00346401311
2	0	0	0	0	10290,84	2,09751177	2,09801793	-1,7306386468311155	10	-0,0240813177	0,003630911
2	0	0	1	0	10292,19	2,08400989	2,0845592	-1,8234139221410003	10	-0,0264816284	0,00380101427
2	0	0	0	0	10293,54	2,07050824	2,07107067	-1,925396924217543	10	-0,0290096663	0,00398763316
2	0	0	1	0	10294,89	2,05700636	2,0573318	-2,0204011661311014	10	-0,0316713639	0,00415663561
2	0	0	1	0	10296,24	2,04350495	2,04406285	-2,1211114336777043	10	-0,0344666019	0,00433568517
2	0	0	0	0	10297,59	2,03000259	2,03054476	-2,2264914599557635	10	-0,0373990349	0,00452099042
2	0	0	1	0	10298,94	2,01650071	2,01715636	-2,3139479750146422	10	-0,0404618829	0,00466759503
2	0	0	0	0	10300,29	2,00299883	2,00342774	-2,4237341290960614	10	-0,0436607562	0,00485577621
2	0	0	1	0	10301,64	1,98949695	1,98988891	-2,5346676843861821	10	-0,0470099561	0,00504370732
2	0	0	0	0	10302,99	1,9759953	1,97641063	-2,6372468173503875	10	-0,0505003296	0,00521228276
2	0	0	1	0	10304,34	1,96249354	1,96305192	-2,7570317561427798	10	-0,054149095	0,00541219627
2	0	0	0	0	10305,69	1,94899154	1,94954348	-2,8464267390469722	10	-0,0579344966	0,00554923248
2	0	0	1	0	10307,04	1,93548965	1,93595457	-2,9245478411515648	10	-0,0618330501	0,00566179166
2	0	0	0	0	10308,39	1,92198789	1,92267644	-3,0349183864891603	10	-0,0658590943	0,0058351662
2	0	0	1	0	10309,74	1,90848613	1,90902758	-3,1068140727778368	10	-0,0700037032	0,00593099371
2	0	0	0	0	10311,09	1,89498413	1,89540887	-3,19537503644824	10	-0,0742615834	0,00605654204
2	0	0	1	0	10312,44	1,88148224	1,88202035	-3,2910671109954477	10	-0,0786435455	0,00619385531
2	0	0	0	0	10313,79	1,86798048	1,86851168	-3,374340348889447	10	-0,0831435621	0,00630499423
2	0	0	0	0	10315,14	1,85447872	1,85497308	-3,464877667526409	10	-0,0877605006	0,00642725499
2	0	0	1	0	10316,49	1,84097672	1,84140444	-3,5526851589481082	10	-0,0924979299	0,00654193014
2	0	0	0	0	10317,84	1,82747483	1,82801592	-3,6396199849744589	10	-0,0973510817	0,00665328326
2	0	0	1	0	10319,19	1,81397283	1,81432712	-3,7568229536215514	10	-0,102336593	0,00681610592
2	0	0	0	0	10320,54	1,80047107	1,80106878	-3,8362466370066029	10	-0,107465386	0,00690934388
2	0	0	1	0	10321,89	1,7869693	1,78749013	-3,9186802208423686	10	-0,112713635	0,00700460235
2	0	0	0	0	10323,24	1,77346742	1,77403164	-3,9962681705753056	10	-0,118055969	0,00708950637
2	0	0	1	0	10324,59	1,75996542	1,76056302	-4,0830521223445722	10	-0,123512231	0,00718847057
2	0	0	0	0	10325,94	1,74646378	1,74694431	-4,1578259058296749	10	-0,129076764	0,00726349046
2	0	0	1	0	10327,29	1,73296201	1,73341572	-4,2288731299340582	10	-0,134745494	0,00733039528
2	0	0	0	0	10328,64	1,71946001	1,72002697	-4,2862998855610643	10	-0,140486315	0,0073725516
2	0	0	1	0	10329,99	1,70595813	1,7064085	-4,3571548101802688	10	-0,146322489	0,00743508618
2	0	0	0	0	10331,34	1,69245636	1,69314015	-4,4351596708099085	10	-0,152263522	0,00750934705
2	0	0	1	0	10332,69	1,6789546	1,67953146	-4,4940508372585126	10	-0,158288136	0,00754789962
2	0	0	1	0	10334,04	1,6654526	1,66608298	-4,5187816669543539	10	-0,164379522	0,00752866501
2	0	0	0	0	10335,39	1,65195072	1,6525141	-4,587117174019392	10	-0,170534	0,00758027565
2	0	0	1	0	10336,74	1,63844895	1,63896549	-4,6635104082524845	10	-0,176780075	0,0076433327
2	0	0	0	0	10338,09	1,62494719	1,6253165	-4,7216564031938688	10	-0,183104306	0,00767418602
2	0	0	1	0	10339,44	1,61144519	1,61203849	-4,7838522742191853	10	-0,189529255	0,00771175418
2	0	0	0	0	10340,79	1,59794343	1,59826946	-4,853471929828345	10	-0,196035802	0,00775715616
2	0	0	1	0	10342,14	1,58444154	1,58503127	-4,9120607959727456	10	-0,202623546	0,00778577011
2	0	0	0	0	10343,49	1,57093954	1,57141256	-4,9866433019439277	10	-0,209312707	0,00783607364
2	0	0	1	0	10344,84	1,5574379	1,55801404	-5,0540966590245587	10	-0,216098562	0,00787435379
2	0	0	0	0	10346,19	1,54393613	1,54453552	-5,1130323906739539	10	-0,222963214	0,00789725967
2	0	0	1	0	10347,54	1,53043425	1,53092682	-5,179807140181463	10	-0,229908511	0,00792990532
2	0	0	0	0	10348,89	1,51693225	1,5175482	-5,2323147431016109	10	-0,236938104	0,00794028956
2	0	0	0	0	10350,24	1,5034312	1,50386989	-5,2783717247720147	10	-0,244034514	0,00793798454
2	0	0	1	0	10351,59	1,48992872	1,49023068	-5,3326915030678208	10	-0,251201212	0,00794694014
2	0	0	0	0	10352,94	1,47642672	1,47691238	-5,3894875856737344	10	-0,258442074	0,00795980077
2	0	0	1	0	10354,29	1,46292484	1,46340382	-5,4702940136194317	10	-0,265768945	0,00800524931
2	0	0	0	0	10355,64	1,44942307	1,44985521	-5,5173397647837882	10	-0,273186535	0,0079993438
2	0	0	1	0	10356,99	1,43592131	1,43640661	-5,5621922798454758	10	-0,28065446	0,00798956957
2	0	0	0	0	10358,34	1,42241931	1,42297804	-5,6306296686331334	10	-0,288207471	0,00801226217
2	0	0	1	0	10359,69	1,40891755	1,40939939	-5,6579011653860365	10	-0,295822203	0,00797424279
2	0	0	0	0	10361,04	1,39541578	1,39594078	-5,7160455361008787	10	-0,303504258	0,00797926076
2	0	0	1	0	10362,40	1,3819139	1,38246214	-5,797958267231799	10	-0,311282694	0,00801545754
2	0	0	0	0	10363,75	1,3684119	1,36893356	-5,8863368121286374	10	-0,319177151	0,00805800408
2	0	0	1	0	10365,10	1,35491014	1,35524464	-5,9393580580751296	10	-0,327169776	0,00804928318
2	0	0	0	0	10366,45	1,34140825	1,34185624	-5,9882310330867904	10	-0,335228413	0,008035345
2	0	0	1	0	10367,80	1,32790649	1,32837784	-6,0547376188139277	10	-0,343369186	0,00804297905
2	0	0	1	0	10369,15	1,31440532	1,31493878	-6,1075138983639514	10	-0,351573795	0,0080310069
2	0	0	0	0	10370,50	1,30090272	1,30137062	-6,1589291642109747	10	-0,359859616	0,00801504962
2	0	0	1	0	10371,85	1,28740084	1,287992	-6,1809219134350643	10	-0,36819464	0,00796097796
2	0	0	0	0	10373,20	1,27389896	1,27438331	-6,2323368266224998	10	-0,376569033	0,00794238597
2	0	0	1	0	10374,55	1,2603972	1,26105499	-6,2441107146441933	10	-0,384993583	0,00787416659
2	0	0	0	0	10375,90	1,24689519	1,24746621	-6,2926642646392282	10	-0,393461585	0,00784988608
2	0	0	1	0	10377,25	1,23339331	1,23381734	-6,3237802237272269	10	-0,401985228	0,00780238956
2	0	0	0	0	10378,60	1,21989155	1,22043896	-6,3762634893258227	10	-0,410558522	0,0077818404
2	0	0	1	0	10379,95	1,20638978	1,20691037	-6,403546648720919	10	-0,419180512	0,00772850681
2	0	0	0	0	10381,30	1,19288778	1,19339168	-6,4434563070535654	10	-0,42785579	0,00768956728
2	0	0	1	0	10382,65	1,17938602	1,179793	-6,4756879409154317	10	-0,436572433	0,0076399711
2	0	0	0	0	10384,00	1,16588426	1,16643453	-6,5154907529553011	10	-0,445347667	0,00759989349
2	0	0	1	0	10385,35	1,15238237	1,15310621	-6,5475712940096922	10	-0,454162747	0,00755004492
2	0	0	0	0	10386,70	1,13888037	1,13924706	-6,5756423274676058	10	-0,4630211	0,00749128126
2	0	0	0	0	10388,05	1,12537861	1,12591887	-6,6157321631908544	10	-0,471920073	0,00744877756
2	0	0	1	0	10389,40	1,11187685	1,1125505	-6,6200914904475251	10	-0,480861008	0,00736518623
2	0	0	0	0	10390,75	1,09837496	1,09893167	-6,6109211246172493	10	-0,48979491	0,00726495078
2	0	0	1	0	10392,10	1,08487308	1,08545303	-6,6591020474831386	10	-0,498761177	0,00722814258
2	0	0	0	0	10393,45	1,0713712	1,07196438	-6,6931604444980762	10	-0,507775307	0,00717482949
2	0	0	1	0	10394,80	1,05786943	1,05861604	-6,7570974479119168	10	-0,516860127	0,00715317158
2	0	0	0	0	10396,15	1,04436743	1,04486704	-6,7711480185389517	10	-0,525991023	0,00707494933
2	0	0	1	0	10397,50	1,03086567	1,03140855	-6,7992086336016499	10	-0,535151482	0,00701276213
2	0	0	0	0	10398,85	1,01736391	1,01765978	-6,9517342771092954	10	-0,544444382	0,00707450043
2	0	0	1	0	10400,20	1,00386202	1,00446153	-6,9584801569581171	10	-0,553832948	0,00698952563
2	0	0	0	0	10401,55	0,9903602	0,990822673	-6,9981744587421414	10	-0,563266516	0,00693394989
2	0	0	1	0	10402,90	0,976858377	0,977153838	-7,0256940523783552	10	-0,572743952	0,00686518382
2	0	0	0	0	10404,25	0,963356495	0,963825524	-7,0626838232080333	10	-0,582264245	0,00680719502
2	0	0	1	0	10405,60	0,949854672	0,950446963	-7,0798581615090368	10	-0,591813445	0,00672902958
2	0	0	1	0	10406,95	0,936352074	0,936838388	-7,1336049157252646	10	-0,601403952	0,00668303482
2	0	0	0	0	10408,30	0,922850966	0,923329651	-7,1366753702362419	10	-0,611031473	0,00658950396
2	0	0	1	0	10409,65	0,909349084	0,909791112	-7,2195051188270298	10	-0,62070781	0,0065682414
2	0	0	0	0	10411,00	0,895847261	0,896452725	-7,234157338738441	10	-0,630456328	0,00648507988
2	0	0	1	0	10412,35	0,882345438	0,882853985	-7,2713625704249126	10	-0,640246749	0,00641955156
2	0	0	0	0	10413,70	0,868843555	0,869295239	-7,3922088493903578	10	-0,650128126	0,00642601214
2	0	0	1	0	10415,05	0,855341733	0,855786681	-7,3728039835890227	10	-0,660090506	0,00630954746
2	0	0	0	0	10416,40	0,84183985	0,842528403	-7,4064139202237414	10	-0,670072496	0,0062401141
2	0	0	1	0	10417,75	0,828338027	0,828979671	-7,4450064748525542	10	-0,680091143	0,00617175922
2	0	0	0	0	10419,10	0,814836144	0,815290809	-7,4892301931977165	10	-0,690188706	0,00610590074
2	0	0	1	0	10420,45	0,801334202	0,801932395	-7,5115970373153754	10	-0,700327337	0,00602379302
2	0	0	0	0	10421,80	0,787832439	0,78815347	-7,5877719223499302	10	-0,710506797	0,00598032866
2	0	0	1	0	10423,15	0,774330616	0,774634898	-7,5807668119669248	10	-0,720737278	0,00587232644
2	0	0	0	0	10424,50	0,760828793	0,761556864	-7,6083620662490432	10	-0,73099494	0,00579420058
2	0	0	0	0	10425,85	0,74732691	0,747898042	-7,6143026153246643	10	-0,741259515	0,00569472183
2	0	0	1	0	10427,20	0,733825088	0,734269261	-7,6041889612873242	10	-0,751524091	0,00558352238
2	0	0	0	0	10428,55	0,720323205	0,72075063	-7,6051536550124646	10	-0,761769652	0,00548141915
2	0	0	1	0	10429,90	0,706821382	0,707171917	-7,5874746441841408	10	-0,772037268	0,00536564877
2	0	0	0	0	10431,25	0,693319499	0,693713367	-7,5960486481586995	10	-0,782278717	0,0052694804
2	0	0	1	0	10432,60	0,679817677	0,680525243	-7,6057112962007808	10	-0,792541206	0,00517587876
2	0	0	0	0	10433,95	0,666315794	0,666796327	-7,6156452869375642	10	-0,802821219	0,0050780843
2	0	0	1	0	10435,31	0,652813971	0,653257728	-7,6437935034434125	10	-0,813136935	0,00499336701
2	0	0	0	0	10436,66	0,639312088	0,639568806	-7,6413701698184013	10	-0,823443115	0,0048871818
2	0	0	1	0	10438,01	0,625810206	0,626280487	-7,6803206826249587	10	-0,833793283	0,00481003476
2	0	0	0	0	10439,36	0,612308383	0,61269176	-7,7164281258980621	10	-0,844163835	0,00472779199
2	0	0	1	0	10440,71	0,59880656	0,599313378	-7,7026588593920448	10	-0,854587555	0,00461630663
2	0	0	0	0	10442,06	0,585304677	0,586025059	-7,701909663776576	10	-0,865024626	0,0045135119
2	0	0	0	0	10443,41	0,571802855	0,572526455	-7,6979260842005427	10	-0,87543422	0,00440726615
2	0	0	1	0	10444,76	0,558300972	0,558787584	-7,713145472109289	10	-0,885842919	0,00431001
2	0	0	0	0	10446,11	0,544799089	0,54514873	-7,708282259603351	10	-0,896255076	0,00420216052
2	0	0	1	0	10447,46	0,531297266	0,531870425	-7,7550264373421811	10	-0,906695724	0,00412466936
2	0	0	0	0	10448,81	0,517795384	0,51823169	-7,7926401024063245	10	-0,917191863	0,00403839303
2	0	0	1	0	10450,16	0,504293561	0,504793167	-7,8045934339364186	10	-0,927719295	0,00393970544
2	1	0	0	0	10451,47	0,508794248	0,509349465	-7,6868941833575667	10	-0,937882125	0,00391531549
2	1	0	1	0	10452,82	0,522296011	0,522757888	-7,5695711970329139	10	-0,948168159	0,00395705318
2	1	0	0	0	10454,17	0,535797954	0,536376655	-7,4139411697785254	10	-0,958266616	0,00397666497
2	1	0	1	0	10455,52	0,549299717	0,549995422	-7,3113940730691098	10	-0,968203723	0,00402123341
2	1	0	0	0	10456,87	0,5628016	0,563433945	-7,1707617590824806	10	-0,977966964	0,00404025055
2	1	0	1	0	10458,22	0,576303422	0,576602101	-7,0288713897268173	10	-0,987550199	0,00405286206
2	1	0	0	0	10459,57	0,589805305	0,590451121	-6,9060322493314739	10	-0,996964812	0,00407767436
2	1	0	1	0	10460,92	0,603307128	0,603769481	-6,800979614257824	10	-1,00621426	0,00410622405
2	1	0	0	0	10462,27	0,616809011	0,617498398	-6,7040125578641754	10	-1,01533556	0,0041397172
2	1	0	1	0	10463,62	0,630310833	0,630806744	-6,6176758830746176	10	-1,02431917	0,00417447463
2	1	0	1	0	10464,97	0,643813431	0,644344568	-6,4949477280155315	10	-1,03316998	0,00418498414
2	1	0	0	0	10466,32	0,657314539	0,657914102	-6,408415426810592	10	-1,04188573	0,0042161867
2	1	0	1	0	10467,67	0,670816422	0,671402633	-6,321377153197943	10	-1,05047715	0,00424418924
2	1	0	0	0	10469,02	0,684318244	0,684720993	-6,240974843502048	10	-1,05896091	0,0042733266
2	1	0	1	0	10470,37	0,697820067	0,698219657	-6,1507359867294579	10	-1,06732309	0,00429456495
2	1	0	0	0	10471,72	0,71132195	0,711898506	-6,0604681223630976	10	-1,07556522	0,00431443797
2	1	0	1	0	10473,07	0,724823773	0,725176752	-5,9625810061891968	10	-1,08368802	0,00432392536
2	1	0	0	0	10474,42	0,738325715	0,7388556	-5,8682827229301107	10	-1,09168041	0,00433581369
2	1	0	1	0	10475,77	0,751827538	0,752244055	-5,7788988724350925	10	-1,09955204	0,0043471423
2	1	0	0	0	10477,12	0,765329361	0,7657426	-5,7017947261532102	10	-1,10731137	0,00436610729
2	1	0	1	0	10478,47	0,778831244	0,779271305	-5,627282491574704	10	-1,11496139	0,00438517984
2	1	0	0	0	10479,82	0,792333007	0,792549551	-5,5477884461482605	10	-1,12250018	0,00439689728
2	1	0	1	0	10481,17	0,805834949	0,806398571	-5,4668382505575795	10	-1,12993729	0,00440845033
2	1	0	1	0	10482,52	0,819337428	0,81995821	-5,3849709781940192	10	-1,13726258	0,00441545108
2	1	0	0	0	10483,87	0,832838655	0,833375812	-5,3070390832920819	10	-1,14448297	0,00442275777
2	1	0	1	0	10485,22	0,846340358	0,84674418	-5,2098522596061299	10	-1,15158963	0,00441141194
2	1	0	0	0	10486,57	0,8598423	0,860102654	-5,1460228363672762	10	-1,15859067	0,00442610774
2	1	0	1	0	10487,92	0,873344064	0,873831511	-5,0352955224613363	10	-1,16546106	0,00439999998
2	1	0	0	0	10489,27	0,886846006	0,887310088	-4,962974857538953	10	-1,17220533	0,00440369779
2	1	0	1	0	10490,62	0,900347769	0,900768638	-4,8811509038011283	10	-1,17884874	0,00439678784
2	1	0	0	0	10491,97	0,913849711	0,914577663	-4,8038245998322963	10	-1,18539119	0,00439347047
2	1	0	1	0	10493,32	0,927351594	0,927875936	-4,7332917476693837	10	-1,19182622	0,00439190771
2	1	0	0	0	10494,67	0,940853417	0,941414535	-4,6609582168360646	10	-1,19816661	0,00438789371
2	1	0	1	0	10496,02	0,954355299	0,954883158	-4,583937941739961	10	-1,20440531	0,0043771253
2	1	0	0	0	10497,37	0,967857122	0,968602061	-4,5117107716699539	10	-1,21054482	0,00437005237
2	1	0	1	0	10498,72	0,981359065	0,981940508	-4,4442062278588627	10	-1,21659005	0,00436394615
2	1	0	0	0	10500,07	0,994860828	0,995449066	-4,3656515491505382	10	-1,22253978	0,00434578396
2	1	0	0	0	10501,42	1,00836194	1,00889635	-4,3017007082809261	10	-1,22839439	0,00433997018
2	1	0	1	0	10502,77	1,02186453	1,02234602	-4,226488472272969	10	-1,23415494	0,00432093348
2	1	0	0	0	10504,12	1,0353663	1,03573453	-4,1581571735441824	10	-1,23981929	0,00430674711
2	1	0	1	0	10505,48	1,04886818	1,04928315	-4,0833775140345242	10	-1,24538267	0,00428461935
2	1	0	0	0	10506,83	1,06237018	1,06297219	-4,0126676832636205	10	-1,2508415	0,00426535401
2	1	0	1	0	10508,18	1,07587183	1,0763005	-3,9589960947632858	10	-1,25621474	0,00426106947
2	1	0	0	0	10509,53	1,08937359	1,08994925	-3,8918652161955872	10	-1,26150501	0,00424193544
2	1	0	1	0	10510,88	1,10287559	1,10331774	-3,8295145643254074	10	-1,2667166	0,00422517117
2	1	0	0	0	10512,23	1,11637747	1,11685622	-3,7657459080219341	10	-1,27184212	0,00420579687
2	1	0	1	0	10513,58	1,12987924	1,13048506	-3,7051444115738125	10	-1,27688718	0,00418861024
2	1	0	0	0	10514,93	1,143381	1,14392364	-3,6471530596415251	10	-1,28184891	0,00417206483
2	1	0	1	0	10516,28	1,156883	1,15755236	-3,5533766162892134	10	-1,28670645	0,00411321968
2	1	0	0	0	10517,63	1,17038488	1,17073059	-3,4979783395926131	10	-1,29146826	0,0040951902
2	1	0	1	0	10518,98	1,18388653	1,18430936	-3,4361042007803917	10	-1,29614794	0,00406941026
2	1	0	1	0	10520,33	1,19738853	1,19781792	-3,355393495410688	10	-1,30072677	0,00401915051
2	1	0	0	0	10521,68	1,21089041	1,2114166	-3,2740497700870048	10	-1,30520749	0,00396623835
2	1	0	1	0	10523,03	1,22439229	1,2250253	-3,2032810151577139	10	-1,30958104	0,00392410019
2	1	0	0	0	10524,38	1,23789394	1,23847377	-3,1358837621907296	10	-1,31386471	0,0038837099
2	1	0	1	0	10525,73	1,25139594	1,25205255	-3,0751168144245965	10	-1,31805766	0,0038502079
2	1	0	0	0	10527,08	1,26489782	1,26531076	-3,0191400771339827	10	-1,32217109	0,00382015039
2	1	0	1	0	10528,43	1,27839971	1,27869928	-2,9513759333640282	10	-1,32619584	0,00377392233
2	1	0	0	0	10529,78	1,29190147	1,29224789	-2,8965051236251987	10	-1,33013892	0,00374300266
2	1	0	1	0	10531,13	1,30540335	1,30582678	-2,8370125864942787	10	-1,33400846	0,00370464707
2	1	0	0	0	10532,48	1,31890512	1,31952548	-2,767453286175929	10	-1,33779454	0,00365172513
2	1	0	1	0	10533,83	1,33240712	1,333004	-2,7165308271845242	10	-1,34149623	0,00362114655
2	1	0	0	0	10535,18	1,34590888	1,34634244	-2,6590776232381686	10	-1,34512496	0,00358002912
2	1	0	1	0	10536,53	1,35941076	1,35971093	-2,6010279910018125	10	-1,34867454	0,00353664625
2	1	0	1	0	10537,88	1,37291181	1,37338018	-2,5493307147206022	10	-1,35215271	0,00350120035
2	1	0	0	0	10539,23	1,38641441	1,38671803	-2,4921168784300534	10	-1,35555232	0,00345586333
2	1	0	1	0	10540,58	1,39991629	1,40045702	-2,4387502887596746	10	-1,35887933	0,003415365
2	1	0	0	0	10541,93	1,41341805	1,41395557	-2,3805838500459942	10	-1,36213136	0,00336603983
2	1	0	1	0	10543,28	1,42692006	1,42746425	-2,3257954822232419	10	-1,36530614	0,00331998989
2	1	0	0	0	10544,63	1,44042182	1,44073248	-2,2762808507929312	10	-1,36841345	0,00327951182
2	1	0	1	0	10545,98	1,4539237	1,45441139	-2,218929542849457	10	-1,37144899	0,00322723645
2	1	0	0	0	10547,33	1,46742547	1,46805012	-2,1642918052772691	10	-1,37440765	0,00317728892
2	1	0	1	0	10548,68	1,48092747	1,48153865	-2,1014772926767763	10	-1,37728751	0,00311341975
2	1	0	0	0	10550,03	1,49442935	1,49493718	-2,0513493257264272	10	-1,38009059	0,00306663848
2	1	0	1	0	10551,38	1,50793099	1,5084058	-1,9968869487444573	10	-1,38282251	0,00301211583
2	1	0	0	0	10552,73	1,52143288	1,5219444	-1,9484446030110195	10	-1,38548541	0,00296542444
2	1	0	1	0	10554,08	1,53493488	1,5352627	-1,8924572629233206	10	-1,38807726	0,0029054191
2	1	0	0	0	10555,43	1,54843664	1,54890156	-1,8413879449168854	10	-1,39060175	0,00285212859
2	1	0	0	0	10556,78	1,56193841	1,5624001	-1,7899999258418902	10	-1,39305496	0,00279669603
2	1	0	1	0	10558,13	1,57544029	1,57598865	-1,7414946400870902	10	-1,39543808	0,00274457573
2	1	0	0	0	10559,48	1,58894229	1,58943737	-1,6937711543093101	10	-1,39775515	0,0026921432
2	1	0	1	0	10560,83	1,60244405	1,60307598	-1,6427582868685312	10	-1,40000653	0,00263346639
2	1	0	0	0	10562,18	1,6159457	1,61650479	-1,5949023924767968	10	-1,40219092	0,00257816724
2	1	0	1	0	10563,53	1,6294477	1,62993312	-1,5436262246221302	10	-1,4043088	0,00251600752
2	1	0	0	0	10564,88	1,64294958	1,6436621	-1,4964011643702762	10	-1,40636051	0,00245957798
2	1	0	1	0	10566,23	1,65645134	1,65717053	-1,4483635826036406	10	-1,40834606	0,00240018545
2	1	0	0	0	10567,58	1,66995311	1,67038858	-1,4006786188110763	10	-1,41026926	0,00233967765
2	1	0	1	0	10568,93	1,68345511	1,68400753	-1,3530390389884506	10	-1,41212785	0,00227852794
2	1	0	0	0	10570,28	1,69695699	1,69731581	-1,3035884114603195	10	-1,41391885	0,00221260125
2	1	0	1	0	10571,63	1,71045876	1,71109486	-1,2503324734667936	10	-1,41564322	0,00213943748
2	1	0	0	0	10572,98	1,72396076	1,7247237	-1,2006090485180429	10	-1,41729915	0,00207071891
2	1	0	0	0	10574,33	1,73746181	1,73778164	-1,1498813606059741	10	-1,4188863	0,00199824269
2	1	0	1	0	10575,68	1,7509644	1,75116014	-1,102839357219636	10	-1,42040622	0,00193124835
2	1	0	0	0	10577,03	1,76446617	1,76511919	-1,0550635913386941	10	-1,42186284	0,00186231302
2	1	0	1	0	10578,39	1,77796817	1,7785778	-1,0078354027743117	10	-1,42325544	0,00179251365
2	1	0	0	0	10579,74	1,79146993	1,79214656	-0,96220035261163955	10	-1,42458534	0,00172440405
2	1	0	1	0	10581,09	1,80497181	1,80562508	-0,91477558327217958	10	-1,42585206	0,00165174168
2	1	0	0	0	10582,44	1,81847358	1,81914353	-0,86596951633692147	10	-1,42705524	0,00157532282
2	1	0	1	0	10583,79	1,83197558	1,83249199	-0,82077189224461837	10	-1,42819428	0,0015040579
2	1	0	0	0	10585,14	1,84547722	1,84603071	-0,77622342218334515	10	-1,42927206	0,00143293233
2	1	0	1	0	10586,49	1,85897923	1,85945928	-0,72824002911026573	10	-1,43028653	0,00135413266
2	1	0	0	0	10587,84	1,87248099	1,87309802	-0,68341835355386138	10	-1,43123949	0,00128010951
2	1	0	1	0	10589,19	1,88598287	1,88660657	-0,63894813709581875	10	-1,43213153	0,00120544375
2	1	0	0	0	10590,54	1,89948463	1,89990485	-0,59255020739510566	10	-1,43296254	0,00112578901
2	1	0	1	0	10591,89	1,91298664	1,91326344	-0,5493360158676919	10	-1,43373346	0,00105102453
2	1	0	1	0	10593,24	1,92648768	1,92715228	-0,5038003744498809	10	-1,43444324	0,000970900059
2	1	0	0	0	10594,63	1,94039047	1,94101155	-0,4597723406429104	10	-1,43511248	0,000892423443
2	1	0	1	0	10595,98	1,95389211	1,95426989	-0,41595611736799219	10	-1,43570256	0,000812890532
2	1	0	0	0	10597,33	1,96739388	1,96809888	-0,37225395867911539	10	-1,4362334	0,000732632587
2	1	0	1	0	10598,68	1,98089588	1,98137712	-0,32974812660055885	10	-1,43670619	0,000653355382
2	1	0	0	0	10600,03	1,99439776	1,99497592	-0,28705299676706451	10	-1,43712139	0,00057266379
2	1	0	1	0	10601,38	2,00789952	2,00859475	-0,24370754067786083	10	-1,43747914	0,000489509664
2	1	0	0	0	10602,73	2,02140117	2,02197337	-0,20190947696876992	10	-1,43777919	0,000408255582
2	1	0	1	0	10604,08	2,03490329	2,0356822	-0,15888806137566781	10	-1,43802202	0,000323445594
2	1	0	0	0	10605,43	2,04840517	2,04899049	-0,11721667453336248	10	-1,43820775	0,000240175854
2	1	0	1	0	10606,78	2,06190705	2,06248879	-0,075575622768762291	10	-1,43833733	0,000155873873
2	1	0	0	0	10608,17	2,075809	2,07634807	-0,032685537085247533	10	-1,43841219	6,78665529E-005
2	1	0	1	0	10609,58	2,08991075	2,09048247	0,010721783912837666	10	-1,43842709	2,2413702E-005
2	1	0	0	0	10610,95	2,10361266	2,10410619	0,051870219797516826	10	-1,43838394	0,000109140448
2	1	0	1	0	10612,30	2,11711431	2,11751461	0,092611633435202125	10	-1,43828595	0,000196106485
2	1	0	1	0	10613,69	2,13101602	2,13153338	0,13435073378166051	10	-1,43812764	0,000286373077
2	1	0	0	0	10615,04	2,1445179	2,14500117	0,17480466887287306	10	-1,43791866	0,000374956231
2	1	0	1	0	10616,39	2,15802002	2,15846109	0,21475522274461885	10	-1,43765533	0,000463540782
2	1	0	0	0	10617,74	2,17152214	2,17208982	0,25584700680337834	10	-1,43733728	0,000555722683
2	1	0	1	0	10619,09	2,18502402	2,18571854	0,29494773930249088	10	-1,43696547	0,00064467272
2	1	0	0	0	10620,44	2,19852567	2,19893694	0,33534434600733344	10	-1,43653965	0,000737401075
2	1	0	1	0	10621,79	2,21202755	2,21255589	0,37626483361236659	10	-1,43605912	0,000832506979
2	1	0	0	0	10623,14	2,22552919	2,22603416	0,41589180737112838	10	-1,43552375	0,000925789354
2	1	0	1	0	10624,49	2,23903131	2,23966312	0,45440596047167923	10	-1,43493557	0,00101771625
2	1	0	0	0	10625,84	2,2525332	2,25309157	0,49518985875571706	10	-1,43429363	0,00111570815
2	1	0	1	0	10627,19	2,26603484	2,26648998	0,53434397668267411	10	-1,43359756	0,00121108524
2	1	0	0	0	10628,54	2,27953696	2,2799685	0,57661314370731635	10	-1,43284762	0,00131465984
2	1	0	1	0	10629,89	2,29303885	2,2937274	0,6171984152557943	10	-1,43204129	0,00141568494
2	1	0	0	0	10631,24	2,30654073	2,30696559	0,65512304892763494	10	-1,43118155	0,00151134632
2	1	0	1	0	10632,59	2,32004285	2,32051492	0,69374007079862477	10	-1,43026972	0,00160983414
2	1	0	1	0	10633,94	2,33354497	2,33399272	0,73411179202903603	10	-1,42930436	0,00171341153
2	1	0	0	0	10635,29	2,34704614	2,34738135	0,77801673316086093	10	-1,42828548	0,00182630192
2	1	0	1	0	10636,64	2,36054802	2,36104035	0,81759003518770253	10	-1,42720985	0,00193036301
2	1	0	0	0	10637,99	2,37404966	2,37460899	0,85892163372288	10	-1,42607784	0,00203960296
2	1	0	1	0	10639,34	2,38755155	2,38797736	0,89621456370999296	10	-1,42489111	0,00214014016
2	1	0	0	0	10640,69	2,40105367	2,40165615	0,94032180029899021	10	-1,42364907	0,00225832965
2	1	0	1	0	10642,04	2,41455555	2,41512465	0,98035652904460774	10	-1,42235255	0,00236768322
2	1	0	0	0	10643,43	2,4284575	2,42908406	1,0267491197834389	10	-1,42095697	0,00249405997
2	1	0	1	0	10644,78	2,4419589	2,44241238	1,0713904121269789	10	-1,41953874	0,00261677732
2	1	0	0	0	10646,13	2,45546103	2,45596099	1,1135901166126118	10	-1,41806376	0,00273493398
2	1	0	1	0	10647,48	2,46896291	2,46929932	1,1527068804328611	10	-1,41653299	0,00284637837
2	1	0	0	0	10648,83	2,48246455	2,48309827	1,1941396038358398	10	-1,41494751	0,002965166
2	1	0	1	0	10650,19	2,49596643	2,49642706	1,2366117596005389	10	-1,41330719	0,00308711105
2	1	0	0	0	10651,54	2,50946951	2,51002908	1,2835851615399107	10	-1,41160524	0,00322183617
2	1	0	0	0	10652,89	2,52297044	2,52350378	1,3245031650488581	10	-1,40984142	0,00334238866
2	1	0	1	0	10654,24	2,53647208	2,53679228	1,3663420847927573	10	-1,40802431	0,00346612604
2	1	0	0	0	10655,59	2,54997373	2,55034089	1,4074672246351874	10	-1,40615165	0,00358952116
2	1	0	1	0	10656,94	2,56347561	2,56400013	1,4463582473496608	10	-1,4042244	0,0037084627
2	1	0	0	0	10658,29	2,57697773	2,57748842	1,4966956777498125	10	-1,4022398	0,00385771575
2	1	0	1	0	10659,64	2,59047937	2,59095693	1,5462185541788714	10	-1,40018344	0,00400618557
2	1	0	0	0	10660,99	2,60398126	2,60439539	1,5841764683524742	10	-1,39806855	0,00412582187
2	1	0	1	0	10662,34	2,61748338	2,61786389	1,6253406989077712	10	-1,39589584	0,00425492087
2	1	0	0	0	10663,69	2,63098502	2,63142276	1,6785757889350278	10	-1,39366603	0,00441704271
2	1	0	1	0	10665,04	2,6444869	2,64497137	1,718955214445785	10	-1,39136958	0,00454658736
2	1	0	0	0	10666,39	2,65798903	2,65856028	1,7688583818574698	10	-1,38901782	0,00470261648
2	1	0	1	0	10667,74	2,67149043	2,67185831	1,8083013656238621	10	-1,38660407	0,00483152503
2	1	0	0	0	10669,09	2,68499231	2,6856575	1,8614893332123827	10	-1,38412631	0,00499932282
2	1	0	0	0	10670,44	2,69849324	2,6990037	1,9153755166187133	10	-1,38157749	0,00516960537
2	1	0	1	0	10671,79	2,71199608	2,71242452	1,9655374102294445	10	-1,3789562	0,00533137191
2	1	0	0	0	10673,14	2,72549796	2,7262032	2,0089945252984691	10	-1,37628186	0,00547692738
2	1	0	1	0	10674,49	2,73899984	2,73947144	2,0560326346506662	10	-1,37354231	0,00563244289
2	1	0	0	0	10675,84	2,75250173	2,75306034	2,1114186899115664	10	-1,37072885	0,00581286289
2	1	0	1	0	10677,19	2,76600361	2,76654887	2,1590216588228835	10	-1,36784673	0,00597303873
2	1	0	0	0	10678,54	2,77950525	2,78022766	2,2045625081906691	10	-1,36490309	0,00612918567
2	1	0	1	0	10679,89	2,79300714	2,79354596	2,2572071887552739	10	-1,36188972	0,00630561216
2	1	0	0	0	10681,24	2,80650902	2,8069346	2,3139705813179389	10	-1,35880005	0,00649516424
2	1	0	1	0	10682,59	2,8200109	2,82049322	2,3654246740043021	10	-1,3556397	0,00667166431
2	1	0	0	0	10683,94	2,83351278	2,83407187	2,4277000532796045	10	-1,35240138	0,00688027637
2	1	0	1	0	10685,29	2,84701467	2,84759045	2,4815070927143062	10	-1,3490839	0,00706631597
2	1	0	0	0	10686,64	2,86051655	2,86112928	2,5287349205464144	10	-1,34570181	0,00723503763
2	1	0	1	0	10687,99	2,87401843	2,87446785	2,5754978079348909	10	-1,34225512	0,00740318559
2	1	0	1	0	10689,34	2,88752031	2,88808656	2,6234396087626557	10	-1,33874488	0,00757672079
2	1	0	0	0	10690,69	2,90102196	2,90162468	2,6761365626007318	10	-1,33516765	0,00776514411
2	1	0	1	0	10692,04	2,91452384	2,91508341	2,7202549582968131	10	-1,33152747	0,00792977028
2	1	0	0	0	10693,39	2,92802572	2,92852211	2,7721724317719491	10	-1,32782114	0,00811836869
2	1	0	1	0	10694,74	2,94152761	2,94201088	2,8275161683559418	10	-1,32404578	0,00831858348
2	1	0	0	0	10696,09	2,95502949	2,95540929	2,8627791857967786	10	-1,32020831	0,00846068375
2	1	0	1	0	10697,44	2,96853137	2,96887755	2,9207513518631405	10	-1,31630373	0,00867135357
2	1	0	0	0	10698,79	2,98203325	2,98238611	2,9770772755146029	10	-1,3123163	0,00887879357
2	1	0	1	0	10700,14	2,99553514	2,99609518	3,0225188887367603	10	-1,30826747	0,00905575417
2	1	0	0	0	10701,49	3,00903678	3,00950384	3,070811289673049	10	-1,30415332	0,00924161822
2	1	0	1	0	10702,84	3,02253866	3,02310228	3,1318486308057914	10	-1,29996336	0,00946789887
2	1	0	0	0	10704,19	3,03604054	3,03649068	3,1758085588614125	10	-1,29570389	0,00964331347
2	1	0	1	0	10705,54	3,04954243	3,04993916	3,2327481508255078	10	-1,29138398	0,00985968485
2	1	0	0	0	10706,89	3,06304502	3,06352973	3,2950620444235558	10	-1,28698397	0,0100945206
2	1	0	0	0	10708,24	3,07654619	3,07707667	3,3465885954598547	10	-1,28250575	0,0102977101
2	1	0	1	0	10709,59	3,09004807	3,09033513	3,3815033063292435	10	-1,27796459	0,0104499785
2	1	0	0	0	10710,94	3,10354996	3,10399365	3,429333565135792	10	-1,27336383	0,0106446296
2	1	0	1	0	10712,29	3,1170516	3,11774278	3,4851744982103552	10	-1,26868653	0,0108658774
2	1	0	0	0	10713,64	3,13055348	3,13107109	3,5230031274259053	10	-1,26396	0,0110307736
2	1	0	1	0	10714,99	3,14405513	3,14448953	3,5918660151461722	10	-1,25915992	0,0112945847
2	1	0	0	0	10716,34	3,15755701	3,15808821	3,6503485664725158	10	-1,25426769	0,0115281232
2	1	0	1	0	10717,69	3,17105865	3,1715064	3,6879342272877549	10	-1,2493217	0,011696307
2	1	0	0	0	10719,04	3,18456054	3,18525577	3,7094177914162515	10	-1,24433327	0,0118154446
2	1	0	1	0	10720,39	3,19806242	3,19854379	3,7718645719190394	10	-1,23927331	0,0120644737
2	1	0	0	0	10721,74	3,21156454	3,21192241	3,8690721293290266	10	-1,23412204	0,0124271596
2	1	0	1	0	10723,10	3,22506642	3,22570109	3,8974778167903354	10	-1,22888196	0,0125720985
2	1	0	0	0	10724,45	3,23856831	3,23877954	3,9461055683592858	10	-1,2235862	0,0127805658
2	1	0	0	0	10725,80	3,25206876	3,25263762	3,9972921912890413	10	-1,21822166	0,0130017428
2	1	0	1	0	10727,15	3,26557183	3,26605678	4,0574027895927142	10	-1,21278298	0,0132517079
2	1	0	0	0	10728,50	3,27907372	3,27966571	4,1076046687861235	10	-1,20726085	0,0134715699
2	1	0	1	0	10729,85	3,29257536	3,2929337	4,159978269288928	10	-1,20167267	0,0136985322
2	1	0	0	0	10731,20	3,30607724	3,30668306	4,2656706298390931	10	-1,19601309	0,0141052213
2	1	0	1	0	10732,55	3,31957936	3,32017159	4,3217455496390611	10	-1,19020617	0,0143489372
2	1	0	0	0	10733,90	3,33308125	3,33336949	4,3568520198265651	10	-1,18434215	0,0145229977
2	1	0	1	0	10735,25	3,34658313	3,34719849	4,4885975631574694	10	-1,17836237	0,0150242271
2	1	0	0	0	10736,60	3,36008501	3,36071754	4,508839571227625	10	-1,17230153	0,0151529359
2	1	0	1	0	10737,95	3,37358665	3,37406564	4,5634336496392966	10	-1,16618216	0,0153973242
2	1	0	0	0	10739,30	3,38708854	3,38765454	4,5985774956643507	10	-1,15998149	0,015578392
2	1	0	1	0	10740,65	3,40059018	3,40127301	4,662549375245959	10	-1,15373123	0,0158586036
2	1	0	0	0	10742,00	3,41409206	3,41452122	4,6958256810903405	10	-1,1474179	0,0160339959
2	1	0	1	0	10743,35	3,42759395	3,42817044	4,7481660693883859	10	-1,14105105	0,0162775218
2	1	0	0	0	10744,70	3,44109678	3,4415791	4,8210840151685658	10	-1,13460529	0,0165921412
2	1	0	0	0	10746,05	3,45459795	3,45504713	4,8445362858474432	10	-1,12809658	0,0167381018
2	1	0	1	0	10747,40	3,46809983	3,46862578	4,9370403600235802	10	-1,12152171	0,017124746
2	1	0	0	0	10748,75	3,48160148	3,48206449	5,0114218207697261	10	-1,11480224	0,0174500942
2	1	0	1	0	10750,10	3,49510336	3,49544311	5,0490045212209152	10	-1,10802186	0,0176485088
2	1	0	0	0	10751,45	3,508605	3,50918174	5,1251877869168896	10	-1,1011467	0,0179852154
2	1	0	1	0	10752,80	3,52210689	3,5225203	5,270584180951104	10	-1,0941211	0,0185657404
2	1	0	0	0	10754,15	3,53560877	3,53604889	5,397890634834745	10	-1,08690882	0,0190872047
2	1	0	1	0	10755,50	3,54911089	3,54947734	5,3985575710733542	10	-1,07957113	0,019162057
2	1	0	0	0	10756,85	3,56261277	3,56317639	5,4647521624962362	10	-1,0722369	0,0194718763
2	1	0	1	0	10758,20	3,57611465	3,57651472	5,4584616012871123	10	-1,06484795	0,0195222683
2	1	0	0	0	10759,55	3,5896163	3,59000301	5,5276025036970822	10	-1,05743527	0,0198441092
2	1	0	1	0	10760,90	3,60311818	3,60336137	5,6617273961504077	10	-1,04990768	0,0204012506
2	1	0	0	0	10762,25	3,61662078	3,61723185	5,7208448722110035	10	-1,0422225	0,0206936225
2	1	0	0	0	10763,60	3,63012171	3,63070965	5,8018566357592717	10	-1,03445244	0,021064857
2	1	0	1	0	10764,95	3,64362359	3,64412761	5,8874240865310195	10	-1,0265615	0,0214545242
2	1	0	0	0	10766,30	3,65712547	3,65786648	6,0120729704697805	10	-1,01852274	0,0219913609
2	1	0	1	0	10767,65	3,67062759	3,67135549	6,0418127824862963	10	-1,01039267	0,0221816432
2	1	0	0	0	10769,00	3,68412948	3,68458366	6,1166235506534438	10	-1,00217354	0,022537211
2	1	0	1	0	10770,35	3,69763112	3,69811201	6,2145309572418522	10	-0,993854642	0,0229820311
2	1	0	0	0	10771,70	3,711133	3,7117908	6,3407264227668314	10	-0,985371947	0,0235354509
2	1	0	1	0	10773,05	3,72463489	3,72519922	6,5216223746537882	10	-0,97667253	0,0242943428
2	1	0	0	0	10774,40	3,73813653	3,73844743	6,5932422478993613	10	-0,967844784	0,0246484894
2	1	0	1	0	10775,75	3,75163841	3,75219679	6,713064901530743	10	-0,958863318	0,0251887403
2	1	0	0	0	10777,10	3,7651403	3,76563501	6,7581690351168499	10	-0,949743569	0,0254487973
2	1	0	1	0	10778,45	3,77864242	3,7790637	6,856757315496608	10	-0,940530241	0,0259121228
2	1	0	0	0	10779,80	3,7921443	3,79262257	6,866968423128128	10	-0,931277454	0,0260438193
2	1	0	0	0	10781,15	3,80564475	3,80630994	6,8961046346114752	10	-0,921974063	0,0262487121
2	1	0	1	0	10782,50	3,81914783	3,81965971	6,9738133102655411	10	-0,912622988	0,0266375933
2	1	0	0	0	10783,85	3,83264971	3,83295774	7,0038231338063782	10	-0,903186321	0,0268453583
2	1	0	1	0	10785,20	3,84615159	3,84643626	7,2845476244886669	10	-0,893574417	0,0280195475
2	1	0	0	0	10786,55	3,85965323	3,8600955	7,3914001211524006	10	-0,883654118	0,0285315104
2	1	0	1	0	10787,90	3,87315512	3,87376428	7,4886681164304461	10	-0,873595238	0,0290093347
2	1	0	0	0	10789,25	3,886657	3,88713241	7,7087815379102976	10	-0,863305628	0,0299650542
2	1	0	1	0	10790,60	3,90015912	3,90066123	7,9124867096543309	10	-0,852851033	0,0308639295
2	1	0	0	0	10791,95	3,91366053	3,91410995	8,0199958036343014	10	-0,842139781	0,0313911438
2	1	0	1	0	10793,30	3,92716265	3,9277885	8,1672727291782502	10	-0,831202745	0,0320793204
2	1	0	0	0	10794,65	3,94066453	3,94147778	8,1720483601093146	10	-0,820199847	0,0322099477
2	1	0	1	0	10796,01	3,95416641	3,95468545	8,267350013057353	10	-0,809088349	0,0326947682
2	1	0	0	0	10797,36	3,96766806	3,96818399	8,501934741934121	10	-0,797858536	0,0337372422
2	1	0	1	0	10798,71	3,98116994	3,98185325	9,0293817755579942	10	-0,785955369	0,0359536745
2	1	0	1	0	10800,06	3,99467182	3,99539161	9,0170038814345754	10	-0,773807049	0,0360264629
2	1	0	0	0	10801,41	4,00817347	4,0087204	9,3347817618173043	10	-0,761425376	0,0374205299
2	1	0	1	0	10802,76	4,02167559	4,02212811	9,5980588446060442	10	-0,748638093	0,0386046208
2	1	0	0	0	10804,11	4,03517723	4,03573704	9,8425531461834842	10	-0,73551327	0,0397219546
2	1	0	1	0	10805,46	4,04867935	4,0492959	9,9257918968796442	10	-0,722174168	0,04019247
2	1	0	0	0	10806,85	4,06258106	4,06307459	10,095909004410082	10	-0,708258748	0,0410204306
2	1	0	1	0	10808,20	4,07608318	4,07661343	10,463904738426208	10	-0,694428623	0,0426572934
2	1	0	0	0	10809,55	4,08958483	4,09003162	10,812269399563462	10	-0,680113792	0,0442225225
2	1	0	1	0	10810,90	4,10308647	4,10375071	11,022488690912717	10	-0,665313423	0,045233544
2	1	0	0	0	10812,25	4,11658859	4,11724997	11,298752767344333	10	-0,650159359	0,0465197898
2	1	0	1	0	10813,60	4,13009071	4,1306982	11,397594730059296	10	-0,634844244	0,0470800251
2	1	0	0	0	10814,95	4,14359236	4,14424706	11,841924794018269	10	-0,619137228	0,0490758605
2	1	0	1	0	10816,30	4,157094	4,15763474	12,354960756997258	10	-0,602770627	0,0513674133
2	1	0	0	0	10817,65	4,17059612	4,17108345	12,933527633547755	10	-0,585725665	0,0539468229
2	1	0	1	0	10819,00	4,18409824	4,18482304	12,990675427346787	10	-0,568185747	0,0543636791
2	1	0	1	0	10820,35	4,19759893	4,19825077	13,306835614585339	10	-0,550519586	0,0558654331
2	0	0	1	1	10821,62	4,1896987	4,19023037	13,09977482755977	10	-0,533720315	0,0548910759
2	0	0	0	1	10822,97	4,17619658	4,17652082	12,937234327197074	10	-0,516160369	0,0540326275
2	0	0	1	1	10824,32	4,16269493	4,16324282	12,67440991103649	10	-0,49886477	0,0527666472
2	0	0	0	1	10825,67	4,14919329	4,14953375	12,429184632996707	10	-0,481893122	0,0515753217
2	0	0	1	1	10827,02	4,13569117	4,13609552	12,10817076514161	10	-0,465359986	0,0500805527
2	0	0	0	1	10828,37	4,12218904	4,1225872	11,732635383804634	10	-0,449251771	0,0483688116
2	0	0	1	1	10829,72	4,1086874	4,10898781	11,738971993327168	10	-0,433490723	0,0482352935
2	0	0	0	1	10831,07	4,09518576	4,09553957	11,524148344993534	10	-0,417773992	0,0471976064
2	0	0	1	1	10832,42	4,08168316	4,08212042	11,184665556174792	10	-0,402431011	0,0456571504
2	0	0	1	1	10833,77	4,06818247	4,06859159	11,031035367030203	10	-0,387501836	0,0448807776
2	0	0	0	1	10835,12	4,05468035	4,05521393	10,725145327548154	10	-0,372824937	0,0434927605
2	0	0	1	1	10836,47	4,04117823	4,0415554	10,444650893410058	10	-0,358537734	0,0422126353
2	0	0	0	1	10837,82	4,02767658	4,02792692	10,161452951530578	10	-0,344622761	0,0409295894
2	0	0	1	1	10839,17	4,01417446	4,01443815	10,010881523291246	10	-0,331039786	0,0401880629
2	0	0	0	1	10840,52	4,00067234	4,00118971	9,7279188185930394	10	-0,317715257	0,0389232486
2	0	0	1	1	10841,87	3,9871707	3,98759079	9,4751691520213901	10	-0,304756492	0,0377830975
2	0	0	0	1	10843,22	3,97366905	3,97405243	9,1803798675537318	10	-0,292163223	0,0364833102
2	0	0	1	1	10844,57	3,96016717	3,96060371	8,8780078093210829	10	-0,279980779	0,0351622701
2	0	0	0	1	10845,92	3,94666529	3,94720531	8,6316958318153779	10	-0,268155426	0,0340710767
2	0	0	1	1	10847,27	3,93316364	3,93352652	8,3390457580486835	10	-0,256700486	0,0328018591
2	0	0	0	1	10848,62	3,91966176	3,92013812	8,0692215586702144	10	-0,245622382	0,0316324644
2	0	0	1	1	10849,97	3,90615964	3,90646887	7,7888215035199834	10	-0,234909058	0,0304267891
2	0	0	0	1	10851,32	3,89265776	3,89289069	7,4719751384854336	10	-0,224592656	0,0290875826
2	0	0	1	1	10852,67	3,87915468	3,87960076	7,2130277232781453	10	-0,214681685	0,0279836673
2	0	0	1	1	10854,02	3,86565423	3,86596346	6,9754509975512781	10	-0,205106959	0,0269668382
2	0	0	0	1	10855,37	3,85215235	3,8524549	6,7570325906077926	10	-0,195839584	0,0260311626
2	0	0	1	1	10856,72	3,83865047	3,83906603	6,536231835683168	10	-0,186866477	0,0250930265
2	0	0	0	1	10858,07	3,82514882	3,82546782	6,3894003530343181	10	-0,178163201	0,0244424455
2	0	0	1	1	10859,42	3,81164694	3,81198883	6,1930688259502067	10	-0,169670269	0,0236079097
2	0	0	0	1	10860,77	3,79814506	3,79840016	6,0081232612331661	10	-0,161425695	0,0228212569
2	0	0	1	1	10862,12	3,78464293	3,78495193	5,8007232484718259	10	-0,153452933	0,0219554584
2	0	0	0	1	10863,47	3,77114105	3,77176356	5,6088968714077933	10	-0,145751134	0,0211554337
2	0	0	1	1	10864,83	3,75763917	3,7579844	5,4295500578979488	10	-0,138297498	0,0204041637
2	0	0	0	1	10866,18	3,74413753	3,74448586	5,2525682051976403	10	-0,131082803	0,0196681675
2	0	0	1	1	10867,53	3,73063564	3,73111773	5,0815494880080365	10	-0,124108851	0,0189598594
2	0	0	0	1	10868,92	3,71673393	3,71721864	4,9087687072654413	10	-0,117166974	0,0182469673
2	0	0	1	1	10870,27	3,70323157	3,70361972	4,756378538148553	10	-0,110641778	0,0176158175
2	0	0	1	1	10871,62	3,68972945	3,69037151	4,6156892676238739	10	-0,104314037	0,0170336086
2	0	0	0	1	10872,97	3,67622805	3,67685294	4,4825635353723994	10	-0,0981726423	0,0164817274
2	0	0	1	1	10874,32	3,66272616	3,66325402	4,3556285637120314	10	-0,0922083855	0,0159557741
2	0	0	0	1	10875,67	3,64922428	3,64995599	4,2363730271657402	10	-0,0864108577	0,0154625755
2	0	0	1	1	10877,02	3,63572264	3,63632679	4,1203380140165498	10	-0,0807716027	0,0149828959
2	0	0	0	1	10878,37	3,62222075	3,62265801	3,9985216011603629	10	-0,0752954781	0,0144852763
2	0	0	1	1	10879,72	3,60871911	3,60927987	3,8870621646444051	10	-0,0699708983	0,0140294954
2	0	0	0	1	10881,07	3,59521723	3,59580135	3,7890237681567667	10	-0,0647867844	0,0136245769
2	0	0	1	1	10882,42	3,58171535	3,58212233	3,692942898720489	10	-0,059735924	0,0132285729
2	0	0	0	1	10883,77	3,56821322	3,56863379	3,6062507368624173	10	-0,0548105612	0,0128693879
2	0	0	1	1	10885,12	3,55471134	3,55510521	3,5105451432366976	10	-0,0500085726	0,0124803577
2	0	0	0	1	10886,47	3,54120946	3,54156661	3,4315295231838957	10	-0,0453240648	0,0121529903
2	0	0	1	1	10887,82	3,52770782	3,52792764	3,3538075250883853	10	-0,0407482088	0,0118319904
2	0	0	1	1	10889,17	3,51420641	3,51460934	3,2734797742792384	10	-0,0362758301	0,0115050022
2	0	0	0	1	10890,52	3,50070429	3,50113058	3,1988848218678074	10	-0,0319037773	0,0111997137
2	0	0	1	1	10891,87	3,48720241	3,48792243	3,131765366842343	10	-0,0276319142	0,0109233549
2	0	0	0	1	10893,22	3,47370052	3,47422361	3,0591770739604909	10	-0,0234542396	0,0106282653
2	0	0	1	1	10894,57	3,46019864	3,46062517	2,9946863005558624	10	-0,0193668623	0,0103634866
2	0	0	0	1	10895,92	3,44669652	3,44732642	2,9299903232604262	10	-0,0153701929	0,0101006329
2	0	0	1	1	10897,27	3,43319464	3,43353772	2,8678095911939926	10	-0,0114550581	0,00984673202
2	0	0	0	1	10898,62	3,41969275	3,42018938	2,8058037981390918	10	-0,00762459077	0,00959638041
2	0	0	1	1	10899,97	3,40619111	3,40663075	2,7450108590225373	10	-0,00387908868	0,00935123861
2	0	0	0	1	10901,32	3,39268923	3,39310169	2,6873810955633744	10	-0,000212560219	0,00911855698
2	0	0	1	1	10902,67	3,37918758	3,37966323	2,6369995245089085	10	0,0033805545	0,00891217031
2	0	0	0	1	10904,02	3,3656857	3,36635518	2,5794039697696717	10	0,00690020341	0,00868318975
2	0	0	1	1	10905,37	3,35218382	3,35271645	2,5310061120738672	10	0,0103480909	0,00848574564
2	0	0	0	1	10906,72	3,3386817	3,33938813	2,4771495660146029	10	0,0137270717	0,00827216357
2	0	0	0	1	10908,07	3,32517982	3,32565904	2,4273830180366717	10	0,0170356259	0,0080726482
2	0	0	1	1	10909,42	3,31167793	3,31220031	2,375721639022231	10	0,0202778522	0,0078688655
2	0	0	0	1	10910,77	3,29817629	3,29861188	2,3334860838949699	10	0,0234571379	0,00769726513
2	0	0	1	1	10912,12	3,28467441	3,28518319	2,2867124776045459	10	0,0265766289	0,00751226954
2	0	0	0	1	10913,47	3,27117276	3,27177477	2,245326825107135	10	0,0296351016	0,00734620355
2	0	0	1	1	10914,82	3,25767088	3,25810599	2,2020321736733094	10	0,0326349586	0,00717445416
2	0	0	0	1	10916,17	3,244169	3,24460745	2,1578623857349123	10	0,0355758406	0,00700141629
2	0	0	1	1	10917,52	3,23066711	3,23111892	2,1164610770841392	10	0,0384621881	0,00683853729
2	0	0	0	1	10918,87	3,21716499	3,21755028	2,0771129752198832	10	0,0412937216	0,0066832155
2	0	0	1	1	10920,22	3,20366311	3,20426178	2,0371719288329261	10	0,0440736562	0,00652763201
2	0	0	0	1	10921,57	3,19016147	3,19072294	2,0014769391467126	10	0,0468015037	0,00638615852
2	0	0	1	1	10922,92	3,17665958	3,1770041	1,9640181548893453	10	0,049479194	0,00623969361
2	0	0	0	1	10924,27	3,1631577	3,16376591	1,9255471831808464	10	0,0521071814	0,00609198073
2	0	0	1	1	10925,62	3,14965463	3,15009522	1,8934658170061242	10	0,0546877608	0,00596459769
2	0	0	1	1	10926,97	3,13615346	3,13673759	1,8593934165106915	10	0,0572197773	0,00583242904
2	0	0	0	1	10928,32	3,12265253	3,12300992	1,8240847128132992	10	0,0597077273	0,00569663476
2	0	0	1	1	10929,67	3,10915065	3,10979199	1,7919357381761075	10	0,0621485673	0,0055725472
2	0	0	0	1	10931,02	3,09564877	3,09601283	1,7621219841142448	10	0,0645471215	0,00545555213
2	0	0	1	1	10932,37	3,08214688	3,08260417	1,7283330863962528	10	0,0669010282	0,00532776676
2	0	0	0	1	10933,72	3,068645	3,0691359	1,6993840355426038	10	0,0692114756	0,00521564065
2	0	0	1	1	10935,07	3,05514312	3,05548692	1,6646289968242237	10	0,0714805946	0,005086252
2	0	0	0	1	10936,42	3,04164147	3,04204845	1,6333184409886598	10	0,073706992	0,00496863388
2	0	0	1	1	10937,78	3,02813959	3,0286901	1,6039331294596125	10	0,0758920833	0,00485781627
2	0	0	0	1	10939,13	3,01463771	3,0150311	1,574694188311696	10	0,0780390427	0,0047477521
2	0	0	1	1	10940,48	3,00113583	3,00146246	1,5431426779056589	10	0,0801425278	0,00463168463
2	0	0	0	1	10941,83	2,98763394	2,98802423	1,5150480183462269	10	0,082204245	0,00452700024
2	0	0	1	1	10943,18	2,97413206	2,97442532	1,4812209516142794	10	0,0842275098	0,00440578116
2	0	0	1	1	10944,53	2,96063018	2,96098638	1,4505738171442992	10	0,0862044469	0,00429512933
2	0	0	0	1	10945,88	2,9471283	2,94780874	1,4195679106439165	10	0,0881422162	0,00418461487
2	0	0	1	1	10947,23	2,93362641	2,93413997	1,389466900999345	10	0,0900386721	0,00407689018
2	0	0	0	1	10948,58	2,92012477	2,9205811	1,3570079840719704	10	0,0918893144	0,00396325206
2	0	0	1	1	10949,93	2,90662289	2,90707254	1,3298665126785635	10	0,0937017128	0,00386601849
2	0	0	0	1	10951,28	2,893121	2,89359379	1,3003062987700104	10	0,0954760164	0,00376255834
2	0	0	1	1	10952,63	2,87961912	2,8801353	1,2712575141340517	10	0,0972111225	0,00366139365
2	0	0	0	1	10953,98	2,86611724	2,86675692	1,2394575898845979	10	0,0989051685	0,00355322356
2	0	0	1	1	10955,33	2,85261536	2,85321832	1,2103264632945248	10	0,100560285	0,00345332571
2	0	0	0	1	10956,68	2,83911347	2,8395896	1,1819583469380958	10	0,102173917	0,00335627655
2	0	0	1	1	10958,03	2,82561183	2,82609105	1,1498149450247458	10	0,103747845	0,00324948179
2	0	0	0	1	10959,38	2,81210995	2,8126123	1,1197086876879112	10	0,105279848	0,0031493064
2	0	0	1	1	10960,73	2,79860806	2,79904366	1,0919446951399227	10	0,106773682	0,00305640092
2	0	0	0	1	10962,08	2,78510618	2,78585553	1,0599505047624298	10	0,108225949	0,00295286905
2	0	0	1	1	10963,43	2,77160311	2,77222681	1,0328530963525147	10	0,109638222	0,00286330306
2	0	0	1	1	10964,78	2,75810242	2,75888848	1,0011899188781754	10	0,111011125	0,00276217144
2	0	0	0	1	10966,13	2,74460053	2,74510932	0,97007884302486861	10	0,112340845	0,00266297255
2	0	0	1	1	10967,48	2,73109865	2,73165083	0,94037211562196352	10	0,113631427	0,00256876834
2	0	0	0	1	10968,83	2,71759701	2,71803212	0,90982489287853235	10	0,114879608	0,00247293338
2	0	0	1	1	10970,18	2,70409489	2,7046535	0,88111688972761114	10	0,116087809	0,00238311593
2	0	0	0	1	10971,53	2,69059324	2,69115496	0,85103549528866829	10	0,117256761	0,00229026843
2	0	0	1	1	10972,88	2,67709136	2,67760634	0,823731283967696	10	0,118387043	0,0022056282
2	0	0	0	1	10974,23	2,66358948	2,66409779	0,79414061394830067	10	0,119478002	0,00211566826
2	0	0	1	1	10975,58	2,65008759	2,65060902	0,76539248414337626	10	0,120530061	0,00202875631
2	0	0	0	1	10976,93	2,63658571	2,63695025	0,73401801350216013	10	0,121542074	0,00193556899
2	0	0	1	1	10978,28	2,62308383	2,62342167	0,70468435777971904	10	0,122512765	0,00184868416
2	0	0	0	1	10979,63	2,60958219	2,60993314	0,67246903805061824	10	0,123442173	0,00175509928
2	0	0	1	1	10980,98	2,59607959	2,59635472	0,64112250392906483	10	0,124328256	0,00166458148
2	0	0	1	1	10982,33	2,58257747	2,58308554	0,60928360798539853	10	0,125172436	0,00157383166
2	0	0	0	1	10983,68	2,56907678	2,56963778	0,57854852778837261	10	0,125973821	0,0014866601
2	0	0	1	1	10985,03	2,55557466	2,55615902	0,54390747534731789	10	0,126730219	0,00139031396
2	0	0	0	1	10986,38	2,54207277	2,54253054	0,50909470456341843	10	0,127441242	0,00129438879
2	0	0	1	1	10987,77	2,52817082	2,52886152	0,4703569410679239	10	0,128121659	0,00118946761
2	0	0	0	1	10989,12	2,51466894	2,51504254	0,43130571488290848	10	0,12872979	0,00108475226
2	0	0	1	1	10990,47	2,5011673	2,50177431	0,39001047789740026	10	0,12928471	0,000975718198
2	0	0	0	1	10991,82	2,48766541	2,4882555	0,34697920526377811	10	0,129782557	0,00086337293
2	0	0	1	1	10993,17	2,47416353	2,47453666	0,30104685892971795	10	0,13022019	0,000744951481
2	0	0	0	1	10994,52	2,46066189	2,46119809	0,25286067005557245	10	0,130593777	0,000622340187
2	0	0	1	1	10995,87	2,44715977	2,4475193	0,20142720787165059	10	0,130899921	0,000492997002
2	0	0	0	1	10997,22	2,43365788	2,43409085	0,14815203383720154	10	0,131135717	0,000360615522
2	0	0	1	1	10998,57	2,420156	2,42063236	0,092023915261961293	10	0,131297752	0,000222756062
2	0	0	0	1	10999,96	2,40625405	2,40665293	0,03183343611696425	10	0,131383732	7,66120356E-005
2	0	0	0	1	11001,04	2,39545321	2,3959887	-0,016807351106156902	10	0,131391719	4,02702244E-005