File: Experimentelles/Rohdaten/Batterietests/AlteZelle/Studenten_Batterietests/Sonstige/ZView-Export/S vs Li_02_CV_C02_loop4.txt
EC-Lab ASCII FILE
Nb header lines : 3
mode	ox/red	error	control changes	counter inc.	time/s	control/V	Ewe/V	<I>/mA	cycle number	(Q-Qo)/C	P/W
2	0	0	1	0	6560,53	2,39255285	2,39302468	-0,044455107301473619	5	0	0,000106382169
2	0	0	0	0	6561,85	2,37935042	2,3799665	-0,11127728448870267	5	-0,00010266278	0,000264836213
2	0	0	1	0	6563,15	2,36634851	2,36700845	-0,18076425918843686	5	-0,000292579207	0,000427870516
2	0	0	0	0	6564,45	2,35334682	2,35396051	-0,25261461796859946	5	-0,000574288249	0,000594644807
2	0	0	1	0	6565,75	2,34034514	2,34076214	-0,32701167316796883	5	-0,000950948219	0,000765456527
2	0	0	0	0	6567,05	2,32734323	2,32804465	-0,40551216729606221	5	-0,00142744847	0,000944050436
2	0	0	1	0	6568,35	2,31434155	2,31501675	-0,48601874460776659	5	-0,00200761971	0,00112514151
2	0	0	0	0	6569,65	2,30133986	2,30144811	-0,57110534142702816	5	-0,00269476417	0,00131436926
2	0	0	0	0	6570,95	2,28833795	2,28880072	-0,65729599352926016	5	-0,00349414558	0,00150441949
2	0	0	1	0	6572,25	2,27533627	2,27572298	-0,74714053996528397	5	-0,00440886058	0,00170028489
2	0	0	0	0	6573,55	2,26233459	2,26277494	-0,84163043492784346	5	-0,00544200605	0,00190442021
2	0	0	1	0	6574,85	2,24933267	2,24982691	-0,93553810256223002	5	-0,00659698294	0,0021047988
2	0	0	0	0	6576,18	2,23603106	2,23639846	-1,0325421020388634	5	-0,0079078991	0,00230917567
2	0	0	1	0	6577,48	2,22302914	2,22357082	-1,1285186198850496	5	-0,0093140183	0,00250934111
2	0	0	0	0	6578,78	2,21002722	2,21054292	-1,2238847284267376	5	-0,0108437603	0,0027054497
2	0	0	1	0	6580,08	2,1970253	2,19749522	-1,3205600629250221	5	-0,0124970712	0,00290192454
2	0	0	0	0	6581,38	2,18402386	2,18461728	-1,4149385398874693	5	-0,0142741678	0,00309109921
2	0	0	0	0	6582,68	2,1710217	2,17145824	-1,5131155579631149	5	-0,0161805954	0,00328566716
2	0	0	1	0	6583,98	2,15802002	2,1585114	-1,6131201858321837	5	-0,0182128064	0,00348193827
2	0	0	0	0	6585,28	2,14501858	2,14570379	-1,7058861584713085	5	-0,0203692857	0,00366032636
2	0	0	1	0	6586,58	2,13201666	2,13233542	-1,8086875267326867	5	-0,0226521846	0,00385672855
2	0	0	0	0	6587,88	2,11901474	2,11939716	-1,9022443586339613	5	-0,0250644479	0,00403161114
2	0	0	1	0	6589,18	2,10601282	2,10647941	-1,9990346015741379	5	-0,0276012085	0,0042109252
2	0	0	0	0	6590,48	2,09301114	2,09349155	-2,0965577885508678	5	-0,0302644782	0,00438912585
2	0	0	1	0	6591,78	2,08000946	2,08046365	-2,1973364862302986	5	-0,0330555737	0,00457147881
2	0	0	0	0	6593,08	2,06700754	2,06755614	-2,298907607793801	5	-0,0359795056	0,00475312071
2	0	0	1	0	6594,38	2,05400538	2,05471754	-2,3961646498134611	5	-0,039033398	0,00492344145
2	0	0	1	0	6595,68	2,04100418	2,04164028	-2,5086333733051923	5	-0,0422215015	0,00512172701
2	0	0	0	0	6596,98	2,02800226	2,0285821	-2,6132399744043776	5	-0,0455485359	0,00530117191
2	0	0	1	0	6598,28	2,01500058	2,01549435	-2,7170584127306957	5	-0,0490144826	0,00547621585
2	0	0	0	0	6599,58	2,00199866	2,00260639	-2,8310484246661219	5	-0,0526229665	0,00566947553
2	0	0	1	0	6600,88	1,9889971	1,98968863	-2,9324780081709318	5	-0,0563745499	0,00583471823
2	0	0	0	0	6602,18	1,9759953	1,9764806	-3,0290212612599206	5	-0,0602542534	0,00598680181
2	0	0	1	0	6603,48	1,96299338	1,96340251	-3,1456788033247098	5	-0,0642708093	0,00617623376
2	0	0	0	0	6604,78	1,94999182	1,9505949	-3,2553069007893357	5	-0,0684378967	0,00634978525
2	0	0	1	0	6606,08	1,93699002	1,9375869	-3,3622308547297875	5	-0,0727412999	0,00651461445
2	0	0	1	0	6607,38	1,92398727	1,92461777	-3,462400818703401	5	-0,0771761611	0,00666379835
2	0	0	0	0	6608,68	1,9109863	1,9114809	-3,5628269873559475	5	-0,0817439035	0,00681027584
2	0	0	1	0	6609,98	1,8979845	1,89853323	-3,6746546489496979	5	-0,086453326	0,00697645405
2	0	0	0	0	6611,28	1,88498271	1,88556516	-3,7729967969159194	5	-0,0912960991	0,00711423112
2	0	0	1	0	6612,58	1,87198091	1,87242711	-3,8718267579873427	5	-0,0962694213	0,00724971341
2	0	0	0	0	6613,88	1,85897923	1,85941923	-3,968828368932009	5	-0,101368435	0,0073797158
2	0	0	1	0	6615,18	1,84597743	1,84651136	-4,0739206895232128	5	-0,106597014	0,00752254063
2	0	0	0	0	6616,48	1,83297563	1,83343339	-4,1619963434835354	5	-0,111951344	0,00763074309
2	0	0	1	0	6617,78	1,81997371	1,8202852	-4,2504006959497926	5	-0,117426082	0,00773694133
2	0	0	0	0	6619,08	1,80697227	1,80754828	-4,3397379166182778	5	-0,123013735	0,00784428604
2	0	0	0	0	6620,39	1,79397035	1,79421949	-4,4118936595817504	5	-0,128699213	0,00791590568
2	0	0	1	0	6621,69	1,78096843	1,78156197	-4,4833531938493178	5	-0,134479731	0,00798737165
2	0	0	0	0	6622,99	1,76796687	1,76844382	-4,5677920877933645	5	-0,14036715	0,00807788409
2	0	0	1	0	6624,29	1,75496507	1,75552607	-4,6374668888747994	5	-0,146338746	0,00814119354
2	0	0	0	0	6625,59	1,74196315	1,74252808	-4,6672067853311834	5	-0,15238525	0,00813273899
2	0	0	1	0	6626,89	1,72896135	1,72940004	-4,6789584954579763	5	-0,158448353	0,0080917906
2	0	0	0	0	6628,19	1,71595955	1,71667254	-4,7550381931165971	5	-0,16459018	0,00816284306
2	0	0	1	0	6629,49	1,70295775	1,70332408	-4,8272729367017888	5	-0,170819044	0,00822241046
2	0	0	1	0	6630,79	1,68995655	1,6904273	-4,8602853567090208	5	-0,177121267	0,00821595918
2	0	0	0	0	6632,09	1,67695403	1,67757881	-4,9370458858708589	5	-0,183500811	0,00828228332
2	0	0	1	0	6633,39	1,66395247	1,66432047	-5,0293191596865798	5	-0,189983234	0,00837039854
2	0	0	0	0	6634,69	1,65095067	1,65153289	-5,1459706798195981	5	-0,196595922	0,00849873945
2	0	0	1	0	6635,99	1,63794875	1,63824439	-5,2211260708669798	5	-0,203331411	0,00855348073
2	0	0	0	0	6637,29	1,62494719	1,62574732	-5,2831603251397683	5	-0,210167587	0,00858908333
2	0	0	1	0	6638,59	1,61194539	1,61236894	-5,3568787649273933	5	-0,217081174	0,0086372653
2	0	0	0	0	6639,89	1,59894347	1,59950125	-5,4253257066011571	5	-0,224084064	0,00867781509
2	0	0	1	0	6641,19	1,58594167	1,58647311	-5,5038593746721747	5	-0,231198058	0,00873172469
2	0	0	0	0	6642,49	1,57294011	1,57344544	-5,5880170439680333	5	-0,238413766	0,00879243948
2	0	0	0	0	6643,79	1,55993831	1,56050754	-5,676792571942023	5	-0,245731577	0,00885867793
2	0	0	1	0	6645,09	1,54693639	1,54767978	-5,747967687745888	5	-0,253169686	0,00889601372
2	0	0	0	0	6646,39	1,53393471	1,53461182	-5,8328811178604954	5	-0,260685325	0,00895120855
2	0	0	1	0	6647,69	1,52093291	1,52150369	-5,913169565300137	5	-0,268325686	0,00899690948
2	0	0	0	0	6648,99	1,50793099	1,50827551	-5,9917129936317683	5	-0,276061743	0,0090371538
2	0	0	1	0	6650,29	1,49492919	1,49538791	-6,060817877451584	5	-0,283898801	0,00906327367
2	0	0	0	0	6651,59	1,48192751	1,48254001	-6,13218545665344	5	-0,291827381	0,00909121055
2	0	0	1	0	6652,89	1,46892571	1,46950221	-6,2001791199048397	5	-0,299857616	0,00911117718
2	0	0	0	0	6654,19	1,45592391	1,45671451	-6,241176689664535	5	-0,307955801	0,00909161288
2	0	0	0	0	6655,49	1,4429214	1,44336462	-6,2995464001030259	5	-0,31611371	0,00909254234
2	0	0	1	0	6656,79	1,42992043	1,43046844	-6,356692542632416	5	-0,324344635	0,00909304805
2	0	0	0	0	6658,09	1,41691864	1,41755056	-6,4434463779131622	5	-0,332669824	0,00913391076
2	0	0	1	0	6659,39	1,40391684	1,40440249	-6,4987930804491046	5	-0,341083854	0,00912692118
2	0	0	0	0	6660,69	1,39091492	1,39129448	-6,5559632355968064	5	-0,34956634	0,00912127551
2	0	0	1	0	6661,99	1,37791336	1,37841654	-6,6139210412899558	5	-0,358127922	0,0091167381
2	0	0	0	0	6663,29	1,36491156	1,36563897	-6,6603723466396544	5	-0,366752595	0,00909566414
2	0	0	1	0	6664,59	1,35190964	1,35247087	-6,7611547037959066	5	-0,375472546	0,0091442652
2	0	0	0	0	6665,89	1,33890796	1,33935297	-6,8140509972969882	5	-0,384322912	0,0091264192
2	0	0	1	0	6667,19	1,32590616	1,32647502	-6,866851186851648	5	-0,393213809	0,00910870638
2	0	0	1	0	6668,49	1,31290424	1,31335711	-6,8907005687555059	5	-0,402154714	0,00904995017
2	0	0	0	0	6669,79	1,29990256	1,30029905	-6,9424361487229901	5	-0,411146611	0,00902724266
2	0	0	1	0	6671,09	1,28690076	1,28716087	-7,0230257610479898	5	-0,420229197	0,00903976429
2	0	0	0	0	6672,39	1,27389896	1,27435327	-7,080497806270912	5	-0,429404229	0,00902305543
2	0	0	1	0	6673,69	1,26089728	1,26122522	-7,1286600977182387	5	-0,438648701	0,00899084564
2	0	0	0	0	6674,99	1,24789548	1,24833751	-7,1831591948866842	5	-0,447946131	0,00896700658
2	0	0	1	0	6676,29	1,23489368	1,23557985	-7,308041806022359	5	-0,457348198	0,00902966876
2	0	0	0	0	6677,59	1,22189176	1,22237158	-7,327899123231575	5	-0,466853917	0,00895741582
2	0	0	1	0	6678,89	1,20888948	1,20929456	-7,3646901203181722	5	-0,476419806	0,00890607946
2	0	0	1	0	6680,19	1,19588828	1,19615555	-7,4190211469928384	5	-0,486036748	0,00887430366
2	0	0	0	0	6681,49	1,18288648	1,18340802	-7,4557830144962048	5	-0,495699525	0,00882323366
2	0	0	1	0	6682,79	1,1698848	1,17058027	-7,4866945371031898	5	-0,505417168	0,00876377709
2	0	0	0	0	6684,09	1,156883	1,15748227	-7,5271748130520422	5	-0,515184283	0,00871257111
2	0	0	1	0	6685,39	1,1438812	1,14453435	-7,5546477635701594	5	-0,524997473	0,00864655431
2	0	0	0	0	6686,69	1,13087928	1,13159668	-7,5974236602584563	5	-0,534857512	0,00859721936
2	0	0	1	0	6687,99	1,1178776	1,11823821	-7,644005025426537	5	-0,544778526	0,00854781829
2	0	0	0	0	6689,29	1,10487592	1,10551059	-7,6622986743847552	5	-0,554732978	0,00847075228
2	0	0	1	0	6690,59	1,091874	1,09254289	-7,7168682267268454	5	-0,564729691	0,00843100995
2	0	0	1	0	6691,89	1,07887232	1,07936466	-7,706253970662775	5	-0,574750543	0,00831785798
2	0	0	0	0	6693,20	1,06587064	1,06641674	-7,7375118111570765	5	-0,584789217	0,00825141184
2	0	0	1	0	6694,50	1,05286872	1,05323875	-7,7104276220003955	5	-0,594842434	0,00812092144
2	0	0	0	0	6695,80	1,03986692	1,04044116	-7,9047333076596403	5	-0,605048716	0,00822441
2	0	0	1	0	6697,10	1,02686512	1,02741301	-7,8534187749028275	5	-0,615276754	0,00806870498
2	0	0	0	0	6698,40	1,01386333	1,01435518	-8,0414842218160909	5	-0,625546753	0,00815692078
2	0	0	1	0	6699,70	1,00086153	1,00155759	-8,0809192955493875	5	-0,636051416	0,0080935061
2	0	0	0	0	6701,00	0,987859905	0,988209128	-8,1155059412121766	5	-0,646590233	0,00801981706
2	0	0	1	0	6702,30	0,974858046	0,975221157	-8,148400483032105	5	-0,657153785	0,00794649217
2	0	0	1	0	6703,60	0,961856961	0,962143302	-8,2026598594714534	5	-0,667779565	0,0078921346
2	0	0	0	0	6704,90	0,948854506	0,949415624	-8,1954219366113395	5	-0,678425372	0,00778086158
2	0	0	1	0	6706,20	0,935852766	0,936457872	-8,2177904695272026	5	-0,689095855	0,00769561436
2	0	0	0	0	6707,50	0,922850966	0,923339725	-8,2557286719481626	5	-0,699815392	0,00762284221
2	0	0	1	0	6708,80	0,909849107	0,910301864	-8,2860046823819853	5	-0,710597873	0,0075427657
2	0	0	0	0	6710,10	0,896847427	0,897243798	-8,3203150679668173	5	-0,721387088	0,00746535091
2	0	0	1	0	6711,40	0,883845687	0,884255826	-8,347574412822752	5	-0,732234955	0,00738139125
2	0	0	0	0	6712,70	0,870843828	0,871318102	-8,3498715957005312	5	-0,743103564	0,00727539416
2	0	0	1	0	6714,00	0,857842028	0,858370185	-8,3893335213263782	5	-0,753974676	0,00720115378
2	0	0	0	0	6715,30	0,844840229	0,845392287	-8,4218198508024358	5	-0,76490432	0,00711974176
2	0	0	0	0	6716,60	0,831838369	0,832404435	-8,4576946496963507	5	-0,775871158	0,00704022264
2	0	0	1	0	6717,90	0,818836689	0,819146156	-8,4555018668373517	5	-0,786875129	0,00692629162
2	0	0	0	0	6719,20	0,805834949	0,80622834	-8,4637749989827571	5	-0,797868609	0,00682373531
2	0	0	1	0	6720,50	0,79283309	0,793420792	-8,4950916046897331	5	-0,808894992	0,00674018217
2	0	0	0	0	6721,80	0,77983135	0,780512989	-8,4880668868621286	5	-0,819943845	0,00662504649
2	0	0	1	0	6723,10	0,76682955	0,767234683	-8,5975177213549619	5	-0,831096113	0,00659631379
2	0	0	0	0	6724,40	0,75382781	0,754276752	-8,5959498236576909	5	-0,84226042	0,00648372527
2	0	0	1	0	6725,70	0,740826011	0,741258919	-8,6143789713581466	5	-0,853459835	0,00638548518
2	0	0	0	0	6727,00	0,727824211	0,728180945	-8,6326951359709197	5	-0,864677191	0,00628616428
2	0	0	0	0	6728,30	0,714822412	0,71507287	-8,6435259133577626	5	-0,875930905	0,00618075067
2	0	0	1	0	6729,60	0,701820672	0,702195108	-8,6716302459438733	5	-0,887191236	0,00608917652
2	0	0	0	0	6730,90	0,688818932	0,689137101	-8,7321937158703808	5	-0,898491621	0,00601767888
2	0	0	1	0	6732,20	0,675817072	0,676189303	-8,7535931716362829	5	-0,909861386	0,00591908628
2	0	0	0	0	6733,50	0,662815273	0,663201332	-8,7694553161661018	5	-0,921248198	0,00581591437
2	0	0	1	0	6734,80	0,649813533	0,650263548	-8,7771289944649024	5	-0,932667315	0,00570744695
2	0	0	0	0	6736,10	0,636811733	0,637365758	-8,8126325234770496	5	-0,944117785	0,00561687024
2	0	0	1	0	6737,40	0,623809993	0,624297798	-8,8694331372777805	5	-0,955622315	0,00553716766
2	0	0	0	0	6738,70	0,610808134	0,611339927	-8,9025191416343002	5	-0,967170715	0,00544246519
2	0	0	0	0	6740,00	0,597806394	0,598352075	-8,9193522607286861	5	-0,978784978	0,00533691281
2	0	0	1	0	6741,30	0,584804595	0,585193932	-8,883674407998711	5	-0,990370393	0,00519867241
2	0	0	0	0	6742,60	0,571802855	0,572426319	-8,9003261476755136	5	-1,00193632	0,00509478105
2	0	0	1	0	6743,90	0,558801055	0,559248149	-8,9099776173631258	5	-1,01350009	0,0049828887
2	0	0	0	0	6745,20	0,545799255	0,546310365	-8,935413983960928	5	-1,02512264	0,00488150911
2	0	0	1	0	6746,50	0,532797456	0,533282399	-8,9457740336656858	5	-1,03675008	0,00477062399
2	0	0	0	0	6747,80	0,519795716	0,520104229	-8,9310742293794829	5	-1,04836953	0,00464508962
2	0	0	1	0	6749,10	0,506793916	0,507446766	-8,9323280677199078	5	-1,05999124	0,00453268085
2	1	0	0	0	6750,36	0,50579381	0,506195068	-8,8428729524214874	5	-1,07125545	0,00447621848
2	1	0	1	0	6751,66	0,51879555	0,519102871	-8,6700307851036198	5	-1,08265376	0,00450063776
2	1	0	0	0	6752,96	0,53179729	0,532290995	-8,5080699796478067	5	-1,09381092	0,00452876883
2	1	0	1	0	6754,26	0,544799089	0,545158744	-8,3670736625790592	5	-1,10478389	0,00456138328
2	1	0	0	0	6755,56	0,557800889	0,558206797	-8,2091749459505075	5	-1,11556125	0,0045824172
2	1	0	1	0	6756,86	0,570802689	0,571184576	-8,0842466702064013	5	-1,12615967	0,00461759698
2	1	0	0	0	6758,16	0,583804488	0,584402859	-7,9318774417042726	5	-1,13655734	0,00463541178
2	1	0	0	0	6759,46	0,596806288	0,597170413	-7,8404235988855386	5	-1,14679277	0,00468206918
2	1	0	1	0	6760,76	0,609808028	0,610298455	-7,7453493823608	5	-1,1569283	0,00472697476
2	1	0	0	0	6762,07	0,622809827	0,623336434	-7,6257386629779981	5	-1,1669215	0,00475340057
2	1	0	1	0	6763,37	0,635811567	0,63622421	-7,5427369127670976	5	-1,17680204	0,00479887193
2	1	0	0	0	6764,67	0,648813367	0,649292231	-7,4516146928071834	5	-1,18654764	0,00483827572
2	1	0	1	0	6765,97	0,661815226	0,662280083	-7,3270648767550886	5	-1,19616377	0,0048525692
2	1	0	0	0	6767,27	0,674816966	0,675318062	-7,2268984640637798	5	-1,20562947	0,00488045486
2	1	0	1	0	6768,57	0,687818706	0,688225865	-7,1418476204077466	5	-1,21496272	0,00491520436
2	1	0	0	0	6769,87	0,700820506	0,701283813	-7,0835003852844134	5	-1,22421134	0,00496754423
2	1	0	0	0	6771,17	0,713822603	0,714372218	-6,9869349179121651	5	-1,23335648	0,004991272
2	1	0	1	0	6772,47	0,726824105	0,727530003	-6,8981260458628378	5	-1,24237907	0,00501859374
2	1	0	0	0	6773,77	0,739825845	0,740297556	-6,7960576117038733	5	-1,25127482	0,00503110467
2	1	0	1	0	6775,07	0,752827644	0,753425658	-6,6998423039912896	5	-1,26003611	0,00504783308
2	1	0	0	0	6776,37	0,765829444	0,766483665	-6,6220665251215424	5	-1,26869357	0,0050757057
2	1	0	1	0	6777,67	0,778831244	0,779161096	-6,4979864433407782	5	-1,27722907	0,00506297825
2	1	0	0	0	6778,97	0,791832983	0,792339206	-6,4034992630283085	5	-1,28562081	0,00507374341
2	1	0	1	0	6780,27	0,804834664	0,805126965	-6,3198125486572672	5	-1,29389024	0,00508825155
2	1	0	0	0	6781,57	0,817836523	0,818315029	-6,2124696783721664	5	-1,3020308	0,00508375745
2	1	0	1	0	6782,87	0,830837548	0,831302285	-6,129209969591287	5	-1,31004786	0,00509522622
2	1	0	1	0	6784,17	0,843840182	0,84431082	-6,0442084769407962	5	-1,3179599	0,00510319043
2	1	0	0	0	6785,47	0,856841981	0,857368946	-5,9558724202215667	5	-1,32576764	0,00510638021
2	1	0	1	0	6786,77	0,869843602	0,870126486	-5,8806463107466701	5	-1,33346415	0,00511690602
2	1	0	0	0	6788,07	0,882845461	0,883354664	-5,7892438458899699	5	-1,34106243	0,00511395559
2	1	0	1	0	6789,37	0,895847261	0,896432698	-5,747482127199575	5	-1,3485651	0,00515223108
2	1	0	0	0	6790,67	0,908849061	0,90917021	-5,6442107670009171	5	-1,3559742	0,00513154827
2	1	0	1	0	6791,97	0,921850741	0,922278285	-5,5934729377428774	5	-1,36329067	0,0051587387
2	1	0	0	0	6793,27	0,93485254	0,935236156	-5,5044204456110893	5	-1,370507	0,00514793303
2	1	0	0	0	6794,57	0,947853565	0,948392808	-5,4031199730213683	5	-1,37759495	0,00512428023
2	1	0	1	0	6795,87	0,960856199	0,961281896	-5,3054655777911392	5	-1,38455629	0,00510004815
2	1	0	0	0	6797,17	0,973857939	0,974420071	-5,2100750083724563	5	-1,39139199	0,00507680187
2	1	0	1	0	6798,47	0,98685962	0,987397969	-5,1602025416990214	5	-1,39812493	0,0050951736
2	1	0	0	0	6799,77	0,999861479	1,00018549	-5,0641590021550797	5	-1,40476418	0,0050650984
2	1	0	1	0	6801,07	1,01286328	1,01339388	-4,9890658160050944	5	-1,41129661	0,00505588856
2	1	0	0	0	6802,37	1,02586484	1,02632165	-4,9106028713286067	5	-1,41773129	0,00503985817
2	1	0	1	0	6803,67	1,03886676	1,03938961	-4,8382930979132762	5	-1,4240613	0,00502887135
2	1	0	0	0	6804,97	1,05186856	1,05235744	-4,7515936332444397	5	-1,43027484	0,00500037475
2	1	0	1	0	6806,27	1,06487036	1,06547558	-4,6645046733319904	5	-1,43639016	0,00496991584
2	1	0	1	0	6807,57	1,07787216	1,07849348	-4,5873580910265446	5	-1,44241321	0,00494743558
2	1	0	0	0	6808,87	1,09087396	1,09142125	-4,5047004980345664	5	-1,44832218	0,00491652591
2	1	0	1	0	6810,17	1,10387588	1,10440922	-4,4412762386103565	5	-1,45414197	0,00490498636
2	1	0	0	0	6811,47	1,11687756	1,117347	-4,3561051562428333	5	-1,45986915	0,00486728083
2	1	0	1	0	6812,77	1,12987924	1,13041496	-4,2773146877686227	5	-1,46547401	0,00483514043
2	1	0	0	0	6814,07	1,14288116	1,1434629	-4,2194428232809005	5	-1,47100258	0,0048247762
2	1	0	1	0	6815,37	1,15588284	1,15661108	-4,1439614805082637	5	-1,47643471	0,00479295198
2	1	0	0	0	6816,67	1,16888452	1,16939867	-4,0684197607139654	5	-1,48177779	0,00475760456
2	1	0	1	0	6817,97	1,18188643	1,18231642	-4,0092349002758656	5	-1,48703671	0,00474018417
2	1	0	0	0	6819,27	1,19488823	1,19540453	-3,9274485280116467	5	-1,49220204	0,00469488977
2	1	0	0	0	6820,57	1,20789003	1,2083323	-3,8462003916501997	5	-1,49725866	0,00464748824
2	1	0	1	0	6821,87	1,22089171	1,22124004	-3,7886508603890688	5	-1,50222421	0,00462685199
2	1	0	0	0	6823,17	1,23389351	1,23429811	-3,7160266761978419	5	-1,50710428	0,00458668452
2	1	0	1	0	6824,47	1,24689531	1,24744618	-3,6520014939208922	5	-1,5118897	0,0045556752
2	1	0	0	0	6825,77	1,25989699	1,26045418	-3,5670117338498317	5	-1,51658082	0,00449605472
2	1	0	1	0	6827,07	1,27289891	1,27336192	-3,4972730477651053	5	-1,52117348	0,00445329444
2	1	0	0	0	6828,37	1,28590071	1,2864399	-3,433751977980137	5	-1,52567995	0,00441731559
2	1	0	1	0	6829,67	1,29890263	1,29907727	-3,371258541941639	5	-1,53010201	0,00437952532
2	1	0	0	0	6830,97	1,31190419	1,31236565	-3,3089256696403098	5	-1,53444219	0,00434252061
2	1	0	0	0	6832,27	1,32490599	1,32546365	-3,2369149712224755	5	-1,53869677	0,00429041311
2	1	0	1	0	6833,57	1,33790779	1,33826137	-3,1710029244422912	5	-1,5428611	0,00424363092
2	1	0	0	0	6834,88	1,35090947	1,35137939	-3,1078247775634189	5	-1,54693842	0,00419985037
2	1	0	1	0	6836,18	1,36391127	1,36435723	-3,0494398841013517	5	-1,55093777	0,00416052528
2	1	0	0	0	6837,48	1,37691319	1,37718487	-2,9840917264421766	5	-1,55485713	0,00410964619
2	1	0	1	0	6838,78	1,38991499	1,39041328	-2,9174275615563021	5	-1,55869162	0,00405642996
2	1	0	0	0	6840,08	1,40291679	1,40352118	-2,8561579616119453	5	-1,56244636	0,00400867825
2	1	0	1	0	6841,38	1,41591847	1,41632891	-2,7947962923596349	5	-1,56612337	0,00395835098
2	1	0	0	0	6842,68	1,42892027	1,42932689	-2,7270523011684346	5	-1,56971288	0,00389784924
2	1	0	0	0	6843,98	1,44192207	1,4423548	-2,662406628330551	5	-1,57321513	0,00384013494
2	1	0	1	0	6845,28	1,45492375	1,45518231	-2,6124291699379594	5	-1,5766443	0,00380156073
2	1	0	0	0	6846,58	1,46792567	1,46838057	-2,5476534701883757	5	-1,5799979	0,00374092488
2	1	0	1	0	6847,88	1,48092747	1,4814986	-2,481516084323335	5	-1,58326697	0,00367636257
2	1	0	0	0	6849,18	1,49392915	1,49461675	-2,4249850170065984	5	-1,58645642	0,00362442317
2	1	0	1	0	6850,48	1,50693095	1,50749445	-2,3602549595137424	5	-1,58956516	0,00355807133
2	1	0	0	0	6851,78	1,51993275	1,52044225	-2,2986526874204499	5	-1,59258771	0,00349496864
2	1	0	1	0	6853,08	1,53293443	1,53338015	-2,2350816950202006	5	-1,59553158	0,00342722982
2	1	0	0	0	6854,38	1,54593623	1,54629803	-2,1853668515880909	5	-1,59840226	0,00337922852
2	1	0	0	0	6855,68	1,55893815	1,55949616	-2,1237817729512826	5	-1,60120201	0,00331202964
2	1	0	1	0	6856,98	1,57193983	1,57243395	-2,066925787677368	5	-1,60392749	0,00325010438
2	1	0	0	0	6858,28	1,58494163	1,58545184	-2,016195317730311	5	-1,60657942	0,00319658057
2	1	0	1	0	6859,58	1,59794331	1,59841955	-1,9501243090877978	5	-1,60915446	0,00311711687
2	1	0	0	0	6860,88	1,61094511	1,61146772	-1,8943521101027763	5	-1,61165476	0,00305268727
2	1	0	1	0	6862,18	1,62394691	1,62449551	-1,8397527107348067	5	-1,61408269	0,00298867002
2	1	0	0	0	6863,48	1,6369487	1,63733315	-1,7855991224447853	5	-1,61643875	0,00292362063
2	1	0	1	0	6864,78	1,64995062	1,65035129	-1,7277434611072131	5	-1,61872435	0,00285138353
2	1	0	0	0	6866,08	1,66295242	1,66362941	-1,6738943234085965	5	-1,62093568	0,00278473971
2	1	0	1	0	6867,38	1,67595398	1,67641711	-1,6139192161212394	5	-1,62307286	0,00270560174
2	1	0	1	0	6868,68	1,6889559	1,68959534	-1,5572375397508438	5	-1,62513351	0,00263110129
2	1	0	0	0	6869,98	1,7019577	1,70263302	-1,5060334103181974	5	-1,62712276	0,00256422232
2	1	0	1	0	6871,28	1,71495926	1,71552086	-1,4541444455583878	5	-1,62904775	0,00249461504
2	1	0	0	0	6872,58	1,72796118	1,72849894	-1,4077383096640333	5	-1,63090801	0,00243327417
2	1	0	1	0	6873,88	1,74096298	1,74157691	-1,3532970100641286	5	-1,6327008	0,0023568708
2	1	0	0	0	6875,18	1,75396478	1,75456488	-1,2993613565340674	5	-1,63442278	0,00227981387
2	1	0	1	0	6876,48	1,76696658	1,76751268	-1,2406600890681165	5	-1,63607395	0,00219288236
2	1	0	0	0	6877,78	1,77996838	1,78060055	-1,1847759286562632	5	-1,63765085	0,00210961257
2	1	0	1	0	6879,08	1,79297006	1,79351842	-1,1559401356304698	5	-1,63915944	0,00207319995
2	1	0	1	0	6880,38	1,80597186	1,80664659	-1,095191975745065	5	-1,64061975	0,00197862484
2	1	0	0	0	6881,68	1,81897366	1,81964445	-1,0459141278018542	5	-1,64201319	0,00190319179
2	1	0	1	0	6882,98	1,83197558	1,83248222	-0,995430555505056	5	-1,64333928	0,00182410877
2	1	0	0	0	6884,28	1,84497738	1,84573042	-0,93839280307293299	5	-1,64459395	0,00173202017
2	1	0	1	0	6885,58	1,85797894	1,85849786	-0,88254998686413261	5	-1,64577639	0,00164021726
2	1	0	0	0	6886,88	1,87098086	1,87147593	-0,82898534772296986	5	-1,64688873	0,00155142613
2	1	0	1	0	6888,18	1,88398266	1,88440359	-0,77417435590177779	5	-1,64793169	0,00145885698
2	1	0	0	0	6889,48	1,89698422	1,89746141	-0,7218892540161801	5	-1,64890456	0,001369757
2	1	0	1	0	6890,78	1,90998614	1,91064978	-0,67172180876756608	5	-1,64981055	0,00128342514
2	1	0	1	0	6892,08	1,92298794	1,92362773	-0,6235868295965079	5	-1,65065312	0,00119954895
2	1	0	0	0	6893,38	1,93598974	1,93639517	-0,57232556554178336	5	-1,6514281	0,00110824849
2	1	0	1	0	6894,68	1,94899154	1,94955349	-0,52123968753342976	5	-1,65213883	0,00101618469
2	1	0	0	0	6896,02	1,96239352	1,96271145	-0,47112527939801427	5	-1,65280378	0,000924683001
2	1	0	1	0	6897,32	1,97539532	1,97584963	-0,4196192491799584	5	-1,65338206	0,000829104509
2	1	0	0	0	6898,62	1,98839688	1,98920786	-0,36996295380716627	5	-1,65389538	0,000735933194
2	1	0	1	0	6899,92	2,0013988	2,00208592	-0,32087333065768141	5	-1,6543442	0,000642415951
2	1	0	0	0	6901,22	2,01440048	2,01493335	-0,27440769070138547	5	-1,65473127	0,000552913232
2	1	0	1	0	6902,52	2,02740216	2,02793121	-0,2278824055101727	5	-1,65505743	0,000462129858
2	1	0	1	0	6903,82	2,04040337	2,04102778	-0,17974235500350666	5	-1,65532207	0,000366859138
2	1	0	0	0	6905,12	2,05340576	2,0540576	-0,1324327279192703	5	-1,65552473	0,000272024452
2	1	0	1	0	6906,42	2,06640768	2,06704545	-0,086392665378904218	5	-1,65566671	0,000178577568
2	1	0	0	0	6907,77	2,07980943	2,08043361	-0,038846265524625779	5	-1,65575016	8,08170735E-005
2	1	0	1	0	6909,11	2,09321117	2,09376192	0,0083365080524041574	5	-1,65576982	1,7454664E-005
2	1	0	0	0	6910,45	2,10661316	2,10701036	0,055399074102752134	5	-1,65572667	0,00011672642
2	1	0	1	0	6911,79	2,12001491	2,12063909	0,10237569187302142	5	-1,65562057	0,0002171019
2	1	0	0	0	6913,09	2,13301682	2,13353705	0,14819834637455642	5	-1,65545714	0,000316186663
2	1	0	1	0	6914,39	2,14601851	2,14651465	0,19406367997483642	5	-1,65523446	0,000416560535
2	1	0	0	0	6915,69	2,15902019	2,15957284	0,23968304297886701	5	-1,65495193	0,000517612963
2	1	0	1	0	6916,99	2,1720221	2,17258048	0,2845502813191465	5	-1,65461063	0,000618208374
2	1	0	1	0	6918,29	2,18502402	2,18563843	0,33237294286178989	5	-1,65420938	0,000726447091
2	1	0	0	0	6919,59	2,19802594	2,19866657	0,37759571871720211	5	-1,65374756	0,000830207078
2	1	0	1	0	6920,89	2,21102738	2,21150422	0,42172725358978003	5	-1,65322757	0,00093265163
2	1	0	0	0	6922,19	2,2240293	2,22449207	0,46656061305353888	5	-1,65264928	0,00103786041
2	1	0	1	0	6923,49	2,23703122	2,23756003	0,51140247347454438	5	-1,65201306	0,0011442937
2	1	0	0	0	6924,79	2,25003266	2,25054789	0,55814702513938208	5	-1,65131652	0,00125613657
2	1	0	1	0	6926,09	2,26303458	2,26343584	0,60581201082095437	5	-1,65056014	0,00137121661
2	1	0	0	0	6927,39	2,2760365	2,27652407	0,6504100786211584	5	-1,6497432	0,00148067425
2	1	0	1	0	6928,69	2,28903794	2,28949189	0,69659071477750874	5	-1,64886606	0,0015948388
2	1	0	1	0	6929,99	2,3020401	2,30260015	0,74209754248434125	5	-1,64793015	0,00170875387
2	1	0	0	0	6931,29	2,31504178	2,31552744	0,78613282709071795	5	-1,64693594	0,00182031211
2	1	0	1	0	6932,59	2,32804322	2,32856536	0,8323887397224681	5	-1,64588451	0,00193827157
2	1	0	0	0	6933,89	2,34104514	2,34163356	0,87470217949400102	5	-1,64477491	0,00204823189
2	1	0	1	0	6935,19	2,35404706	2,35468173	0,92264298287530624	5	-1,64360857	0,00217253063
2	1	0	0	0	6936,49	2,36704874	2,36761928	0,96746656950563187	5	-1,64237833	0,00229059253
2	1	0	1	0	6937,82	2,38035059	2,3809576	1,0169408048192654	5	-1,64105487	0,00242129294
2	1	0	0	0	6939,12	2,39335251	2,39388537	1,0654232542340942	5	-1,6396991	0,00255050114
2	1	0	1	0	6940,42	2,40635419	2,40693331	1,1150330137461389	5	-1,63828254	0,00268381019
2	1	0	0	0	6941,72	2,41935587	2,419631	1,1583666562413182	5	-1,63680196	0,00280281994
2	1	0	0	0	6943,02	2,43235779	2,43269897	1,2074402337893843	5	-1,63526332	0,00293733855
2	1	0	1	0	6944,32	2,44535947	2,44600725	1,254778775696952	5	-1,63366354	0,00306919799
2	1	0	0	0	6945,62	2,45836115	2,45892501	1,2998525270571264	5	-1,63200152	0,00319623994
2	1	0	1	0	6946,92	2,47136331	2,47182274	1,3515842016786283	5	-1,63027501	0,00334087666
2	1	0	0	0	6948,22	2,48436499	2,48498106	1,4070384552081387	5	-1,62847948	0,00349646388
2	1	0	1	0	6949,52	2,49736667	2,49787879	1,4610861723000762	5	-1,62661445	0,00364961615
2	1	0	0	0	6950,82	2,51036859	2,51067638	1,506492466665801	5	-1,62468433	0,00378231495
2	1	0	1	0	6952,12	2,52337027	2,5239048	1,5566237227370365	5	-1,62268937	0,00392877031
2	1	0	0	0	6953,42	2,53637195	2,53679228	1,6137884724885251	5	-1,62062705	0,00409384631
2	1	0	1	0	6954,72	2,54937458	2,54989195	1,6675885339174528	5	-1,61849284	0,00425217068
2	1	0	1	0	6956,02	2,56237578	2,56287837	1,7200500251104458	5	-1,616292	0,00440827897
2	1	0	0	0	6957,32	2,57537723	2,57586646	1,7718872452775613	5	-1,6140244	0,00456414511
2	1	0	1	0	6958,62	2,58837914	2,58885407	1,8255111593753136	5	-1,61168766	0,00472598197
2	1	0	0	0	6959,92	2,60138106	2,60194206	1,8788675485799616	5	-1,60927689	0,00488870451
2	1	0	1	0	6961,22	2,61438274	2,6147697	1,9305641247580426	5	-1,6068002	0,0050479807
2	1	0	0	0	6962,52	2,62738442	2,62792778	1,9874931822220496	5	-1,60425389	0,00522298831
2	1	0	1	0	6963,82	2,64038634	2,64080572	2,0499444827437331	5	-1,60162961	0,00541350525
2	1	0	0	0	6965,12	2,65338802	2,65374351	2,095223225653168	5	-1,59893966	0,00556018483
2	1	0	1	0	6966,42	2,66639018	2,66680193	2,1456412968080515	5	-1,59618044	0,00572200026
2	1	0	1	0	6967,72	2,67939162	2,67986941	2,2000200065473693	5	-1,59335589	0,00589576643
2	1	0	0	0	6969,02	2,69239354	2,69280744	2,251815597837176	5	-1,59046197	0,00606370578
2	1	0	1	0	6970,32	2,70539522	2,70589519	2,3035775019476858	5	-1,58749747	0,00623323908
2	1	0	0	0	6971,62	2,7183969	2,71895337	2,3655900148053846	5	-1,58446515	0,00643192884
2	1	0	1	0	6972,92	2,73139882	2,73198128	2,4244758530209475	5	-1,58135188	0,0066236225
2	1	0	0	0	6974,22	2,7444005	2,74473882	2,4750920242319411	5	-1,57816505	0,0067934813
2	1	0	1	0	6975,52	2,75740218	2,75803709	2,5304302256554224	5	-1,57490873	0,00697902031
2	1	0	0	0	6976,82	2,7704041	2,77081466	2,5765727044393606	5	-1,5715822	0,00713920547
2	1	0	1	0	6978,12	2,7834053	2,78368187	2,636559523195487	5	-1,56819081	0,00733934296
2	1	0	1	0	6979,42	2,7964077	2,79685068	2,6990770914902243	5	-1,56472135	0,00754891569
2	1	0	0	0	6980,73	2,80940938	2,80993867	2,7531174831092288	5	-1,56117713	0,0077360915
2	1	0	1	0	6982,03	2,8224113	2,82292676	2,8127014450728877	5	-1,55755281	0,00794005021
2	1	0	0	0	6983,33	2,83541298	2,83587456	2,8751537892967427	5	-1,55384648	0,00815357547
2	1	0	1	0	6984,63	2,84841466	2,84894252	2,9358071597913805	5	-1,55006766	0,00836394541
2	1	0	0	0	6985,93	2,86141682	2,8619504	2,9982458030184064	5	-1,54620862	0,00858083088
2	1	0	1	0	6987,23	2,8744185	2,87513876	3,0559086855500922	5	-1,54227006	0,00878616143
2	1	0	0	0	6988,53	2,88742018	2,88778591	3,1191346384584922	5	-1,53825665	0,00900739338
2	1	0	0	0	6989,83	2,90042114	2,90064192	3,1773723619628243	5	-1,53416574	0,00921641942
2	1	0	1	0	6991,13	2,91342378	2,9138217	3,232870196302727	5	-1,52999592	0,00942000747
2	1	0	0	0	6992,43	2,92642546	2,92683959	3,304575875401504	5	-1,52574849	0,00967196375
2	1	0	1	0	6993,73	2,93942738	2,94004822	3,3529401235282349	5	-1,52142525	0,00985780545
2	1	0	0	0	6995,03	2,95242906	2,95311594	3,4138900091250835	5	-1,51702237	0,0100816134
2	1	0	1	0	6996,33	2,96543074	2,96576333	3,4601761462787693	5	-1,51255786	0,0102620637
2	1	0	0	0	6997,63	2,97843266	2,9787612	3,5330038703978061	5	-1,50801086	0,0105239749
2	1	0	1	0	6998,93	2,99143434	2,99187922	3,5884295217692851	5	-1,50337613	0,0107361479
2	1	0	0	0	7000,23	3,00443602	3,00477719	3,6576489582657811	5	-1,4986645	0,0109904204
2	1	0	1	0	7001,53	3,01743793	3,01784515	3,7389971377948826	5	-1,49385071	0,0112837143
2	1	0	1	0	7002,83	3,03043985	3,03112316	3,8148694003842406	5	-1,48894227	0,0115633393
2	1	0	0	0	7004,13	3,04344153	3,04393101	3,8818175656100077	5	-1,48394072	0,0118159847
2	1	0	1	0	7005,43	3,05644345	3,05687857	3,959742461641625	5	-1,47885907	0,0121044517
2	1	0	0	0	7006,73	3,06944513	3,06993699	4,0531635160247488	5	-1,47364986	0,0124429567
2	1	0	1	0	7008,03	3,08244705	3,08268428	4,1420979499816896	5	-1,46833241	0,0127687799
2	1	0	0	0	7009,33	3,09544873	3,09622312	4,2015606450537747	5	-1,46290576	0,0130089689
2	1	0	1	0	7010,63	3,10845041	3,10877037	4,2809639126062464	5	-1,45738637	0,0133085335
2	1	0	0	0	7011,93	3,12145233	3,12194848	4,3643532420198099	5	-1,45176673	0,0136252856
2	1	0	1	0	7013,23	3,13445401	3,13481593	4,4272595519820685	5	-1,44605422	0,0138786435
2	1	0	0	0	7014,53	3,14745641	3,14797449	4,5088495610036717	5	-1,44024658	0,0141937435
2	1	0	0	0	7015,83	3,16045761	3,16087222	4,5994300519426618	5	-1,43432987	0,0145382108
2	1	0	1	0	7017,13	3,17345929	3,17394018	4,6488164936502867	5	-1,428316	0,0147550656
2	1	0	0	0	7018,43	3,18646121	3,18694782	4,7253780514001702	5	-1,42222488	0,0150595335
2	1	0	1	0	7019,73	3,19946289	3,1999557	4,7513050089279789	5	-1,41606247	0,0152039658
2	1	0	0	0	7021,03	3,21246457	3,21289372	4,8366141952574253	5	-1,40982926	0,0155395269
2	1	0	1	0	7022,33	3,22546649	3,22601151	4,878272003183767	5	-1,4035182	0,0157373622
2	1	0	0	0	7023,63	3,23846817	3,23900986	4,9404503492017542	5	-1,39713883	0,016002167
2	1	0	1	0	7024,93	3,25147009	3,25196743	5,0356117996076787	5	-1,39066613	0,016375646
2	1	0	0	0	7026,23	3,26447177	3,26490545	5,0738305275638848	5	-1,38410127	0,0165655762
2	1	0	0	0	7027,53	3,27747345	3,27793312	5,167289896557719	5	-1,37744594	0,0169380307
2	1	0	1	0	7028,83	3,29047537	3,29102111	5,2038568916420013	5	-1,37070692	0,0171260033
2	1	0	0	0	7030,13	3,30347705	3,30399942	5,2549220186968595	5	-1,36390245	0,0173622593
2	1	0	1	0	7031,43	3,31647873	3,31690717	5,3022028518219885	5	-1,35704422	0,0175869148
2	1	0	0	0	7032,73	3,32948065	3,32988501	5,3566594235598989	5	-1,35011506	0,0178370606
2	1	0	1	0	7034,03	3,34248233	3,34309292	5,4279936117430483	5	-1,3430934	0,0181462876
2	1	0	0	0	7035,33	3,35548401	3,35584044	5,4864486381411411	5	-1,33598673	0,0184116457
2	1	0	1	0	7036,63	3,36848593	3,36898899	5,5303158474465146	5	-1,32882512	0,0186315738
2	1	0	0	0	7037,93	3,38148761	3,38184643	5,5821018740534714	5	-1,32158184	0,0188778117
2	1	0	0	0	7039,23	3,3944881	3,3948133	5,6468892301554342	5	-1,31428671	0,0191701353
2	1	0	1	0	7040,53	3,40749121	3,40811253	5,7841290086507802	5	-1,30687571	0,0197129622
2	1	0	0	0	7041,83	3,42049289	3,42110038	5,8367373260358874	5	-1,29931211	0,0199680645
2	1	0	1	0	7043,13	3,43349481	3,43385816	5,9134465915461338	5	-1,29167712	0,0203059372
2	1	0	0	0	7044,43	3,44649649	3,44695592	5,9392200037837171	5	-1,28397155	0,0204722304
2	1	0	1	0	7045,73	3,45949864	3,459934	6,0241666994988915	5	-1,27617705	0,020843219
2	1	0	0	0	7047,03	3,47250009	3,47290182	6,1577258209387443	5	-1,26822472	0,021385178
2	1	0	1	0	7048,33	3,48550224	3,48614001	6,2206455034514291	5	-1,26016688	0,0216860417
2	1	0	0	0	7049,63	3,49850392	3,49909806	6,3042050004005286	5	-1,25202107	0,0220590308
2	1	0	0	0	7050,93	3,51150489	3,51224399	6,431161112329079	5	-1,24376178	0,0225878078
2	1	0	1	0	7052,23	3,52450752	3,5250535	6,4924508954087795	5	-1,23538077	0,0228862371
2	1	0	0	0	7053,54	3,5375092	3,53798151	6,6294779106974528	5	-1,22682667	0,0234549697
2	1	0	1	0	7054,84	3,55051112	3,55110979	6,6852504039804045	5	-1,2181685	0,0237400588
2	1	0	0	0	7056,14	3,5635128	3,56406736	6,6801751429835866	5	-1,20949328	0,0238085948
2	1	0	1	0	7057,44	3,57651472	3,57685494	6,7498906329273894	5	-1,20076275	0,0241433792
2	1	0	0	0	7058,74	3,5895164	3,58999276	6,8948386137683994	5	-1,1919173	0,0247524213
2	1	0	1	0	7060,04	3,60251808	3,60293078	6,9388367881377638	5	-1,1829201	0,0250001494
2	1	0	0	0	7061,34	3,61552	3,61595893	6,8820388590296346	5	-1,17386901	0,0248851702
2	1	0	1	0	7062,64	3,62852168	3,6291573	7,1385952904820442	5	-1,16473401	0,0259070843
2	1	0	1	0	7063,94	3,64152336	3,64206505	7,1774961402018816	5	-1,15542483	0,0261409078
2	1	0	0	0	7065,24	3,65452528	3,65504265	7,6583110367258202	5	-1,14591348	0,0279914532
2	1	0	1	0	7066,54	3,66752696	3,66809058	7,7105067595839501	5	-1,13593268	0,0282828379
2	1	0	0	0	7067,84	3,68052864	3,68112826	7,8196820517380915	5	-1,12584198	0,0287852529
2	1	0	1	0	7069,14	3,69353056	3,69406676	7,9659443199634483	5	-1,11552811	0,0294267293
2	1	0	0	0	7070,44	3,70653224	3,70721459	8,1333159754673472	5	-1,10503924	0,0301519483
2	1	0	1	0	7071,74	3,71953392	3,72006249	8,1148681143919245	5	-1,0945121	0,0301878173
2	1	0	0	0	7073,04	3,73253584	3,73311043	8,0988282759984	5	-1,08406365	0,0302338209
2	1	0	1	0	7074,34	3,74553752	3,74599791	8,179412916302688	5	-1,07350063	0,0306400638
2	1	0	1	0	7075,64	3,75853944	3,75908637	8,2387438143293248	5	-1,06279933	0,0309701487
2	1	0	0	0	7076,94	3,77154112	3,77207398	8,3927109241485453	5	-1,05196047	0,0316579267
2	1	0	1	0	7078,24	3,7845428	3,78507185	8,5426797767480102	5	-1,04092145	0,0323346555
2	1	0	0	0	7079,54	3,79754472	3,79814982	8,6397345239917056	5	-1,02973354	0,0328150056
2	1	0	1	0	7080,84	3,8105464	3,81105757	8,842148922383799	5	-1,01836133	0,0336979404
2	1	0	0	0	7082,14	3,82354856	3,82394528	8,9790217056870182	5	-1,00676882	0,0343352892
2	1	0	1	0	7083,44	3,83655	3,83705378	9,095372197528672	5	-0,994998157	0,0348994322
2	1	0	0	0	7084,74	3,84955215	3,85010147	9,25794434795776	5	-0,983114779	0,0356440246
2	1	0	1	0	7086,04	3,86255383	3,86303949	9,352121390402313	5	-0,970989466	0,0361276157
2	1	0	1	0	7087,34	3,87555456	3,87599564	9,6399466811055565	5	-0,958641768	0,0373643897
2	1	0	0	0	7088,64	3,88855743	3,8889451	9,6121708204348979	5	-0,946070373	0,0373812057
2	1	0	1	0	7089,94	3,90155911	3,90210295	9,7441952154040333	5	-0,933475375	0,0380228534
2	1	0	0	0	7091,24	3,91456103	3,91515112	9,8409754062691661	5	-0,920756221	0,0385289043
2	1	0	1	0	7092,58	3,92796278	3,92860985	10,098191191752762	5	-0,907341659	0,0396718532
2	1	0	0	0	7093,88	3,9409647	3,94152737	10,180564917623994	5	-0,894156396	0,0401269756
2	1	0	1	0	7095,18	3,95396638	3,95437503	10,287953448792272	5	-0,880822599	0,0406824276
2	1	0	0	0	7096,48	3,96696806	3,96743298	10,46945030738911	5	-0,867339432	0,0415368415
2	1	0	1	0	7097,78	3,97996998	3,98050117	10,578894406557069	5	-0,853669286	0,0421093032
2	1	0	0	0	7099,08	3,99297166	3,99338889	10,636857919394941	5	-0,839887559	0,0424771085
2	1	0	1	0	7100,38	4,00597429	4,00633717	11,083289040516256	5	-0,825867236	0,0444033928
2	1	0	1	0	7101,68	4,0189743	4,01945591	11,22137092919887	5	-0,811360002	0,045103807
2	1	0	0	0	7102,98	4,0319767	4,03244305	11,405389865239456	5	-0,796733737	0,0459915847
2	1	0	1	0	7104,28	4,04497862	4,04556084	11,685562305152374	5	-0,781763613	0,0472746529
2	1	0	0	0	7105,58	4,05798054	4,058599	12,377299246688658	5	-0,766038001	0,0502344929
2	1	0	1	0	7106,88	4,07098198	4,07163715	12,443104967474896	5	-0,749894977	0,0506638102
2	1	0	0	0	7108,18	4,0839839	4,08439445	12,625778873761446	5	-0,73368758	0,0515686609
2	1	0	1	0	7109,48	4,09698582	4,09744263	12,71344147125879	5	-0,717193604	0,0520925969
2	1	0	0	0	7110,78	4,10998774	4,11034966	12,907713159918771	5	-0,700526118	0,0530552156
2	1	0	1	0	7112,08	4,12298965	4,12359953	13,193219387228368	5	-0,683582187	0,0544035546
2	1	0	1	0	7113,38	4,13599205	4,13656712	13,35203004238815	5	-0,666413367	0,0552315675
2	1	0	0	0	7114,68	4,14899302	4,14953375	13,461298232277214	5	-0,649016976	0,0558581129
2	1	0	1	0	7115,98	4,16199446	4,1625123	13,920632009704944	5	-0,631254077	0,0579448007
2	1	0	0	0	7117,28	4,17499685	4,17571974	13,847130388021411	5	-0,613075972	0,0578217357
2	1	0	1	0	7118,58	4,18799829	4,18867779	13,80325514078141	5	-0,595102966	0,0578173883
2	0	0	0	1	7119,81	4,19969988	4,20012331	13,864439740777016	5	-0,578055143	0,0582323559
2	0	0	1	1	7121,11	4,18669796	4,18717575	13,672265832622827	5	-0,560141861	0,0572481789
2	0	0	0	1	7122,42	4,17369652	4,17429781	13,177851642171528	5	-0,542707086	0,0550082773
2	0	0	1	1	7123,72	4,1606946	4,16107988	12,793917442361506	5	-0,525812566	0,0532365143
2	0	0	0	1	7125,02	4,14769268	4,14801168	12,483733470241246	5	-0,509384692	0,0517826714
2	0	0	1	1	7126,32	4,13469076	4,13511372	12,334612928330885	5	-0,493216336	0,0510050282
2	0	0	1	1	7127,62	4,12169075	4,12218761	12,046846650007496	5	-0,477382094	0,0496593602
2	0	0	0	1	7128,92	4,10868788	4,10929871	11,743500756064179	5	-0,461920887	0,0482575521
2	0	0	1	1	7130,22	4,09568548	4,09632063	11,486778922379018	5	-0,446842223	0,0470535308
2	0	0	0	1	7131,52	4,08268404	4,08306217	11,183903480569512	5	-0,432094425	0,045664575
2	0	0	1	1	7132,82	4,06968212	4,07000446	10,929329266150746	5	-0,417725533	0,0444824174
2	0	0	0	1	7134,12	4,0566802	4,05708647	10,618534833192811	5	-0,403696775	0,043080315
2	0	0	1	1	7135,42	4,04367876	4,04413843	10,480790071189382	5	-0,389964819	0,0423857644
2	0	0	0	1	7136,72	4,03067684	4,0313015	10,29556645452977	5	-0,376438826	0,0415045321
2	0	0	1	1	7138,02	4,01767492	4,01814318	9,9885989551742822	5	-0,36325708	0,040135622
2	0	0	0	1	7139,32	4,004673	4,00516558	9,6791400040189325	5	-0,350471258	0,0387665592
2	0	0	1	1	7140,62	3,99167156	3,99205709	9,3069944247603366	5	-0,338153303	0,0371540524
2	0	0	1	1	7141,92	3,97866988	3,97914886	9,0103188802798541	5	-0,326254845	0,0358534008
2	0	0	0	1	7143,22	3,96566796	3,96620131	8,745050579309463	5	-0,31471321	0,034684632
2	0	0	1	1	7144,52	3,95266628	3,95304322	8,487444611887127	5	-0,30352056	0,0335512348
2	0	0	0	1	7145,82	3,93966436	3,94027591	8,2011693616708211	5	-0,292670906	0,0323148705
2	0	0	1	1	7147,12	3,92666268	3,92723775	7,9174620707829606	5	-0,282200277	0,0310937557
2	0	0	0	1	7148,42	3,91366053	3,91411948	7,6954194307326989	5	-0,272046208	0,0301207919
2	0	0	1	1	7149,72	3,90065908	3,90110159	7,4560671870907238	5	-0,262198985	0,0290868748
2	0	0	0	1	7151,02	3,8876574	3,88807344	7,2291477322578432	5	-0,252658129	0,0281074569
2	0	0	1	1	7152,32	3,87465525	3,87507582	7,0015757506091917	5	-0,243403167	0,0271316376
2	0	0	1	1	7153,62	3,86165452	3,86208725	6,7803223766710234	5	-0,234434545	0,0261861961
2	0	0	0	1	7154,92	3,84865165	3,84914017	6,5799914747476582	5	-0,225753739	0,02532731
2	0	0	1	1	7156,22	3,83564997	3,83616185	6,3933828075726925	5	-0,217320755	0,0245260503
2	0	0	0	1	7157,52	3,82264805	3,82286382	6,215725560983017	5	-0,209120512	0,0237618722
2	0	0	1	1	7158,82	3,80964637	3,8100965	6,0464430103699379	5	-0,2011507	0,0230375305
2	0	0	0	1	7160,12	3,79664445	3,7971282	5,8776573414603776	5	-0,193398789	0,0223182179
2	0	0	1	1	7161,42	3,78364277	3,78388047	5,7243293300270893	5	-0,185859784	0,021660177
2	0	0	0	1	7162,72	3,77064109	3,77102256	5,5766495652496883	5	-0,17852056	0,0210296717
2	0	0	1	1	7164,02	3,75763917	3,75800467	5,4372190646827078	5	-0,171361759	0,0204330944
2	0	0	1	1	7165,32	3,74463677	3,74508619	5,2996501425743821	5	-0,164382532	0,0198476464
2	0	0	0	1	7166,62	3,73163581	3,73202896	5,1684256047010349	5	-0,157579005	0,0192887131
2	0	0	1	1	7167,92	3,71863389	3,71917105	5,0323705039918426	5	-0,150944233	0,0187162459
2	0	0	0	1	7169,26	3,70523214	3,70573282	4,8842514914770874	5	-0,144302174	0,0180997308
2	0	0	1	1	7170,56	3,69223046	3,69290519	4,7628384083509446	5	-0,138029471	0,0175887104
2	0	0	0	1	7171,86	3,67922878	3,67963672	4,6401973279813869	5	-0,131917953	0,0170742404
2	0	0	1	1	7173,16	3,66622686	3,66667867	4,5161652689178886	5	-0,125961289	0,016559327
2	0	0	0	1	7174,46	3,65322518	3,65389085	4,4136734741429395	5	-0,120149203	0,0161270816
2	0	0	1	1	7175,76	3,64022326	3,64078307	4,3058112810055322	5	-0,114493601	0,0156765245
2	0	0	0	1	7177,06	3,62722158	3,62785554	4,1901077862083974	5	-0,108968675	0,0152011057
2	0	0	0	1	7178,36	3,6142199	3,61472702	4,0990930510063846	5	-0,103579	0,0148171028
2	0	0	1	1	7179,66	3,60121799	3,6018095	3,9888921007513946	5	-0,0983197615	0,0143672293
2	0	0	0	1	7180,96	3,5882163	3,58870125	3,8921962194144723	5	-0,0931986868	0,0139679294
2	0	0	1	1	7182,26	3,57521415	3,57558298	3,7981559075415277	5	-0,0881973058	0,0135806212
2	0	0	0	1	7183,56	3,56221271	3,56283593	3,6978684787948877	5	-0,0833229274	0,0131748989
2	0	0	1	1	7184,86	3,54921055	3,54963756	3,61627466728288	5	-0,0785716698	0,0128364647
2	0	0	0	1	7186,16	3,53620887	3,53677964	3,5108013128240883	5	-0,0739332885	0,0124169309
2	0	0	1	1	7187,46	3,52320695	3,52369165	3,4376303404569555	5	-0,0694171116	0,0121131493
2	0	0	0	1	7188,76	3,51020527	3,51076412	3,3575407092769965	5	-0,065001145	0,0117875338
2	0	0	0	1	7190,06	3,49720407	3,49771714	3,2888830964893498	5	-0,0606804639	0,0115035828
2	0	0	1	1	7191,36	3,48420167	3,48447776	3,2224041161437779	5	-0,0564482957	0,0112283956
2	0	0	0	1	7192,66	3,47119999	3,47168016	3,157445629437767	5	-0,0523018129	0,0109616416
2	0	0	1	1	7193,96	3,45819807	3,45873237	3,0877052117139027	5	-0,0482429937	0,0106795458
2	0	0	0	1	7195,27	3,44519639	3,4456141	3,045742555831872	5	-0,044244945	0,0104944538
2	0	0	1	1	7196,57	3,43219471	3,43276668	2,9823174774646739	5	-0,0403259434	0,0102375997
2	0	0	0	1	7197,87	3,41919279	3,41959834	2,9193776212632621	5	-0,0364892446	0,00998309907
2	0	0	1	1	7199,17	3,40619111	3,40668058	2,856651013096169	5	-0,0327321589	0,00973169785
2	0	0	0	1	7200,47	3,39318943	3,39357281	2,7936398399372918	5	-0,0290521178	0,0094804205
2	0	0	0	1	7201,77	3,38018775	3,38057518	2,7397393467221037	5	-0,0254511833	0,00926189497
2	0	0	1	1	7203,07	3,36718583	3,36770701	2,6784143541008144	5	-0,0219279788	0,00902011525
2	0	0	0	1	7204,37	3,35418415	3,35460901	2,6315927530328461	5	-0,0184763279	0,00882796478
2	0	0	1	1	7205,67	3,34118223	3,34145069	2,5719643402844669	5	-0,0150937317	0,00859409198
2	0	0	0	1	7206,97	3,32818055	3,32847309	2,5238685117413552	5	-0,0117796306	0,00840062834
2	0	0	1	1	7208,27	3,31517887	3,31560516	2,4744459701081069	5	-0,00853182562	0,00820428599
2	0	0	0	1	7209,57	3,30217695	3,30270743	2,4302120010058026	5	-0,00534205558	0,00802627951
2	0	0	1	1	7210,87	3,28917527	3,28961945	2,3805710698167459	5	-0,00221492047	0,00783117302
2	0	0	0	1	7212,17	3,27617335	3,27669144	2,3444372893621549	5	0,000857294421	0,00768199749
2	0	0	1	1	7213,47	3,26317167	3,26350331	2,2938445440183059	5	0,00387110165	0,00748596946
2	0	0	1	1	7214,77	3,2501688	3,25059438	2,2486889560770234	5	0,00682357512	0,00730957557
2	0	0	0	1	7216,07	3,23716807	3,23789811	2,2069272870818893	5	0,00972140208	0,00714580575
2	0	0	1	1	7217,37	3,22416639	3,2245698	2,1665243792037181	5	0,0125648612	0,00698610907
2	0	0	0	1	7218,67	3,21116447	3,21154165	2,126874274263777	5	0,0153589984	0,00683054514
2	0	0	1	1	7219,97	3,19816279	3,19871402	2,089479718357321	5	0,0180987529	0,0066836481
2	0	0	0	1	7221,27	3,18516064	3,18562603	2,0525931610415357	5	0,0207909402	0,00653879438
2	0	0	1	1	7222,57	3,17215919	3,17258835	2,016042637949191	5	0,0234362688	0,00639607338
2	0	0	0	1	7223,87	3,15915704	3,1595304	1,9771580367038624	5	0,0260295346	0,00624689087
2	0	0	1	1	7225,17	3,14615536	3,14657235	1,9395034921665939	5	0,0285749938	0,00610278826
2	0	0	0	1	7226,47	3,13315296	3,13379502	1,9078351553701226	5	0,031075472	0,0059787645
2	0	0	0	1	7227,77	3,12015224	3,12061667	1,8695056072125843	5	0,0335287303	0,00583401043
2	0	0	1	1	7229,07	3,10715032	3,10754871	1,8354212219516413	5	0,0359363668	0,00570366066
2	0	0	0	1	7230,37	3,09414864	3,09462118	1,801058687890567	5	0,0383021124	0,00557359448
2	0	0	1	1	7231,67	3,08114672	3,08171296	1,7684578094631434	5	0,0406205989	0,00544987945
2	0	0	0	1	7232,97	3,0681448	3,06851506	1,7356648972878902	5	0,0429011434	0,00532591389
2	0	0	1	1	7234,27	3,05514312	3,05551696	1,7020835982014723	5	0,0451354682	0,00520074507
2	0	0	0	1	7235,57	3,04214144	3,04250908	1,6693884811053651	5	0,047327023	0,00507912971
2	0	0	1	1	7236,87	3,02913952	3,02947092	1,6344057240833802	5	0,0494749211	0,00495138438
2	0	0	1	1	7238,17	3,01613808	3,01682401	1,6042073907049859	5	0,0515792593	0,00483961124
2	0	0	0	1	7239,47	3,00313616	3,00357533	1,5722382112095712	5	0,0536438935	0,00472233584
2	0	0	1	1	7240,77	2,99013424	2,99047732	1,5427286336198413	5	0,0556675978	0,00461349497
2	0	0	0	1	7242,07	2,97713256	2,97761965	1,5133746716504275	5	0,05765054	0,0045062541
2	0	0	1	1	7243,37	2,96413088	2,96481204	1,4802923525373152	5	0,0595960319	0,00438878872
2	0	0	0	1	7244,67	2,95112896	2,95169425	1,45379174562792	5	0,0615020357	0,00429114886
2	0	0	1	1	7245,97	2,93812704	2,93868589	1,4178994887818899	5	0,0633664206	0,00416676141
2	0	0	0	1	7247,27	2,9251256	2,9257381	1,3891837745904914	5	0,0651918352	0,00406438811
2	0	0	1	1	7248,57	2,91212368	2,91259027	1,3614942968512573	5	0,0669798702	0,00396547513
2	0	0	1	1	7249,87	2,89912271	2,89961338	1,3314659217145781	5	0,0687301084	0,0038607365
2	0	0	0	1	7251,17	2,88611984	2,88672447	1,2971854265779203	5	0,0704406798	0,00374461687
2	0	0	1	1	7252,47	2,8731184	2,87370682	1,272809227618076	5	0,0721122548	0,00365768047
2	0	0	0	1	7253,77	2,86011648	2,86063838	1,2387083315600939	5	0,0737438872	0,0035434966
2	0	0	1	1	7255,07	2,84711456	2,84774041	1,2111743576824656	5	0,0753360838	0,00344911008
2	0	0	0	1	7256,37	2,83411312	2,83457255	1,1800054293125843	5	0,0768915787	0,00334481103
2	0	0	1	1	7257,67	2,8211112	2,82147455	1,1515831745540072	5	0,0784085616	0,00324916258
2	0	0	0	1	7258,97	2,80810928	2,80858684	1,1229116146763118	5	0,0798872784	0,00315379468
2	0	0	1	1	7260,27	2,7951076	2,79546881	1,1009428827092016	5	0,0813327879	0,00307765137
2	0	0	0	1	7261,57	2,78210568	2,78243065	1,0704845261449627	5	0,0827437341	0,00297854887
2	0	0	0	1	7262,87	2,769104	2,76963305	1,03984045051038	5	0,0841143802	0,00287997653
2	0	0	1	1	7264,17	2,75610209	2,75624466	1,0120161414767282	5	0,0854485482	0,0027893642
2	0	0	0	1	7265,47	2,74310017	2,74371743	0,98444276737670042	5	0,0867462754	0,00270103267
2	0	0	1	1	7266,77	2,73009872	2,73071957	0,9577134695524983	5	0,0880083218	0,00261524692
2	0	0	0	1	7268,08	2,71709681	2,71769166	0,92962352434794048	5	0,0892352313	0,00252643018
2	0	0	1	1	7269,38	2,70409489	2,7045536	0,90047685460497997	5	0,0904246867	0,00243538781
2	0	0	0	1	7270,68	2,69109344	2,69153523	0,8694087030986921	5	0,0915740803	0,00234004413
2	0	0	1	1	7271,98	2,67809129	2,67869782	0,84352465998381197	5	0,0926869512	0,00225954759
2	0	0	0	1	7273,28	2,66508961	2,66562009	0,81548269030948723	5	0,0937665179	0,00217376696
2	0	0	1	1	7274,58	2,65208673	2,65250111	0,7877344331846601	5	0,0948086679	0,00208946643
2	0	0	1	1	7275,88	2,63908601	2,6394639	0,75949235012134067	5	0,0958137214	0,00200465275
2	0	0	0	1	7277,18	2,62608433	2,62671614	0,72965566612159091	5	0,0967817679	0,0019165983
2	0	0	1	1	7278,48	2,61308289	2,61353803	0,69880802463740019	5	0,0977096558	0,0018263614
2	0	0	0	1	7279,78	2,60008073	2,60048008	0,66875786225621696	5	0,0985970944	0,00173909147
2	0	0	1	1	7281,08	2,58707905	2,5876224	0,632646036955216	5	0,0994403064	0,00163704902
2	0	0	0	1	7282,38	2,57407737	2,57450438	0,59769298586373414	5	0,100240231	0,00153876317
2	0	0	1	1	7283,68	2,56107545	2,56154633	0,56447472469881178	5	0,100995913	0,00144592812
2	0	0	0	1	7284,98	2,54807353	2,54858851	0,52629356676091635	5	0,101705097	0,00134130579
2	0	0	1	1	7286,32	2,53467202	2,53535056	0,48780484963208083	5	0,102384061	0,00123675633
2	0	0	1	1	7287,62	2,5216701	2,5223825	0,44726432347670106	5	0,102991626	0,00112817169
2	0	0	0	1	7288,92	2,50866818	2,50902414	0,40725901583209555	5	0,103546858	0,00102182268
2	0	0	1	1	7290,22	2,49566627	2,49609613	0,36563933834743878	5	0,10404966	0,000912670919
2	0	0	0	1	7291,52	2,48266459	2,48310828	0,32050076305555699	5	0,104495145	0,000795838074
2	0	0	1	1	7292,82	2,4696629	2,47025061	0,27415625417294541	5	0,104881011	0,000677234668
2	0	0	0	1	7294,12	2,45666099	2,45706248	0,22573884266118237	5	0,1052057	0,000554654456
2	0	0	1	1	7295,42	2,44365931	2,44423485	0,17567343928385498	5	0,105466165	0,000429387146
2	0	0	0	1	7296,72	2,43065763	2,43116689	0,12373050958073386	5	0,105660573	0,000300809508
2	0	0	1	1	7298,02	2,41765571	2,41813874	0,068914964057815552	5	0,105785474	0,000166645943
2	0	0	1	1	7299,36	2,40425348	2,40487075	0,010159985787981302	5	0,105838358	2,44334533E-005
2	0	0	0	1	7300,49	2,39285278	2,39334512	-0,041875032149255366	5	0,105820507	0,000100221405