File: Experimentelles/Rohdaten/Batterietests/AlteZelle/Studenten_Batterietests/Sonstige/ZView-Export/S vs Li_05_GCPL_C02_loop5.txt
EC-Lab ASCII FILE
Nb header lines : 3
mode	ox/red	error	control changes	Ns changes	counter inc.	Ns	time/s	control/V/mA	Ewe/V	dq/mA.h	<I>/mA	P/W	(Q-Qo)/mA.h	x	Capacity/mA.h
1	0	0	1	1	0	1	340189,57	-0,100000001	2,46388459	0	0	0	0	0	0
1	0	0	1	0	0	1	340409,57	-0,100000001	2,18957138	-0,00027771080619055363	-0,099973965239099674	0,000218900139	-0,0061082560931996454	0,00022790724747494157	0,0061082560931996454
1	0	0	1	0	0	1	340629,58	-0,100000001	2,16904831	-0,00027771111661609677	-0,099974076990143437	0,00021684861	-0,012217899536590789	0,00045586625885084006	0,012217899536590789
1	0	0	1	0	0	1	340849,58	-0,100000001	2,15756631	-0,00027771117781019872	-0,099974099019595955	0,000215700755	-0,018327548911932202	0,00068382549155577882	0,018327548911932202
1	0	0	1	0	0	1	341069,59	-0,100000001	2,14896417	-0,00027771019221014448	-0,099973744210408256	0,000214839994	-0,024437177731433427	0,00091178395729468237	0,024437177731433427
1	0	0	1	0	0	1	341289,59	-0,100000001	2,14219308	-0,00027771205501051411	-0,099974414803301414	0,000214164495	-0,030546820761292512	0,0011397429532411438	0,030546820761292512
1	0	0	1	0	0	1	341509,59	-0,100000001	2,13616586	-0,00027771011592944461	-0,099973716746393587	0,000213560445	-0,036656458478146714	0,0013677017509522496	0,036656458478146714
1	0	0	1	0	0	1	341729,60	-0,100000001	2,13187432	-0,00027771166920041046	-0,099974275912010726	0,000213132589	-0,042766098711380288	0,0015956606425528531	0,042766098711380288
1	0	0	1	0	0	1	341949,60	-0,100000001	2,12908959	-0,00027771291072914998	-0,099974722858406464	0,000212855142	-0,048875758091307104	0,0018236202485423248	0,048875758091307104
1	0	0	1	0	0	1	342169,61	-0,100000001	2,1293757	-0,00027771289458829494	-0,099974717047810534	0,000212883737	-0,054985427414595834	0,0020515802255319981	0,054985427414595834
1	0	0	1	0	0	1	342389,61	-0,100000001	2,12628579	-0,00027771266477306685	-0,099974634315921408	0,00021257464	-0,061095102515177357	0,0022795404180802326	0,061095102515177357
1	0	0	1	0	0	1	342609,62	-0,100000001	2,11669207	-0,00027771193756411472	-0,099974372525739392	0,000211614955	-0,06720478026239712	0,0025075007093780995	0,06720478026239712
1	0	0	1	0	0	1	342829,62	-0,100000001	2,1131444	-0,00027771210181257789	-0,099974431649392294	0,000211260412	-0,073314435800966835	0,0027354601720413725	0,073314435800966835
1	0	0	1	0	0	1	343049,62	-0,100000001	2,11001635	-0,00027771274125203491	-0,099974661844328282	0,000210948172	-0,079424092080319616	0,0029634196623442579	0,079424092080319616
1	0	0	1	0	0	1	343269,63	-0,100000001	2,10742235	-0,00027771136270918781	-0,099974165579622733	0,000210687795	-0,08553375751831145	0,0031913794943682803	0,08553375751831145
1	0	0	1	0	0	1	343489,63	-0,100000001	2,1037221	-0,0002777117865300841	-0,099974318149879962	0,000210318176	-0,091643409554371507	0,0034193388263482086	0,091643409554371507
1	0	0	1	0	0	1	343709,64	-0,100000001	2,10065126	-0,00027771142966176074	-0,099974189684412544	0,000210010912	-0,097753070681646554	0,0036472984975335923	0,097753070681646554
1	0	0	1	0	0	1	343929,64	-0,100000001	2,09811449	-0,00027771139727036157	-0,099974178023733376	0,000209757272	-0,1038627284052911	0,0038752580417249453	0,1038627284052911
1	0	0	1	0	0	1	344149,64	-0,100000001	2,09435701	-0,00027771190374261798	-0,099974360350235008	0,000209382008	-0,10997237635393496	0,0041032172211978797	0,10997237635393496
1	0	0	1	0	0	1	344369,65	-0,100000001	2,09111452	-0,00027771212064309251	-0,09997443842824704	0,000209057995	-0,1160820321421053	0,0043311766931740883	0,1160820321421053
1	0	0	1	0	0	1	344589,65	-0,100000001	2,0879674	-0,00027771216425672173	-0,099974454131178906	0,000208743397	-0,12219169498607898	0,0045591364284118054	0,12219169498607898
1	0	0	1	0	0	1	344809,66	-0,100000001	2,08430529	-0,00027771147473860118	-0,099974205908271168	0,000208376761	-0,1283013471498747	0,0047870957651577235	0,1283013471498747
1	0	0	1	0	0	1	345029,66	-0,100000001	2,080338	-0,00027771241673371856	-0,099974545018819994	0,000207980847	-0,13441101292571102	0,0050150556097871782	0,13441101292571102
1	0	0	1	0	0	1	345249,67	-0,100000001	2,07654262	-0,00027771030968303482	-0,099973786499834496	0,000207599835	-0,14052065780699016	0,0052430146748126112	0,14052065780699016
1	0	0	1	0	0	1	345469,67	-0,100000001	2,07255626	-0,00027771141245423091	-0,099974183489821094	0,000207202116	-0,1466302997875351	0,005470973631607751	0,1466302997875351
1	0	0	1	0	0	1	345689,67	-0,100000001	2,06969523	-0,00027771160068404339	-0,099974251251248845	0,000206916229	-0,15273995929322941	0,005698933242289776	0,15273995929322941
1	0	0	1	0	0	1	345909,68	-0,100000001	2,06748271	-0,00027771183162099786	-0,09997433438695168	0,000206695215	-0,15884962500522464	0,0059268930845372339	0,15884962500522464
1	0	0	1	0	0	1	346129,68	-0,100000001	2,06185603	-0,00027771218688082365	-0,099974462273371098	0,000206132943	-0,16495929222835827	0,0061548529831672973	0,16495929222835827
1	0	0	1	0	0	1	346349,69	-0,100000001	2,05773616	-0,00027771125361571712	-0,099974126305565658	0,000205720367	-0,17106896062435971	0,0063828129255586342	0,17106896062435971
1	0	0	1	0	0	1	346569,69	-0,100000001	2,05199504	-0,00027771236324434477	-0,099974525763016205	0,000205147226	-0,17717861331053635	0,006610772281795287	0,17717861331053635
1	0	0	1	0	0	1	346789,70	-0,100000001	2,04388881	-0,00027771116005712086	-0,099974092628610995	0,000204335927	-0,18328828207343594	0,0068387322378760883	0,18328828207343594
1	0	0	1	0	0	1	347009,70	-0,100000001	2,03517246	-0,00027771087786596685	-0,099973991041751603	0,000203464311	-0,18939793011023795	0,0070666914206383219	0,18939793011023795
1	0	0	1	0	0	1	347229,70	-0,100000001	2,02710438	-0,00027771097296352189	-0,099974025276212237	0,000202657786	-0,19550757652581216	0,0072946505429103667	0,19550757652581216
1	0	0	1	0	0	1	347449,71	-0,100000001	2,01981831	-0,00027771218015874426	-0,099974459858124454	0,000201930248	-0,20161724086554787	0,0075226103339569754	0,20161724086554787
1	0	0	1	0	0	1	347669,71	-0,100000001	2,00909901	-0,00027771112189152176	-0,09997407888460457	0,000200857816	-0,20772690748920064	0,0077505702102196019	0,20772690748920064
1	0	0	1	0	0	1	347889,72	-0,100000001	2,004426	-0,00027771075862439142	-0,09997394811677481	0,000200390379	-0,21383655401182781	0,0079785293364859366	0,21383655401182781
1	0	0	1	0	0	1	348109,72	-0,100000001	1,99338257	-0,00027771155093030797	-0,099974233337921293	0,000199286893	-0,2199461971185111	0,0082064883352988122	0,2199461971185111
1	0	0	1	0	0	1	348329,73	-0,100000001	1,98687851	-0,00027771059495334829	-0,09997388919051465	0,000198635971	-0,22605583631920477	0,0084344471883739635	0,22605583631920477
1	0	0	1	0	0	1	348549,73	-0,100000001	1,97846711	-0,00027771104770112368	-0,099974052181230835	0,00019779538	-0,23216546668799632	0,0086624057119189734	0,23216546668799632
1	0	0	1	0	0	1	348769,73	-0,100000001	1,97413754	-0,00027771217242835296	-0,099974457075237158	0,000197363333	-0,2382751238149975	0,0088903652338487603	0,2382751238149975
1	0	0	1	0	0	1	348989,74	-0,100000001	1,96931195	-0,00027771175407411325	-0,099974306470610739	0,000196880603	-0,24438479493951046	0,0091183252780445299	0,24438479493951046
1	0	0	1	0	0	1	349209,74	-0,100000001	1,96849179	-0,00027771216286015181	-0,099974453626095731	0,000196798894	-0,25049445517048525	0,0093462849157877453	0,25049445517048525
1	0	0	1	0	0	1	349429,75	-0,100000001	1,96461987	-0,00027771022627130154	-0,099973756474516352	0,00019641043	-0,25660408894368624	0,009574243566355849	0,25660408894368624
1	0	0	1	0	0	1	349649,75	-0,100000001	1,96145368	-0,00027771002438954179	-0,099973683792663091	0,000196093752	-0,26271371931614045	0,0098022020900375168	0,26271371931614045
1	0	0	1	0	0	1	349869,76	-0,100000001	1,95626569	-0,00027771079814475446	-0,099973962338012442	0,000195575631	-0,26882336027837322	0,010030161008838059	0,26882336027837322
1	0	0	1	0	0	1	350089,76	-0,100000001	1,9528898	-0,0002777113735402624	-0,09997416948106217	0,000195238536	-0,27493300126756704	0,010258119928644557	0,27493300126756704
1	0	0	1	0	0	1	350309,76	-0,100000001	1,95319498	-0,00027771059417020941	-0,099973888913245389	0,000195268498	-0,2810426382725663	0,010486078699795398	0,2810426382725663
1	0	0	1	0	0	1	350529,77	-0,100000001	1,9526037	-0,00027770996446162461	-0,09997366222251977	0,000195208937	-0,28715226341958	0,010714037028508854	0,28715226341958
1	0	0	1	0	0	1	350749,77	-0,100000001	1,95170724	-0,00027771068923009766	-0,09997392313414624	0,000195119836	-0,29326189442017734	0,010941995575627387	0,29326189442017734
1	0	0	1	0	0	1	350969,78	-0,100000001	1,95178354	-0,00027771017819974157	-0,09997373916676032	0,000195127097	-0,2993715224978039	0,011169954013685949	0,2993715224978039
1	0	0	1	0	0	1	351189,78	-0,100000001	1,9523176	-0,00027770992509937949	-0,099973648048892902	0,000195180313	-0,30548114334907974	0,01139791218211965	0,30548114334907974
1	0	0	1	0	0	1	351409,78	-0,100000001	1,95267999	-0,00027770957721231712	-0,099973522813125709	0,0001952163	-0,31159075863302746	0,011625870142828854	0,31159075863302746
1	0	0	1	0	0	1	351629,79	-0,100000001	1,95456815	-0,00027770949085180963	-0,09997349172161399	0,000195405009	-0,3177003771836775	0,011853828225423112	0,3177003771836775
1	0	0	1	0	0	1	351849,79	-0,100000001	1,95521665	-0,00027770962684725722	-0,099973540683687731	0,000195469926	-0,3238099921462855	0,012081786174142698	0,3238099921462855
1	0	0	1	0	0	1	352069,80	-0,100000001	1,95308053	-0,00027770946764159539	-0,099973483370753024	0,00019525626	-0,32991960842089555	0,012309744171814845	0,32991960842089555
1	0	0	1	0	0	1	352289,80	-0,100000001	1,95262277	-0,00027771001252532006	-0,099973679525116979	0,000195210887	-0,33602922676380173	0,012537702246657902	0,33602922676380173
1	0	0	1	0	0	1	352509,81	-0,100000001	1,95412946	-0,00027770914391262662	-0,09997336682591296	0,000195360903	-0,34213884087013382	0,012765660163428685	0,34213884087013382
1	0	0	1	0	0	1	352729,81	-0,100000001	1,95493054	-0,00027770985273064835	-0,099973621997815168	0,000195441491	-0,3482484557445488	0,012993618108857672	0,3482484557445488
1	0	0	1	0	0	1	352949,81	-0,100000001	1,95149744	-0,00027770939464867117	-0,099973457090314816	0,000195097949	-0,35435806195467136	0,013221575731010258	0,35435806195467136
1	0	0	1	0	0	1	353169,82	-0,100000001	1,95132577	-0,00027771017187544045	-0,099973736885400461	0,000195081331	-0,36046767182502784	0,013449533489731094	0,36046767182502784
1	0	0	1	0	0	1	353389,82	-0,100000001	1,95306146	-0,00027771003813172378	-0,099973688743244813	0,000195254761	-0,36657729111217427	0,013677491599805022	0,36657729111217427
1	0	0	1	0	0	1	353609,83	-0,100000001	1,95218408	-0,00027770968867383069	-0,099973562940825626	0,000195166795	-0,37268689634964326	0,013905449185666595	0,37268689634964326
1	0	0	1	0	0	1	353829,83	-0,100000001	1,94886529	-0,00027770918589250909	-0,099973381943034944	0,000194834662	-0,37879650573389901	0,01413340692625036	0,37879650573389901
1	0	0	1	0	0	1	354049,84	-0,100000001	1,95088708	-0,00027770927440085344	-0,099973413805425408	0,000195036846	-0,38490610165878854	0,014361364164647075	0,38490610165878854
1	0	0	1	0	0	1	354269,84	-0,100000001	1,95033395	-0,00027771073354697888	-0,099973939083260992	0,000194982567	-0,39101571493927648	0,014589322050604499	0,39101571493927648
1	0	0	1	0	0	1	354489,84	-0,100000001	1,95058191	-0,00027771070332452656	-0,099973928204551475	0,000195007335	-0,39712534539407814	0,014817280577358662	0,39712534539407814
1	0	0	1	0	0	1	354709,85	-0,100000001	1,94753015	-0,00027770986846089363	-0,099973627658266778	0,000194701657	-0,40323497051788947	0,015045238905206406	0,40323497051788947
1	0	0	1	0	0	1	354929,85	-0,100000001	1,94819772	-0,00027771007558082541	-0,099973702224661824	0,000194768538	-0,4093445873230935	0,015273196922675731	0,4093445873230935
1	0	0	1	0	0	1	355149,86	-0,100000001	1,94777811	-0,000277710206847224	-0,099973749479655424	0,000194726686	-0,41545420282971738	0,01550115489169328	0,41545420282971738
1	0	0	1	0	0	1	355369,86	-0,100000001	1,94665277	-0,00027770989337687693	-0,099973636632503334	0,000194613953	-0,42156380918688582	0,015729112519332349	0,42156380918688582
1	0	0	1	0	0	1	355589,87	-0,100000001	1,94558465	-0,00027770976467347808	-0,099973590300171891	0,000194507084	-0,42767341688082419	0,015957070196848093	0,42767341688082419
1	0	0	1	0	0	1	355809,87	-0,100000001	1,94621408	-0,00027771047765140733	-0,099973846962629005	0,000194570515	-0,43378303846557901	0,016185028392648886	0,43378303846557901
1	0	0	1	0	0	1	356029,87	-0,100000001	1,94457376	-0,0002777091573940383	-0,099973371680291533	0,000194405598	-0,43989266291611366	0,016412986695375773	0,43989266291611366
1	0	0	1	0	0	1	356249,88	-0,100000001	1,94556558	-0,00027770971884578467	-0,099973573800192269	0,000194505148	-0,44600227475667206	0,016640944527607491	0,44600227475667206
1	0	0	1	0	0	1	356469,88	-0,100000001	1,94686258	-0,00027771020936883158	-0,099973750382761382	0,000194635155	-0,45211189278422259	0,016868902590684202	0,45211189278422259
1	0	0	1	0	0	1	356689,89	-0,100000001	1,94434488	-0,00027771034617059763	-0,099973799635104205	0,000194383552	-0,45822152714079622	0,017096861263018723	0,45822152714079622
1	0	0	1	0	0	1	356909,89	-0,100000001	1,94354379	-0,0002777106491753624	-0,099973908714719206	0,000194303677	-0,46433116396093709	0,01732482002727225	0,46433116396093709
1	0	0	1	0	0	1	357129,89	-0,100000001	1,94014871	-0,00027771107157940666	-0,099974060777247168	0,000193964544	-0,47044079487966054	0,017552778571335955	0,47044079487966054
1	0	0	1	0	0	1	357349,90	-0,100000001	1,93276739	-0,00027770989986012381	-0,099973638961771981	0,000193225787	-0,47655042414875136	0,017780737053849651	0,47655042414875136
1	0	0	1	0	0	1	357569,90	-0,100000001	1,93238592	-0,00027771073773586086	-0,099973940593557133	0,000193188229	-0,48266005357508173	0,018008695542230166	0,48266005357508173
1	0	0	1	0	0	1	357789,91	-0,100000001	1,93066931	-0,00027771066015462083	-0,099973912663684646	0,00019301656	-0,48876968825564294	0,018236654226653098	0,48876968825564294
1	0	0	1	0	0	1	358009,91	-0,100000001	1,9301734	-0,00027771030445438294	-0,099973784612900762	0,000192966734	-0,49487931602008947	0,018464612653026493	0,49487931602008947
1	0	0	1	0	0	1	358229,92	-0,100000001	1,92921972	-0,00027771040127591958	-0,099973819472638131	0,000192871463	-0,50098894249689888	0,018692571031356413	0,50098894249689888
1	0	0	1	0	0	1	358449,92	-0,100000001	1,92836142	-0,0002777099747504625	-0,099973665926430093	0,000192785359	-0,50709857663580269	0,018920529695569382	0,50709857663580269
1	0	0	1	0	0	1	358669,92	-0,100000001	1,92744589	-0,00027771059933097827	-0,099973890771086413	0,000192694264	-0,51320820489124672	0,019148488140262554	0,51320820489124672
1	0	0	1	0	0	1	358889,93	-0,100000001	1,92641592	-0,00027771027676057488	-0,099973774647977126	0,000192591076	-0,5193178292558841	0,019376446439784496	0,5193178292558841
1	0	0	1	0	0	1	359109,93	-0,100000001	1,92553854	-0,00027771015089626112	-0,099973729333041318	0,00019250327	-0,52542745845969926	0,019604404919862672	0,52542745845969926
1	0	0	1	0	0	1	359329,94	-0,100000001	1,923841	-0,0002777100430780815	-0,099973690520407846	0,000192333478	-0,53153708244913766	0,019832363205385437	0,53153708244913766
1	0	0	1	0	0	1	359549,94	-0,100000001	1,92279196	-0,00027771015252545475	-0,099973729921867379	0,00019222869	-0,53764670394629779	0,020060321397917949	0,53764670394629779
1	0	0	1	0	0	1	359769,95	-0,100000001	1,92149496	-0,00027771005556773811	-0,099973695020089114	0,000192098945	-0,54375632321077338	0,020288279507145997	0,54375632321077338
1	0	0	1	0	0	1	359989,95	-0,100000001	1,91951132	-0,00027771024064885242	-0,09997376164800736	0,000191900763	-0,54986594228409747	0,020516237609241926	0,54986594228409747
1	0	0	1	0	0	1	360209,95	-0,100000001	1,91848135	-0,00027770980939765773	-0,099973606400566554	0,000191797502	-0,55597555872183533	0,020744195613000595	0,55597555872183533
1	0	0	1	0	0	1	360429,96	-0,100000001	1,91701269	-0,00027770924337953328	-0,099973402637965171	0,000191650281	-0,5620851711135817	0,020972153465797875	0,5620851711135817
1	0	0	1	0	0	1	360649,96	-0,100000001	1,91548681	-0,00027770897489165264	-0,099973305979533926	0,000191497544	-0,56819477702438227	0,021200111076782355	0,56819477702438227
1	0	0	1	0	0	1	360869,97	-0,100000001	1,91361761	-0,00027770905775162912	-0,099973335809714918	0,000191310741	-0,57430438335922765	0,021428068703588518	0,57430438335922765
1	0	0	1	0	0	1	361089,97	-0,100000001	1,91129076	-0,00027770920418451229	-0,099973388525701658	0,000191078216	-0,58041398714494502	0,021656026235283293	0,58041398714494502
1	0	0	1	0	0	1	361309,98	-0,100000001	1,90909731	-0,00027771080599187146	-0,099973965167575462	0,000190860024	-0,58652359893870541	0,021883984065768912	0,58652359893870541
1	0	0	1	0	0	1	361529,98	-0,100000001	1,90732348	-0,00027771020876160925	-0,099973750168820851	0,000190682287	-0,59263321087300429	0,022111941901498211	0,59263321087300429
1	0	0	1	0	0	1	361749,98	-0,100000001	1,90558779	-0,0002777099023403393	-0,099973639859287654	0,000190508552	-0,59874282957804326	0,022339899989852931	0,59874282957804326
1	0	0	1	0	0	1	361969,99	-0,100000001	1,90318453	-0,00027770867251770362	-0,099973197131663501	0,000190267441	-0,60485242921211699	0,022567857366644294	0,60485242921211699
1	0	0	1	0	0	1	362189,99	-0,100000001	1,90123904	-0,00027770850319622291	-0,099973136172448832	0,000190072824	-0,61096201782020582	0,022795814332041341	0,61096201782020582
1	0	0	1	0	0	1	362410,00	-0,100000001	1,8985306	-0,00027770882658412058	-0,099973252592178035	0,000189802275	-0,61707160883372979	0,0230237713871884	0,61707160883372979
1	0	0	1	0	0	1	362630,00	-0,100000001	1,8970238	-0,00027770839714383085	-0,09997309799548663	0,000189651342	-0,62318120237460685	0,023251728536634403	0,62318120237460685
1	0	0	1	0	0	1	362850,00	-0,100000001	1,89448702	-0,00027770915224196182	-0,099973369829071194	0,000189398255	-0,62929079785019021	0,023479685758266899	0,62929079785019021
1	0	0	1	0	0	1	363070,01	-0,100000001	1,89116836	-0,00027770901649983395	-0,099973320962846067	0,000189066384	-0,63540039494700211	0,023707643040389613	0,63540039494700211
1	0	0	1	0	0	1	363290,01	-0,100000001	1,88857436	-0,00027770973700988624	-0,099973580341470566	0,000188807535	-0,64151001003700851	0,023935600993862605	0,64151001003700851
1	0	0	1	0	0	1	363510,02	-0,100000001	1,88550353	-0,00027770948044624595	-0,099973487980338458	0,000188500358	-0,64761961968067085	0,024163558744125178	0,64761961968067085
1	0	0	1	0	0	1	363730,02	-0,100000001	1,88252807	-0,00027770927167601053	-0,099973412824500838	0,000188202757	-0,65372923055835725	0,024391516540430848	0,65372923055835725
1	0	0	1	0	0	1	363950,03	-0,100000001	1,87913299	-0,00027770940398010941	-0,099973460448404083	0,000187863421	-0,65983882726559462	0,02461947380801801	0,65983882726559462
1	0	0	1	0	0	1	364170,03	-0,100000001	1,8763864	-0,00027770977169358067	-0,099973592823868685	0,000187589088	-0,66594843974125069	0,024847431663946077	0,66594843974125069
1	0	0	1	0	0	1	364390,03	-0,100000001	1,87283874	-0,00027770963645022774	-0,099973544143018202	0,000187234327	-0,67205806166895232	0,025075389872542672	0,67205806166895232
1	0	0	1	0	0	1	364610,04	-0,100000001	1,86963451	-0,00027770929330421821	-0,099973420605850406	0,000186913763	-0,67816766950624435	0,025303347555407136	0,67816766950624435
1	0	0	1	0	0	1	364830,04	-0,100000001	1,86513317	-0,00027771066494368845	-0,099973914391207283	0,000186464662	-0,6842772842279593	0,025531305495138685	0,6842772842279593
1	0	0	1	0	0	1	365050,05	-0,100000001	1,86120403	-0,00027771113718383843	-0,099974084394387878	0,000186072168	-0,69038692314280115	0,02575926433754832	0,69038692314280115
1	0	0	1	0	0	1	365270,05	-0,100000001	1,85613048	-0,00027771023751629725	-0,09997376052030921	0,00018556435	-0,6964965553758167	0,025987222930650029	0,6964965553758167
1	0	0	1	0	0	1	365490,06	-0,100000001	1,85092354	-0,00027770971460640429	-0,099973572271717056	0,000185043435	-0,7026061886171657	0,026215181561374019	0,7026061886171657
1	0	0	1	0	0	1	365710,06	-0,100000001	1,84430504	-0,00027771027784504819	-0,099973775036052352	0,000184382137	-0,70871580873036083	0,026443139702268934	0,70871580873036083
1	0	0	1	0	0	1	365930,06	-0,100000001	1,83825874	-0,00027771058075626688	-0,099973884080827597	0,000183777869	-0,71482543673959846	0,026671098137775814	0,71482543673959846
1	0	0	1	0	0	1	366150,07	-0,100000001	1,82984746	-0,00027771019478804538	-0,099973745133779405	0,00018293671	-0,72093505869926131	0,026899056347564928	0,72093505869926131
1	0	0	1	0	0	1	366370,07	-0,100000001	1,82114995	-0,00027770945472725565	-0,09997347872168023	0,000182066695	-0,72704468003106867	0,027127014533927907	0,72704468003106867
1	0	0	1	0	0	1	366590,08	-0,100000001	1,80892396	-0,00027770964150544669	-0,099973545960534349	0,000180844538	-0,73315429660520883	0,027354972542775923	0,73315429660520883
1	0	0	1	0	0	1	366810,08	-0,100000001	1,7917006	-0,00027771072313644819	-0,099973935340197414	0,000179123366	-0,73926391791498957	0,027582930728317062	0,73926391791498957
1	0	0	1	0	0	1	367030,09	-0,100000001	1,76354837	-0,00027771043200749491	-0,099973830535792218	0,000176308691	-0,7453735529375593	0,027810889425500794	0,7453735529375593
1	0	0	1	0	0	1	367250,09	-0,100000001	1,66835308	-0,0002777097527984944	-0,099973586020604774	0,000166791244	-0,75148317462094016	0,028038847624981446	0,75148317462094016
1	0	0	1	0	0	1	367470,09	-0,100000001	1,54439521	-0,00027770989457848995	-0,099973637062166131	0,000154398804	-0,75759279267405325	0,028266805689011933	0,75759279267405325
1	0	0	1	0	0	1	367690,10	-0,100000001	1,42310762	-0,00027770959500057834	-0,099973529214448794	0,000142273086	-0,76370241597240525	0,028494763948749338	0,76370241597240525
1	0	0	1	0	0	1	367910,10	-0,100000001	1,34086323	-0,00027771119513238467	-0,099974105255462835	0,000134051603	-0,76981204346810291	0,028722722365095354	0,76981204346810291
1	0	0	1	0	0	1	368130,11	-0,100000001	1,26640081	-0,00027771071848066317	-0,099973933664147072	0,000126607076	-0,77592168807371379	0,028950681419835226	0,77592168807371379
1	0	0	1	0	0	1	368350,11	-0,100000001	1,18490028	-0,00027770898224578963	-0,099973308631627558	0,000118458403	-0,78203130419798182	0,029178639411897914	0,78203130419798182
1	0	0	1	0	0	1	368570,12	-0,100000001	1,0917269	-0,0002777104942728248	-0,099973852950879373	0,000109144145	-0,78814092347463475	0,029406597521580314	0,78814092347463475
1	1	0	0	0	0	2	368776,19	0,100000001	1,74476111	0,00027781102322000592	0,10001004267212418	0,000174493631	-0,79275262431572941	0,029578666280459283	0,00055562719958689472
1	1	0	0	0	0	2	368996,19	0,100000001	2,47641587	0,00027781183754197424	0,10001033582064179	0,000247667194	-0,7866407711070976	0,0293506248197712	0,0066674804082185869
1	1	0	0	0	0	2	369216,20	0,100000001	2,48518968	0,00027781287498565181	0,10001070929783155	0,000248545577	-0,78052891259738317	0,029122583161292589	0,012779338917932992
1	1	0	0	0	0	2	369436,20	0,100000001	2,47408891	0,00027781157148877782	0,10001024004799227	0,000247434218	-0,77441704940068557	0,028894541327936333	0,018891202114630909
1	1	0	0	0	0	2	369656,21	0,100000001	2,46369386	0,00027781192264167795	0,10001036646060226	0,00024639492	-0,76830519245495411	0,028666499727812035	0,025003059060362477
1	1	0	0	0	0	2	369876,21	0,100000001	2,45381379	0,00027781179502771958	0,10001032052046182	0,0002454067	-0,76219332415985536	0,028438457704227584	0,031114927355461242
1	1	0	0	0	0	2	370096,21	0,100000001	2,44606996	0,00027781085592053002	0,10000998244372611	0,000244631403	-0,75608146972917619	0,028210416197943261	0,037226781786140486
1	1	0	0	0	0	2	370316,22	0,100000001	2,44353342	0,00027781104947254058	0,10001005212227254	0,000244377909	-0,7499696255370793	0,027982375073674218	0,043338625978237248
1	1	0	0	0	0	2	370536,22	0,100000001	2,44101572	0,00027781086204532115	0,10000998465093699	0,000244125942	-0,74385778049625664	0,027754333917738064	0,04945047101905984
1	1	0	0	0	0	2	370756,23	0,100000001	2,4409585	0,00027781079717642733	0,10000996129625635	0,000244120165	-0,73774594790371174	0,027526293226263898	0,05556230361160471
1	1	0	0	0	0	2	370976,23	0,100000001	2,44042444	0,00027781146220200589	0,1000102007055119	0,000244067342	-0,73163410561426048	0,027298252172985114	0,061674145901055795
1	1	0	0	0	0	2	371196,24	0,100000001	2,44013834	0,00027781118950827254	0,10001010253765813	0,000244038485	-0,72552225465739814	0,027070210796313574	0,067785996857917952
1	1	0	0	0	0	2	371416,24	0,100000001	2,43987131	0,00027781148930597635	0,10001021046275341	0,000244012044	-0,71941040369663168	0,026842169419496365	0,073897847818684621
1	1	0	0	0	0	2	371636,24	0,100000001	2,44151163	0,00027781106289269197	0,10001005695226976	0,000244175724	-0,71329856156692403	0,02661412837217783	0,080009689948392333
1	1	0	0	0	0	2	371856,25	0,100000001	2,44084406	0,00027781117945495581	0,10001009891620528	0,000244109062	-0,70718671629390912	0,026386087207578275	0,086121535221407322
1	1	0	0	0	0	2	372076,25	0,100000001	2,44063425	0,00027781052715331315	0,10000986409097122	0,000244087496	-0,70107486506071987	0,026158045820596608	0,092233386454596634
1	1	0	0	0	0	2	372296,26	0,100000001	2,4425416	0,00027781139123356998	0,10001017515270992	0,000244279014	-0,69496301882975053	0,025930004620254486	0,098345232685565888
1	1	0	0	0	0	2	372516,26	0,100000001	2,44278955	0,00027781136639499002	0,10001016621565029	0,000244303781	-0,68885117375709914	0,025701963463130768	0,10445707775821738
1	1	0	0	0	0	2	372736,26	0,100000001	2,4434762	0,00027781089315563437	0,10000999585276259	0,000244372059	-0,68273933574994906	0,025473922569630397	0,11056891576536738
1	1	0	0	0	0	2	372956,27	0,100000001	2,44593644	0,00027781173257405562	0,10001029803757568	0,00024461883	-0,67662748893637837	0,02524588134755064	0,11668076257893808
1	1	0	0	0	0	2	373176,27	0,100000001	2,4454217	0,00027781031125742525	0,1000097863734408	0,000244566094	-0,67051564802131315	0,025017840345552048	0,12279260349400336
1	1	0	0	0	0	2	373396,28	0,100000001	2,44790101	0,00027781240786198112	0,1000105411342195	0,000244815892	-0,6644037957396544	0,02478979891945057	0,12890445577566237
1	1	0	0	0	0	2	373616,28	0,100000001	2,44893098	0,0002778115091534953	0,100010217604812	0,000244918134	-0,65829193703259942	0,024561757253608922	0,1350163144827175
1	1	0	0	0	0	2	373836,29	0,100000001	2,450495	0,00027781090702199274	0,1000100008398985	0,000245074014	-0,65218008725015782	0,024333715920756598	0,1411281642651592
1	1	0	0	0	0	2	374056,29	0,100000001	2,45196366	0,00027781195907501709	0,10001037957635179	0,000245221803	-0,64606823695777741	0,02410567456887777	0,14724001455753971
1	1	0	0	0	0	2	374276,29	0,100000001	2,45148683	0,00027781065032506986	0,10000990843544256	0,000245172967	-0,63995639122476518	0,023877633387115098	0,1533518602905519
1	1	0	0	0	0	2	374496,30	0,100000001	2,45135331	0,00027781106534103552	0,10001005783831347	0,000245159987	-0,63384454732553075	0,023649592273773139	0,15946370418978662
1	1	0	0	0	0	2	374716,30	0,100000001	2,45106721	0,00027781096948186557	0,10001002332967677	0,00024513129	-0,62773268911686925	0,023421550626527219	0,16557556239844794
1	1	0	0	0	0	2	374936,31	0,100000001	2,45354676	0,00027781167303232678	0,10001027659830902	0,000245379895	-0,62162083052803571	0,023193508965096573	0,17168742098728125
1	1	0	0	0	0	2	375156,31	0,100000001	2,45514894	0,0002778116620389951	0,1000102726419501	0,000245540112	-0,61550897105861274	0,022965467270809952	0,17779928045670458
1	1	0	0	0	0	2	375376,32	0,100000001	2,45324159	0,00027781186803181965	0,1000103467967748	0,00024534954	-0,60939711462066726	0,022737425689631827	0,1839111368946505
1	1	0	0	0	0	2	375596,32	0,100000001	2,44906449	0,00027781253354955053	0,10001058638320179	0,000244932366	-0,60328525470127846	0,022509383978556368	0,1900229968140392
1	1	0	0	0	0	2	375816,32	0,100000001	2,44763398	0,00027781152175946368	0,10001022214578389	0,000244788418	-0,5971733936036951	0,022281342223520896	0,1961348579116225
1	1	0	0	0	0	2	376036,33	0,100000001	2,44631791	0,00027781191126298573	0,1000103623643519	0,000244657131	-0,59106153462575347	0,022053300547572096	0,20224671688956454
1	1	0	0	0	0	2	376256,33	0,100000001	2,44401026	0,00027781179550331494	0,10001032069167286	0,00024442625	-0,58494967825976858	0,021825258969078922	0,20835857325554954
1	1	0	0	0	0	2	376476,34	0,100000001	2,44202662	0,00027781156286969779	0,10001023694052619	0,000244227675	-0,57883781832650189	0,021597217257485664	0,21447043318881616
1	1	0	0	0	0	2	376696,34	0,100000001	2,43857431	0,00027781249928474429	0,10001057404578056	0,000243883216	-0,572725952206808	0,02136917531506849	0,22058229930851008
1	1	0	0	0	0	2	376916,35	0,100000001	2,44149256	0,00027781186243188051	0,10001034478199978	0,000244174502	-0,56661409563133312	0,02114113372875896	0,22669415588398502
1	1	0	0	0	0	2	377136,35	0,100000001	2,43763971	0,00027781112676693338	0,1000100799465539	0,000243788541	-0,56050225447573043	0,020913092717785594	0,23280599703958778
1	1	0	0	0	0	2	377356,35	0,100000001	2,43720102	0,00027781057345246272	0,10000988076183686	0,000243744187	-0,55439041492046938	0,020685051766523123	0,23891783659484928
1	1	0	0	0	0	2	377576,36	0,100000001	2,43313837	0,00027781161544803117	0,10001025587301877	0,000243338785	-0,54827856881404749	0,020457010570828035	0,24502968270127136
1	1	0	0	0	0	2	377796,36	0,100000001	2,43123102	0,00027781106489358675	0,10001005767723502	0,000243147559	-0,54216672015311584	0,020228969279820752	0,25114153136220314
1	1	0	0	0	0	2	378016,37	0,100000001	2,43126917	0,00027781129170747267	0,10001013932866174	0,000243151575	-0,53605486006004301	0,020000927562264912	0,25725339145527594
1	1	0	0	0	0	2	378236,37	0,100000001	2,4264245	0,00027781187027237482	0,10001034760335914	0,000242667564	-0,52994300483540544	0,019772886026356941	0,26336524667991341
1	1	0	0	0	0	2	378456,37	0,100000001	2,43063974	0,00027781049483310845	0,10000985245592154	0,000243087925	-0,52383116002411046	0,019544844878984781	0,26947709149120864
1	1	0	0	0	0	2	378676,38	0,100000001	2,42804575	0,0002778110756787161	0,10001006155514982	0,000242829003	-0,51771932397677779	0,019316804058607834	0,27558892753854125
1	1	0	0	0	0	2	378896,38	0,100000001	2,42943811	0,00027781038522885904	0,10000981300264424	0,000242967653	-0,51160748142843149	0,019088762995669331	0,2817007700868872
1	1	0	0	0	0	2	379116,39	0,100000001	2,42962885	0,00027781093962076637	0,10001001257988803	0,000242987211	-0,5054956547469657	0,018860722524745472	0,28781259676835296
1	1	0	0	0	0	2	379336,39	0,100000001	2,42936182	0,00027781167239944141	0,10001027637513168	0,000242961149	-0,49938380652958054	0,018632681250287507	0,29392444498573798
1	1	0	0	0	0	2	379556,40	0,100000001	2,43382502	0,00027781136190022032	0,10001016459756435	0,000243407238	-0,49327195984251782	0,018404640032927926	0,30003629167280064
1	1	0	0	0	0	2	379776,40	0,100000001	2,44748139	0,00027781039448330797	0,1000098163295247	0,000244772178	-0,48716012346640864	0,018176599200283891	0,30614812804890982
1	1	0	0	0	0	2	379996,40	0,100000001	2,45018983	0,00027781132984823654	0,10001015305557962	0,000245043862	-0,48104828626804224	0,01794855833696033	0,31225996524727622
1	1	0	0	0	0	2	380216,41	0,100000001	2,44923615	0,00027781184078049328	0,1000103369888147	0,000244948926	-0,47493644177517971	0,017720517201469312	0,31837180974013882
1	1	0	0	0	0	2	380436,41	0,100000001	2,45169663	0,00027781111226189469	0,10001007472484054	0,000245194358	-0,46882458730150893	0,017492475693580918	0,32448366421380954
1	1	0	0	0	0	2	380656,42	0,100000001	2,45692277	0,00027781213485946262	0,10001044285753373	0,000245717936	-0,46271272722281274	0,017264433976561491	0,33059552429250573
1	1	0	0	0	0	2	380876,42	0,100000001	2,46068025	0,00027781146266352803	0,10001020087165667	0,000246093114	-0,45660086573664365	0,017036392207027357	0,33670738577867482
1	1	0	0	0	0	2	381096,43	0,100000001	2,46108079	0,00027781122482733594	0,10001011525227611	0,000246132986	-0,45048901160075507	0,01680835071174207	0,34281923991456339
1	1	0	0	0	0	2	381316,43	0,100000001	2,46192002	0,00027781085226105322	0,10000998112633984	0,000246216572	-0,44437715956666598	0,016580309294877754	0,34893109194865248
1	1	0	0	0	0	2	381536,43	0,100000001	2,46575379	0,00027781066819032038	0,10000991486448042	0,00024659984	-0,43826531341672256	0,016352268097558819	0,3550429380985959
1	1	0	0	0	0	2	381756,44	0,100000001	2,46537232	0,00027781186305441789	0,10001034500669104	0,000246562733	-0,43215347354757523	0,016124227134584829	0,36115477796774323
1	1	0	0	0	0	2	381976,44	0,100000001	2,46670747	0,00027781126899768909	0,1000101311486401	0,000246695738	-0,42604162127534739	0,015896185708835229	0,36726663023997107
1	1	0	0	0	0	2	382196,45	0,100000001	2,46491456	0,00027781041635655696	0,10000982420839971	0,000246515672	-0,41992977954016896	0,015668144676237114	0,3733784719751495
1	1	0	0	0	0	2	382416,45	0,100000001	2,46613526	0,0002778104745753937	0,10000984516677739	0,000246637792	-0,41381794535041837	0,015440103925169056	0,3794903061649001
1	1	0	0	0	0	2	382636,46	0,100000001	2,46525788	0,0002778105517530607	0,10000987295020254	0,000246550131	-0,40770610641307994	0,015212062996962109	0,38560214510223853
1	1	0	0	0	0	2	382856,46	0,100000001	2,47118974	0,0002778107066854007	0,10000992872477101	0,0002471435	-0,40159426384796243	0,01498402193339785	0,39171398766735603
1	1	0	0	0	0	2	383076,46	0,100000001	2,47591996	0,00027781053342918557	0,10000986634907752	0,000247616437	-0,39548241921843514	0,014755980792807686	0,39782583229688333
1	1	0	0	0	0	2	383296,47	0,100000001	2,47641587	0,00027781079189230998	0,10000995939517499	0,000247666263	-0,38937056679194099	0,014527939361302205	0,40393768472337747
1	1	0	0	0	0	2	383516,47	0,100000001	2,478266	0,00027781061514384214	0,10000989576811598	0,000247851131	-0,38325871902823571	0,014299898103771645	0,41004953248708275
1	1	0	0	0	0	2	383736,48	0,100000001	2,47836137	0,00027781086188968688	0,1000099845925812	0,00024786088	-0,37714687108708365	0,014071856839620309	0,41616138042823482
1	1	0	0	0	0	2	383956,48	0,100000001	2,48442674	0,00027781024805249443	0,10000976362010382	0,000248466939	-0,37103503748882042	0,01384381611062144	0,42227321402649805
1	1	0	0	0	0	2	384176,49	0,100000001	2,48576188	0,0002778115354387297	0,10001022707022482	0,000248601602	-0,36492319920691162	0,013615775206869453	0,42838505230840685
1	1	0	0	0	0	2	384396,49	0,100000001	2,48299623	0,00027781181685336765	0,10001032837754382	0,000248325261	-0,35881134265484307	0,013387733621433246	0,43449690886047539
1	1	0	0	0	0	2	384616,49	0,100000001	2,48648667	0,00027781226464526522	0,10001048957486602	0,00024867474	-0,35269947694383514	0,013159691694264694	0,44060877457148333
1	1	0	0	0	0	2	384836,50	0,100000001	2,48707771	0,00027781234275135731	0,10001051769484626	0,000248733937	-0,34658760630491494	0,01293164958322911	0,44672064521040358
1	1	0	0	0	0	2	385056,50	0,100000001	2,49032021	0,00027781061413925558	0,10000989540647176	0,000249056669	-0,34047575512071814	0,012703608198075413	0,45283249639460032
1	1	0	0	0	0	2	385276,51	0,100000001	2,49304771	0,00027781016244697901	0,10000973279805469	0,000249329023	-0,33436392100446458	0,012475567449749627	0,45894433051085389
1	1	0	0	0	0	2	385496,51	0,100000001	2,49411583	0,00027781090109546979	0,10000999871104829	0,000249436533	-0,3282520911285737	0,012247526859637474	0,46505616038674477
1	1	0	0	0	0	2	385716,51	0,100000001	2,49552727	0,00027781052725472384	0,10000986413097109	0,000249577337	-0,32214025546319994	0,012019486053511928	0,47116799605211859
1	1	0	0	0	0	2	385936,52	0,100000001	2,49632835	0,00027781075940156976	0,10000994770222646	0,000249657664	-0,31602841814842131	0,011791445185844874	0,47727983336689715
1	1	0	0	0	0	2	386156,52	0,100000001	2,49733925	0,00027781060947229466	0,10000989372872669	0,000249758625	-0,30991657766215194	0,011563404199845232	0,48339167385316653
1	1	0	0	0	0	2	386376,53	0,100000001	2,49680519	0,00027781148872772851	0,10001021025225968	0,000249706005	-0,30380474177482618	0,011335363385438362	0,48950350974049229
1	1	0	0	0	0	2	386596,53	0,100000001	2,50052452	0,00027781061887534131	0,10000989711201192	0,000250077195	-0,2976928968471415	0,011107322233723542	0,49561535466817696
1	1	0	0	0	0	2	386816,54	0,100000001	2,50130653	0,00027781057683999344	0,10000988197666746	0,000250155368	-0,29158105853377837	0,010879281328797955	0,5017271929815399
1	1	0	0	0	0	2	387036,54	0,100000001	2,5017643	0,00027781059576322634	0,10000988879355712	0,000250201178	-0,28546922093666365	0,01065124045059656	0,50783903057865498
1	1	0	0	0	0	2	387256,54	0,100000001	2,50216484	0,00027781190299780835	0,10001035938894536	0,000250242418	-0,2793573642833152	0,010423198861381461	0,51395088723200352
1	1	0	0	0	0	2	387476,55	0,100000001	2,50355721	0,00027781174680590627	0,10001030316094328	0,000250381505	-0,27324550265643648	0,010195157086597262	0,52006274885888262
1	1	0	0	0	0	2	387696,55	0,100000001	2,50416756	0,00027781173820255526	0,10001030006379656	0,000250442536	-0,26713365235582176	0,0099671157344112	0,52617459915949715
1	1	0	0	0	0	2	387916,56	0,100000001	2,50580788	0,00027781176459127002	0,10001030955889394	0,000250606623	-0,26102179478972381	0,0097390741111401907	0,53228645672559514
1	1	0	0	0	0	2	388136,56	0,100000001	2,50714302	0,00027781178034096957	0,10001031523100512	0,000250740151	-0,25490993791328848	0,0095110325136014221	0,53839831360203059
1	1	0	0	0	0	2	388356,57	0,100000001	2,50807762	0,00027781192579451536	0,10001036759327334	0,000250833778	-0,24879808596504083	0,0092829910999399616	0,54451016555027808
1	1	0	0	0	0	2	388576,57	0,100000001	2,50916481	0,00027781218433214557	0,10001046066269966	0,000250942714	-0,24268622914844643	0,0090549495046339366	0,55062202236687238
1	1	0	0	0	0	2	388796,57	0,100000001	2,5092411	0,00027781077613226243	0,10000995372515984	0,000250949088	-0,23657437762250477	0,00882690810672928	0,55673387389281395
1	1	0	0	0	0	2	389016,58	0,100000001	2,51185417	0,00027781091397214269	0,10001000334656128	0,000251210557	-0,23046253639029808	0,0085988670928977152	0,56284571512502048
1	1	0	0	0	0	2	389236,58	0,100000001	2,51164436	0,0002778107165317568	0,10000993226939096	0,000251189369	-0,22435069603699456	0,008370826111859209	0,56895755547832403
1	1	0	0	0	0	2	389456,59	0,100000001	2,51135826	0,00027781161355434192	0,10001025518664675	0,000251161575	-0,21823885047494426	0,0081427849364753574	0,57506940104037466
1	1	0	0	0	0	2	389676,59	0,100000001	2,514925	0,00027781179382196736	0,10001032008407086	0,000251518446	-0,21212699267218403	0,0079147433043741619	0,58118125884313472
1	1	0	0	0	0	2	389896,60	0,100000001	2,51103401	0,00027781130471246109	0,10001014400687469	0,000251128862	-0,20601514165687037	0,0076867019255217203	0,58729310985844851
1	1	0	0	0	0	2	390116,60	0,100000001	2,51206398	0,00027781172350835466	0,10001029476932918	0,000251232268	-0,19990328685162067	0,0074586604052616717	0,59340496466369843
1	1	0	0	0	0	2	390336,60	0,100000001	2,51204491	0,00027781134669234355	0,10001015912283414	0,000251229998	-0,19379143649504842	0,0072306190509877606	0,59951681502027059
1	1	0	0	0	0	2	390556,61	0,100000001	2,51690865	0,00027781201682239776	0,10001040036500854	0,000251717051	-0,18767958379436592	0,0070025776092519424	0,60562866772095322
1	1	0	0	0	0	2	390776,61	0,100000001	2,51730919	0,00027781130356217424	0,10001014359627216	0,000251756457	-0,18156772999048832	0,0067745361263544333	0,61174052152483072
1	1	0	0	0	0	2	390996,62	0,100000001	2,51900673	0,00027781072173433168	0,10000993414228184	0,000251925696	-0,17545587782741062	0,0065464947046773747	0,61785237368790861
1	1	0	0	0	0	2	391216,62	0,100000001	2,51969337	0,00027781277614128259	0,10001067370988675	0,000251996244	-0,16934402062304701	0,0063184530949031603	0,62396423089227187
1	1	0	0	0	0	2	391436,62	0,100000001	2,51173973	0,00027781225080663955	0,10001048459422096	0,000251200312	-0,16323215990628064	0,0060904113540764762	0,63007609160903795
1	1	0	0	0	0	2	391656,63	0,100000001	2,50754356	0,00027781205709319974	0,10001041485756112	0,00025078046	-0,15712029631047171	0,0058623695058288422	0,63618795520484685
1	1	0	0	0	0	2	391876,63	0,100000001	2,5039959	0,00027781160140741203	0,1000102508184932	0,000250425248	-0,15100843726650637	0,0056343278274166144	0,64229981424881216
1	1	0	0	0	0	2	392096,64	0,100000001	2,50294685	0,00027780989654983082	0,10000963708158141	0,000250318815	-0,14489659598639914	0,0054062868117978163	0,6484116555289193
1	1	0	0	0	0	2	392316,64	0,100000001	2,5036335	0,00027781130354727309	0,10001014359090782	0,000250388752	-0,13878475132750787	0,0051782456701120422	0,65452350018781069
1	1	0	0	0	0	2	392536,65	0,100000001	2,49915123	0,0002778108461594416	0,10000997893445894	0,000249940058	-0,13267290996810243	0,0049502046515345203	0,66063534154721613
1	1	0	0	0	0	2	392756,65	0,100000001	2,49943733	0,00027781142123747203	0,10001018595390667	0,000249969191	-0,12656105973357486	0,0047221633018142598	0,66674719178174374
1	1	0	0	0	0	2	392976,65	0,100000001	2,50260353	0,00027781207931041718	0,10001042285444114	0,000250286452	-0,12044919536674296	0,0044941214247987232	0,67285905614857549
1	1	0	0	0	0	2	393196,66	0,100000001	2,50691414	0,00027781270914276438	0,10001064959321312	0,00025071812	-0,11433732628054858	0,0042660793716974278	0,67897092523476992
1	1	0	0	0	0	2	393416,66	0,100000001	2,51202583	0,00027781277079011002	0,10001067178350173	0,000251229387	-0,10822546073406626	0,0040380374506675469	0,6850827907812521
1	1	0	0	0	0	2	393636,67	0,100000001	2,51889229	0,00027781176228697101	0,10001030873401926	0,000251915189	-0,10211359024382032	0,0038099953451792	0,69119466127149798
1	1	0	0	0	0	2	393856,67	0,100000001	2,52266884	0,00027781170769532525	0,10001028908140518	0,000252292841	-0,096001724682795738	0,003581953423606729	0,69730652683252275
1	1	0	0	0	0	2	394076,68	0,100000001	2,5250721	0,00027781180857991178	0,10001032539915706	0,000252533297	-0,089889862104849472	0,003353911613336921	0,70341838941046899
1	1	0	0	0	0	2	394296,68	0,100000001	2,51908302	0,00027781194586927693	0,10001037481771987	0,000251934427	-0,083778001852455027	0,0031258698898365779	0,70953024966286362
1	1	0	0	0	0	2	394516,68	0,100000001	2,5109005	0,00027781250023634893	0,10001057438602312	0,000251116609	-0,077666141143500992	0,002897828149301383	0,71564211037181773
1	1	0	0	0	0	2	394736,69	0,100000001	2,50992775	0,00027781295451935792	0,10001073792592168	0,000251019723	-0,071554269841840909	0,0026697860135380826	0,72175398167347776
1	1	0	0	0	0	2	394956,69	0,100000001	2,51004219	0,00027781303465614717	0,10001076677344606	0,000251031248	-0,065442395443831283	0,0024417437622458179	0,72786585607148736
1	1	0	0	0	0	2	395176,70	0,100000001	2,50819206	0,00027781259979597395	0,10001061023145502	0,000250845827	-0,059330508252962394	0,0022137010336347744	0,7339777432623561
1	1	0	0	0	0	2	395396,70	0,100000001	2,50491142	0,00027781140981738765	0,10001018184741245	0,000250516634	-0,053218644024917869	0,0019856591617975811	0,74008960749040077
1	1	0	0	0	0	2	395616,71	0,100000001	2,50460625	0,00027781179502523613	0,10001032051956778	0,000250486482	-0,047106783523272947	0,0017576174289973677	0,7462014679920457
1	1	0	0	0	0	2	395836,71	0,100000001	2,50950813	0,00027781153922155498	0,10001022843201571	0,000250976474	-0,040994924918499898	0,0015295757669719942	0,75231332659681869
1	1	0	0	0	0	2	396056,71	0,100000001	2,51168251	0,00027781207664310934	0,10001042189539306	0,000251194433	-0,034883065425449574	0,0013015340718038013	0,75842518608986906
1	1	0	0	0	0	2	396276,72	0,100000001	2,51292229	0,00027781227339762778	0,10001049272682013	0,00025131859	-0,028771197255383152	0,0010734920528844712	0,76453705425993549
1	1	0	0	0	0	2	396496,72	0,100000001	2,51849174	0,00027781194931806787	0,10001037606158922	0,000251875317	-0,02265933597280231	0,00084545029094648858	0,77064891554251622
1	1	0	0	0	0	2	396716,73	0,100000001	2,51805305	0,0002778111261961361	0,10001007974107086	0,000251830701	-0,016547488253041075	0,00061740903505554086	0,77676076326227738
1	1	0	0	0	0	2	396936,73	0,100000001	2,52398491	0,00027781143589028058	0,10001019123347317	0,000252424215	-0,010435630571285685	0,00038936740746919712	0,78287262094403264
1	1	0	0	0	0	2	397156,74	0,100000001	2,52318382	0,00027781209640411869	0,10001042901387646	0,000252344704	-0,0043237716908701248	0,00016132573515923085	0,78898447982444838
1	1	0	0	0	0	2	397376,74	0,100000001	2,52436638	0,00027781163069771398	0,10001026136279886	0,000252462545	0,0017880834421132522	-6,6715797329002189E-005	0,79509633495743181
1	1	0	0	0	0	2	397596,74	0,100000001	2,52961135	0,00027781164791807536	0,10001026755735259	0,000252987113	0,0078999425755430771	-0,00029475747907927085	0,80120819409086157
1	1	0	0	0	0	2	397816,75	0,100000001	2,5330255	0,00027781219699978829	0,10001046522529171	0,000253329054	0,01401181255073327	-0,00052279956535019584	0,80732006406605184
1	1	0	0	0	0	2	398036,75	0,100000001	2,53701186	0,0002778117702835136	0,10001031161039067	0,000253727339	0,020123681174676646	-0,00075084160120428518	0,81343193268999488
1	1	0	0	0	0	2	398256,76	0,100000001	2,54147506	0,00027781167205133373	0,10001027624515834	0,000254173618	0,026235542932258496	-0,00097888338086519398	0,81954379444757683
1	1	0	0	0	0	2	398476,76	0,100000001	2,54496551	0,00027781195132724115	0,10001037678720616	0,000254522951	0,032347405397382656	-0,0012069251869254579	0,82565565691270118
1	1	0	0	0	0	2	398696,76	0,100000001	2,5472734	0,00027781161210603181	0,10001025466992216	0,000254753453	0,038459265981411546	-0,0014349669227995282	0,83176751749673011
1	1	0	0	0	0	2	398916,77	0,100000001	2,548208	0,00027781192405149341	0,10001036696812603	0,000254847226	0,044571124854705581	-0,0016630085948437805	0,83787937637002406
1	1	0	0	0	0	2	399136,77	0,100000001	2,54986739	0,00027781152048872579	0,10001022168832704	0,000255012797	0,050682987239541875	-0,0018910503979083962	0,84399123875486042
1	1	0	0	0	0	2	399356,78	0,100000001	2,54990554	0,00027781197359164554	0,10001038479990891	0,000255017047	0,056794841890411437	-0,0021190919124083149	0,85010309340572992
1	1	0	0	0	0	2	399576,78	0,100000001	2,55207992	0,00027781183551003539	0,10001033509032214	0,000255234365	0,062906692600490931	-0,0023471332798720573	0,85621494411580928
1	1	0	0	0	0	2	399796,79	0,100000001	2,55377746	0,00027781202835217114	0,10001040451099005	0,000255404302	0,069018556255398323	-0,0025751751303247331	0,86232680777071654
1	1	0	0	0	0	2	400016,79	0,100000001	2,55515075	0,00027781163360923526	0,10001026241092637	0,000255541294	0,075130411165970227	-0,002803216654514495	0,86843866268128858
1	1	0	0	0	0	2	400236,79	0,100000001	2,55793548	0,00027781193855239286	0,10001037218834934	0,000255820079	0,081242272668798502	-0,0030312584246702061	0,87455052418411674
1	1	0	0	0	0	2	400456,80	0,100000001	2,55997634	0,00027781108509376643	0,1000100649491597	0,000256023399	0,08735413110429353	-0,0032593000803795885	0,88066238261961178
1	1	0	0	0	0	2	400676,80	0,100000001	2,55190825	0,0002778137162278096	0,10001101213917717	0,00025521894	0,093465995288968653	-0,0034873419505986106	0,88677424680428685
1	1	0	0	0	0	2	400896,81	0,100000001	2,55322433	0,00027781189937434262	0,10001035807986581	0,000255348888	0,099577859851581901	-0,0037153838349190131	0,89288611136690022
1	1	0	0	0	0	2	401116,81	0,100000001	2,55328155	0,0002778121699326568	0,10001045548014776	0,000255354855	0,1056897207665867	-0,0039434255831422387	0,89899797228190528
1	1	0	0	0	0	2	401336,82	0,100000001	2,55541778	0,0002778120418269601	0,10001040936414917	0,00025556839	0,11180158640180214	-0,0041714675074828704	0,90510983791712077
1	1	0	0	0	0	2	401556,82	0,100000001	2,55768752	0,00027781227265008621	0,10001049245654608	0,000255795574	0,11791345684377864	-0,0043995096111702208	0,91122170835909722
1	1	0	0	0	0	2	401776,82	0,100000001	2,55909896	0,00027781236432948048	0,10001052546514954	0,000255936844	0,12402532288028438	-0,0046275515504835334	0,9173335743956032
1	1	0	0	0	0	2	401996,83	0,100000001	2,55925155	0,00027781164497012893	0,10001026650076933	0,000255951425	0,13013719034618526	-0,0048555935431294995	0,923445441861504
1	1	0	0	0	0	2	402216,83	0,100000001	2,56428695	0,00027781236352730131	0,10001052517637059	0,000256455678	0,13624906381988456	-0,005083635759934503	0,92955731533520346
1	1	0	0	0	0	2	402436,84	0,100000001	2,568712	0,00027781290161526867	0,100010718879652	0,000256898726	0,14236094242705582	-0,005311678168276247	0,93566919394237453
1	1	0	0	0	0	2	402656,84	0,100000001	2,57224035	0,0002778127377960417	0,10001065990819435	0,000257251464	0,14847282396893542	-0,0055397206861159059	0,94178107548425421
1	1	0	0	0	0	2	402876,85	0,100000001	2,57498693	0,00027781211890528602	0,10001043711064797	0,000257525564	0,15458469673529101	-0,0057677628765289638	0,94789294825060979
1	1	0	0	0	0	2	403096,85	0,100000001	2,57658911	0,00027781215666689811	0,1000104507034023	0,000257685839	0,16069657389395142	-0,0059958052308248205	0,95400482540926989
1	1	0	0	0	0	2	403316,85	0,100000001	2,58227301	0,00027781310325985152	0,10001079147496114	0,000258255168	0,1668084379570368	-0,0062238470965071667	0,96011668947235507
1	1	0	0	0	0	2	403536,86	0,100000001	2,586164	0,00027781205787675245	0,10001041514429168	0,000258643326	0,17292030269024138	-0,0064518889871925606	0,96622855420556006
1	1	0	0	0	0	2	403756,86	0,100000001	2,58707952	0,00027781290777151786	0,10001072110051605	0,000258735701	0,17903217357018371	-0,0066799311072210048	0,97234042508550221
1	1	0	0	0	0	2	403976,87	0,100000001	2,59394598	0,00027781283376779818	0,10001069445968995	0,000259422348	0,18514405341901866	-0,0069079735618908902	0,97845230493433715
1	1	0	0	0	0	2	404196,87	0,100000001	2,60315847	0,00027781329173594717	0,10001085932039208	0,000260344124	0,19125594720350198	-0,0071360165365185523	0,98456419871882074
1	1	0	0	0	0	2	404416,87	0,100000001	2,60464621	0,00027781313311143053	0,10001080221782989	0,000260492758	0,19736782871249059	-0,0073640590531310054	0,99067608022780928
1	1	0	0	0	0	2	404636,88	0,100000001	2,61212277	0,0002778130476358864	0,10001077144839075	0,000261240406	0,2034797084068808	-0,0075921015020383501	0,99678795992219942
1	1	0	0	0	0	2	404756,16	0,100000001	2,61586118	0,00025781027547683984	0,10001052599630314	0,000261613663	0,20679345324439251	-0,0077157417773032307	1,0001017047597112