File: Experimentelles/Rohdaten/Batterietests/AlteZelle/Studenten_Batterietests/SemArbeitToph/ECLab-Export/Al_rein_02_02_OCV_C01.mpt
EC-Lab ASCII FILE
Nb header lines : 43

Open Circuit Voltage

Run on channel : 1 (SN 6985)
Grouped channel(s) : 1
User :
CE vs. WE compliance from -10 V to 10 V
Electrode connection : standard
Ewe ctrl range : min = -10,00 V, max = 10,00 V
Acquisition started on : 03.13.2015 16:19:02
Saved on :
	File : Al_rein_02_02_OCV_C01.mpr
	Directory : C:\Hupfer\Studenten Batterietests\SemArbeitToph\
	Host : 192.168.0.2
Device : VMP3 (SN 0324)
Address : 192.168.0.1
EC-Lab for windows v10.33 (software)
Internet server v10.33 (firmware)
Command interpretor v10.32 (firmware)
Electrode material :
Initial state :
Electrolyte :
Comments :
Mass of active material : 0,001 mg
 at x = 0,000
Molecular weight of active material (at x = 0) : 0,001 g/mol
Atomic weight of intercalated ion : 0,001 g/mol
Acquisition started at : xo = 0,000
Number of e- transfered per intercalated ion : 1
for DX = 1, DQ = 26,801 mA.h
Battery capacity : 0,000 A.h
Electrode surface area : 0,001 cm²
Characteristic mass : 0,001 g
tR (h:m:s)          0:10:0,0000
dER/dt (mV/h)       1,0
dER (mV)            1,00
dtR (s)             0,5000
E range min (V)     -10,000
E range max (V)     10,000

mode	error	time/s	Ewe/V
3	0	20708,3115	4,20217228
3	0	20708,8115	4,20230579
3	0	20709,3115	4,20224857
3	0	20709,8115	4,20253515
3	0	20710,3115	4,20240164
3	0	20710,8115	4,20234394
3	0	20711,3115	4,20232487
3	0	20711,8115	4,20230579
3	0	20712,3115	4,20234394
3	0	20712,8115	4,20243979
3	0	20713,3115	4,20242071
3	0	20713,8115	4,20266867
3	0	20714,3115	4,20234394
3	0	20714,8115	4,20264959
3	0	20715,3115	4,20264959
3	0	20715,8115	4,20305061
3	0	20716,3115	4,20284081
3	0	20716,8115	4,20303154
3	0	20717,3115	4,2029171
3	0	20717,8115	4,20305061
3	0	20718,3115	4,20272589
3	0	20718,8115	4,20306969
3	0	20719,3115	4,20295525
3	0	20719,8115	4,20314598
3	0	20720,3115	4,20310783
3	0	20720,8115	4,20341349
3	0	20721,3115	4,2038908
3	0	20721,8115	4,20362377
3	0	20722,3115	4,20371914
3	0	20722,8115	4,20352793
3	0	20723,3115	4,20350885
3	0	20723,8115	4,20373821
3	0	20724,3115	4,20364285
3	0	20724,8115	4,2038908
3	0	20725,3115	4,20392895
3	0	20725,8115	4,20364285
3	0	20726,3115	4,20339441
3	0	20726,8115	4,20347071
3	0	20727,3115	4,20352793
3	0	20727,8115	4,20356607
3	0	20728,3115	4,203547
3	0	20728,8115	4,20331812
3	0	20729,3115	4,20339441
3	0	20729,8115	4,20327997
3	0	20730,3115	4,203547
3	0	20730,8115	4,20352793
3	0	20731,3115	4,20348978
3	0	20731,8115	4,20333719
3	0	20732,3115	4,20339441
3	0	20732,8115	4,203547
3	0	20733,3115	4,20352793
3	0	20733,8115	4,20339441
3	0	20734,3115	4,203547
3	0	20734,8115	4,20343256
3	0	20735,3115	4,20350885
3	0	20735,8115	4,20350885
3	0	20736,3115	4,20339441
3	0	20736,8115	4,20385265
3	0	20737,3115	4,20348978
3	0	20737,8115	4,20364285
3	0	20738,3115	4,20381451
3	0	20738,8115	4,20400524
3	0	20739,3115	4,20383358
3	0	20739,8115	4,20406294
3	0	20740,3115	4,20408201
3	0	20740,8115	4,20408201
3	0	20741,3115	4,20400524
3	0	20741,8115	4,20417738
3	0	20742,3115	4,20385265
3	0	20742,8115	4,20375729
3	0	20743,3115	4,20362377
3	0	20743,8115	4,20345163
3	0	20744,3115	4,20377636
3	0	20744,8115	4,20360422
3	0	20745,3115	4,20381451
3	0	20745,8115	4,20377636
3	0	20746,3115	4,20379543
3	0	20746,8115	4,20381451
3	0	20747,3115	4,20408201
3	0	20747,8115	4,20381451
3	0	20748,3115	4,20345163
3	0	20748,8115	4,20375729
3	0	20749,3115	4,20368099
3	0	20749,8115	4,20358515
3	0	20750,3115	4,20368099
3	0	20750,8115	4,20364285
3	0	20751,3115	4,20366192
3	0	20751,8115	4,20390987
3	0	20752,3115	4,20366192
3	0	20752,8115	4,20400524
3	0	20753,3115	4,20385265
3	0	20753,8115	4,20419645
3	0	20754,3115	4,2038908
3	0	20754,8115	4,20398617
3	0	20755,3115	4,20450211
3	0	20755,8115	4,2038908
3	0	20756,3115	4,20398617
3	0	20756,8115	4,20434904
3	0	20757,3115	4,20450211
3	0	20757,8115	4,20444441
3	0	20758,3115	4,2045784
3	0	20758,8115	4,20467377
3	0	20759,3115	4,20452118
3	0	20759,8115	4,20469284
3	0	20760,3115	4,20446348
3	0	20760,8115	4,20442533
3	0	20761,3115	4,20454025
3	0	20761,8115	4,20467377
3	0	20762,3115	4,20438719
3	0	20762,8115	4,20444441
3	0	20763,3115	4,20452118
3	0	20763,8115	4,20452118
3	0	20764,3115	4,20461655
3	0	20764,8115	4,20454025
3	0	20765,3115	4,20455933
3	0	20765,8115	4,20490313
3	0	20766,3115	4,20526552
3	0	20766,8115	4,2048645
3	0	20767,3115	4,2049222
3	0	20767,8115	4,20541859
3	0	20768,3115	4,2052083
3	0	20768,8115	4,20538044
3	0	20769,3115	4,20499849
3	0	20769,8115	4,2055521
3	0	20770,3115	4,20545673
3	0	20770,8115	4,20570469
3	0	20771,3115	4,20629692
3	0	20771,8115	4,20635414
3	0	20772,3115	4,20650673
3	0	20772,8115	4,20625877
3	0	20773,3115	4,20665979
3	0	20773,8115	4,20669794
3	0	20774,3115	4,20700312
3	0	20774,8115	4,20654488
3	0	20775,3115	4,20625877
3	0	20775,8115	4,20650673
3	0	20776,3115	4,20633507
3	0	20776,8115	4,20671701
3	0	20777,3115	4,20635414
3	0	20777,8115	4,20669794
3	0	20778,3115	4,20627785
3	0	20778,8115	4,20641136
3	0	20779,3115	4,20688868
3	0	20779,8115	4,20704174
3	0	20780,3115	4,20681238
3	0	20780,8115	4,20709896
3	0	20781,3115	4,20730877
3	0	20781,8115	4,20738506
3	0	20782,3115	4,20696497
3	0	20782,8115	4,2068696
3	0	20783,3115	4,20698404
3	0	20783,8115	4,20709896
3	0	20784,3115	4,20677423
3	0	20784,8115	4,20707989
3	0	20785,3115	4,20707989
3	0	20785,8115	4,20688868
3	0	20786,3115	4,20700312
3	0	20786,8115	4,20690775
3	0	20787,3115	4,20692682
3	0	20787,8115	4,20719433
3	0	20788,3115	4,20704174
3	0	20788,8115	4,20711803
3	0	20789,3115	4,20727062
3	0	20789,8115	4,20730877
3	0	20790,3115	4,20700312
3	0	20790,8115	4,20706081
3	0	20791,3115	4,20727062
3	0	20791,8115	4,2076335
3	0	20792,3115	4,20748091
3	0	20792,8115	4,20748091
3	0	20793,3115	4,2075572
3	0	20793,8115	4,20702267
3	0	20794,3115	4,20719433
3	0	20794,8115	4,20725155
3	0	20795,3115	4,20702267
3	0	20795,8115	4,20725155
3	0	20796,3115	4,20700312
3	0	20796,8115	4,20748091
3	0	20797,3115	4,20780516
3	0	20797,8115	4,20740414
3	0	20798,3115	4,20725155
3	0	20798,8115	4,20761442
3	0	20799,3115	4,20746183
3	0	20799,8115	4,2078433
3	0	20800,3115	4,20778608
3	0	20800,8115	4,20774794
3	0	20801,3115	4,20788193
3	0	20801,8115	4,20792007
3	0	20802,3115	4,20774794
3	0	20802,8115	4,20759535
3	0	20803,3115	4,20780516
3	0	20803,8115	4,20801544
3	0	20804,3115	4,20792007
3	0	20804,8115	4,20809174
3	0	20805,3115	4,20820618
3	0	20805,8115	4,20830202
3	0	20806,3115	4,20822525
3	0	20806,8115	4,20811081
3	0	20807,3115	4,20822525
3	0	20807,8115	4,20809174
3	0	20808,3115	4,20809174
3	0	20808,8115	4,20835924
3	0	20809,3115	4,20862627
3	0	20809,8115	4,20854998
3	0	20810,3115	4,20851183
3	0	20810,8115	4,20862627
3	0	20811,3115	4,20872164
3	0	20811,8115	4,20874119
3	0	20812,3115	4,20876026
3	0	20812,8115	4,20898914
3	0	20813,3115	4,20925665
3	0	20813,8115	4,20893192
3	0	20814,3115	4,20897007
3	0	20814,8115	4,20904636
3	0	20815,3115	4,20912266
3	0	20815,8115	4,20891285
3	0	20816,3115	4,20942831
3	0	20816,8115	4,2092948
3	0	20817,3115	4,20914173
3	0	20817,8115	4,20927572
3	0	20818,3115	4,20931387
3	0	20818,8115	4,20935202
3	0	20819,3115	4,2092948
3	0	20819,8115	4,2096386
3	0	20820,3115	4,20952368
3	0	20820,8115	4,20961952
3	0	20821,3115	4,20961952
3	0	20821,8115	4,20956182
3	0	20822,3115	4,20965767
3	0	20822,8115	4,20971489
3	0	20823,3115	4,20973396
3	0	20823,8115	4,2098484
3	0	20824,3115	4,2096386
3	0	20824,8115	4,2098484
3	0	20825,3115	4,20973396
3	0	20825,8115	4,20967674
3	0	20826,3115	4,20973396
3	0	20826,8115	4,20965767
3	0	20827,3115	4,20975304
3	0	20827,8115	4,20979118
3	0	20828,3115	4,20969582
3	0	20828,8115	4,20990562
3	0	20829,3115	4,2096386
3	0	20829,8115	4,20965767
3	0	20830,3115	4,20954275
3	0	20830,8115	4,20965767
3	0	20831,3115	4,20994377
3	0	20831,8115	4,20979118
3	0	20832,3115	4,20986748
3	0	20832,8115	4,20998192
3	0	20833,3115	4,21009684
3	0	20833,8115	4,21009684
3	0	20834,3115	4,21024942
3	0	20834,8115	4,21017313
3	0	20835,3115	4,21021128
3	0	20835,8115	4,21021128
3	0	20836,3115	4,21007776
3	0	20836,8115	4,2101922
3	0	20837,3115	4,21003962
3	0	20837,8115	4,20998192
3	0	20838,3115	4,21007776
3	0	20838,8115	4,21009684
3	0	20839,3115	4,21011591
3	0	20839,8115	4,21013498
3	0	20840,3115	4,21023035
3	0	20840,8115	4,20998192
3	0	20841,3115	4,21007776
3	0	20841,8115	4,2101922
3	0	20842,3115	4,2102685
3	0	20842,8115	4,21021128
3	0	20843,3115	4,21011591
3	0	20843,8115	4,21003962
3	0	20844,3115	4,21021128
3	0	20844,8115	4,21030664
3	0	20845,3115	4,21023035
3	0	20845,8115	4,21051693
3	0	20846,3115	4,21021128
3	0	20846,8115	4,2101922
3	0	20847,3115	4,21030664
3	0	20847,8115	4,21028757
3	0	20848,3115	4,21002054
3	0	20848,8115	4,21009684
3	0	20849,3115	4,21036386
3	0	20849,8115	4,21017313
3	0	20850,3115	4,2102685
3	0	20850,8115	4,21021128
3	0	20851,3115	4,21044064
3	0	20851,8115	4,21036386
3	0	20852,3115	4,21036386
3	0	20852,8115	4,21042109
3	0	20853,3115	4,21040201
3	0	20853,8115	4,21055508
3	0	20854,3115	4,21024942
3	0	20854,8115	4,21044064
3	0	20855,3115	4,21057415
3	0	20855,8115	4,21074581
3	0	20856,3115	4,21076488
3	0	20856,8115	4,21086073
3	0	20857,3115	4,2109561
3	0	20857,8115	4,21099424
3	0	20858,3115	4,21093702
3	0	20858,8115	4,21118498
3	0	20859,3115	4,21112776
3	0	20859,8115	4,2112999
3	0	20860,3115	4,21108961
3	0	20860,8115	4,21112776
3	0	20861,3115	4,21120405
3	0	20861,8115	4,21112776
3	0	20862,3115	4,21103239
3	0	20862,8115	4,2112422
3	0	20863,3115	4,21147156
3	0	20863,8115	4,21152878
3	0	20864,3115	4,21139526
3	0	20864,5955	4,21038294
3	0	20864,6155	4,20935202
3	0	20865,1155	4,20927572
3	0	20865,6155	4,20870256
3	0	20866,1155	4,20876026
3	0	20866,6155	4,20889378
3	0	20867,1155	4,20864534
3	0	20867,6155	4,20866442
3	0	20868,1155	4,20891285
3	0	20868,6155	4,20910358
3	0	20869,1155	4,20933294
3	0	20869,6155	4,2092185
3	0	20870,1155	4,20933294
3	0	20870,6155	4,20940924
3	0	20871,1155	4,20927572
3	0	20871,6155	4,20919943
3	0	20872,1155	4,20931387
3	0	20872,6155	4,20919943
3	0	20873,1155	4,20971489
3	0	20873,6155	4,20939016
3	0	20874,1155	4,20954275
3	0	20874,6155	4,20939016
3	0	20875,1155	4,20952368
3	0	20875,6155	4,2092185
3	0	20876,1155	4,20916128
3	0	20876,6155	4,20919943
3	0	20877,1155	4,20946646
3	0	20877,6155	4,20954275
3	0	20878,1155	4,20935202
3	0	20878,6155	4,20927572
3	0	20879,1155	4,20939016
3	0	20879,6155	4,20958138
3	0	20880,1155	4,2092948
3	0	20880,6155	4,20942831
3	0	20881,1155	4,20927572
3	0	20881,6155	4,20912266
3	0	20881,8603	4,21013498
3	0	20882,3603	4,21015406
3	0	20882,8603	4,20981026
3	0	20883,3603	4,20969582
3	0	20883,8603	4,20982933
3	0	20884,3603	4,20982933
3	0	20884,8603	4,2098484
3	0	20885,3603	4,2096386
3	0	20885,8603	4,20990562
3	0	20886,3603	4,20979118
3	0	20886,8603	4,20994377
3	0	20887,3603	4,20986748
3	0	20887,8603	4,20994377
3	0	20888,3603	4,21015406
3	0	20888,8603	4,21038294
3	0	20889,3603	4,21023035
3	0	20889,8603	4,2102685
3	0	20890,3603	4,21032572
3	0	20890,8603	4,21044064
3	0	20891,3603	4,210536
3	0	20891,8603	4,21021128
3	0	20892,3603	4,21024942
3	0	20892,8603	4,21042109
3	0	20893,3603	4,2106123
3	0	20893,8603	4,21080303
3	0	20894,3603	4,21040201
3	0	20894,8603	4,21040201
3	0	20895,3603	4,21040201
3	0	20895,8603	4,21057415
3	0	20896,3603	4,21063137
3	0	20896,8603	4,21015406
3	0	20897,3603	4,21057415
3	0	20897,8603	4,2106123
3	0	20898,3603	4,210536
3	0	20898,8603	4,21066952
3	0	20899,3603	4,21074581
3	0	20899,8603	4,21074581
3	0	20900,3603	4,21080303
3	0	20900,8603	4,21089888
3	0	20901,3603	4,21084118
3	0	20901,8603	4,21059322
3	0	20902,3603	4,21076488
3	0	20902,8603	4,21070766
3	0	20903,3603	4,21091795
3	0	20903,8603	4,21086073
3	0	20904,3603	4,21093702
3	0	20904,8603	4,21101332
3	0	20905,3603	4,21101332
3	0	20905,8603	4,21074581
3	0	20906,3603	4,21074581
3	0	20906,8603	4,21103239
3	0	20907,3603	4,21093702
3	0	20907,8603	4,21093702
3	0	20908,3603	4,21072674
3	0	20908,8603	4,21076488
3	0	20909,3603	4,21101332
3	0	20909,8603	4,21080303
3	0	20910,3603	4,21084118
3	0	20910,8603	4,21059322
3	0	20911,3603	4,21070766
3	0	20911,8603	4,21091795
3	0	20912,3603	4,21089888
3	0	20912,8603	4,21101332
3	0	20913,3603	4,21099424
3	0	20913,8603	4,21070766
3	0	20914,3603	4,210536
3	0	20914,8603	4,21072674
3	0	20915,3603	4,21070766
3	0	20915,8603	4,21049786
3	0	20916,3603	4,21074581
3	0	20916,8603	4,21063137
3	0	20917,3603	4,21089888
3	0	20917,8603	4,21051693
3	0	20918,3603	4,21074581
3	0	20918,8603	4,21066952
3	0	20919,3603	4,21076488
3	0	20919,8603	4,21070766
3	0	20920,3603	4,21082211
3	0	20920,8603	4,21057415
3	0	20921,3603	4,21082211
3	0	20921,8603	4,21076488
3	0	20922,3603	4,21099424
3	0	20922,8603	4,21093702
3	0	20923,3603	4,21084118
3	0	20923,8603	4,21066952
3	0	20924,3603	4,21074581
3	0	20924,8603	4,21051693
3	0	20925,3603	4,21068859
3	0	20925,8603	4,21055508
3	0	20926,3603	4,21072674
3	0	20926,8603	4,21074581
3	0	20927,3603	4,21047878
3	0	20927,8603	4,210536
3	0	20928,3603	4,21059322
3	0	20928,8603	4,21032572
3	0	20929,3603	4,21045971
3	0	20929,8603	4,21036386
3	0	20930,3603	4,21049786
3	0	20930,8603	4,21007776
3	0	20931,3603	4,21032572
3	0	20931,8603	4,21044064
3	0	20932,3603	4,21030664
3	0	20932,8603	4,21002054
3	0	20933,3603	4,21011591
3	0	20933,8603	4,21011591
3	0	20934,3603	4,21034479
3	0	20934,8603	4,21040201
3	0	20935,3603	4,21086073
3	0	20935,8603	4,21066952
3	0	20936,3603	4,21086073
3	0	20936,8603	4,21065044
3	0	20937,3603	4,21082211
3	0	20937,8603	4,21080303
3	0	20938,3603	4,21055508
3	0	20938,8603	4,2106123
3	0	20939,3603	4,21063137
3	0	20939,8603	4,21074581
3	0	20940,3603	4,21065044
3	0	20940,8603	4,21040201
3	0	20941,3603	4,21063137
3	0	20941,8603	4,21051693
3	0	20942,3603	4,210536
3	0	20942,8603	4,2106123
3	0	20943,3603	4,21068859
3	0	20943,8603	4,21068859
3	0	20944,3603	4,21065044
3	0	20944,8603	4,21047878
3	0	20945,3603	4,21057415
3	0	20945,8603	4,21044064
3	0	20946,3603	4,21047878
3	0	20946,8603	4,21040201
3	0	20947,3603	4,21023035
3	0	20947,8603	4,21034479
3	0	20948,3603	4,21045971
3	0	20948,8603	4,21030664
3	0	20949,3603	4,21032572
3	0	20949,8603	4,21030664
3	0	20950,3603	4,21042109
3	0	20950,8603	4,21057415
3	0	20951,3603	4,21063137
3	0	20951,8603	4,21068859
3	0	20952,3603	4,21091795
3	0	20952,8603	4,21068859
3	0	20953,3603	4,21059322
3	0	20953,8603	4,21055508
3	0	20954,3603	4,21049786
3	0	20954,8603	4,21030664
3	0	20955,3603	4,21045971
3	0	20955,8603	4,21057415
3	0	20956,3603	4,21049786
3	0	20956,8603	4,21047878
3	0	20957,3603	4,21049786
3	0	20957,8603	4,21068859
3	0	20958,3603	4,21068859
3	0	20958,8603	4,21072674
3	0	20959,3603	4,21080303
3	0	20959,8603	4,2106123
3	0	20960,3603	4,21038294
3	0	20960,8603	4,21030664
3	0	20961,3603	4,21044064
3	0	20961,8603	4,21038294
3	0	20962,3603	4,21034479
3	0	20962,8603	4,21028757
3	0	20963,3603	4,21040201
3	0	20963,8603	4,21055508
3	0	20964,3603	4,21044064
3	0	20964,8603	4,21013498
3	0	20965,3603	4,21063137
3	0	20965,8603	4,21047878
3	0	20966,3603	4,21051693
3	0	20966,8603	4,21078396
3	0	20967,3603	4,21133804
3	0	20967,8603	4,21105146
3	0	20968,3603	4,21139526
3	0	20968,8603	4,21114683
3	0	20969,3603	4,21097517
3	0	20969,8603	4,21072674
3	0	20970,3603	4,21078396
3	0	20970,8603	4,21068859
3	0	20971,3603	4,21070766
3	0	20971,8603	4,21040201
3	0	20972,3603	4,21093702
3	0	20972,8603	4,2108798
3	0	20973,3603	4,21030664
3	0	20973,8603	4,21024942
3	0	20974,3603	4,21028757
3	0	20974,8603	4,21028757
3	0	20975,3603	4,21080303
3	0	20975,8603	4,210536
3	0	20976,3603	4,21034479
3	0	20976,8603	4,21038294
3	0	20977,3603	4,2102685
3	0	20977,8603	4,21028757
3	0	20978,3603	4,20994377
3	0	20978,8603	4,20988655
3	0	20979,3603	4,21024942
3	0	20979,8603	4,21028757
3	0	20980,3603	4,21051693
3	0	20980,8603	4,21063137
3	0	20981,3603	4,21070766
3	0	20981,8603	4,21128082
3	0	20982,3603	4,21133804
3	0	20982,8603	4,21122313
3	0	20983,3603	4,21084118
3	0	20983,8603	4,21076488
3	0	20984,3603	4,21101332
3	0	20984,8603	4,21066952
3	0	20985,3603	4,21107054
3	0	20985,8603	4,21086073
3	0	20986,3603	4,21103239
3	0	20986,8603	4,21078396
3	0	20987,3603	4,21082211
3	0	20987,8603	4,2109561
3	0	20988,3603	4,21091795
3	0	20988,8603	4,21078396
3	0	20989,3603	4,21107054
3	0	20989,8603	4,21065044
3	0	20990,3603	4,21063137
3	0	20990,8603	4,21051693
3	0	20991,3603	4,21074581
3	0	20991,8603	4,21074581
3	0	20992,3603	4,21047878
3	0	20992,8603	4,2109561
3	0	20993,3603	4,21091795
3	0	20993,8603	4,21057415
3	0	20994,3603	4,21047878
3	0	20994,8603	4,21042109
3	0	20995,3603	4,21032572
3	0	20995,8603	4,21047878
3	0	20996,3603	4,21068859
3	0	20996,8603	4,21084118
3	0	20997,3603	4,21068859
3	0	20997,8603	4,21059322
3	0	20998,3603	4,21072674
3	0	20998,8603	4,21057415
3	0	20999,3603	4,21034479
3	0	20999,8603	4,21045971
3	0	21000,3603	4,21040201
3	0	21000,8603	4,21034479
3	0	21001,3603	4,21065044
3	0	21001,8603	4,21074581
3	0	21002,3603	4,2106123
3	0	21002,8603	4,21066952
3	0	21003,3603	4,21057415
3	0	21003,8603	4,21055508
3	0	21004,3603	4,2109561
3	0	21004,8603	4,21080303
3	0	21005,3603	4,21091795
3	0	21005,8603	4,21086073
3	0	21006,3603	4,21084118
3	0	21006,8603	4,21093702
3	0	21007,3603	4,21097517
3	0	21007,8603	4,21101332
3	0	21008,3603	4,21091795
3	0	21008,8603	4,21086073
3	0	21009,3603	4,21074581
3	0	21009,8603	4,21070766
3	0	21010,3603	4,21059322
3	0	21010,8603	4,21059322
3	0	21011,3603	4,21103239
3	0	21011,8603	4,21063137
3	0	21012,3603	4,21068859
3	0	21012,8603	4,21072674
3	0	21013,3603	4,21091795
3	0	21013,8603	4,211586
3	0	21014,3603	4,21128082
3	0	21014,8603	4,2112422
3	0	21015,3603	4,21143341
3	0	21015,8603	4,21099424
3	0	21016,3603	4,21091795
3	0	21016,8603	4,21074581
3	0	21017,3603	4,21086073
3	0	21017,8603	4,21118498
3	0	21018,3603	4,21120405
3	0	21018,8603	4,21110868
3	0	21019,3603	4,21112776
3	0	21019,8603	4,21099424
3	0	21020,3603	4,21084118
3	0	21020,8603	4,21080303
3	0	21021,3603	4,21072674
3	0	21021,8603	4,21066952
3	0	21022,3603	4,21045971
3	0	21022,8603	4,21042109
3	0	21023,3603	4,21055508
3	0	21023,8603	4,21049786
3	0	21024,3603	4,2106123
3	0	21024,8603	4,21065044
3	0	21025,3603	4,21084118
3	0	21025,8603	4,21091795
3	0	21026,3603	4,21076488
3	0	21026,8603	4,21068859
3	0	21027,3603	4,21072674
3	0	21027,8603	4,21122313
3	0	21028,3603	4,21080303
3	0	21028,8603	4,21089888
3	0	21029,3603	4,21097517
3	0	21029,8603	4,2108798
3	0	21030,3603	4,21110868
3	0	21030,8603	4,21086073
3	0	21031,3603	4,21091795
3	0	21031,8603	4,21122313
3	0	21032,3603	4,21110868
3	0	21032,8603	4,21112776
3	0	21033,3603	4,21110868
3	0	21033,8603	4,21105146
3	0	21034,3603	4,21103239
3	0	21034,8603	4,21105146
3	0	21035,3603	4,21093702
3	0	21035,8603	4,2109561
3	0	21036,3603	4,21122313
3	0	21036,8603	4,21214008
3	0	21037,2655	4,21317101
3	0	21037,7655	4,21233082
3	0	21038,2655	4,21240711
3	0	21038,7655	4,21212053
3	0	21039,2655	4,21156693
3	0	21039,7655	4,21141434
3	0	21040,2655	4,2115097
3	0	21040,7655	4,21162415
3	0	21041,2655	4,21126127
3	0	21041,7655	4,21137619
3	0	21042,2655	4,21149063
3	0	21042,7655	4,2112999
3	0	21043,2655	4,21139526
3	0	21043,7655	4,21145248
3	0	21044,2655	4,21173906
3	0	21044,7655	4,21143341
3	0	21045,2655	4,21200609
3	0	21045,7655	4,21242619
3	0	21046,2655	4,21267462
3	0	21046,7655	4,21275091
3	0	21047,2655	4,21246433
3	0	21047,7655	4,21265554
3	0	21048,2655	4,21278906
3	0	21048,7655	4,21280813
3	0	21049,2655	4,21238804
3	0	21049,7655	4,21259832
3	0	21050,2655	4,21254063
3	0	21050,7655	4,21275091
3	0	21051,2655	4,21265554
3	0	21051,7655	4,21271276
3	0	21052,2655	4,21256018
3	0	21052,7655	4,21298027
3	0	21053,2655	4,21311378
3	0	21053,7655	4,21280813
3	0	21054,2655	4,21292257
3	0	21054,7655	4,21278906
3	0	21055,2655	4,21288443
3	0	21055,7655	4,21284628
3	0	21056,2655	4,21280813
3	0	21056,7655	4,21280813
3	0	21057,2655	4,21236897
3	0	21057,7655	4,21221638
3	0	21058,2655	4,21252155
3	0	21058,7655	4,21250248
3	0	21059,2655	4,21257925
3	0	21059,7655	4,21257925
3	0	21060,2655	4,21248341
3	0	21060,7655	4,21236897
3	0	21061,2655	4,21234989
3	0	21061,7655	4,21234989
3	0	21062,2655	4,21254063
3	0	21062,7655	4,21280813
3	0	21063,2655	4,21275091
3	0	21063,7655	4,21256018
3	0	21064,2655	4,21276999
3	0	21064,7655	4,21250248
3	0	21065,2655	4,2126174
3	0	21065,7655	4,21276999
3	0	21066,2655	4,21273184
3	0	21066,7655	4,2129035
3	0	21067,2655	4,21278906
3	0	21067,7655	4,21271276
3	0	21068,2655	4,21259832
3	0	21068,7655	4,21254063
3	0	21069,2655	4,21273184
3	0	21069,7655	4,21267462
3	0	21070,2655	4,21288443
3	0	21070,7655	4,21334267
3	0	21071,2655	4,21315193
3	0	21071,7655	4,21374369
3	0	21072,2655	4,21298027
3	0	21072,7655	4,21298027
3	0	21073,2655	4,21328545
3	0	21073,7655	4,21330452
3	0	21074,2655	4,21347666
3	0	21074,7655	4,21364832
3	0	21075,2655	4,21336174
3	0	21075,7655	4,21332359
3	0	21076,2655	4,2135148
3	0	21076,7655	4,21341944
3	0	21077,2655	4,21374369
3	0	21077,7655	4,21397305
3	0	21078,2655	4,21406841
3	0	21078,7655	4,21366739
3	0	21079,2655	4,21412563
3	0	21079,7655	4,21404934
3	0	21080,2655	4,21408749
3	0	21080,7655	4,21403027
3	0	21081,2655	4,2138586
3	0	21081,7655	4,21401119
3	0	21082,2655	4,21383953
3	0	21082,7655	4,21418285
3	0	21083,2655	4,21443129
3	0	21083,7655	4,21416378
3	0	21084,2655	4,21383953
3	0	21084,7655	4,21404934
3	0	21085,2655	4,21355295
3	0	21085,7655	4,21322823
3	0	21086,2655	4,21383953
3	0	21086,7655	4,2135148
3	0	21087,2629	4,21452665
3	0	21087,7629	4,21458387
3	0	21088,2629	4,21517611
3	0	21088,6255	4,21412563
3	0	21089,1255	4,2145648
3	0	21089,6255	4,21443129
3	0	21090,1255	4,21473694
3	0	21090,6255	4,21481323
3	0	21091,1255	4,2145648
3	0	21091,6255	4,21443129
3	0	21092,1255	4,21452665
3	0	21092,6255	4,21437407
3	0	21093,1255	4,21477509
3	0	21093,6255	4,21469879
3	0	21094,1255	4,2149086
3	0	21094,6255	4,21529055
3	0	21095,1255	4,21521425
3	0	21095,6255	4,21460295
3	0	21096,1255	4,21494675
3	0	21096,6255	4,2145648
3	0	21097,1255	4,21506119
3	0	21097,6255	4,2149086
3	0	21098,1255	4,21494675
3	0	21098,6255	4,21504211
3	0	21099,1255	4,21418285
3	0	21099,6255	4,21475601
3	0	21100,1255	4,21473694
3	0	21100,6255	4,21483231
3	0	21101,1255	4,21437407
3	0	21101,6255	4,21431684
3	0	21102,1255	4,21437407
3	0	21102,6255	4,21420193
3	0	21103,1255	4,21424007
3	0	21103,6255	4,21425962
3	0	21104,1255	4,21448851
3	0	21104,6255	4,21485138
3	0	21105,1255	4,21450758
3	0	21105,6255	4,214221
3	0	21106,1255	4,21466017
3	0	21106,6255	4,21485138
3	0	21107,1255	4,21477509
3	0	21107,6255	4,21473694
3	0	21108,1255	4,21488953
3	0	21108,6255	4,21458387
3	0	21109,1255	4,21452665
3	0	21109,6255	4,21454573
3	0	21110,1255	4,21469879
3	0	21110,6255	4,21494675
3	0	21111,1255	4,21464109
3	0	21111,6255	4,21450758
3	0	21112,1255	4,21446943
3	0	21112,6255	4,21462202
3	0	21113,1255	4,21477509
3	0	21113,6255	4,21479416
3	0	21114,1255	4,21452665
3	0	21114,6255	4,21477509
3	0	21115,1255	4,21460295
3	0	21115,6255	4,21492767
3	0	21116,1255	4,21458387
3	0	21116,6255	4,21496582
3	0	21117,1255	4,21513796
3	0	21117,6255	4,21561527
3	0	21118,1255	4,21546221
3	0	21118,6255	4,2155962
3	0	21119,1255	4,21571064
3	0	21119,6255	4,21555805
3	0	21119,8969	4,21660805
3	0	21120,3969	4,21653175
3	0	21120,8969	4,21637917
3	0	21121,3969	4,21630239
3	0	21121,8969	4,21698999
3	0	21122,3969	4,21639824
3	0	21122,8969	4,21620703
3	0	21123,3969	4,21637917
3	0	21123,8969	4,21637917
3	0	21124,3969	4,21647453
3	0	21124,8969	4,21668434
3	0	21125,3969	4,21641731
3	0	21125,8969	4,21630239
3	0	21126,3969	4,21643639
3	0	21126,8969	4,21626425
3	0	21127,3969	4,21626425
3	0	21127,8969	4,21609259
3	0	21128,3969	4,21578693
3	0	21128,8969	4,21567249
3	0	21129,3969	4,21565342
3	0	21129,8969	4,21530962
3	0	21130,3969	4,21553898
3	0	21130,8969	4,21555805
3	0	21131,3969	4,21504211
3	0	21131,5375	4,21607351
3	0	21132,0375	4,21553898
3	0	21132,5375	4,21530962
3	0	21133,0375	4,21530962
3	0	21133,5375	4,21513796
3	0	21134,0375	4,21509981
3	0	21134,5375	4,21487045
3	0	21135,0375	4,21511889
3	0	21135,5375	4,21506119
3	0	21136,0375	4,21508026
3	0	21136,5375	4,21485138
3	0	21137,0375	4,21475601
3	0	21137,5375	4,21502304
3	0	21138,0375	4,21471786
3	0	21138,5375	4,21492767
3	0	21139,0375	4,21488953
3	0	21139,5375	4,21483231
3	0	21140,0375	4,21464109
3	0	21140,5375	4,21492767
3	0	21141,0375	4,21500397
3	0	21141,5375	4,21509981
3	0	21142,0375	4,21483231
3	0	21142,5375	4,21488953
3	0	21143,0375	4,21511889
3	0	21143,5375	4,21508026
3	0	21144,0375	4,21450758
3	0	21144,5375	4,21429777
3	0	21145,0375	4,21443129
3	0	21145,5375	4,21458387
3	0	21146,0375	4,21452665
3	0	21146,5375	4,21467972
3	0	21147,0375	4,21462202
3	0	21147,5375	4,21485138
3	0	21148,0375	4,21464109
3	0	21148,5375	4,21462202
3	0	21149,0375	4,21546221
3	0	21149,5375	4,21500397
3	0	21150,0375	4,21496582
3	0	21150,5375	4,21513796
3	0	21151,0375	4,21498489
3	0	21151,5375	4,21487045
3	0	21152,0375	4,21500397
3	0	21152,5375	4,21534777
3	0	21153,0375	4,21519518
3	0	21153,5375	4,21496582
3	0	21154,0375	4,21519518
3	0	21154,5375	4,21488953
3	0	21155,0375	4,21540499
3	0	21155,5375	4,21529055
3	0	21156,0375	4,21506119
3	0	21156,5375	4,21511889
3	0	21157,0375	4,2152524
3	0	21157,5375	4,21529055
3	0	21158,0375	4,21519518
3	0	21158,5375	4,21502304
3	0	21159,0375	4,21500397
3	0	21159,5375	4,21548128
3	0	21160,0375	4,21521425
3	0	21160,5375	4,21561527
3	0	21161,0375	4,21548128
3	0	21161,5375	4,21504211
3	0	21162,0375	4,21523333
3	0	21162,5375	4,21513796
3	0	21163,0375	4,21519518
3	0	21163,5375	4,21532869
3	0	21164,0375	4,21496582
3	0	21164,5375	4,21473694
3	0	21165,0375	4,21492767
3	0	21165,5375	4,21469879
3	0	21166,0375	4,21466017
3	0	21166,5375	4,21475601
3	0	21167,0375	4,21500397
3	0	21167,5375	4,21502304
3	0	21168,0375	4,21483231
3	0	21168,5375	4,21536684
3	0	21169,0375	4,21483231
3	0	21169,5375	4,21467972
3	0	21170,0375	4,21498489
3	0	21170,5375	4,21466017
3	0	21171,0375	4,21479416
3	0	21171,5375	4,21469879
3	0	21172,0375	4,21496582
3	0	21172,5375	4,2149086
3	0	21173,0375	4,21502304
3	0	21173,5375	4,21477509
3	0	21174,0375	4,21448851
3	0	21174,5375	4,21464109
3	0	21175,0375	4,21466017
3	0	21175,5375	4,21479416
3	0	21176,0375	4,21513796
3	0	21176,5375	4,21496582
3	0	21177,0375	4,21487045
3	0	21177,5375	4,21530962
3	0	21178,0375	4,21523333
3	0	21178,5375	4,21551943
3	0	21179,0375	4,2152524
3	0	21179,5375	4,21544313
3	0	21180,0375	4,21550035
3	0	21180,5375	4,21521425
3	0	21181,0375	4,21550035
3	0	21181,5375	4,21551943
3	0	21182,0375	4,21567249
3	0	21182,5375	4,21574879
3	0	21183,0375	4,21599722
3	0	21183,5375	4,21603537
3	0	21184,0375	4,21582508
3	0	21184,5375	4,21584415
3	0	21185,0375	4,21641731
3	0	21185,5375	4,21607351
3	0	21186,0375	4,21601629
3	0	21186,5375	4,21649361
3	0	21187,0375	4,21651268
3	0	21187,5375	4,2162261
3	0	21188,0375	4,21693277
3	0	21188,5375	4,21666527
3	0	21189,0375	4,21651268
3	0	21189,5375	4,21660805
3	0	21190,0375	4,21662712
3	0	21190,4895	4,21553898
3	0	21190,9895	4,21496582
3	0	21191,4895	4,21494675
3	0	21191,9895	4,21538591
3	0	21192,4895	4,21527147
3	0	21192,9895	4,2152524
3	0	21193,4895	4,21532869
3	0	21193,9895	4,21542406
3	0	21194,4895	4,21557713
3	0	21194,9895	4,21569157
3	0	21195,4895	4,21551943
3	0	21195,9895	4,21574879
3	0	21196,4895	4,21590137
3	0	21196,9895	4,21584415
3	0	21197,4895	4,21601629
3	0	21197,9895	4,21595907
3	0	21198,4895	4,21574879
3	0	21198,9895	4,21574879
3	0	21199,4895	4,21590137
3	0	21199,9895	4,21584415
3	0	21200,4895	4,21565342
3	0	21200,9895	4,21580601
3	0	21201,4895	4,21555805
3	0	21201,9895	4,21557713
3	0	21202,4895	4,21592045
3	0	21202,9895	4,21557713
3	0	21203,4895	4,21555805
3	0	21203,9895	4,21586323
3	0	21204,4895	4,21584415
3	0	21204,9895	4,21563435
3	0	21205,4895	4,21574879
3	0	21205,9895	4,21557713
3	0	21206,4895	4,21565342
3	0	21206,9895	4,2155962
3	0	21207,4895	4,21580601
3	0	21207,9895	4,21647453
3	0	21208,4895	4,21634054
3	0	21208,9895	4,21614981
3	0	21209,4895	4,21607351
3	0	21209,9895	4,2158823
3	0	21210,4895	4,21613073
3	0	21210,9895	4,21639824
3	0	21211,4895	4,21613073
3	0	21211,9895	4,21613073
3	0	21212,4895	4,21607351
3	0	21212,9895	4,21603537
3	0	21213,4895	4,21605444
3	0	21213,9895	4,21578693
3	0	21214,4895	4,21550035
3	0	21214,9895	4,21567249
3	0	21215,4895	4,21616888
3	0	21215,9895	4,21582508
3	0	21216,4895	4,21626425
3	0	21216,9895	4,21653175
3	0	21217,4895	4,21649361
3	0	21217,9895	4,21630239
3	0	21218,4895	4,21634054
3	0	21218,9895	4,21647453
3	0	21219,4895	4,21641731
3	0	21219,9895	4,21624517
3	0	21220,4895	4,21601629
3	0	21220,9895	4,21593952
3	0	21221,4895	4,21584415
3	0	21221,9895	4,21616888
3	0	21222,4895	4,21607351
3	0	21222,9895	4,2158823
3	0	21223,4895	4,21603537
3	0	21223,9895	4,21597815
3	0	21224,4895	4,21601629
3	0	21224,9895	4,21590137
3	0	21225,4895	4,21607351
3	0	21225,9895	4,21607351
3	0	21226,4895	4,21599722
3	0	21226,9895	4,21605444
3	0	21227,4895	4,2158823
3	0	21227,9895	4,21592045
3	0	21228,4895	4,21592045
3	0	21228,9895	4,21584415
3	0	21229,4895	4,21582508
3	0	21229,9895	4,21582508
3	0	21230,4895	4,2158823
3	0	21230,9895	4,21597815
3	0	21231,4895	4,21593952
3	0	21231,9895	4,21603537
3	0	21232,4895	4,21593952
3	0	21232,9895	4,21592045
3	0	21233,4895	4,21618795
3	0	21233,9895	4,21595907
3	0	21234,4895	4,21605444
3	0	21234,9895	4,21605444
3	0	21235,4895	4,21599722
3	0	21235,9895	4,21576786
3	0	21236,4895	4,21611166
3	0	21236,9895	4,21597815
3	0	21237,4895	4,21590137
3	0	21237,9895	4,21582508
3	0	21238,4895	4,21586323
3	0	21238,9895	4,21584415
3	0	21239,4895	4,21613073
3	0	21239,9895	4,2158823
3	0	21240,4895	4,21590137
3	0	21240,9895	4,21584415
3	0	21241,4895	4,21609259
3	0	21241,9895	4,2158823
3	0	21242,4895	4,21592045
3	0	21242,9895	4,21590137
3	0	21243,4895	4,21565342
3	0	21243,9895	4,21569157
3	0	21244,4895	4,21569157
3	0	21244,9895	4,21584415
3	0	21245,4895	4,2158823
3	0	21245,9895	4,21584415
3	0	21246,4895	4,21582508
3	0	21246,9895	4,21580601
3	0	21247,4895	4,21563435
3	0	21247,9895	4,21563435
3	0	21248,4895	4,21553898
3	0	21248,9895	4,21563435
3	0	21249,4895	4,21586323
3	0	21249,9895	4,21572971
3	0	21250,4895	4,2158823
3	0	21250,9895	4,21584415
3	0	21251,4895	4,21593952
3	0	21251,9895	4,21616888
3	0	21252,4895	4,21632147
3	0	21252,9895	4,21614981
3	0	21253,4895	4,21599722
3	0	21253,9895	4,21624517
3	0	21254,4895	4,21628332
3	0	21254,9895	4,21630239
3	0	21255,4895	4,21620703
3	0	21255,9895	4,21651268
3	0	21256,4895	4,21698999
3	0	21256,9895	4,21653175
3	0	21257,4895	4,21662712
3	0	21257,9895	4,21655083
3	0	21258,4895	4,21662712
3	0	21258,9895	4,21637917
3	0	21259,4895	4,21664619
3	0	21259,9895	4,21658897
3	0	21260,4895	4,21670341
3	0	21260,9895	4,21641731
3	0	21261,4895	4,21630239
3	0	21261,9895	4,21647453
3	0	21262,4895	4,21668434
3	0	21262,9895	4,21681833
3	0	21263,4895	4,21649361
3	0	21263,9895	4,21649361
3	0	21264,4895	4,21645546
3	0	21264,9895	4,21647453
3	0	21265,4895	4,21641731
3	0	21265,9895	4,21660805
3	0	21266,4895	4,21651268
3	0	21266,9895	4,21679926
3	0	21267,4895	4,21679926
3	0	21267,9895	4,21674156
3	0	21268,4895	4,21664619
3	0	21268,9895	4,21674156
3	0	21269,4895	4,21666527
3	0	21269,9895	4,21702814
3	0	21270,4895	4,21718073
3	0	21270,9895	4,21706629
3	0	21271,4895	4,21704721
3	0	21271,9895	4,21683741
3	0	21272,4895	4,21702814
3	0	21272,9895	4,21708536
3	0	21273,4895	4,21702814
3	0	21273,9895	4,2171998
3	0	21274,4895	4,21727657
3	0	21274,9895	4,21733379
3	0	21275,4895	4,2172575
3	0	21275,9895	4,21712351
3	0	21276,4895	4,21693277
3	0	21276,9895	4,21731472
3	0	21277,4895	4,21716166
3	0	21277,9895	4,21695185
3	0	21278,4895	4,21697092
3	0	21278,9895	4,21721888
3	0	21279,4895	4,21748638
3	0	21279,9895	4,21695185
3	0	21280,4895	4,2169137
3	0	21280,9895	4,21712351
3	0	21281,4895	4,2172575
3	0	21281,9895	4,21716166
3	0	21282,4895	4,21710443
3	0	21282,9895	4,21708536
3	0	21283,4895	4,21737194
3	0	21283,9895	4,2172575
3	0	21284,4895	4,21731472
3	0	21284,9895	4,21714258
3	0	21285,4895	4,21721888
3	0	21285,9895	4,21702814
3	0	21286,4895	4,21697092
3	0	21286,9895	4,21698999
3	0	21287,4895	4,21681833
3	0	21287,9895	4,21689463
3	0	21288,4895	4,2169137
3	0	21288,9895	4,21662712
3	0	21289,4895	4,21649361
3	0	21289,9895	4,21655083
3	0	21290,4895	4,21634054
3	0	21290,9895	4,21674156
3	0	21291,4895	4,21677971
3	0	21291,9895	4,21668434
3	0	21292,4895	4,21658897
3	0	21292,9895	4,21664619
3	0	21293,4895	4,21683741
3	0	21293,9895	4,21677971
3	0	21294,4895	4,21670341
3	0	21294,9895	4,21685648
3	0	21295,4895	4,21664619
3	0	21295,9413	4,21553898
3	0	21296,4413	4,2158823
3	0	21296,8041	4,21485138
3	0	21296,9107	4,21383953
3	0	21296,9165	4,21282721
3	0	21297,4165	4,21267462
3	0	21297,9165	4,21214008
3	0	21298,4165	4,21217823
3	0	21298,9165	4,21200609
3	0	21299,4165	4,21202517
3	0	21299,9165	4,21179628
3	0	21300,4165	4,21212053
3	0	21300,9165	4,2118535
3	0	21301,4165	4,21187258
3	0	21301,9165	4,21160507
3	0	21302,4165	4,21162415
3	0	21302,9165	4,21152878
3	0	21303,4165	4,21160507
3	0	21303,9165	4,21145248
3	0	21304,4165	4,21187258
3	0	21304,9165	4,2119298
3	0	21305,4165	4,211586
3	0	21305,9165	4,21141434
3	0	21306,4165	4,211586
3	0	21306,9165	4,21164322
3	0	21307,4165	4,21112776
3	0	21307,9165	4,21118498
3	0	21308,3115	4,21152878