File: Experimentelles/Rohdaten/Batterietests/AlteZelle/Studenten_Batterietests/SemArbeitToph/ECLab-Export/Al_rein_02_Laden_IS_01_GCPL_C01.mpt
EC-Lab ASCII FILE
Nb header lines : 68

Galvanostatic Cycling with Potential Limitation

Run on channel : 1 (SN 6985)
Grouped channel(s) : 1
User :
CE vs. WE compliance from -10 V to 10 V
Electrode connection : standard
Ewe ctrl range : min = -10,00 V, max = 10,00 V
Acquisition started on : 03.18.2015 16:28:12
Saved on :
	File : Al_rein_02_Laden_IS_01_GCPL_C01.mpr
	Directory : C:\Hupfer\Studenten Batterietests\SemArbeitToph\
	Host : 192.168.0.2
Device : VMP3 (SN 0324)
Address : 192.168.0.1
EC-Lab for windows v10.33 (software)
Internet server v10.33 (firmware)
Command interpretor v10.32 (firmware)
Electrode material :
Initial state :
Electrolyte :
Comments :
Mass of active material : 0,001 mg
 at x = 0,000
Molecular weight of active material (at x = 0) : 0,001 g/mol
Atomic weight of intercalated ion : 0,001 g/mol
Acquisition started at : xo = 0,000
Number of e- transfered per intercalated ion : 1
for DX = 1, DQ = 26,801 mA.h
Battery capacity : 0,000 A.h
Electrode surface area : 0,001 cm²
Characteristic mass : 0,001 g
Ns                  0                   1
Set I/C             I                   I
Is                  0,000               50,000
unit Is             mA                  µA
vs.                 <None>              <None>
N                   1                   1
I sign              > 0                 > 0
t1 (h:m:s)          0:00:0,0000         1:00:0,0000
I Range             100 mA              100 mA
Bandwidth           5                   5
dE1 (mV)            0,00                10,00
dt1 (s)             0,0000              10,0000
EM (V)              0,000               4,200
tM (h:m:s)          0:00:0,0000         0:00:0,0000
Im                  0,000               0,000
unit Im             mA                  mA
E range min (V)     -10,000             -10,000
E range max (V)     10,000              10,000
dq                  0,000               1,000
unit dq             mA.h                mA.h
dtq (s)             0,0000              120,0000
dQM                 0,000               0,000
unit dQM            mA.h                mA.h
dxM                 0,000               0,000
tR (h:m:s)          0:00:0,0000         0:00:0,0000
dER/dt (mV/h)       0,0                 0,1
dER (mV)            0,00                5,00
dtR (s)             1,0000              120,0000
EL (V)              pass                4,200
goto Ns'            0                   0
nc cycles           0                   0

mode	ox/red	error	control changes	Ns changes	counter inc.	Ns	time/s	control/V/mA	Ewe/V	dq/mA.h	<I>/mA	P/W	(Q-Qo)/mA.h	x	Capacity/mA.h
1	1	0	1	1	0	1	0,0004	0,0500000007	2,95759726	0	0	0	0	0	0
1	1	0	1	0	0	1	0,0498	0,0500000007	2,99978423	1,24777067038748E-009	9,0930658438699379E-005	2,72772354E-007	1,24777067038748E-009	-4,6556001357665805E-011	1,24777067038748E-009
1	1	0	1	0	0	1	0,0500	0,0500000007	3,01516843	1,8483816335598627E-009	0,033270870244570406	0,00010031728	3,0961523039473427E-009	-1,155216052813217E-010	3,0961523039473427E-009
1	1	0	1	0	0	1	0,0502	0,0500000007	3,04227471	1,7423913296726013E-009	0,031363044726403981	9,54149946E-005	4,8385436336199443E-009	-1,8053256846146464E-010	4,8385436336199443E-009
1	1	0	1	0	0	1	0,0504	0,0500000007	3,0665741	2,4136621505022048E-009	0,043445919806575936	0,000133230133	7,2522057841221491E-009	-2,7058954849997766E-010	7,2522057841221491E-009
1	1	0	1	0	0	1	0,0506	0,0500000007	3,08814692	2,2370119889577229E-009	0,040266216818449203	0,000124347993	9,4892177730798733E-009	-3,5405547350259776E-010	9,4892177730798733E-009
1	1	0	1	0	0	1	0,0508	0,0500000007	3,10771489	2,1663519243399306E-009	0,038994335623198522	0,000121183279	1,1655569697419805E-008	-4,348849764908608E-010	1,1655569697419805E-008
1	1	0	1	0	0	1	0,0510	0,0500000007	3,12624025	2,696302408973376E-009	0,048533444587578701	0,000151727203	1,4351872106393181E-008	-5,354876445868023E-010	1,4351872106393181E-008
1	1	0	1	0	0	1	0,0512	0,0500000007	3,14372301	2,3430020858844118E-009	0,042174038611325242	0,000132583489	1,669487419227759E-008	-6,2290820261095808E-010	1,669487419227759E-008
1	1	0	1	0	0	1	0,0514	0,0500000007	3,16072464	2,5196522474288944E-009	0,045353741599451974	0,000143350684	1,9214526439706486E-008	-7,1691981567100685E-010	1,9214526439706486E-008
1	1	0	1	0	0	1	0,0516	0,0500000007	3,17580152	2,7316326482428442E-009	0,049169388910494438	0,000156152222	2,1946159087949331E-008	-8,1884070249610406E-010	2,1946159087949331E-008
1	1	0	1	0	0	1	0,0518	0,0500000007	3,19023681	2,7669624735911683E-009	0,049805325782829389	0,000158890776	2,4713121561540499E-008	-9,2207979260640282E-010	2,4713121561540499E-008
1	1	0	1	0	0	1	0,0520	0,0500000007	3,2029078	2,9436128420962227E-009	0,052985032496246515	0,000169706167	2,765673440363672E-008	-1,0319099454745714E-009	2,765673440363672E-008
1	1	0	1	0	0	1	0,0522	0,0500000007	3,2166214	2,9789430813656909E-009	0,053620976819162253	0,00017247838	3,0635677485002413E-008	-1,143058317071896E-009	3,0635677485002413E-008
1	1	0	1	0	0	1	0,0524	0,0500000007	3,22738314	3,3675734367635514E-009	0,06061632339304105	0,000195632107	3,4003250921765965E-008	-1,2687070097481846E-009	3,4003250921765965E-008
1	1	0	1	0	0	1	0,0526	0,0500000007	3,239012	2,8022927128606371E-009	0,050441270105745133	0,000163379882	3,6805543634626605E-008	-1,3732643185876394E-009	3,6805543634626605E-008
1	1	0	1	0	0	1	0,0528	0,0500000007	3,24966693	3,0142729067140154E-009	0,054256913691497203	0,000176316898	3,9819816541340621E-008	-1,4857308934701651E-009	3,9819816541340621E-008
1	1	0	1	0	0	1	0,0530	0,0500000007	3,26039839	3,1202630036407046E-009	0,056164735484373242	0,000183119409	4,2940079544981325E-008	-1,6021521013742266E-009	4,2940079544981325E-008
1	1	0	1	0	0	1	0,0532	0,0500000007	3,27055669	2,9789430813656909E-009	0,053620976819162253	0,000175370442	4,5919022626347014E-008	-1,713300472971551E-009	4,5919022626347014E-008
1	1	0	1	0	0	1	0,0536	0,0500000007	3,28965163	6,3818461365169946E-009	0,057436616679623936	0,000188946462	5,2300868762864006E-008	-1,9514157328083882E-009	5,2300868762864006E-008
1	1	0	1	0	0	1	0,0540	0,0500000007	3,30773449	6,063876259658071E-009	0,054574887715600269	0,000180519244	5,8364745022522074E-008	-2,1776671090245725E-009	5,8364745022522074E-008
1	1	0	1	0	0	1	0,0544	0,0500000007	3,32486272	6,9117970350715853E-009	0,062206174887104422	0,000206826997	6,5276542057593664E-008	-2,4355555494130429E-009	6,5276542057593664E-008
1	1	0	1	0	0	1	0,0548	0,0500000007	3,34095979	6,0285462273491763E-009	0,054256917416787597	0,000181270181	7,1305088284942835E-008	-2,6604887146220493E-009	7,1305088284942835E-008
1	1	0	1	0	0	1	0,0552	0,0500000007	3,35468888	6,8411365565326477E-009	0,061570230564188685	0,000206548968	7,8146224841475494E-008	-2,915740717552208E-009	7,8146224841475494E-008
1	1	0	1	0	0	1	0,0556	0,0500000007	3,36859012	6,4525062011347878E-009	0,05807255727724928	0,000195622648	8,4598731042610278E-008	-3,1564923994034022E-009	8,4598731042610278E-008
1	1	0	1	0	0	1	0,0560	0,0500000007	3,38109708	6,5231664727131533E-009	0,058708499737519821	0,00019849914	9,112189751532343E-008	-3,3998805109909312E-009	9,112189751532343E-008
1	1	0	1	0	0	1	0,0564	0,0500000007	3,39312696	6,7704769058359987E-009	0,060934293691853722	0,000206757788	9,7892374421159437E-008	-3,6524961073506874E-009	9,7892374421159437E-008
1	1	0	1	0	0	1	0,0568	0,0500000007	3,40418291	7,2297669119305075E-009	0,065067903851128077	0,00022150304	1,0512214133308995E-007	-3,9222484313598112E-009	1,0512214133308995E-007
1	1	0	1	0	0	1	0,0572	0,0500000007	3,4144752	7,0531173712677427E-009	0,063478057945000307	0,000216744258	1,121752587043577E-007	-4,1854097234989728E-009	1,121752587043577E-007
1	1	0	1	0	0	1	0,0576	0,0500000007	3,42516828	6,8411371774143642E-009	0,061570236152124275	0,000210888422	1,1901639588177206E-007	-4,440661749595063E-009	1,1901639588177206E-007
1	1	0	1	0	0	1	0,0580	0,0500000007	3,43609047	6,9471272743410534E-009	0,062524147048562291	0,000214838627	1,2596352315611312E-007	-4,6998684087126886E-009	1,2596352315611312E-007
1	1	0	1	0	0	1	0,0586	0,0500000007	3,45018268	1,045602084034019E-008	0,062736126626888998	0,000216451095	1,364195439964533E-007	-5,0899966045353184E-009	1,364195439964533E-007
1	1	0	1	0	0	1	0,0592	0,0500000007	3,46175408	1,04913500448068E-008	0,06294810185904361	0,000217910841	1,469108940412601E-007	-5,4814429804772166E-009	1,469108940412601E-007
1	1	0	1	0	0	1	0,0598	0,0500000007	3,47363114	1,1268611583444808E-008	0,067611671208683315	0,000234858002	1,5817950562470493E-007	-5,9018900294649523E-009	1,5817950562470493E-007
1	1	0	1	0	0	1	0,0604	0,0500000007	3,4851644	1,0809320542547437E-008	0,064855924893683098	0,00022603356	1,6898882616725235E-007	-6,3052003121934362E-009	1,6898882616725235E-007
1	1	0	1	0	0	1	0,0610	0,0500000007	3,49566674	1,0844651195738051E-008	0,065067908818181952	0,000227455719	1,798334773629904E-007	-6,7098288290950298E-009	1,798334773629904E-007
1	1	0	1	0	0	1	0,0618	0,0500000007	3,50867033	1,5236795362499027E-008	0,068565580863357888	0,000240574023	1,9507027272548944E-007	-7,278334150159113E-009	1,9507027272548944E-007
1	1	0	1	0	0	1	0,0626	0,0500000007	3,5201273	1,460085478093889E-008	0,065703848174043827	0,000231285914	2,0967112750642832E-007	-7,8231116730939827E-009	2,0967112750642832E-007
1	1	0	1	0	0	1	0,0634	0,0500000007	3,53106856	1,4671515052517254E-008	0,066021819404179085	0,000233127575	2,243426425589456E-007	-8,3705256257651853E-009	2,243426425589456E-007
1	1	0	1	0	0	1	0,0642	0,0500000007	3,541991	1,4282884697119394E-008	0,064272982760709389	0,000227654324	2,3862552725606499E-007	-8,9034392573574246E-009	2,3862552725606499E-007
1	1	0	1	0	0	1	0,0650	0,0500000007	3,55281758	1,4918825485640102E-008	0,067134716381346048	0,000238517401	2,5354435274170509E-007	-9,460080694800855E-009	2,5354435274170509E-007
1	1	0	1	0	0	1	0,0660	0,0500000007	3,56429362	1,8675029070840941E-008	0,067230106353402739	0,000239627843	2,7221938181254602E-007	-1,0156871138277562E-008	2,7221938181254602E-007
1	1	0	1	0	0	1	0,0672	0,0500000007	3,57626629	2,1971943063868416E-008	0,0659158308567792	0,000235732557	2,9419132487641446E-007	-1,0976673875582131E-008	2,9419132487641446E-007
1	1	0	1	0	0	1	0,0684	0,0500000007	3,58657742	2,3067173858483632E-008	0,069201523323628416	0,000248196622	3,1725849873489811E-007	-1,1837341146387259E-008	3,1725849873489811E-007
1	1	0	1	0	0	1	0,0696	0,0500000007	3,59707975	2,2855193664630253E-008	0,068565582726003072	0,000246635871	3,4011369239952832E-007	-1,2690099151149315E-008	3,4011369239952832E-007
1	1	0	1	0	0	1	0,0710	0,0500000007	3,60708547	2,6046115905046464E-008	0,066975728304925837	0,000241587171	3,6615980830457485E-007	-1,3661914754941883E-008	3,6615980830457485E-007
1	1	0	1	0	0	1	0,0726	0,0500000007	3,61787415	3,0720901572042042E-008	0,069122030283263936	0,000250074809	3,968807098766169E-007	-1,480815289728623E-008	3,968807098766169E-007
1	1	0	1	0	0	1	0,0744	0,0500000007	3,62868166	3,4512435810433498E-008	0,069024873364581965	0,000250469282	4,3139314568705037E-007	-1,6095858279836966E-008	4,3139314568705037E-007
1	1	0	1	0	0	1	0,0762	0,0500000007	3,63905025	3,4371115267276762E-008	0,068742232271128384	0,000250156445	4,6576426095432717E-007	-1,7378290802915034E-008	4,6576426095432717E-007
1	1	0	1	0	0	1	0,0788	0,0500000007	3,64930415	4,8830650539861786E-008	0,067611671686284646	0,000246735552	5,1459491149418899E-007	-1,9200228028065187E-008	5,1459491149418899E-007
1	1	0	1	0	0	1	0,0816	0,0500000007	3,65986371	5,4141375753614637E-008	0,069610342013152538	0,000254764367	5,6873628724780358E-007	-2,1220315551286445E-008	5,6873628724780358E-007
1	1	0	1	0	0	1	0,0848	0,0500000007	3,67049956	6,1830433706442509E-008	0,069559239676962022	0,000255317165	6,3056672095424602E-007	-2,3527292164776083E-008	6,3056672095424602E-007
1	1	0	1	0	0	1	0,0888	0,0500000007	3,68081093	7,6254638532797491E-008	0,068629176413236557	0,000252611033	7,0682135948704358E-007	-2,6372455253886672E-008	7,0682135948704358E-007
1	1	0	1	0	0	1	0,0930	0,0500000007	3,69100761	8,0540793223513485E-008	0,06903496736412439	0,000254808576	7,8736215271055706E-007	-2,9377540537304154E-008	7,8736215271055706E-007
1	1	0	1	0	0	1	0,0988	0,0500000007	3,70135689	1,1278088721964094E-007	0,070001931766795366	0,000259102118	9,0014303993019802E-007	-3,3585547074984544E-008	9,0014303993019802E-007
1	1	0	1	0	0	1	0,1090	0,0500000007	3,71142006	1,9824377654327286E-007	0,069968393488705421	0,0002596821	1,0983868164734709E-006	-4,0982288919406413E-008	1,0983868164734709E-006
1	1	0	1	0	0	1	0,1192	0,0500000007	3,72142577	1,9856174600621062E-007	0,070080618007871424	0,000260799832	1,2969485624796816E-006	-4,8390894632004992E-008	1,2969485624796816E-006
1	1	0	1	0	0	1	0,1338	0,0500000007	3,7316606	2,833180315792561E-007	0,06985924242817111	0,000260690984	1,5802665940589376E-006	-5,8961871315371827E-008	1,5802665940589376E-006
1	1	0	1	0	0	1	0,1672	0,0500000007	3,74180007	6,514164664679104E-007	0,070212555045708672	0,000262721354	2,231683060526848E-006	-8,3267095518043699E-008	2,231683060526848E-006
1	1	0	1	0	0	1	0,2106	0,0500000007	3,75188208	8,43042300393184E-007	0,069929777836055488	0,000262368267	3,074725360920032E-006	-1,1472213722814142E-007	3,074725360920032E-006
1	1	0	1	0	0	1	0,2690	0,0500000007	3,76204062	1,136981791506211E-006	0,070087920425062246	0,000263673603	4,2117071524262432E-006	-1,571444565575152E-007	4,2117071524262432E-006
1	1	0	1	0	0	1	0,3672	0,0500000007	3,7722373	1,9066889495071437E-006	0,069898985658115827	0,000263675553	6,1183961019333875E-006	-2,2828558483418422E-007	6,1183961019333875E-006
1	1	0	1	0	0	1	0,5356	0,0500000007	3,78237677	3,2804433579246202E-006	0,070128244577577984	0,000265251438	9,3988394598580083E-006	-3,5068333712135546E-007	9,3988394598580083E-006
1	1	0	1	0	0	1	0,7248	0,0500000007	3,7926116	3,6769533453302253E-006	0,069963173243046374	0,000265343144	1,3075792805188234E-005	-4,8787541015197792E-007	1,3075792805188234E-005
1	1	0	1	0	0	1	0,9660	0,0500000007	3,80263638	4,6892143636941914E-006	0,069988275853040486	0,000266139978	1,7765007168882426E-005	-6,6283630277717389E-007	1,7765007168882426E-005
1	1	0	1	0	0	1	1,2914	0,0500000007	3,81271839	6,3343115819411149E-006	0,070078433531202944	0,000267189345	2,4099318750823539E-005	-8,9917798447189683E-007	2,4099318750823539E-005
1	1	0	1	0	0	1	1,7156	0,0500000007	3,82301068	8,2525164683659866E-006	0,070035502207995136	0,00026774648	3,235183521918953E-005	-1,2070904695330312E-006	3,235183521918953E-005
1	1	0	1	0	0	1	1,9348	0,0500000007	3,8331883	4,2581902655462419E-006	0,069933783500099661	0,000268069358	3,661002548473577E-005	-1,3659692735382638E-006	3,661002548473577E-005
1	1	0	1	0	0	1	2,6024	0,0500000007	3,8432703	1,3007850758731366E-005	0,070144194000021517	0,000269583106	4,9617876243467136E-005	-1,8513096745878829E-006	4,9617876243467136E-005
1	1	0	1	0	0	1	2,9896	0,0500000007	3,85339069	7,5533438142802982E-006	0,070227371948186317	0,000270613498	5,7171220057747437E-005	-2,133135087877449E-006	5,7171220057747437E-005
1	1	0	1	0	0	1	3,6312	0,0500000007	3,86339641	1,2506648801267146E-005	0,070174465121511898	0,000271111785	6,9677868859014579E-005	-2,599774970020879E-006	6,9677868859014579E-005
1	1	0	1	0	0	1	4,6218	0,0500000007	3,87347841	1,9279458219392432E-005	0,070064659139064294	0,000271393947	8,8957327078407014E-005	-3,3191174776936749E-006	8,8957327078407014E-005
1	1	0	1	0	0	1	5,2856	0,0500000007	3,88380885	1,2926696467523773E-005	0,07010561684044375	0,000272276811	0,00010188402354593078	-3,8014299030252333E-006	0,00010188402354593078
1	1	0	1	0	0	1	5,8218	0,0500000007	3,89385271	1,0448837984560266E-005	0,070152588016919872	0,000273163838	0,00011233286153049104	-4,1912900968412608E-006	0,00011233286153049104
1	1	0	1	0	0	1	6,6552	0,0500000007	3,90395403	1,6260343523282144E-005	0,070239066669775309	0,000274210091	0,00012859320505377318	-4,7979853759593011E-006	0,00012859320505377318
1	1	0	1	0	0	1	7,7708	0,0500000007	3,91411233	2,1730567313730717E-005	0,070123739965657702	0,000274472201	0,0001503237723675039	-5,6087820594930848E-006	0,0001503237723675039
1	1	0	1	0	0	1	9,1522	0,0500000007	3,92425179	2,6885009769143331E-005	0,070063730718066419	0,000274947728	0,0001772087821366472	-6,6118979212599002E-006	0,0001772087821366472
1	1	0	1	0	0	1	10,1102	0,0500000007	3,9346776	1,8674439617329174E-005	0,070175348977773235	0,000276117382	0,00019588322175397638	-7,3086663714335552E-006	0,00019588322175397638
1	1	0	1	0	0	1	10,9462	0,0500000007	3,94516063	1,628242933170663E-005	0,070115726166181171	0,000276617793	0,00021216565108568304	-7,9161857017585984E-006	0,00021216565108568304
1	1	0	1	0	0	1	12,4580	0,0500000007	3,95528102	2,9393338516354566E-005	0,069993399478776269	0,000276843552	0,00024155898960203757	-9,0128906815677338E-006	0,00024155898960203757
1	1	0	1	0	0	1	13,2676	0,0500000007	3,96584058	1,5766966917862496E-005	0,070110032532374669	0,00027804522	0,0002573259565199001	-9,6011774161856666E-006	0,0002573259565199001
1	1	0	1	0	0	1	14,5128	0,0500000007	3,97586536	2,4233940290908019E-005	0,070062790918078938	0,000278560212	0,00028155989681080813	-1,0505378311318702E-005	0,00028155989681080813
1	1	0	1	0	0	1	16,1914	0,0500000007	3,98615742	3,2758130948369702E-005	0,07025454211442569	0,000280045671	0,00031431802775917786	-1,1727628220777864E-005	0,00031431802775917786
1	1	0	1	0	0	1	17,6704	0,0500000007	3,99631596	2,8811873889631696E-005	0,070130323612529498	0,000280262931	0,00034312990164880947	-1,2802637973576464E-005	0,00034312990164880947
1	1	0	1	0	0	1	18,8908	0,0500000007	4,00634098	2,375810194388032E-005	0,07008289836006039	0,000280775974	0,00036688800359268986	-1,3689084700210432E-005	0,00036688800359268986
1	1	0	1	0	0	1	21,0480	0,0500000007	4,01642323	4,2074660227116614E-005	0,070215455518284365	0,000282014982	0,00040896266381980646	-1,5258946843266477E-005	0,00040896266381980646
1	1	0	1	0	0	1	22,6958	0,0500000007	4,02656221	3,2123041473536026E-005	0,070180211327901683	0,000282584981	0,00044108570529334246	-1,6457500710532714E-005	0,00044108570529334246
1	1	0	1	0	0	1	24,1384	0,0500000007	4,0367589	2,8137147970497606E-005	0,070216092647086067	0,000283445435	0,00046922285326384006	-1,7507335532109773E-005	0,00046922285326384006
1	1	0	1	0	0	1	25,8070	0,0500000007	4,04678392	3,2563855340911283E-005	0,070256431852305254	0,000284312613	0,0005017867086047513	-1,8722336757448326E-005	0,0005017867086047513
1	1	0	1	0	0	1	26,9178	0,0500000007	4,05690432	2,1678928191256192E-005	0,070259401746563904	0,000285035669	0,00052346563679600749	-1,953120671589305E-005	0,00052346563679600749
1	1	0	1	0	0	1	28,7566	0,0500000007	4,06732988	3,5925870777211258E-005	0,070335620004998042	0,000286078168	0,00055939150757321869	-2,0871649257437786E-005	0,00055939150757321869
1	1	0	1	0	0	1	30,8580	0,0500000007	4,07737398	4,0996472175957421E-005	0,070232846465125926	0,000286365568	0,00060038797974917619	-2,240128275466583E-005	0,00060038797974917619
1	1	0	1	0	0	1	32,5682	0,0500000007	4,08743715	3,3357899890798662E-005	0,070218946696622861	0,000287015544	0,00063374587963997478	-2,3645910849764934E-005	0,00063374587963997478
1	1	0	1	0	0	1	34,1414	0,0500000007	4,09765291	3,0724733192473651E-005	0,070308315717724749	0,00028809908	0,00066447061283244838	-2,4792291955019254E-005	0,00066447061283244838
1	1	0	1	0	0	1	36,4012	0,0500000007	4,10790682	4,4224348769833645E-005	0,070452101775964646	0,000289410673	0,00070869496160228211	-2,6442361867891059E-005	0,00070869496160228211
1	1	0	1	0	0	1	38,8012	0,0500000007	4,11800814	4,690210483264592E-005	0,070353159026239168	0,000289714895	0,00075559706643492813	-2,8192342459747709E-005	0,00075559706643492813
1	1	0	1	0	0	1	40,6160	0,0500000007	4,1280899	3,5493285944271418E-005	0,070407666204136064	0,000290649186	0,00079109035237919949	-2,951664467955897E-005	0,00079109035237919949
1	1	0	1	0	0	1	43,4328	0,0500000007	4,13853502	5,5002710949008659E-005	0,070295997024488269	0,000290922442	0,00084609306332820813	-3,1568869776997862E-005	0,00084609306332820813
1	1	0	1	0	0	1	45,4418	0,0500000007	4,14861727	3,921708473025097E-005	0,070274518962393408	0,000291542092	0,00088531014805845914	-3,3032111936214739E-005	0,00088531014805845914
1	1	0	1	0	0	1	48,6244	0,0500000007	4,15873718	6,2001338514602842E-005	0,070132854990007654	0,000291664124	0,00094731148657306189	-3,5345465237880794E-005	0,00094731148657306189
1	1	0	1	0	0	1	51,2486	0,0500000007	4,16916323	5,108846688270569E-005	0,070085544327380621	0,000292198063	0,00099839995345576755	-3,7251644626448806E-005	0,00099839995345576755
1	1	0	1	0	0	1	53,2256	0,0500000007	4,17935991	3,8612629807450701E-005	0,070311315537883712	0,000293856283	0,0010370125832632182	-3,8692333759797715E-005	0,0010370125832632182
1	1	0	1	0	0	1	55,2124	0,0500000007	4,18942308	3,8830953918811347E-005	0,070360095449541773	0,000294768222	0,0010758435371820294	-4,014116885928137E-005	0,0010758435371820294
1	1	0	1	0	0	1	58,4700	0,0500000007	4,20021152	6,3801548516998694E-005	0,070507606969407245	0,000296146871	0,0011396450856990282	-4,2521690416544902E-005	0,0011396450856990282
1	1	0	1	0	0	1	58,4748	0,0500000007	4,20024967	9,4423828025658931E-008	0,070817872808254131	0,00029745276	0,0011397395095270538	-4,2525213496522726E-005	0,0011397395095270538