File: Experimentelles/Rohdaten/Batterietests/AlteZelle/Studenten_Batterietests/SemArbeitToph/ECLab-Export/Al_rein_02_01_GCPL_C01.mpt
EC-Lab ASCII FILE
Nb header lines : 68

Galvanostatic Cycling with Potential Limitation

Run on channel : 1 (SN 6985)
Grouped channel(s) : 1
User :
CE vs. WE compliance from -10 V to 10 V
Electrode connection : standard
Ewe ctrl range : min = -10,00 V, max = 10,00 V
Acquisition started on : 03.13.2015 16:19:02
Saved on :
	File : Al_rein_02_01_GCPL_C01.mpr
	Directory : C:\Hupfer\Studenten Batterietests\SemArbeitToph\
	Host : 192.168.0.2
Device : VMP3 (SN 0324)
Address : 192.168.0.1
EC-Lab for windows v10.33 (software)
Internet server v10.33 (firmware)
Command interpretor v10.32 (firmware)
Electrode material :
Initial state :
Electrolyte :
Comments :
Mass of active material : 0,001 mg
 at x = 0,000
Molecular weight of active material (at x = 0) : 0,001 g/mol
Atomic weight of intercalated ion : 0,001 g/mol
Acquisition started at : xo = 0,000
Number of e- transfered per intercalated ion : 1
for DX = 1, DQ = 26,801 mA.h
Battery capacity : 0,000 A.h
Electrode surface area : 0,001 cm²
Characteristic mass : 0,001 g
Ns                  0                   1
Set I/C             I                   I
Is                  0,000               100,000
unit Is             mA                  µA
vs.                 <None>              <None>
N                   1                   1
I sign              > 0                 > 0
t1 (h:m:s)          0:00:0,0000         10:00:0,0000
I Range             1 A                 1 A
Bandwidth           5                   5
dE1 (mV)            0,00                10,00
dt1 (s)             0,0000              10,0000
EM (V)              0,000               4,200
tM (h:m:s)          0:00:0,0000         0:10:0,0000
Im                  0,000               0,000
unit Im             mA                  mA
E range min (V)     -10,000             -10,000
E range max (V)     10,000              10,000
dq                  0,000               1,000
unit dq             mA.h                mA.h
dtq (s)             0,0000              120,0000
dQM                 0,000               0,000
unit dQM            mA.h                mA.h
dxM                 0,000               0,000
tR (h:m:s)          0:00:0,0000         0:15:0,0000
dER/dt (mV/h)       0,0                 0,1
dER (mV)            0,00                5,00
dtR (s)             1,0000              120,0000
EL (V)              pass                4,200
goto Ns'            0                   0
nc cycles           0                   0

mode	ox/red	error	control changes	Ns changes	counter inc.	Ns	time/s	control/V/mA	Ewe/V	dq/mA.h	<I>/mA	P/W	(Q-Qo)/mA.h	x	Capacity/mA.h
1	1	1	0	1	0	1	0,0004	0,100000001	3,00610542	0	0	0	0	0	0
1	1	0	0	0	0	1	0,2844	0,100000001	3,05808187	1,5046180508202976E-005	0,34325887958102227	0,0010497137	2,2309168888462912E-005	-8,3238508622513344E-007	2,2309168888462912E-005
1	1	0	0	0	0	1	1,5120	0,100000001	3,1086452	2,4880061009691821E-005	0,34291049731077402	0,00106598705	0,00013892833503832421	-5,1836029714129517E-006	0,00013892833503832421
1	1	0	0	0	0	1	2,9294	0,100000001	3,159132	2,8287611413333152E-005	0,34172954248516122	0,00107956876	0,00027337374309698742	-1,0199941909855325E-005	0,00027337374309698742
1	1	0	0	0	0	1	4,4944	0,100000001	3,20969534	3,0883224144577984E-005	0,34209110685881203	0,00109800824	0,00042180897623134989	-1,5738260031391901E-005	0,00042180897623134989
1	1	0	0	0	0	1	6,0972	0,100000001	3,26010585	3,1271534318725267E-005	0,34385316552033747	0,00112099771	0,00057458845440960595	-2,1438667776415725E-005	0,00057458845440960595
1	1	0	0	0	0	1	7,8882	0,100000001	3,31038284	3,3367294194797677E-005	0,34164465908934925	0,00113097462	0,0007452643083093897	-2,7806813361542816E-005	0,0007452643083093897
1	1	0	0	0	0	1	9,8098	0,100000001	3,36094618	3,7576505376232998E-005	0,34246942473869216	0,00115102134	0,0009275866525115241	-3,4609505158723366E-005	0,0009275866525115241
1	1	0	0	0	0	1	11,8326	0,100000001	3,41154766	4,0490215679837594E-005	0,343299058242448	0,00117118109	0,0011202865723429456	-4,1799398255431443E-005	0,0011202865723429456
1	1	0	0	0	0	1	14,0042	0,100000001	3,46192002	4,4069043654534554E-005	0,34074003686452781	0,0011796148	0,0013265257097424733	-4,9494457763277178E-005	0,0013265257097424733
1	1	0	0	0	0	1	16,3504	0,100000001	3,51215863	4,6681848555803296E-005	0,34395141024623341	0,00120801188	0,0015493396832206186	-5,7807946690320269E-005	0,0015493396832206186
1	1	0	0	0	0	1	18,8546	0,100000001	3,56272197	4,8035205283098752E-005	0,34175245728785075	0,00121756899	0,0017864189546927808	-6,6653693065417267E-005	0,0017864189546927808
1	1	0	0	0	0	1	21,5448	0,100000001	3,6129415	5,535646985140112E-005	0,34112169890339533	0,00123245269	0,0020425616789973446	-7,6210722496776102E-005	0,0020425616789973446
1	1	0	0	0	0	1	24,4768	0,100000001	3,66381049	5,8823905737863642E-005	0,3418890313302711	0,00125261664	0,0023210068983501856	-8,6599888004409677E-005	0,0023210068983501856
1	1	0	0	0	0	1	27,6840	0,100000001	3,71414447	6,5573999300599104E-005	0,34093934639759635	0,001266298	0,0026253708762625843	-9,7956117242041843E-005	0,0026253708762625843
1	1	0	0	0	0	1	31,1908	0,100000001	3,76445961	7,1420519620180122E-005	0,34236202014366349	0,00128880795	0,0029582544812692525	-0,00011037645211160768	0,0029582544812692525
1	1	0	0	0	0	1	35,3840	0,100000001	3,8148129	9,033191587610377E-005	0,34116125196085594	0,00130146637	0,0033565889192248371	-0,00012523884555807837	0,0033565889192248371
1	1	0	0	0	0	1	41,2414	0,100000001	3,86558628	0,00014452821677426496	0,34136044714032128	0,00131955824	0,0039112977041254432	-0,00014593577613661341	0,0039112977041254432
1	1	0	0	0	0	1	77,5728	0,100000001	3,88787007	0,00095981195905804634	0,34553231398977715	0,00134338473	0,0073773167029942067	-0,00027525760509651354	0,0073773167029942067
1	1	0	0	0	0	1	127,5728	0,100000001	3,88603687	0,00096371551894893248	0,34693759558599654	0,00134821224	0,012164938635678755	-0,00045389021643112352	0,012164938635678755
1	1	0	0	0	0	1	177,5728	0,100000001	3,88681984	0,00095937198658121946	0,34537392389411821	0,00134240626	0,016962300738987824	-0,00063288624662753306	0,016962300738987824
1	1	0	0	0	0	1	227,5728	0,100000001	3,88758373	0,00096608005988929011	0,34778883034602931	0,00135205814	0,021770367416835494	-0,00081228167889243136	0,021770367416835494
1	1	0	0	0	0	1	277,5728	0,100000001	3,88735437	0,00095957907397713933	0,34544847535853261	0,00134288066	0,026555618801297414	-0,00099082584188561907	0,026555618801297414
1	1	0	0	0	0	1	327,5728	0,100000001	3,88909221	0,00096623237122098611	0,34784366242682496	0,0013527961	0,031396929703363117	-0,0011714616608534269	0,031396929703363117
1	1	0	0	0	0	1	377,5728	0,100000001	3,88871026	0,00096037950546294451	0,34573663070070202	0,00134446961	0,036225853888044755	-0,0013516353147415168	0,036225853888044755
1	1	0	0	0	0	1	427,5728	0,100000001	3,88983679	0,00096377700926694618	0,34695973210104064	0,00134961668	0,04105438934236103	-0,0015317944645770214	0,04105438934236103
1	1	0	0	0	0	1	477,5728	0,100000001	3,8906579	0,00096813715065932941	0,34852938304195136	0,00135600858	0,045890805068633626	-0,0017122476379543546	0,045890805068633626
1	1	0	0	0	0	1	527,5728	0,100000001	3,8923192	0,00097600364036940864	0,35136131940912064	0,00136761041	0,050741881231340269	-0,0018932478119262086	0,050741881231340269
1	1	0	0	0	0	1	577,5728	0,100000001	3,89218545	0,00097173255349530112	0,3498237280955991	0,00136157882	0,05561247413463559	-0,0020749761817299629	0,05561247413463559
1	1	0	0	0	0	1	627,5728	0,100000001	3,8942287	0,00098504656983415283	0,35461677409866822	0,00138095883	0,060515198080307904	-0,0022579034039254486	0,060515198080307904
1	1	0	0	0	0	1	677,5728	0,100000001	3,89333129	0,00099173803361588058	0,35702570112094477	0,00139001932	0,065472098321283853	-0,0024428520165395168	0,065472098321283853
1	1	0	0	0	0	1	727,5728	0,100000001	3,89417148	0,00099524261504328922	0,3582873504666839	0,00139523239	0,070433224416134259	-0,0026279583014433622	0,070433224416134259
1	1	0	0	0	0	1	777,5728	0,100000001	3,89468694	0,0009945623367279767	0,35804245026698464	0,00139446324	0,07540813064963785	-0,0028135787418479507	0,07540813064963785
1	1	0	0	0	0	1	827,5728	0,100000001	3,89573717	0,00099738381255997555	0,35905818159216378	0,00139879633	0,080403825832013453	-0,0029999748458859942	0,080403825832013453
1	1	0	0	0	0	1	877,5728	0,100000001	3,89613819	0,00099709120471361613	0,35895284276481331	0,00139852986	0,085399577910232858	-0,0031863730727844659	0,085399577910232858
1	1	0	0	0	0	1	927,5728	0,100000001	3,89623356	0,0009934099278888768	0,35762758307442835	0,0013934006	0,090384686197523418	-0,0033723741655326547	0,090384686197523418
1	1	0	0	0	0	1	977,5728	0,100000001	3,89692092	0,00099176807168374451	0,35703651482564902	0,00139134307	0,095339249816189184	-0,0035572355956267072	0,095339249816189184
1	1	0	0	0	0	1	1027,5728	0,100000001	3,89772296	0,00099172637178748851	0,35702150286261766	0,0013915709	0,10028383613877742	-0,0037417247593894906	0,10028383613877742
1	1	0	0	0	0	1	1077,5728	0,100000001	3,89690185	0,00098476350315825818	0,35451487009277184	0,0013815097	0,10522676399548352	-0,0039261520435603808	0,10522676399548352
1	1	0	0	0	0	1	1127,5728	0,100000001	3,89713097	0,00098362523008717427	0,35410509177682982	0,00137999386	0,11014569481752894	-0,0041096839661037242	0,11014569481752894
1	1	0	0	0	0	1	1177,5728	0,100000001	3,89791393	0,0009788862532095776	0,35239906005779706	0,00137362117	0,11503900936621842	-0,004292260111046711	0,11503900936621842
1	1	0	0	0	0	1	1227,5728	0,100000001	3,89768481	0,0009849681170442039	0,35458853109357312	0,00138207432	0,119951358276498	-0,0044755464536125965	0,119951358276498
1	1	0	0	0	0	1	1277,5728	0,100000001	3,89902139	0,00098721851244072115	0,35539867345678528	0,00138570706	0,12488683735212766	-0,0046596958137465331	0,12488683735212766
1	1	0	0	0	0	1	1327,5728	0,100000001	3,89997625	0,00099016579611599437	0,3564596956066873	0,00139018439	0,12983665669252229	-0,0048443802284395386	0,12983665669252229
1	1	0	0	0	0	1	1377,5728	0,100000001	3,89974713	0,00098436770492212646	0,35437238272416486	0,00138196268	0,13477691997957067	-0,0050287080939339475	0,13477691997957067
1	1	0	0	0	0	1	1427,5728	0,100000001	3,90009069	0,00098705029802189926	0,35533811626447962	0,00138585083	0,13971025220317893	-0,0052127773521324909	0,13971025220317893
1	1	0	0	0	0	1	1477,5728	0,100000001	3,89959431	0,00098761819797257587	0,35554256025188787	0,00138647179	0,14464782582891734	-0,005397004862747136	0,14464782582891734
1	1	0	0	0	0	1	1527,5728	0,100000001	3,90058732	0,00098301138919923034	0,35388410905158746	0,00138035591	0,14957425455358877	-0,0055808165421184928	0,14957425455358877
1	1	0	0	0	0	1	1577,5728	0,100000001	3,90058732	0,00098664601872944166	0,35519257571551821	0,00138545968	0,15451331100938723	-0,0057650993791163648	0,15451331100938723
1	1	0	0	0	0	1	1627,5728	0,100000001	3,90108371	0,0009821388663219081	0,35357000080781645	0,0013793062	0,1594270112881048	-0,0059484361430556058	0,1594270112881048
1	1	0	0	0	0	1	1677,5728	0,100000001	3,90085459	0,00098211518892480269	0,35356147694464314	0,00137919188	0,16433296063421338	-0,0061314837092779648	0,16433296063421338
1	1	0	0	0	0	1	1727,5728	0,100000001	3,90075898	0,00098290431188792	0,35384556121854195	0,00138026627	0,16923990866490618	-0,0063145685377649088	0,16923990866490618
1	1	0	0	0	0	1	1777,5728	0,100000001	3,90087366	0,00098280253517131008	0,3538089215996368	0,00138016394	0,17414078755392048	-0,0064974269184157798	0,17414078755392048
1	1	0	0	0	0	1	1827,5728	0,100000001	3,90140843	0,00098258767310364378	0,35373157125332288	0,00138005137	0,17903626238379379	-0,0066800836663542643	0,17903626238379379
1	1	0	0	0	0	1	1877,5728	0,100000001	3,90224862	0,00098129814871400602	0,35326734246132582	0,00137853704	0,18394447343559974	-0,0068632156198570893	0,18394447343559974
1	1	0	0	0	0	1	1927,5728	0,100000001	3,90200019	0,00098183247611009408	0,35345970032877696	0,00137919979	0,18886196136124595	-0,0070466937059957837	0,18886196136124595
1	1	0	0	0	0	1	1977,5728	0,100000001	3,90295506	0,00097798793247176538	0,35207566458401498	0,00137413549	0,19376798350703798	-0,0072297439884722125	0,19376798350703798
1	1	0	0	0	0	1	2027,5727	0,100000001	3,90276408	0,00097538803270376384	0,35113970064388992	0,00137041544	0,19865909642780899	-0,0074122379877174426	0,19865909642780899
1	1	0	0	0	0	1	2077,5727	0,100000001	3,90301228	0,00097768507614566234	0,35196663630386355	0,00137373013	0,20355486527954368	-0,0075949057060068915	0,20355486527954368
1	1	0	0	0	0	1	2127,5727	0,100000001	3,90408158	0,00097806497172266253	0,35210339871503846	0,00137464039	0,20845386448059059	-0,0077776939529724314	0,20845386448059059
1	1	0	0	0	0	1	2177,5727	0,100000001	3,90348959	0,00097101375569403174	0,34956496088060512	0,0013645232	0,21331519923868851	-0,0079590768889311616	0,21331519923868851
1	1	0	0	0	0	1	2227,5727	0,100000001	3,90436792	0,00097724333715107712	0,35180761026179552	0,00137358636	0,21819135487422419	-0,0081410128117539776	0,21819135487422419
1	1	0	0	0	0	1	2277,5727	0,100000001	3,90419626	0,00097650368903908454	0,35154133693475162	0,00137248635	0,22308492633834141	-0,0083235985425569997	0,22308492633834141
1	1	0	0	0	0	1	2327,5727	0,100000001	3,90499806	0,00098056486161632666	0,35300335909949248	0,00137847743	0,22798549282969194	-0,0085064452672310131	0,22798549282969194
1	1	0	0	0	0	1	2377,5727	0,100000001	3,90532279	0,00097875726517869363	0,35235262436550566	0,00137605076	0,23288368064365194	-0,008689203240253417	0,23288368064365194
1	1	0	0	0	0	1	2427,5727	0,100000001	3,90553284	0,0009773907012335127	0,35186066133281254	0,00137420336	0,23775846193972138	-0,0088710878846229286	0,23775846193972138
1	1	0	0	0	0	1	2477,5727	0,100000001	3,90515089	0,00097791018630647002	0,3520476759638016	0,00137479929	0,24264960843313974	-0,009053583136508768	0,24264960843313974
1	1	0	0	0	0	1	2527,5727	0,100000001	3,90583825	0,00098225972609139149	0,3536135103259296	0,0013811572	0,24756068230630781	-0,009236821905725719	0,24756068230630781
1	1	0	0	0	0	1	2577,5727	0,100000001	3,90599108	0,00097759319415191795	0,35193355878527994	0,00137464935	0,25246299702381747	-0,0094197338590682432	0,25246299702381747
1	1	0	0	0	0	1	2627,5727	0,100000001	3,90616298	0,00098075569273779789	0,3530720583049577	0,00137915695	0,25736169866892355	-0,0096025110038215616	0,25736169866892355
1	1	0	0	0	0	1	2677,5727	0,100000001	3,90541816	0,00098045919786310861	0,35296532014737306	0,0013784772	0,26225873513445334	-0,0097852260184860326	0,26225873513445334
1	1	0	0	0	0	1	2727,5727	0,100000001	3,90635395	0,00098030617922627277	0,35291023343672058	0,00137859234	0,26716866790779677	-0,0099684222117342976	0,26716866790779677
1	1	0	0	0	0	1	2777,5727	0,100000001	3,90698409	0,00098209610600521178	0,35355460709341683	0,00138133217	0,27206980053112323	-0,010151290059553506	0,27206980053112323
1	1	0	0	0	0	1	2827,5727	0,100000001	3,90767145	0,0009791993576536576	0,35251177766051328	0,00137750024	0,27697128336584397	-0,010334170974230696	0,27697128336584397
1	1	0	0	0	0	1	2877,5727	0,100000001	3,9076333	0,00098498614014602368	0,35459501941039219	0,00138562731	0,28187815859771763	-0,010517253086495818	0,28187815859771763
1	1	0	0	0	0	1	2927,5727	0,100000001	3,9060483	0,00097433881393737267	0,3507619818784471	0,0013700932	0,28677130917258554	-0,010699823113355056	0,28677130917258554
1	1	0	0	0	0	1	2977,5727	0,100000001	3,90719414	0,00097398224223653478	0,35063361606290272	0,00136999355	0,29164509319919674	-0,01088167054826024	0,29164509319919674
1	1	0	0	0	0	1	3027,5727	0,100000001	3,90707946	0,00098249720493041805	0,35369900271013882	0,00138193008	0,29651405202108365	-0,011063337948289598	0,29651405202108365
1	1	0	0	0	0	1	3077,5727	0,100000001	3,9075377	0,0009735369694373673	0,35047331785115296	0,00136948773	0,30138053922482413	-0,011244913128922789	0,30138053922482413
1	1	0	0	0	0	1	3127,5727	0,100000001	3,90883636	0,00097412713268813158	0,35068577662679526	0,0013707733	0,30624597296866771	-0,011426449003550838	0,30624597296866771
1	1	0	0	0	0	1	3177,5727	0,100000001	3,90782428	0,00097037129031121728	0,34933367333694912	0,00136513461	0,31110337872312717	-0,011607685343101214	0,31110337872312717
1	1	0	0	0	0	1	3227,5727	0,100000001	3,90881705	0,00096956944559100608	0,3490450092303808	0,00136435311	0,31594318170534656	-0,011788264899552138	0,31594318170534656
1	1	0	0	0	0	1	3277,5727	0,100000001	3,90967631	0,0009741794343541065	0,35070460522702189	0,00137114152	0,32079593753732166	-0,011969327744242736	0,32079593753732166
1	1	0	0	0	0	1	3327,5727	0,100000001	3,90927553	0,00097770062527391642	0,35197223399017638	0,00137595646	0,32566804118838496	-0,012151112482076936	0,32566804118838496
1	1	0	0	0	0	1	3377,5727	0,100000001	3,90900803	0,00097898802945762867	0,35243569950802093	0,00137767394	0,33057137579341562	-0,012334062488794122	0,33057137579341562
1	1	0	0	0	0	1	3427,5727	0,100000001	3,91005826	0,00098406166882564621	0,35426220972664877	0,00138518587	0,33547153729895661	-0,012516894102903074	0,33547153729895661
1	1	0	0	0	0	1	3477,5727	0,100000001	3,90990567	0,0009736415730292599	0,3505109751451856	0,0013704648	0,34035476252630182	-0,012699093801701469	0,34035476252630182
1	1	0	0	0	0	1	3527,5727	0,100000001	3,90914178	0,0009718194876950647	0,34985502440830464	0,00136763288	0,34522204698107226	-0,012880698728842501	0,34522204698107226
1	1	0	0	0	0	1	3577,5727	0,100000001	3,91078401	0,00097366701697392602	0,35052013496549677	0,00137080858	0,3500865884118999	-0,013062201310072195	0,3500865884118999
1	1	0	0	0	0	1	3627,5727	0,100000001	3,91110849	0,00097235169490343987	0,35004661900815974	0,00136907026	0,3549542078807776	-0,013243818737040003	0,3549542078807776
1	1	0	0	0	0	1	3677,5727	0,100000001	3,91194868	0,00097157988838934246	0,34976876865606554	0,00136827747	0,35982082336569734	-0,01342539870401647	0,35982082336569734
1	1	0	0	0	0	1	3727,5727	0,100000001	3,91282701	0,00097159897157218726	0,34977563860206323	0,00136861159	0,36467787184118803	-0,013606621713008157	0,36467787184118803
1	1	0	0	0	0	1	3777,5727	0,100000001	3,91246438	0,00096825058911740774	0,34857022088789126	0,00136376859	0,36952559538126406	-0,013787496796122013	0,36952559538126406
1	1	0	0	0	0	1	3827,5727	0,100000001	3,91259789	0,0009687124716978935	0,34873649862106662	0,00136446569	0,37437168660659923	-0,013968310975378219	0,37437168660659923
1	1	0	0	0	0	1	3877,5727	0,100000001	3,91267443	0,00096372859444552	0,34694230276488698	0,00135747227	0,37921005799993466	-0,014148837117323088	0,37921005799993466
1	1	0	0	0	0	1	3927,5727	0,100000001	3,91261697	0,00097095898003710643	0,34954524164361382	0,00136763661	0,38404430037022061	-0,01432920919986645	0,38404430037022061
1	1	0	0	0	0	1	3977,5727	0,100000001	3,91351461	0,00097585274234000179	0,35130699611716186	0,00137484504	0,38892183387821018	-0,014511196532963091	0,38892183387821018
1	1	0	0	0	0	1	4027,5727	0,100000001	3,91416383	0,00097038436575896205	0,34933838049825613	0,00136736769	0,39378207948532134	-0,014692538831234125	0,39378207948532134
1	1	0	0	0	0	1	4077,5727	0,100000001	3,91357183	0,00096187611789090778	0,34627541118837946	0,00135517365	0,39862111207513773	-0,014873089643308688	0,39862111207513773
1	1	0	0	0	0	1	4127,5727	0,100000001	3,91460299	0,00096801346368259853	0,34848485114490893	0,00136417989	0,40344917787272915	-0,01505323126962033	0,40344917787272915
1	1	0	0	0	0	1	4177,5727	0,100000001	3,91519475	0,00096773075073791872	0,348383074483592	0,00136398757	0,40829152739210125	-0,015233905840796272	0,40829152739210125
1	1	0	0	0	0	1	4227,5727	0,100000001	3,91542387	0,00097477807966619725	0,35092011292848877	0,00137400103	0,41313826603127046	-0,015414744175933085	0,41313826603127046
1	1	0	0	0	0	1	4277,5727	0,100000001	3,91662693	0,00098045990443560819	0,35296556987024141	0,00138243451	0,41802268925586618	-0,015596988573619619	0,41802268925586618
1	1	0	0	0	0	1	4327,5727	0,100000001	3,91721892	0,0009799517277619904	0,3527826262655241	0,00138192682	0,42291902494639597	-0,015779677441426637	0,42291902494639597
1	1	0	0	0	0	1	4377,5727	0,100000001	3,91719985	0,00097227606940352256	0,35001938922302054	0,00137109589	0,42779735005064826	-0,015961694310044154	0,42779735005064826
1	1	0	0	0	0	1	4427,5727	0,100000001	3,91868925	0,00097278707306914867	0,35020335054487322	0,00137233816	0,43266509073306726	-0,01614331625965216	0,43266509073306726
1	1	0	0	0	0	1	4477,5727	0,100000001	3,91825008	0,00097297719758583437	0,3502717953717088	0,00137245248	0,43754928849378586	-0,016325552244978298	0,43754928849378586
1	1	0	0	0	0	1	4527,5727	0,100000001	3,91973948	0,00097402252884374733	0,35064811462911354	0,00137444923	0,44241985029897536	-0,016507279454469914	0,44241985029897536
1	1	0	0	0	0	1	4577,5727	0,100000001	3,91893744	0,00097418120179573683	0,35070523689252141	0,00137439184	0,44728483947607814	-0,016688798741715136	0,44728483947607814
1	1	0	0	0	0	1	4627,5727	0,100000001	3,9190712	0,00097264642319331558	0,35015271658896032	0,00137227343	0,45214003370786816	-0,016869952566381293	0,45214003370786816
1	1	0	0	0	0	1	4677,5727	0,100000001	3,92023587	0,00096553124328371546	0,3475912517904921	0,00136263971	0,45698838133685734	-0,017050850935091594	0,45698838133685734
1	1	0	0	0	0	1	4727,5727	0,100000001	3,91979671	0,00096286738004866573	0,34663226101426355	0,00135872804	0,46182284775639027	-0,0172312313772136	0,46182284775639027
1	1	0	0	0	0	1	4777,5727	0,100000001	3,92090416	0,00096625852270093222	0,34785307238386003	0,00136389851	0,46664157978267917	-0,017411024747968557	0,46664157978267917
1	1	0	0	0	0	1	4827,5727	0,100000001	3,92141986	0,00096759893580940032	0,34833562110875091	0,00136597024	0,47147495669745107	-0,017591364539203072	0,47147495669745107
1	1	0	0	0	0	1	4877,5727	0,100000001	3,92212629	0,00096739644258883264	0,34826272354846394	0,00136593042	0,47630849122439277	-0,017771710211159558	0,47630849122439277
1	1	0	0	0	0	1	4927,5727	0,100000001	3,92250824	0,00096237581269360256	0,34645529676429818	0,00135897379	0,48113477769696666	-0,017951785448462464	0,48113477769696666
1	1	0	0	0	0	1	4977,5727	0,100000001	3,92245102	0,0009616548941681783	0,34619576609200326	0,00135793595	0,48594143257676339	-0,018131128204643898	0,48594143257676339
1	1	0	0	0	0	1	5027,5727	0,100000001	3,92287111	0,00096614155022882752	0,34781096229339251	0,00136441761	0,49076769289793933	-0,018311202466202989	0,49076769289793933
1	1	0	0	0	0	1	5077,5727	0,100000001	3,92281365	0,00096388620679328845	0,34699903864676832	0,00136121258	0,49559904594038867	-0,018491466744040026	0,49559904594038867
1	1	0	0	0	0	1	5127,5727	0,100000001	3,92392111	0,00096761024419466662	0,348339692127496	0,00136685744	0,50041363410151194	-0,018671105501614163	0,50041363410151194
1	1	0	0	0	0	1	5177,5727	0,100000001	3,92386389	0,00096190014791240294	0,34628405744099309	0,00135877146	0,5052427777418985	-0,018851287343689664	0,5052427777418985
1	1	0	0	0	0	1	5227,5727	0,100000001	3,92441773	0,00096879198456555597	0,34876511866616691	0,00136870006	0,51006924585704038	-0,019031369358321008	0,51006924585704038
1	1	0	0	0	0	1	5277,5727	0,100000001	3,92577338	0,00097445013215392832	0,3508020518226425	0,00137716939	0,51492618548805216	-0,019212588306178842	0,51492618548805216
1	1	0	0	0	0	1	5327,5727	0,100000001	3,92605996	0,00097352601440747584	0,35046936942989178	0,00137596379	0,5198011615031488	-0,019394480215777062	0,5198011615031488
1	1	0	0	0	0	1	5377,5727	0,100000001	3,92655635	0,00097470068655908096	0,3508922514095895	0,00137779815	0,52468024710556051	-0,019576525459603402	0,52468024710556051
1	1	0	0	0	0	1	5427,5727	0,100000001	3,92691922	0,00097178485557188582	0,34984255224149043	0,00137380348	0,52954344741728346	-0,019757978001876144	0,52954344741728346
1	1	0	0	0	0	1	5477,5727	0,100000001	3,9278357	0,00097853533542321779	0,35227272501739251	0,00138366944	0,53442850462523462	-0,019940246054334074	0,53442850462523462
1	1	0	0	0	0	1	5527,5727	0,100000001	3,92877126	0,00097460562478999296	0,35085802917230355	0,001378441	0,53931572529462592	-0,020122594828447139	0,53931572529462592
1	1	0	0	0	0	1	5577,5727	0,100000001	3,92905784	0,00097157105347100237	0,34976558348424045	0,00137424923	0,54418906758110432	-0,020304425781434038	0,54418906758110432
1	1	0	0	0	0	1	5627,5727	0,100000001	3,92993617	0,00097388541313509146	0,35059875297339987	0,00137783075	0,54906409024417946	-0,020486319431531053	0,54906409024417946
1	1	0	0	0	0	1	5677,5727	0,100000001	3,93062353	0,00097448476449648538	0,35081451946611405	0,00137891981	0,55394133927216838	-0,020668296150296381	0,55394133927216838
1	1	0	0	0	0	1	5727,5727	0,100000001	3,93131089	0,00097170710932628979	0,34981456359273696	0,0013752298	0,55880146013128704	-0,02084963379405209	0,55880146013128704
1	1	0	0	0	0	1	5777,5727	0,100000001	3,9315784	0,00097326450456513306	0,35037522588550854	0,00137752772	0,56365113686488512	-0,021030581753442352	0,56365113686488512
1	1	0	0	0	0	1	5827,5727	0,100000001	3,93230391	0,0009757877182828055	0,35128358283486829	0,00138135382	0,56852816714401722	-0,021212550310393722	0,56852816714401722
1	1	0	0	0	0	1	5877,5727	0,100000001	3,9325521	0,00097518200543771187	0,3510655262079945	0,0013805835	0,57341243028178246	-0,021394788735025373	0,57341243028178246
1	1	0	0	0	0	1	5927,5727	0,100000001	3,93409872	0,00097689842708326042	0,35168343800787315	0,00138355733	0,57830092103958298	-0,021577184897844637	0,57830092103958298
1	1	0	0	0	0	1	5977,5727	0,100000001	3,93364048	0,00098339693933228659	0,35402290244584691	0,00139259885	0,58321225288991475	-0,021760433292536419	0,58321225288991475
1	1	0	0	0	0	1	6027,5727	0,100000001	3,93488169	0,00098366268947389389	0,35411857249798387	0,00139341468	0,58811940023298419	-0,021943525557636112	0,58811940023298419
1	1	0	0	0	0	1	6077,5727	0,100000001	3,93541646	0,00097632593338357069	0,35147734027348966	0,00138320972	0,59301691024323238	-0,022126258240890714	0,59301691024323238
1	1	0	0	0	0	1	6127,5727	0,100000001	3,93566465	0,00097531063996172621	0,35111183463720038	0,00138185848	0,59789453704599296	-0,022308249054940694	0,59789453704599296
1	1	0	0	0	0	1	6177,5727	0,100000001	3,93677211	0,00098113099464691366	0,35320716234923635	0,00139049615	0,60279065752127949	-0,022490929892777626	0,60279065752127949
1	1	0	0	0	0	1	6227,5727	0,100000001	3,9370966	0,0009806896087792183	0,35304826343494221	0,00138998509	0,60769273087196723	-0,022673832840399501	0,60769273087196723
1	1	0	0	0	0	1	6277,5727	0,100000001	3,93843341	0,00098395140985565056	0,35422251183667469	0,00139508175	0,61258689673971059	-0,022856440749201002	0,61258689673971059
1	1	0	0	0	0	1	6327,5727	0,100000001	3,93906355	0,00097924706553667776	0,35252894786134022	0,00138863397	0,61748995817291571	-0,023039380563510096	0,61748995817291571
1	1	0	0	0	0	1	6377,5727	0,100000001	3,94030476	0,00098246292617917056	0,35368665770665421	0,0013936332	0,62239866432588557	-0,023222530989903014	0,62239866432588557
1	1	0	0	0	0	1	6427,5727	0,100000001	3,940171	0,00098320116048389005	0,35395242205957082	0,00139463309	0,62729855902034624	-0,023405352648931827	0,62729855902034624
1	1	0	0	0	0	1	6477,5727	0,100000001	3,94036198	0,0009791979440839753	0,35251126413815315	0,00138902199	0,63219879756460352	-0,023588187137458861	0,63219879756460352
1	1	0	0	0	0	1	6527,5727	0,100000001	3,94187045	0,00097396492601599962	0,35062737761087334	0,00138212775	0,6370792299417664	-0,023770282631261926	0,6370792299417664
1	1	0	0	0	0	1	6577,5727	0,100000001	3,94265342	0,00097631780518674176	0,35147441412259578	0,00138574175	0,64197254661048371	-0,023952858855306003	0,64197254661048371
1	1	0	0	0	0	1	6627,5727	0,100000001	3,94292068	0,00097671855106867021	0,35161868264183674	0,00138640462	0,64687162744460262	-0,024135650148111213	0,64687162744460262
1	1	0	0	0	0	1	6677,5727	0,100000001	3,94431448	0,0009814006317812535	0,35330423171877395	0,00139354297	0,65176246719425075	-0,024318133954974566	0,65176246719425075
1	1	0	0	0	0	1	6727,5727	0,100000001	3,94484925	0,00098345383546501402	0,3540433850538768	0,00139664777	0,65667315445921907	-0,024501358299319782	0,65667315445921907
1	1	0	0	0	0	1	6777,5727	0,100000001	3,94656777	0,00098051962765471795	0,35298707022938118	0,00139308744	0,66158448701568768	-0,024684606720358483	0,66158448701568768
1	1	0	0	0	0	1	6827,5727	0,100000001	3,94752264	0,00098990181281169254	0,35636465692678522	0,00140675751	0,66649860394261606	-0,024867959030002656	0,66649860394261606
1	1	0	0	0	0	1	6877,5727	0,100000001	3,94887829	0,00098493737191375757	0,35457745818189062	0,00140018319	0,67143695467597325	-0,025052215535547389	0,67143695467597325
1	1	0	0	0	0	1	6927,5727	0,100000001	3,94962287	0,00098443202269491226	0,35439553246090374	0,0013997287	0,67635767118449523	-0,025235814084454054	0,67635767118449523
1	1	0	0	0	0	1	6977,5727	0,100000001	3,95052052	0,0009857985863726999	0,35488749539086355	0,0014019903	0,68127906408411034	-0,025419437870421821	0,68127906408411034
1	1	0	0	0	0	1	7027,5727	0,100000001	3,9510932	0,00098309691013064653	0,3539148919319488	0,00139835069	0,6861943252913879	-0,025602832874704326	0,6861943252913879
1	1	0	0	0	0	1	7077,5727	0,100000001	3,95141792	0,00098384539265847872	0,35418434564523078	0,00139953033	0,69109971097932698	-0,025785859410082534	0,69109971097932698
1	1	0	0	0	0	1	7127,5727	0,100000001	3,95239162	0,00097684718531949632	0,35166499097269478	0,0013899178	0,69598190501212774	-0,025968020633626026	0,69598190501212774
1	1	0	0	0	0	1	7177,5727	0,100000001	3,95437765	0,00098015704800685261	0,35285654155456934	0,00139532797	0,70087418589105984	-0,026150558210960579	0,70087418589105984
1	1	0	0	0	0	1	7227,5727	0,100000001	3,95479774	0,00098051079297065741	0,3529838897430809	0,0013959799	0,70578281288410675	-0,026333705683790339	0,70578281288410675
1	1	0	0	0	0	1	7277,5727	0,100000001	3,95542789	0,00097909157353805171	0,35247297074115706	0,0013941814	0,71067894431461082	-0,026516386930381171	0,71067894431461082
1	1	0	0	0	0	1	7327,5727	0,100000001	3,95726085	0,00097888801984075034	0,35239969140924141	0,00139453751	0,71557011589925248	-0,026698883118454288	0,71557011589925248
1	1	0	0	0	0	1	7377,5727	0,100000001	3,95779562	0,00097287436080227302	0,3502347741291785	0,0013861577	0,72043929205750771	-0,026880558627595763	0,72043929205750771
1	1	0	0	0	0	1	7427,5727	0,100000001	3,95903683	0,00097960363710754458	0,3526573136284064	0,00139618327	0,72532876559592397	-0,027062991459281165	0,72532876559592397
1	1	0	0	0	0	1	7477,5727	0,100000001	3,95970511	0,00097838231675244032	0,35221763829524563	0,00139467802	0,73022601091591283	-0,02724571426658631	0,73022601091591283
1	1	0	0	0	0	1	7527,5727	0,100000001	3,96088886	0,00097296341533627776	0,35026683376180826	0,00138736796	0,73511401328680768	-0,027428092207033478	0,73511401328680768
1	1	0	0	0	0	1	7577,5727	0,100000001	3,96205378	0,0009782077416959735	0,35215479127415667	0,00139525626	0,7399989248975552	-0,027610354827063981	0,7399989248975552
1	1	0	0	0	0	1	7627,5727	0,100000001	3,96384859	0,00097994218617015411	0,35277919129242138	0,00139836327	0,74489921079622976	-0,027793191082447994	0,74489921079622976
1	1	0	0	0	0	1	7677,5727	0,100000001	3,9648416	0,00098328915489878912	0,35398410004931808	0,0014034909	0,74979872418102976	-0,027975998514300688	0,74979872418102976
1	1	0	0	0	0	1	7727,5727	0,100000001	3,9652617	0,00098218092017869158	0,35358513554525261	0,00140205759	0,7547187688930807	-0,028159571997577779	0,7547187688930807
1	1	0	0	0	0	1	7777,5727	0,100000001	3,96680832	0,00098012524282518362	0,35284509168902989	0,00139966886	0,75961915480093094	-0,028342411984438598	0,75961915480093094
1	1	0	0	0	0	1	7827,5727	0,100000001	3,96734309	0,00098047085972709786	0,35296951377522541	0,00140035118	0,76453704877349504	-0,028525905220733734	0,76453704877349504
1	1	0	0	0	0	1	7877,5727	0,100000001	3,96023965	0,00098636047867106061	0,35508977662072243	0,00140624063	0,7694579822644064	-0,028709511865545085	0,7694579822644064
1	1	0	0	0	0	1	7927,5727	0,100000001	3,9483819	0,00098144374570664422	0,35331975273210253	0,00139504136	0,77438048587278374	-0,028893177093550131	0,77438048587278374
1	1	0	0	0	0	1	7977,5726	0,100000001	3,94311166	0,00098517449753152	0,35466282340531866	0,00139847514	0,7793015296215831	-0,029076787852231526	0,7793015296215831
1	1	0	0	0	0	1	8027,5726	0,100000001	3,94681597	0,00098738884738336013	0,35545998936163251	0,00140293513	0,7842225468659799	-0,029260397621998022	0,7842225468659799
1	1	0	0	0	0	1	8077,5726	0,100000001	3,94864917	0,00098821684307936166	0,35575806781580192	0,00140476378	0,7891533519886825	-0,029444372590664058	0,7891533519886825
1	1	0	0	0	0	1	8127,5726	0,100000001	3,9432261	0,00098268520930657779	0,3537666796334896	0,00139498198	0,79407873997623155	-0,029628145438734086	0,79407873997623155
1	1	0	0	0	0	1	8177,5726	0,100000001	3,94213772	0,00098541480358607245	0,35474933358600493	0,00139847072	0,7989887632183808	-0,029811345007495136	0,7989887632183808
1	1	0	0	0	0	1	8227,5726	0,100000001	3,94414282	0,00098868579320361216	0,35592688986257606	0,00140382652	0,80391658430475187	-0,029995208637753555	0,80391658430475187
1	1	0	0	0	0	1	8277,5726	0,100000001	3,94530749	0,00099122243582788442	0,3568400812183703	0,0014078439	0,80885266379237274	-0,03017938040006615	0,80885266379237274
1	1	0	0	0	0	1	8327,5726	0,100000001	3,94750333	0,00098674532161570266	0,35522832008247091	0,00140226493	0,81379134600653261	-0,030363649273605306	0,81379134600653261
1	1	0	0	0	0	1	8377,5726	0,100000001	3,94696879	0,00098604596027897472	0,35497654999820064	0,00140108133	0,81873047844151501	-0,030547934945488691	0,81873047844151501
1	1	0	0	0	0	1	8427,5726	0,100000001	3,94958472	0,00098941236577928064	0,35618845599298355	0,00140679651	0,82367986841121254	-0,030732603339783693	0,82367986841121254
1	1	0	0	0	0	1	8477,5726	0,100000001	3,95048213	0,00098441046539362931	0,35438777183234784	0,00140000251	0,82861296562980557	-0,030916663829629152	0,82861296562980557
1	1	0	0	0	0	1	8527,5726	0,100000001	3,95485497	0,00097439924379686515	0,35078373201387795	0,00138729881	0,83351175350223834	-0,031099444191639962	0,83351175350223834
1	1	0	0	0	0	1	8577,5726	0,100000001	3,95454955	0,0009817331730243232	0,35342394656772845	0,00139763253	0,83841493402860595	-0,031282388449475072	0,83841493402860595
1	1	0	0	0	0	1	8627,5726	0,100000001	3,95481682	0,00097839185843533939	0,35222107330113088	0,00139296986	0,84330737428678426	-0,03146493197346359	0,84330737428678426
1	1	0	0	0	0	1	8677,5726	0,100000001	3,95504594	0,00097202551484604672	0,34992918958123718	0,00138398597	0,84819584808152102	-0,031647327503368141	0,84819584808152102
1	1	0	0	0	0	1	8727,5726	0,100000001	3,95449209	0,00097722284026526733	0,35180022675480966	0,00139119127	0,85309484516247974	-0,031830115671230336	0,85309484516247974
1	1	0	0	0	0	1	8777,5726	0,100000001	3,95464492	0,00098080658147401267	0,35309037360557798	0,00139634707	0,85799737403586701	-0,032013035615016595	0,85799737403586701
1	1	0	0	0	0	1	8827,5726	0,100000001	3,95825386	0,00098459670277105434	0,35445481728903264	0,00140302209	0,86291136727561741	-0,032196383309725856	0,86291136727561741
1	1	0	0	0	0	1	8877,5726	0,100000001	3,96102262	0,00098813803641912	0,35572969741777152	0,00140905334	0,86783692524453043	-0,03238016250002912	0,86783692524453043
1	1	0	0	0	0	1	8927,5726	0,100000001	3,96182466	0,00098455040850407539	0,35443815135271846	0,00140422175	0,87277178765212109	-0,032564288851449402	0,87277178765212109
1	1	0	0	0	0	1	8977,5726	0,100000001	3,96400142	0,00098775354718830835	0,35559128129300346	0,0014095644	0,87770468979945549	-0,03274834206292393	0,87770468979945549
1	1	0	0	0	0	1	9027,5726	0,100000001	3,96522355	0,00098946608139574528	0,35620779361514496	0,00141244358	0,88263436901755571	-0,032932275022575443	0,88263436901755571
1	1	0	0	0	0	1	9077,5726	0,100000001	3,96969175	0,00098745811201963149	0,35548492463099213	0,00141116558	0,88757536912462541	-0,033116630379815514	0,88757536912462541
1	1	0	0	0	0	1	9127,5726	0,100000001	3,97318602	0,00098700047011590669	0,35532017354365651	0,00141175312	0,89251017499002419	-0,033300754621570598	0,89251017499002419
1	1	0	0	0	0	1	9177,5726	0,100000001	3,97469449	0,00098038463209652237	0,35293847182784243	0,00140282256	0,89743549547986534	-0,033484524951210394	0,89743549547986534
1	1	0	0	0	0	1	9222,8406	0,100000001	3,97837996	0,00098961415213015347	0,35626109908017734	0,00141734199	0,90189110374517094	-0,033650769686217978	0,90189110374517094
1	1	0	0	0	0	1	9272,8406	0,100000001	3,97985029	0,00098554449840303923	0,35479602372067827	0,00141203508	0,90682234495318374	-0,033834760925813248	0,90682234495318374
1	1	0	0	0	0	1	9322,8406	0,100000001	3,98519683	0,00098954276723663002	0,35623540051819776	0,0014196682	0,91176318497478643	-0,034019110310049312	0,91176318497478643
1	1	0	0	0	0	1	9372,8406	0,100000001	3,98517776	0,00098445004510217242	0,3544020205275959	0,00141235499	0,91670190005470426	-0,034203380409854093	0,91670190005470426
1	1	0	0	0	0	1	9422,8406	0,100000001	3,98756456	0,00098853736894246605	0,35587345712791654	0,00141906843	0,92165219293925286	-0,034388082493116166	0,92165219293925286
1	1	0	0	0	0	1	9472,8406	0,100000001	3,9899323	0,00098978696072184371	0,35632331017393901	0,00142170594	0,92659438044241843	-0,03457248215370105	0,92659438044241843
1	1	0	0	0	0	1	9522,8406	0,100000001	3,98997045	0,00098442707511037581	0,35439375133044896	0,00141402055	0,93152318112988634	-0,034756382334193472	0,93152318112988634
1	1	0	0	0	0	1	9572,8406	0,100000001	3,99403763	0,00098494267243478029	0,35457936636948192	0,00141620333	0,93645188604782554	-0,034940278941396032	0,93645188604782554
1	1	0	0	0	0	1	9622,8406	0,100000001	3,99783754	0,00098700647804803315	0,35532233639924819	0,00142052094	0,94137869042796672	-0,035124104636978035	0,94137869042796672
1	1	0	0	0	0	1	9672,8406	0,100000001	3,99907875	0,00097446391467418931	0,35080701352999654	0,00140290486	0,94626200046971891	-0,035306307500315994	0,94626200046971891
1	1	0	0	0	0	1	9722,8406	0,100000001	3,9994607	0,00097628458655625574	0,35146245541547597	0,0014056603	0,95114528400700493	-0,035488509374736678	0,95114528400700493
1	1	0	0	0	0	1	9772,8406	0,100000001	3,9990406	0,00096914466920991744	0,34889208513967424	0,00139523356	0,95600953424307085	-0,035670001091098298	0,95600953424307085
1	1	0	0	0	0	1	9822,8406	0,100000001	4,00108385	0,00097400026555690509	0,35064009984575334	0,00140294048	0,96086281415468416	-0,035851083489904832	0,96086281415468416
1	1	0	0	0	0	1	9872,8406	0,100000001	4,00440645	0,00097815862050818061	0,35213710764633715	0,00141010014	0,96575462078377574	-0,036033603372340198	0,96575462078377574
1	1	0	0	0	0	1	9922,8406	0,100000001	4,00751877	0,00097677191320475597	0,35163789301106016	0,00140919548	0,97065009313994125	-0,036216260027981318	0,97065009313994125
1	1	0	0	0	0	1	9972,8406	0,100000001	4,00767183	0,00097808299489816026	0,35210988242640019	0,0014111409	0,97554403177792474	-0,036398859458534963	0,97554403177792474
1	1	0	0	0	0	1	10022,8406	0,100000001	4,00994396	0,00097752463652193549	0,35190887340852557	0,00141113484	0,98043511607377869	-0,036581352389746054	0,98043511607377869
1	1	0	0	0	0	1	10072,8406	0,100000001	4,01490879	0,00097777731106016371	0,35199983624338906	0,0014132472	0,98530833926859712	-0,036763178899262995	0,98530833926859712
1	1	0	0	0	0	1	10122,8406	0,100000001	4,01735258	0,00097517493787242304	0,35106298188445971	0,0014103438	0,99019653282423053	-0,036945563973069811	0,99019653282423053
1	1	0	0	0	0	1	10172,8406	0,100000001	4,02143908	0,00096877714238978099	0,34875977548282323	0,00140251615	0,99507389034324774	-0,037127544739781274	0,99507389034324774
1	1	0	0	0	0	1	10222,8406	0,100000001	4,02766418	0,00097655987822512781	0,35156156041746982	0,0014159719	0,99995669468211674	-0,037309728734664736	0,99995669468211674
1	1	0	0	0	0	1	10272,8406	0,100000001	4,03196049	0,00097627963929457792	0,35146067440125043	0,00141707552	1,0048381483597595	-0,037491862334561856	1,0048381483597595
1	1	0	0	0	0	1	10322,8406	0,100000001	4,03098631	0,00097301077010730906	0,35028388147958592	0,00141198956	1,0097032216454501	-0,037673384760011571	1,0097032216454501
1	1	0	0	0	0	1	10372,8406	0,100000001	4,03442335	0,00096157962206006054	0,34616866813275283	0,00139659096	1,014551084421408	-0,037854265038203392	1,014551084421408
1	1	0	0	0	0	1	10422,8406	0,100000001	4,0404768	0,00097224461728334438	0,35000806645961933	0,00141419948	1,019405377858889	-0,038035385253022746	1,019405377858889
1	1	0	0	0	0	1	10472,8406	0,100000001	4,04419994	0,00097302879251705267	0,35029036954717222	0,00141664431	1,0242617792748422	-0,038216584119353114	1,0242617792748422
1	1	0	0	0	0	1	10522,8406	0,100000001	4,04257727	0,00097114627749886771	0,34961266413242054	0,00141333626	1,0291105700568054	-0,038397499022696698	1,0291105700568054
1	1	0	0	0	0	1	10572,8406	0,100000001	4,03914022	0,00096946448838379648	0,3490072200436647	0,00140968908	1,0339585462722707	-0,038578383533469056	1,0339585462722707
1	1	0	0	0	0	1	10622,8406	0,100000001	4,04261541	0,00097529120312465562	0,35110483737577018	0,00141938182	1,0388173341393565	-0,038759671441499789	1,0388173341393565
1	1	0	0	0	0	1	10672,8406	0,100000001	4,04038095	0,00096820641557872307	0,34855431382835475	0,00140829221	1,0436707306701141	-0,038940758191523392	1,0436707306701141
1	1	0	0	0	0	1	10722,8406	0,100000001	4,03547382	0,00097165021314885875	0,34979408096861376	0,0014115849	1,0485335443707162	-0,039122196308815418	1,0485335443707162
1	1	0	0	0	0	1	10772,8406	0,100000001	4,02678537	0,00097322068395134477	0,35035945046435379	0,00141082227	1,053404405497255	-0,039303934686389018	1,053404405497255
1	1	0	0	0	0	1	10822,8406	0,100000001	4,02791214	0,0009721725253421399	0,34998211336047155	0,00140969723	1,0582659688999598	-0,039485326153385446	1,0582659688999598
1	1	0	0	0	0	1	10872,8406	0,100000001	4,02816057	0,00097283195338894925	0,35021950746019706	0,00141074043	1,0631300346654566	-0,039666810986902106	1,0631300346654566
1	1	0	0	0	0	1	10922,8406	0,100000001	4,02411222	0,00096394380938261747	0,34701977557917786	0,00139644649	1,067960418355669	-0,039847039096903872	1,067960418355669
1	1	0	0	0	0	1	10972,8406	0,100000001	4,02634621	0,00096371445900864077	0,34693720944354656	0,00139688933	1,0727935167985259	-0,040027368497976826	1,0727935167985259
1	1	0	0	0	0	1	11022,8406	0,100000001	4,03062391	0,00096470607471300493	0,34729419110143974	0,00139981229	1,0776096521065069	-0,04020706498168039	1,0776096521065069
1	1	0	0	0	0	1	11072,8406	0,100000001	4,03377438	0,0009647976029564937	0,34732714126949466	0,00140103931	1,0824435637019256	-0,04038742472256873	1,0824435637019256
1	1	0	0	0	0	1	11122,8406	0,100000001	4,03896809	0,00096255604213062246	0,34652017936241094	0,001399584	1,087258445884336	-0,040567074450472403	1,087258445884336
1	1	0	0	0	0	1	11172,8406	0,100000001	4,04116392	0,00096306386546707827	0,34670299576574835	0,00140108366	1,0920880029925843	-0,040747271719589741	1,0920880029925843
1	1	0	0	0	0	1	11222,8406	0,100000001	4,04483032	0,00096733883965346547	0,3482419864914807	0,00140857976	1,0969246395882581	-0,040927733133901395	1,0969246395882581
1	1	0	0	0	0	1	11272,8406	0,100000001	4,05445433	0,00097212835171487603	0,349966210854464	0,00141892198	1,1017673424978552	-0,041108420890541773	1,1017673424978552
1	1	0	0	0	0	1	11322,8406	0,100000001	4,05569506	0,00097219090203940864	0,34998872897156838	0,0014194476	1,1066254377190758	-0,041289682955024013	1,1066254377190758
1	1	0	0	0	0	1	11372,8406	0,100000001	4,06094646	0,00097082115724020531	0,34949562083788499	0,00141928298	1,1114696761140928	-0,041470428002689888	1,1114696761140928
1	1	0	0	0	0	1	11422,8406	0,100000001	4,06235933	0,00097380802049239475	0,35057089162169178	0,00142414495	1,1163284215739539	-0,041651714328450054	1,1163284215739539
1	1	0	0	0	0	1	11472,8406	0,100000001	4,0644598	0,00096951219625025997	0,34902439487579942	0,00141859567	1,1211727444295738	-0,041832462527454579	1,1211727444295738
1	1	0	0	0	0	1	11522,8406	0,100000001	4,07097101	0,0009676643130125271	0,34835915690216147	0,00141816004	1,1260050109891637	-0,042012760889844371	1,1260050109891637
1	1	0	0	0	0	1	11572,8406	0,100000001	4,07370186	0,0009763188658704361	0,3514747959687303	0,00143180357	1,1308846680257042	-0,042194827454646355	1,1308846680257042
1	1	0	0	0	0	1	11622,8406	0,100000001	4,07996511	0,00097091303914619827	0,34952869832444294	0,00142606487	1,1357510877311869	-0,0423764001168288	1,1357510877311869
1	1	0	0	0	0	1	11672,8406	0,100000001	4,07360649	0,00097321008238775859	0,35035563390141658	0,00142721098	1,1406123291947174	-0,042557779571841786	1,1406123291947174
1	1	0	0	0	0	1	11722,8406	0,100000001	4,07150602	0,00096730526774624986	0,34822990060473677	0,00141782011	1,1454629611454845	-0,042738763171668928	1,1454629611454845
1	1	0	0	0	0	1	11772,8406	0,100000001	4,07652807	0,00096517502507319053	0,34746301323315053	0,00141644268	1,1503103489645096	-0,042919625728578989	1,1503103489645096
1	1	0	0	0	0	1	11822,8406	0,100000001	4,0788002	0,0009618577409444585	0,34626879093234822	0,00141236116	1,1551416316817315	-0,043099887382487238	1,1551416316817315
1	1	0	0	0	0	1	11872,8406	0,100000001	4,0818553	0,00096376605431156019	0,34695578375282246	0,00141622336	1,1599676545243176	-0,043279952783400845	1,1599676545243176
1	1	0	0	0	0	1	11922,8406	0,100000001	4,09146023	0,00096537115711470451	0,3475336207689504	0,00142192002	1,1647992595352122	-0,043460226462519347	1,1647992595352122
1	1	0	0	0	0	1	11972,8406	0,100000001	4,09650087	0,00096985286514378253	0,34914703567895245	0,00143028109	1,1696340878276565	-0,043640620406606227	1,1696340878276565
1	1	0	0	0	0	1	12022,8406	0,100000001	4,10011005	0,00096592174087713152	0,34773183092582394	0,0014257388	1,1744778572723531	-0,043821347957105133	1,1744778572723531
1	1	0	0	0	0	1	12072,8406	0,100000001	4,10614395	0,00096839618626650829	0,34862263127678464	0,00143149472	1,1793346004184968	-0,044002559573848371	1,1793346004184968
1	1	0	0	0	0	1	12122,8406	0,100000001	4,10826349	0,00096920333248790758	0,3489132039200064	0,00143342733	1,1841839718224898	-0,044183496140980544	1,1841839718224898
1	1	0	0	0	0	1	12172,8406	0,100000001	4,10996294	0,00096900472610278259	0,34884170562049574	0,00143372652	1,1890210169381494	-0,044363972797722125	1,1890210169381494
1	1	0	0	0	0	1	12222,8406	0,100000001	4,1124835	0,00096291332058939661	0,34664879960912685	0,00142558746	1,1938596576151446	-0,0445445089870024	1,1938596576151446
1	1	0	0	0	0	1	12272,8406	0,100000001	4,11194897	0,00096557859781881178	0,34760829942333318	0,00142934755	1,1986809255777717	-0,044724396976951731	1,1986809255777717
1	1	0	0	0	0	1	12322,8406	0,100000001	4,11681795	0,00096691335668994317	0,34808881262275814	0,00143301825	1,2035341507130464	-0,044905477331979424	1,2035341507130464
1	1	0	0	0	0	1	12372,8406	0,100000001	4,11985397	0,00096860150644514291	0,34869654654198803	0,00143657881	1,2083751085771859	-0,045086099978627546	1,2083751085771859
1	1	0	0	0	0	1	12422,8406	0,100000001	4,12957335	0,00096763674833046067	0,34834923361649741	0,00143853365	1,2132084738294091	-0,045266439334716691	1,2132084738294091
1	1	0	0	0	0	1	12472,8406	0,100000001	4,13642836	0,00097419569046629798	0,35071045281398662	0,00145068869	1,2180656163072419	-0,045447665851062144	1,2180656163072419
1	1	0	0	0	0	1	12522,8406	0,100000001	4,14160347	0,00097412324556708339	0,35068437264995354	0,00145239558	1,2229255738994994	-0,04562899740311175	1,2229255738994994
1	1	0	0	0	0	1	12572,8406	0,100000001	4,14679718	0,00097165834124137958	0,34979700708195667	0,00145053724	1,2277796436397642	-0,0458101092714872	1,2277796436397642
1	1	0	0	0	0	1	12622,8406	0,100000001	4,15029144	0,00096587862676216499	0,34771630984424806	0,00144312403	1,2326365829174526	-0,045991328206162074	1,2326365829174526
1	1	0	0	0	0	1	12672,8406	0,100000001	4,15726089	0,00096860504049973363	0,34869781880165606	0,0014496278	1,2374837986339046	-0,046172184341693741	1,2374837986339046
1	1	0	0	0	0	1	12722,8406	0,100000001	4,16860342	0,0009703341842682825	0,34932031056587027	0,00145617779	1,2423324844585042	-0,046353095328936979	1,2423324844585042
1	1	0	0	0	0	1	12772,8406	0,100000001	4,17599344	0,00097162724263552166	0,34978581158371232	0,00146070321	1,2471652602542917	-0,046533412691613978	1,2471652602542917
1	1	0	0	0	0	1	12822,8406	0,100000001	4,17885733	0,00096676493200742541	0,3480353797364048	0,00145439024	1,2520007893220117	-0,046713832782568582	1,2520007893220117
1	1	0	0	0	0	1	12871,5944	0,100000001	4,16518545	0,00097045327690160934	0,34936318391438701	0,00145516242	1,2567262908427565	-0,046890147597811936	1,2567262908427565
1	1	0	0	0	0	1	12921,5944	0,100000001	4,172575	0,00096711584991051085	0,34816171018304512	0,00145273085	1,2615753608040106	-0,047071072917710234	1,2615753608040106
1	1	0	0	0	0	1	12971,5944	0,100000001	4,17962122	0,00097261744527932672	0,35014228453979802	0,00146346213	1,2664343052247349	-0,047252366666967706	1,2664343052247349
1	1	0	0	0	0	1	13021,5944	0,100000001	4,1842041	0,00097462188033428454	0,35086388116831936	0,00146808603	1,271305861825449	-0,047434130993617862	1,271305861825449
1	1	0	0	0	0	1	13071,5944	0,100000001	4,18597984	0,0009743232649010089	0,35075637961103859	0,00146825914	1,2761666544821477	-0,047615493703044525	1,2761666544821477
1	1	0	0	0	0	1	13121,5944	0,100000001	4,19312143	0,00097458724822269555	0,35085141360799635	0,00147116254	1,2810391016297003	-0,047797291257194579	1,2810391016297003
1	1	0	0	0	0	1	13171,5944	0,100000001	4,19644403	0,00097473708599060774	0,35090535520509779	0,00147255464	1,2859164626822357	-0,047979272155746355	1,2859164626822357
2	1	0	1	0	0	1	13208,3084	4,19999981	4,199862	2,2729261053933037E-008	0,40912670930620474	0,00171827571	1,289496622636388	-0,048112852737212026	1,289496622636388
2	1	0	1	0	0	1	13808,3084	4,19996309	4,19980478	0,007760925468661719	0,2328277668787424	0,000977831194	1,3344228011679496	-0,049789108862114054	1,3344228011679496
3	1	0	0	0	0	1	13941,8500	0	4,18647623	0	0	0	1,3344228011679496	-0,049789108862114054	1,3344228011679496
3	1	0	0	0	0	1	14222,2410	0	4,19025707	0	0	0	1,3344228011679496	-0,049789108862114054	1,3344228011679496
3	1	0	0	0	0	1	14708,3086	0,100000001	4,20255375	0	0	0	1,3344228011679496	-0,049789108862114054	1,3344228011679496
2	1	0	1	0	0	1	15068,3092	4,19996309	4,1995182	0,008416225576540247	0,25248677035311357	0,00106032274	1,3592177501706029	-0,050714241746566541	1,3592177501706029
3	1	0	0	0	0	1	15428,3672	0	4,19420958	0	0	0	1,374268590572213	-0,051275808838020749	1,374268590572213
3	1	0	0	0	0	1	15813,4386	0	4,20123672	0	0	0	1,374268590572213	-0,051275808838020749	1,374268590572213
1	1	0	0	0	0	1	16208,3093	0,100000001	4,20760727	0	0	0	1,374268590572213	-0,051275808838020749	1,374268590572213
2	1	0	1	0	0	1	16688,3097	4,19996309	4,1995182	0,0064036045953167808	0,19210814018539386	0,000806761615	1,3993954757533278	-0,052213326707584576	1,3993954757533278
3	1	0	0	0	0	1	17079,8903	0	4,19564199	0	0	0	1,4054733998418426	-0,052440102227182906	1,4054733998418426
3	1	0	0	0	0	1	17605,5477	0	4,18878698	0	0	0	1,4054733998418426	-0,052440102227182906	1,4054733998418426
2	1	0	1	0	0	1	17948,3103	4,19996309	4,1995182	0,0076039656931617203	0,22811897355673213	0,000957989774	1,4210892911466346	-0,053022752127553862	1,4210892911466346
3	1	0	0	0	0	1	18428,3103	0	4,20054913	0	0	0	1,4400242560386701	-0,053729241126006765	1,4400242560386701
3	1	0	0	0	0	1	18717,7419	0	4,19791412	0	0	0	1,4400242560386701	-0,053729241126006765	1,4400242560386701
3	1	0	0	0	0	1	19092,5699	0	4,18830919	0	0	0	1,4400242560386701	-0,053729241126006765	1,4400242560386701
2	1	0	1	0	0	1	19448,3109	4,19996309	4,19949913	0,0053402373119949152	0,16020712129950608	0,00067278964	1,4517811205363328	-0,054167905547687002	1,4517811205363328
3	1	0	0	0	0	1	19928,3109	0	4,19749403	0	0	0	1,4685586023981488	-0,054793895953515622	1,4685586023981488
3	1	0	0	0	0	1	20453,1079	0	4,20005274	0	0	0	1,4685586023981488	-0,054793895953515622	1,4685586023981488
3	1	0	0	0	0	1	20708,3109	0	4,20219135	0	0	0	1,4685586023981488	-0,054793895953515622	1,4685586023981488