File: Experimentelles/Rohdaten/Batterietests/AlteZelle/Studenten_Batterietests/SemArbeitToph/ECLab-Export/Al_rein_02_Zyklieren_01_OCV_C01.mpt
EC-Lab ASCII FILE
Nb header lines : 46

Open Circuit Voltage

Run on channel : 1 (SN 6985)
Grouped channel(s) : 1
User :
CE vs. WE compliance from -10 V to 10 V
Electrode connection : standard
Ewe ctrl range : min = 0,00 V, max = 5,00 V
Acquisition started on : 03.16.2015 11:28:31
Saved on :
	File : Al_rein_02_Zyklieren_01_OCV_C01.mpr
	Directory : C:\Hupfer\Studenten Batterietests\SemArbeitToph\
	Host : 192.168.0.2
Device : VMP3 (SN 0324)
Address : 192.168.0.1
EC-Lab for windows v10.33 (software)
Internet server v10.33 (firmware)
Command interpretor v10.32 (firmware)
Electrode material :
Initial state :
Electrolyte :
Comments :
Mass of active material : 0,001 mg
 at x = 0,000
Molecular weight of active material (at x = 0) : 0,001 g/mol
Atomic weight of intercalated ion : 0,001 g/mol
Acquisition started at : xo = 0,000
Number of e- transfered per intercalated ion : 1
for DX = 1, DQ = 26,801 mA.h
Battery capacity : 0,000 A.h
Electrode surface area : 0,001 cm²
Characteristic mass : 0,001 g
tR (h:m:s)          0:10:0,0000
dER/dt (mV/h)       1,0
dER (mV)            1,00
dtR (s)             0,5000
E range min (V)     0,000
E range max (V)     5,000

Number of loops : 1
Loop 0 from point number 0 to 1200

mode	error	time/s	Ewe/V
3	0	0,0000	3,48486495
3	0	0,5000	3,48478842
3	0	1,0000	3,48475027
3	0	1,5000	3,48496032
3	0	2,0000	3,48482656
3	0	2,5000	3,48478842
3	0	3,0000	3,48478842
3	0	3,5000	3,48476934
3	0	4,0000	3,48488402
3	0	4,5000	3,48480749
3	0	5,0000	3,48484564
3	0	5,5000	3,48496032
3	0	6,0000	3,48484564
3	0	6,5000	3,4849031
3	0	7,0000	3,48488402
3	0	7,5000	3,48486495
3	0	8,0000	3,48478842
3	0	8,5000	3,48496032
3	0	9,0000	3,48484564
3	0	9,5000	3,48482656
3	0	10,0000	3,48486495
3	0	10,5000	3,48486495
3	0	11,0000	3,48496032
3	0	11,5000	3,48480749
3	0	12,0000	3,48486495
3	0	12,5000	3,48484564
3	0	13,0000	3,48488402
3	0	13,5000	3,48486495
3	0	14,0000	3,48494124
3	0	14,5000	3,4849031
3	0	15,0000	3,48471212
3	0	15,5000	3,48503661
3	0	16,0000	3,48482656
3	0	16,5000	3,48484564
3	0	17,0000	3,48482656
3	0	17,5000	3,48484564
3	0	18,0000	3,4847312
3	0	18,5000	3,48486495
3	0	19,0000	3,4847312
3	0	19,5000	3,48484564
3	0	20,0000	3,48486495
3	0	20,5000	3,48476934
3	0	21,0000	3,48469305
3	0	21,5000	3,48482656
3	0	22,0000	3,48480749
3	0	22,5000	3,48494124
3	0	23,0000	3,48488402
3	0	23,5000	3,48469305
3	0	24,0000	3,4847312
3	0	24,5000	3,4845593
3	0	25,0000	3,48463559
3	0	25,5000	3,48467398
3	0	26,0000	3,48482656
3	0	26,5000	3,48471212
3	0	27,0000	3,4847312
3	0	27,5000	3,48471212
3	0	28,0000	3,48476934
3	0	28,5000	3,4847312
3	0	29,0000	3,4847312
3	0	29,5000	3,48476934
3	0	30,0000	3,48480749
3	0	30,5000	3,48476934
3	0	31,0000	3,48476934
3	0	31,5000	3,4847312
3	0	32,0000	3,4847312
3	0	32,5000	3,48471212
3	0	33,0000	3,48482656
3	0	33,5000	3,48480749
3	0	34,0000	3,48488402
3	0	34,5000	3,48475027
3	0	35,0000	3,48497939
3	0	35,5000	3,48482656
3	0	36,0000	3,4847312
3	0	36,5000	3,48480749
3	0	37,0000	3,48482656
3	0	37,5000	3,48478842
3	0	38,0000	3,48476934
3	0	38,5000	3,48476934
3	0	39,0000	3,48486495
3	0	39,5000	3,48478842
3	0	40,0000	3,48492217
3	0	40,5000	3,48475027
3	0	41,0000	3,48471212
3	0	41,5000	3,48471212
3	0	42,0000	3,48478842
3	0	42,5000	3,4847312
3	0	43,0000	3,48469305
3	0	43,5000	3,48486495
3	0	44,0000	3,4846549
3	0	44,5000	3,48469305
3	0	45,0000	3,48471212
3	0	45,5000	3,48476934
3	0	46,0000	3,48461652
3	0	46,5000	3,48475027
3	0	47,0000	3,48476934
3	0	47,5000	3,48482656
3	0	48,0000	3,48476934
3	0	48,5000	3,48471212
3	0	49,0000	3,48471212
3	0	49,5000	3,48475027
3	0	50,0000	3,48478842
3	0	50,5000	3,48480749
3	0	51,0000	3,48475027
3	0	51,5000	3,48480749
3	0	52,0000	3,48478842
3	0	52,5000	3,48476934
3	0	53,0000	3,48486495
3	0	53,5000	3,48484564
3	0	54,0000	3,48469305
3	0	54,5000	3,48476934
3	0	55,0000	3,48475027
3	0	55,5000	3,48482656
3	0	56,0000	3,4847312
3	0	56,5000	3,48475027
3	0	57,0000	3,48467398
3	0	57,5000	3,48469305
3	0	58,0000	3,48475027
3	0	58,5000	3,48482656
3	0	59,0000	3,48478842
3	0	59,5000	3,48476934
3	0	60,0000	3,48484564
3	0	60,5000	3,48476934
3	0	61,0000	3,48482656
3	0	61,5000	3,48480749
3	0	62,0000	3,4847312
3	0	62,5000	3,48476934
3	0	63,0000	3,4847312
3	0	63,5000	3,48478842
3	0	64,0000	3,48463559
3	0	64,5000	3,48469305
3	0	65,0000	3,48471212
3	0	65,5000	3,48478842
3	0	66,0000	3,4846549
3	0	66,5000	3,48463559
3	0	67,0000	3,48471212
3	0	67,5000	3,48475027
3	0	68,0000	3,48461652
3	0	68,5000	3,48482656
3	0	69,0000	3,4847312
3	0	69,5000	3,48478842
3	0	70,0000	3,4846549
3	0	70,5000	3,48476934
3	0	71,0000	3,48469305
3	0	71,5000	3,48471212
3	0	72,0000	3,48463559
3	0	72,5000	3,4847312
3	0	73,0000	3,48469305
3	0	73,5000	3,48476934
3	0	74,0000	3,48471212
3	0	74,5000	3,48469305
3	0	75,0000	3,48461652
3	0	75,5000	3,48471212
3	0	76,0000	3,48469305
3	0	76,5000	3,48452115
3	0	77,0000	3,48478842
3	0	77,5000	3,48469305
3	0	78,0000	3,48467398
3	0	78,5000	3,48469305
3	0	79,0000	3,4846549
3	0	79,5000	3,48467398
3	0	80,0000	3,4846549
3	0	80,5000	3,4846549
3	0	81,0000	3,48461652
3	0	81,5000	3,48471212
3	0	82,0000	3,4846549
3	0	82,5000	3,48467398
3	0	83,0000	3,48452115
3	0	83,5000	3,48463559
3	0	84,0000	3,48463559
3	0	84,5000	3,48459744
3	0	85,0000	3,4846549
3	0	85,5000	3,48461652
3	0	86,0000	3,48452115
3	0	86,5000	3,48459744
3	0	87,0000	3,48459744
3	0	87,5000	3,48452115
3	0	88,0000	3,48463559
3	0	88,5000	3,48459744
3	0	89,0000	3,48444486
3	0	89,5000	3,48457837
3	0	90,0000	3,48446393
3	0	90,5000	3,48459744
3	0	91,0000	3,48459744
3	0	91,5000	3,48461652
3	0	92,0000	3,48459744
3	0	92,5000	3,48454022
3	0	93,0000	3,48452115
3	0	93,5000	3,48459744
3	0	94,0000	3,48457837
3	0	94,5000	3,48454022
3	0	95,0000	3,48459744
3	0	95,5000	3,48459744
3	0	96,0000	3,48459744
3	0	96,5000	3,48457837
3	0	97,0000	3,48457837
3	0	97,5000	3,48461652
3	0	98,0000	3,48463559
3	0	98,5000	3,48457837
3	0	99,0000	3,48452115
3	0	99,5000	3,48463559
3	0	100,0000	3,48459744
3	0	100,5000	3,48457837
3	0	101,0000	3,48467398
3	0	101,5000	3,48459744
3	0	102,0000	3,48459744
3	0	102,5000	3,48457837
3	0	103,0000	3,48457837
3	0	103,5000	3,48463559
3	0	104,0000	3,48450208
3	0	104,5000	3,48457837
3	0	105,0000	3,4845593
3	0	105,5000	3,4845593
3	0	106,0000	3,4845593
3	0	106,5000	3,484483
3	0	107,0000	3,48454022
3	0	107,5000	3,48461652
3	0	108,0000	3,48459744
3	0	108,5000	3,4845593
3	0	109,0000	3,48446393
3	0	109,5000	3,48467398
3	0	110,0000	3,48461652
3	0	110,5000	3,48461652
3	0	111,0000	3,48467398
3	0	111,5000	3,48452115
3	0	112,0000	3,4845593
3	0	112,5000	3,48446393
3	0	113,0000	3,48452115
3	0	113,5000	3,48457837
3	0	114,0000	3,48444486
3	0	114,5000	3,48446393
3	0	115,0000	3,48457837
3	0	115,5000	3,48450208
3	0	116,0000	3,4846549
3	0	116,5000	3,484483
3	0	117,0000	3,48446393
3	0	117,5000	3,48454022
3	0	118,0000	3,48461652
3	0	118,5000	3,4845593
3	0	119,0000	3,48452115
3	0	119,5000	3,48446393
3	0	120,0000	3,48446393
3	0	120,5000	3,4843874
3	0	121,0000	3,48452115
3	0	121,5000	3,48457837
3	0	122,0000	3,48442554
3	0	122,5000	3,48446393
3	0	123,0000	3,48446393
3	0	123,5000	3,48444486
3	0	124,0000	3,48436832
3	0	124,5000	3,48452115
3	0	125,0000	3,48446393
3	0	125,5000	3,48450208
3	0	126,0000	3,48444486
3	0	126,5000	3,48452115
3	0	127,0000	3,48440647
3	0	127,5000	3,48442554
3	0	128,0000	3,48446393
3	0	128,5000	3,48442554
3	0	129,0000	3,48434925
3	0	129,5000	3,48434925
3	0	130,0000	3,48444486
3	0	130,5000	3,48440647
3	0	131,0000	3,48446393
3	0	131,5000	3,48442554
3	0	132,0000	3,4843874
3	0	132,5000	3,48446393
3	0	133,0000	3,48440647
3	0	133,5000	3,48442554
3	0	134,0000	3,48433018
3	0	134,5000	3,48446393
3	0	135,0000	3,48440647
3	0	135,5000	3,48444486
3	0	136,0000	3,4843111
3	0	136,5000	3,4843874
3	0	137,0000	3,4843111
3	0	137,5000	3,48436832
3	0	138,0000	3,48436832
3	0	138,5000	3,48452115
3	0	139,0000	3,48461652
3	0	139,5000	3,48433018
3	0	140,0000	3,48446393
3	0	140,5000	3,48442554
3	0	141,0000	3,48433018
3	0	141,5000	3,4843874
3	0	142,0000	3,48440647
3	0	142,5000	3,4843111
3	0	143,0000	3,48434925
3	0	143,5000	3,484483
3	0	144,0000	3,48440647
3	0	144,5000	3,48427296
3	0	145,0000	3,48429203
3	0	145,5000	3,48425388
3	0	146,0000	3,48436832
3	0	146,5000	3,48444486
3	0	147,0000	3,4843111
3	0	147,5000	3,48434925
3	0	148,0000	3,48440647
3	0	148,5000	3,48434925
3	0	149,0000	3,4843111
3	0	149,5000	3,48440647
3	0	150,0000	3,4843111
3	0	150,5000	3,48436832
3	0	151,0000	3,48429203
3	0	151,5000	3,48433018
3	0	152,0000	3,4843111
3	0	152,5000	3,484483
3	0	153,0000	3,48425388
3	0	153,5000	3,48440647
3	0	154,0000	3,48429203
3	0	154,5000	3,48440647
3	0	155,0000	3,4843874
3	0	155,5000	3,48433018
3	0	156,0000	3,48440647
3	0	156,5000	3,48434925
3	0	157,0000	3,48419642
3	0	157,5000	3,48427296
3	0	158,0000	3,4843111
3	0	158,5000	3,48434925
3	0	159,0000	3,48442554
3	0	159,5000	3,48434925
3	0	160,0000	3,4842155
3	0	160,5000	3,484483
3	0	161,0000	3,48427296
3	0	161,5000	3,48434925
3	0	162,0000	3,48436832
3	0	162,5000	3,48427296
3	0	163,0000	3,48436832
3	0	163,5000	3,4843111
3	0	164,0000	3,48427296
3	0	164,5000	3,48429203
3	0	165,0000	3,48429203
3	0	165,5000	3,48446393
3	0	166,0000	3,48423481
3	0	166,5000	3,48423481
3	0	167,0000	3,4843111
3	0	167,5000	3,48415828
3	0	168,0000	3,4843111
3	0	168,5000	3,4842155
3	0	169,0000	3,48429203
3	0	169,5000	3,48429203
3	0	170,0000	3,48419642
3	0	170,5000	3,48429203
3	0	171,0000	3,4843111
3	0	171,5000	3,48427296
3	0	172,0000	3,48429203
3	0	172,5000	3,48434925
3	0	173,0000	3,4843111
3	0	173,5000	3,48425388
3	0	174,0000	3,48429203
3	0	174,5000	3,48436832
3	0	175,0000	3,48433018
3	0	175,5000	3,48433018
3	0	176,0000	3,48419642
3	0	176,5000	3,4841392
3	0	177,0000	3,4842155
3	0	177,5000	3,48423481
3	0	178,0000	3,48429203
3	0	178,5000	3,48425388
3	0	179,0000	3,48433018
3	0	179,5000	3,48433018
3	0	180,0000	3,48419642
3	0	180,5000	3,48419642
3	0	181,0000	3,48436832
3	0	181,5000	3,48429203
3	0	182,0000	3,48419642
3	0	182,5000	3,48434925
3	0	183,0000	3,48423481
3	0	183,5000	3,48429203
3	0	184,0000	3,48415828
3	0	184,5000	3,48415828
3	0	185,0000	3,48417735
3	0	185,5000	3,48429203
3	0	186,0000	3,48427296
3	0	186,5000	3,48434925
3	0	187,0000	3,4843111
3	0	187,5000	3,48429203
3	0	188,0000	3,48436832
3	0	188,5000	3,48425388
3	0	189,0000	3,48436832
3	0	189,5000	3,4842155
3	0	190,0000	3,48419642
3	0	190,5000	3,4842155
3	0	191,0000	3,48423481
3	0	191,5000	3,48429203
3	0	192,0000	3,4842155
3	0	192,5000	3,4843111
3	0	193,0000	3,48427296
3	0	193,5000	3,4843111
3	0	194,0000	3,48433018
3	0	194,5000	3,48425388
3	0	195,0000	3,48425388
3	0	195,5000	3,48425388
3	0	196,0000	3,48419642
3	0	196,5000	3,48425388
3	0	197,0000	3,48433018
3	0	197,5000	3,48434925
3	0	198,0000	3,4843111
3	0	198,5000	3,4842155
3	0	199,0000	3,48434925
3	0	199,5000	3,4843111
3	0	200,0000	3,48425388
3	0	200,5000	3,48410106
3	0	201,0000	3,48429203
3	0	201,5000	3,48429203
3	0	202,0000	3,48415828
3	0	202,5000	3,48417735
3	0	203,0000	3,48415828
3	0	203,5000	3,48419642
3	0	204,0000	3,48417735
3	0	204,5000	3,48427296
3	0	205,0000	3,48419642
3	0	205,5000	3,48429203
3	0	206,0000	3,48419642
3	0	206,5000	3,48433018
3	0	207,0000	3,48427296
3	0	207,5000	3,4842155
3	0	208,0000	3,48410106
3	0	208,5000	3,4842155
3	0	209,0000	3,48419642
3	0	209,5000	3,48419642
3	0	210,0000	3,48417735
3	0	210,5000	3,48423481
3	0	211,0000	3,4841392
3	0	211,5000	3,48427296
3	0	212,0000	3,4842155
3	0	212,5000	3,48423481
3	0	213,0000	3,48425388
3	0	213,5000	3,48423481
3	0	214,0000	3,48415828
3	0	214,5000	3,48412013
3	0	215,0000	3,48410106
3	0	215,5000	3,48417735
3	0	216,0000	3,48412013
3	0	216,5000	3,48423481
3	0	217,0000	3,4841392
3	0	217,5000	3,48410106
3	0	218,0000	3,48423481
3	0	218,5000	3,48412013
3	0	219,0000	3,48410106
3	0	219,5000	3,48404384
3	0	220,0000	3,48406291
3	0	220,5000	3,48410106
3	0	221,0000	3,4841392
3	0	221,5000	3,48410106
3	0	222,0000	3,4841392
3	0	222,5000	3,48419642
3	0	223,0000	3,48415828
3	0	223,5000	3,4842155
3	0	224,0000	3,48419642
3	0	224,5000	3,4842155
3	0	225,0000	3,48404384
3	0	225,5000	3,4842155
3	0	226,0000	3,48427296
3	0	226,5000	3,48417735
3	0	227,0000	3,48423481
3	0	227,5000	3,4841392
3	0	228,0000	3,48406291
3	0	228,5000	3,4842155
3	0	229,0000	3,4842155
3	0	229,5000	3,48402476
3	0	230,0000	3,48415828
3	0	230,5000	3,48427296
3	0	231,0000	3,48400545
3	0	231,5000	3,48404384
3	0	232,0000	3,48423481
3	0	232,5000	3,48404384
3	0	233,0000	3,48410106
3	0	233,5000	3,48417735
3	0	234,0000	3,4842155
3	0	234,5000	3,48402476
3	0	235,0000	3,48415828
3	0	235,5000	3,48415828
3	0	236,0000	3,48423481
3	0	236,5000	3,48410106
3	0	237,0000	3,48406291
3	0	237,5000	3,48410106
3	0	238,0000	3,48406291
3	0	238,5000	3,48404384
3	0	239,0000	3,48408198
3	0	239,5000	3,48417735
3	0	240,0000	3,48400545
3	0	240,5000	3,48408198
3	0	241,0000	3,48400545
3	0	241,5000	3,48402476
3	0	242,0000	3,48412013
3	0	242,5000	3,48406291
3	0	243,0000	3,48408198
3	0	243,5000	3,48392916
3	0	244,0000	3,48404384
3	0	244,5000	3,4841392
3	0	245,0000	3,48406291
3	0	245,5000	3,4839673
3	0	246,0000	3,48406291
3	0	246,5000	3,4839673
3	0	247,0000	3,4839673
3	0	247,5000	3,48410106
3	0	248,0000	3,48408198
3	0	248,5000	3,48404384
3	0	249,0000	3,48410106
3	0	249,5000	3,48398638
3	0	250,0000	3,48402476
3	0	250,5000	3,48410106
3	0	251,0000	3,48402476
3	0	251,5000	3,48400545
3	0	252,0000	3,48423481
3	0	252,5000	3,48394823
3	0	253,0000	3,48402476
3	0	253,5000	3,48400545
3	0	254,0000	3,48400545
3	0	254,5000	3,48392916
3	0	255,0000	3,48400545
3	0	255,5000	3,48394823
3	0	256,0000	3,48391008
3	0	256,5000	3,4839673
3	0	257,0000	3,48400545
3	0	257,5000	3,48394823
3	0	258,0000	3,4839673
3	0	258,5000	3,48406291
3	0	259,0000	3,48398638
3	0	259,5000	3,48404384
3	0	260,0000	3,48400545
3	0	260,5000	3,48400545
3	0	261,0000	3,48398638
3	0	261,5000	3,48415828
3	0	262,0000	3,48394823
3	0	262,5000	3,48417735
3	0	263,0000	3,48402476
3	0	263,5000	3,48402476
3	0	264,0000	3,48394823
3	0	264,5000	3,48400545
3	0	265,0000	3,4839673
3	0	265,5000	3,48402476
3	0	266,0000	3,48394823
3	0	266,5000	3,48400545
3	0	267,0000	3,4839673
3	0	267,5000	3,48402476
3	0	268,0000	3,48408198
3	0	268,5000	3,48398638
3	0	269,0000	3,48406291
3	0	269,5000	3,48398638
3	0	270,0000	3,48394823
3	0	270,5000	3,48394823
3	0	271,0000	3,48398638
3	0	271,5000	3,48398638
3	0	272,0000	3,48400545
3	0	272,5000	3,48410106
3	0	273,0000	3,48394823
3	0	273,5000	3,48387194
3	0	274,0000	3,48387194
3	0	274,5000	3,48400545
3	0	275,0000	3,48392916
3	0	275,5000	3,48387194
3	0	276,0000	3,48391008
3	0	276,5000	3,48398638
3	0	277,0000	3,48394823
3	0	277,5000	3,48383379
3	0	278,0000	3,48387194
3	0	278,5000	3,48398638
3	0	279,0000	3,48383379
3	0	279,5000	3,48383379
3	0	280,0000	3,4837954
3	0	280,5000	3,48392916
3	0	281,0000	3,48406291
3	0	281,5000	3,48371911
3	0	282,0000	3,48385286
3	0	282,5000	3,48385286
3	0	283,0000	3,48389101
3	0	283,5000	3,48385286
3	0	284,0000	3,48385286
3	0	284,5000	3,4837954
3	0	285,0000	3,48385286
3	0	285,5000	3,48383379
3	0	286,0000	3,48375726
3	0	286,5000	3,48385286
3	0	287,0000	3,48381472
3	0	287,5000	3,48400545
3	0	288,0000	3,48381472
3	0	288,5000	3,48392916
3	0	289,0000	3,4839673
3	0	289,5000	3,48387194
3	0	290,0000	3,48377633
3	0	290,5000	3,48389101
3	0	291,0000	3,48377633
3	0	291,5000	3,48381472
3	0	292,0000	3,48381472
3	0	292,5000	3,48375726
3	0	293,0000	3,48389101
3	0	293,5000	3,48383379
3	0	294,0000	3,48389101
3	0	294,5000	3,48391008
3	0	295,0000	3,4837954
3	0	295,5000	3,48387194
3	0	296,0000	3,48381472
3	0	296,5000	3,4837954
3	0	297,0000	3,48392916
3	0	297,5000	3,48385286
3	0	298,0000	3,48377633
3	0	298,5000	3,48381472
3	0	299,0000	3,48389101
3	0	299,5000	3,48370004
3	0	300,0000	3,48389101
3	0	300,5000	3,48381472
3	0	301,0000	3,48387194
3	0	301,5000	3,48370004
3	0	302,0000	3,48383379
3	0	302,5000	3,4837954
3	0	303,0000	3,48381472
3	0	303,5000	3,48383379
3	0	304,0000	3,48387194
3	0	304,5000	3,4837954
3	0	305,0000	3,48391008
3	0	305,5000	3,48383379
3	0	306,0000	3,48383379
3	0	306,5000	3,48392916
3	0	307,0000	3,48385286
3	0	307,5000	3,48385286
3	0	308,0000	3,48391008
3	0	308,5000	3,48385286
3	0	309,0000	3,48381472
3	0	309,5000	3,48389101
3	0	310,0000	3,48383379
3	0	310,5000	3,48377633
3	0	311,0000	3,48389101
3	0	311,5000	3,48392916
3	0	312,0000	3,48385286
3	0	312,5000	3,48385286
3	0	313,0000	3,48385286
3	0	313,5000	3,48387194
3	0	314,0000	3,48375726
3	0	314,5000	3,48391008
3	0	315,0000	3,48394823
3	0	315,5000	3,48385286
3	0	316,0000	3,48387194
3	0	316,5000	3,48389101
3	0	317,0000	3,48371911
3	0	317,5000	3,48370004
3	0	318,0000	3,48377633
3	0	318,5000	3,48391008
3	0	319,0000	3,48377633
3	0	319,5000	3,48389101
3	0	320,0000	3,48387194
3	0	320,5000	3,48383379
3	0	321,0000	3,48385286
3	0	321,5000	3,48375726
3	0	322,0000	3,48392916
3	0	322,5000	3,48385286
3	0	323,0000	3,48370004
3	0	323,5000	3,48391008
3	0	324,0000	3,48377633
3	0	324,5000	3,48371911
3	0	325,0000	3,48389101
3	0	325,5000	3,48383379
3	0	326,0000	3,48370004
3	0	326,5000	3,48383379
3	0	327,0000	3,48385286
3	0	327,5000	3,48370004
3	0	328,0000	3,48383379
3	0	328,5000	3,4837954
3	0	329,0000	3,48387194
3	0	329,5000	3,48368096
3	0	330,0000	3,48385286
3	0	330,5000	3,48375726
3	0	331,0000	3,48373818
3	0	331,5000	3,48387194
3	0	332,0000	3,48383379
3	0	332,5000	3,48398638
3	0	333,0000	3,4837954
3	0	333,5000	3,48392916
3	0	334,0000	3,48385286
3	0	334,5000	3,48392916
3	0	335,0000	3,48392916
3	0	335,5000	3,48391008
3	0	336,0000	3,48392916
3	0	336,5000	3,48392916
3	0	337,0000	3,48383379
3	0	337,5000	3,48371911
3	0	338,0000	3,48389101
3	0	338,5000	3,48385286
3	0	339,0000	3,4837954
3	0	339,5000	3,48394823
3	0	340,0000	3,48391008
3	0	340,5000	3,48381472
3	0	341,0000	3,48383379
3	0	341,5000	3,48385286
3	0	342,0000	3,48377633
3	0	342,5000	3,48383379
3	0	343,0000	3,4837954
3	0	343,5000	3,48389101
3	0	344,0000	3,48385286
3	0	344,5000	3,48385286
3	0	345,0000	3,48385286
3	0	345,5000	3,48389101
3	0	346,0000	3,48381472
3	0	346,5000	3,48389101
3	0	347,0000	3,48381472
3	0	347,5000	3,48381472
3	0	348,0000	3,48391008
3	0	348,5000	3,48383379
3	0	349,0000	3,48381472
3	0	349,5000	3,48385286
3	0	350,0000	3,48381472
3	0	350,5000	3,4839673
3	0	351,0000	3,48385286
3	0	351,5000	3,48383379
3	0	352,0000	3,48373818
3	0	352,5000	3,48377633
3	0	353,0000	3,48371911
3	0	353,5000	3,48371911
3	0	354,0000	3,48387194
3	0	354,5000	3,48392916
3	0	355,0000	3,48383379
3	0	355,5000	3,48370004
3	0	356,0000	3,48385286
3	0	356,5000	3,48375726
3	0	357,0000	3,48387194
3	0	357,5000	3,48373818
3	0	358,0000	3,48377633
3	0	358,5000	3,48373818
3	0	359,0000	3,48368096
3	0	359,5000	3,48391008
3	0	360,0000	3,48383379
3	0	360,5000	3,48373818
3	0	361,0000	3,48362374
3	0	361,5000	3,48366189
3	0	362,0000	3,48377633
3	0	362,5000	3,48366189
3	0	363,0000	3,48370004
3	0	363,5000	3,48375726
3	0	364,0000	3,48381472
3	0	364,5000	3,48377633
3	0	365,0000	3,48373818
3	0	365,5000	3,48364282
3	0	366,0000	3,48373818
3	0	366,5000	3,48373818
3	0	367,0000	3,48370004
3	0	367,5000	3,48383379
3	0	368,0000	3,48383379
3	0	368,5000	3,48371911
3	0	369,0000	3,48370004
3	0	369,5000	3,48368096
3	0	370,0000	3,48383379
3	0	370,5000	3,48370004
3	0	371,0000	3,48371911
3	0	371,5000	3,48373818
3	0	372,0000	3,48368096
3	0	372,5000	3,48370004
3	0	373,0000	3,4837954
3	0	373,5000	3,48373818
3	0	374,0000	3,48373818
3	0	374,5000	3,48373818
3	0	375,0000	3,48373818
3	0	375,5000	3,48377633
3	0	376,0000	3,48383379
3	0	376,5000	3,48373818
3	0	377,0000	3,48373818
3	0	377,5000	3,48364282
3	0	378,0000	3,48370004
3	0	378,5000	3,48370004
3	0	379,0000	3,48366189
3	0	379,5000	3,48362374
3	0	380,0000	3,48370004
3	0	380,5000	3,48368096
3	0	381,0000	3,4837954
3	0	381,5000	3,48375726
3	0	382,0000	3,4837954
3	0	382,5000	3,48371911
3	0	383,0000	3,48375726
3	0	383,5000	3,48364282
3	0	384,0000	3,48377633
3	0	384,5000	3,48373818
3	0	385,0000	3,48377633
3	0	385,5000	3,48373818
3	0	386,0000	3,48377633
3	0	386,5000	3,4837954
3	0	387,0000	3,48366189
3	0	387,5000	3,4835856
3	0	388,0000	3,4837954
3	0	388,5000	3,48356628
3	0	389,0000	3,48371911
3	0	389,5000	3,48371911
3	0	390,0000	3,48385286
3	0	390,5000	3,48370004
3	0	391,0000	3,48366189
3	0	391,5000	3,48375726
3	0	392,0000	3,48370004
3	0	392,5000	3,48366189
3	0	393,0000	3,48375726
3	0	393,5000	3,48373818
3	0	394,0000	3,48371911
3	0	394,5000	3,48356628
3	0	395,0000	3,48371911
3	0	395,5000	3,48373818
3	0	396,0000	3,4837954
3	0	396,5000	3,4835856
3	0	397,0000	3,48370004
3	0	397,5000	3,48373818
3	0	398,0000	3,48368096
3	0	398,5000	3,48373818
3	0	399,0000	3,48366189
3	0	399,5000	3,48373818
3	0	400,0000	3,48364282
3	0	400,5000	3,48366189
3	0	401,0000	3,48370004
3	0	401,5000	3,48368096
3	0	402,0000	3,48366189
3	0	402,5000	3,48387194
3	0	403,0000	3,48370004
3	0	403,5000	3,48368096
3	0	404,0000	3,48371911
3	0	404,5000	3,48356628
3	0	405,0000	3,48370004
3	0	405,5000	3,48360467
3	0	406,0000	3,48375726
3	0	406,5000	3,48368096
3	0	407,0000	3,4835856
3	0	407,5000	3,48370004
3	0	408,0000	3,48364282
3	0	408,5000	3,48371911
3	0	409,0000	3,48364282
3	0	409,5000	3,48366189
3	0	410,0000	3,48362374
3	0	410,5000	3,48368096
3	0	411,0000	3,48362374
3	0	411,5000	3,4837954
3	0	412,0000	3,48364282
3	0	412,5000	3,48348999
3	0	413,0000	3,4835856
3	0	413,5000	3,48366189
3	0	414,0000	3,48371911
3	0	414,5000	3,48366189
3	0	415,0000	3,4835856
3	0	415,5000	3,48360467
3	0	416,0000	3,48366189
3	0	416,5000	3,48368096
3	0	417,0000	3,48352814
3	0	417,5000	3,48354721
3	0	418,0000	3,48352814
3	0	418,5000	3,48360467
3	0	419,0000	3,48364282
3	0	419,5000	3,48366189
3	0	420,0000	3,48354721
3	0	420,5000	3,48366189
3	0	421,0000	3,48364282
3	0	421,5000	3,48356628
3	0	422,0000	3,48350906
3	0	422,5000	3,48366189
3	0	423,0000	3,48360467
3	0	423,5000	3,48345184
3	0	424,0000	3,48352814
3	0	424,5000	3,48370004
3	0	425,0000	3,48371911
3	0	425,5000	3,4835856
3	0	426,0000	3,48356628
3	0	426,5000	3,48356628
3	0	427,0000	3,48350906
3	0	427,5000	3,48352814
3	0	428,0000	3,4835856
3	0	428,5000	3,48356628
3	0	429,0000	3,48352814
3	0	429,5000	3,48366189
3	0	430,0000	3,48354721
3	0	430,5000	3,4835856
3	0	431,0000	3,48356628
3	0	431,5000	3,48360467
3	0	432,0000	3,48354721
3	0	432,5000	3,48352814
3	0	433,0000	3,48350906
3	0	433,5000	3,48347092
3	0	434,0000	3,48364282
3	0	434,5000	3,48350906
3	0	435,0000	3,48354721
3	0	435,5000	3,48360467
3	0	436,0000	3,48356628
3	0	436,5000	3,48345184
3	0	437,0000	3,48352814
3	0	437,5000	3,48347092
3	0	438,0000	3,4835856
3	0	438,5000	3,48354721
3	0	439,0000	3,4835856
3	0	439,5000	3,48350906
3	0	440,0000	3,48360467
3	0	440,5000	3,48348999
3	0	441,0000	3,48350906
3	0	441,5000	3,48354721
3	0	442,0000	3,48343277
3	0	442,5000	3,48354721
3	0	443,0000	3,48348999
3	0	443,5000	3,48345184
3	0	444,0000	3,48339462
3	0	444,5000	3,48354721
3	0	445,0000	3,48352814
3	0	445,5000	3,4835856
3	0	446,0000	3,48350906
3	0	446,5000	3,48339462
3	0	447,0000	3,48339462
3	0	447,5000	3,48348999
3	0	448,0000	3,48348999
3	0	448,5000	3,4835856
3	0	449,0000	3,48356628
3	0	449,5000	3,48356628
3	0	450,0000	3,48354721
3	0	450,5000	3,48360467
3	0	451,0000	3,48354721
3	0	451,5000	3,48364282
3	0	452,0000	3,48347092
3	0	452,5000	3,48347092
3	0	453,0000	3,48356628
3	0	453,5000	3,48350906
3	0	454,0000	3,48348999
3	0	454,5000	3,48352814
3	0	455,0000	3,48356628
3	0	455,5000	3,48343277
3	0	456,0000	3,48352814
3	0	456,5000	3,48356628
3	0	457,0000	3,48350906
3	0	457,5000	3,48335624
3	0	458,0000	3,48347092
3	0	458,5000	3,48345184
3	0	459,0000	3,48339462
3	0	459,5000	3,48348999
3	0	460,0000	3,48352814
3	0	460,5000	3,48333716
3	0	461,0000	3,48345184
3	0	461,5000	3,48350906
3	0	462,0000	3,48356628
3	0	462,5000	3,48348999
3	0	463,0000	3,48339462
3	0	463,5000	3,48343277
3	0	464,0000	3,48347092
3	0	464,5000	3,48354721
3	0	465,0000	3,48352814
3	0	465,5000	3,48362374
3	0	466,0000	3,48362374
3	0	466,5000	3,48348999
3	0	467,0000	3,48347092
3	0	467,5000	3,48352814
3	0	468,0000	3,48352814
3	0	468,5000	3,48352814
3	0	469,0000	3,48348999
3	0	469,5000	3,48352814
3	0	470,0000	3,48352814
3	0	470,5000	3,48347092
3	0	471,0000	3,4835856
3	0	471,5000	3,48347092
3	0	472,0000	3,48350906
3	0	472,5000	3,48345184
3	0	473,0000	3,48343277
3	0	473,5000	3,48348999
3	0	474,0000	3,48350906
3	0	474,5000	3,48348999
3	0	475,0000	3,48352814
3	0	475,5000	3,48348999
3	0	476,0000	3,48337555
3	0	476,5000	3,48343277
3	0	477,0000	3,48333716
3	0	477,5000	3,48333716
3	0	478,0000	3,48339462
3	0	478,5000	3,48339462
3	0	479,0000	3,48337555
3	0	479,5000	3,48352814
3	0	480,0000	3,48335624
3	0	480,5000	3,48345184
3	0	481,0000	3,48350906
3	0	481,5000	3,48350906
3	0	482,0000	3,48339462
3	0	482,5000	3,48322272
3	0	483,0000	3,48343277
3	0	483,5000	3,48354721
3	0	484,0000	3,48327994
3	0	484,5000	3,48329902
3	0	485,0000	3,48352814
3	0	485,5000	3,4834137
3	0	486,0000	3,48333716
3	0	486,5000	3,4834137
3	0	487,0000	3,48343277
3	0	487,5000	3,48335624
3	0	488,0000	3,48348999
3	0	488,5000	3,48337555
3	0	489,0000	3,48352814
3	0	489,5000	3,48337555
3	0	490,0000	3,48350906
3	0	490,5000	3,4834137
3	0	491,0000	3,48337555
3	0	491,5000	3,4834137
3	0	492,0000	3,4834137
3	0	492,5000	3,48327994
3	0	493,0000	3,48331809
3	0	493,5000	3,4834137
3	0	494,0000	3,48335624
3	0	494,5000	3,48331809
3	0	495,0000	3,48343277
3	0	495,5000	3,48339462
3	0	496,0000	3,48337555
3	0	496,5000	3,48337555
3	0	497,0000	3,48343277
3	0	497,5000	3,48362374
3	0	498,0000	3,4834137
3	0	498,5000	3,48345184
3	0	499,0000	3,4834137
3	0	499,5000	3,48337555
3	0	500,0000	3,48333716
3	0	500,5000	3,48329902
3	0	501,0000	3,48335624
3	0	501,5000	3,48329902
3	0	502,0000	3,48335624
3	0	502,5000	3,48343277
3	0	503,0000	3,48345184
3	0	503,5000	3,48347092
3	0	504,0000	3,48331809
3	0	504,5000	3,48343277
3	0	505,0000	3,4834137
3	0	505,5000	3,48356628
3	0	506,0000	3,4834137
3	0	506,5000	3,48354721
3	0	507,0000	3,48345184
3	0	507,5000	3,48352814
3	0	508,0000	3,48333716
3	0	508,5000	3,4834137
3	0	509,0000	3,48337555
3	0	509,5000	3,48339462
3	0	510,0000	3,48343277
3	0	510,5000	3,48348999
3	0	511,0000	3,48350906
3	0	511,5000	3,48345184
3	0	512,0000	3,48339462
3	0	512,5000	3,48339462
3	0	513,0000	3,48339462
3	0	513,5000	3,48348999
3	0	514,0000	3,48337555
3	0	514,5000	3,48345184
3	0	515,0000	3,48352814
3	0	515,5000	3,48331809
3	0	516,0000	3,48335624
3	0	516,5000	3,48329902
3	0	517,0000	3,48335624
3	0	517,5000	3,48347092
3	0	518,0000	3,4834137
3	0	518,5000	3,48333716
3	0	519,0000	3,4834137
3	0	519,5000	3,48335624
3	0	520,0000	3,48329902
3	0	520,5000	3,48326087
3	0	521,0000	3,4834137
3	0	521,5000	3,48329902
3	0	522,0000	3,48329902
3	0	522,5000	3,48335624
3	0	523,0000	3,48337555
3	0	523,5000	3,48327994
3	0	524,0000	3,48326087
3	0	524,5000	3,48320365
3	0	525,0000	3,48320365
3	0	525,5000	3,48333716
3	0	526,0000	3,48329902
3	0	526,5000	3,48327994
3	0	527,0000	3,48339462
3	0	527,5000	3,48333716
3	0	528,0000	3,48327994
3	0	528,5000	3,48322272
3	0	529,0000	3,4834137
3	0	529,5000	3,48322272
3	0	530,0000	3,48329902
3	0	530,5000	3,48326087
3	0	531,0000	3,48308897
3	0	531,5000	3,4830699
3	0	532,0000	3,4831655
3	0	532,5000	3,48322272
3	0	533,0000	3,48326087
3	0	533,5000	3,48331809
3	0	534,0000	3,4831655
3	0	534,5000	3,48318458
3	0	535,0000	3,48329902
3	0	535,5000	3,4832418
3	0	536,0000	3,48320365
3	0	536,5000	3,48322272
3	0	537,0000	3,4831655
3	0	537,5000	3,4831655
3	0	538,0000	3,48314619
3	0	538,5000	3,48318458
3	0	539,0000	3,4831655
3	0	539,5000	3,48327994
3	0	540,0000	3,48314619
3	0	540,5000	3,48320365
3	0	541,0000	3,48320365
3	0	541,5000	3,48318458
3	0	542,0000	3,48327994
3	0	542,5000	3,48312712
3	0	543,0000	3,48320365
3	0	543,5000	3,48329902
3	0	544,0000	3,48314619
3	0	544,5000	3,48320365
3	0	545,0000	3,48320365
3	0	545,5000	3,48322272
3	0	546,0000	3,4831655
3	0	546,5000	3,4831655
3	0	547,0000	3,48318458
3	0	547,5000	3,48318458
3	0	548,0000	3,48320365
3	0	548,5000	3,48327994
3	0	549,0000	3,4832418
3	0	549,5000	3,48318458
3	0	550,0000	3,4831655
3	0	550,5000	3,48327994
3	0	551,0000	3,48327994
3	0	551,5000	3,48322272
3	0	552,0000	3,48312712
3	0	552,5000	3,48326087
3	0	553,0000	3,48326087
3	0	553,5000	3,48320365
3	0	554,0000	3,48337555
3	0	554,5000	3,48329902
3	0	555,0000	3,48333716
3	0	555,5000	3,48329902
3	0	556,0000	3,4832418
3	0	556,5000	3,48318458
3	0	557,0000	3,48322272
3	0	557,5000	3,48326087
3	0	558,0000	3,4831655
3	0	558,5000	3,48326087
3	0	559,0000	3,48310804
3	0	559,5000	3,48320365
3	0	560,0000	3,48335624
3	0	560,5000	3,48326087
3	0	561,0000	3,48329902
3	0	561,5000	3,48318458
3	0	562,0000	3,48314619
3	0	562,5000	3,48312712
3	0	563,0000	3,48318458
3	0	563,5000	3,48310804
3	0	564,0000	3,48314619
3	0	564,5000	3,48308897
3	0	565,0000	3,4832418
3	0	565,5000	3,4830699
3	0	566,0000	3,48326087
3	0	566,5000	3,48326087
3	0	567,0000	3,48312712
3	0	567,5000	3,48320365
3	0	568,0000	3,48312712
3	0	568,5000	3,48312712
3	0	569,0000	3,48322272
3	0	569,5000	3,4831655
3	0	570,0000	3,48326087
3	0	570,5000	3,48312712
3	0	571,0000	3,48310804
3	0	571,5000	3,4831655
3	0	572,0000	3,48314619
3	0	572,5000	3,48308897
3	0	573,0000	3,48322272
3	0	573,5000	3,48314619
3	0	574,0000	3,48320365
3	0	574,5000	3,48314619
3	0	575,0000	3,48327994
3	0	575,5000	3,48314619
3	0	576,0000	3,48308897
3	0	576,5000	3,48327994
3	0	577,0000	3,48320365
3	0	577,5000	3,48333716
3	0	578,0000	3,48308897
3	0	578,5000	3,48310804
3	0	579,0000	3,4831655
3	0	579,5000	3,4831655
3	0	580,0000	3,48314619
3	0	580,5000	3,48301268
3	0	581,0000	3,48301268
3	0	581,5000	3,4831655
3	0	582,0000	3,48305082
3	0	582,5000	3,4830699
3	0	583,0000	3,48310804
3	0	583,5000	3,48297453
3	0	584,0000	3,48295546
3	0	584,5000	3,48295546
3	0	585,0000	3,48318458
3	0	585,5000	3,4829936
3	0	586,0000	3,48305082
3	0	586,5000	3,48303175
3	0	587,0000	3,4829936
3	0	587,5000	3,48312712
3	0	588,0000	3,48295546
3	0	588,5000	3,48297453
3	0	589,0000	3,48305082
3	0	589,5000	3,48312712
3	0	590,0000	3,48312712
3	0	590,5000	3,48303175
3	0	591,0000	3,48301268
3	0	591,5000	3,48318458
3	0	592,0000	3,48305082
3	0	592,5000	3,48305082
3	0	593,0000	3,48305082
3	0	593,5000	3,4830699
3	0	594,0000	3,48312712
3	0	594,5000	3,482898
3	0	595,0000	3,4831655
3	0	595,5000	3,48308897
3	0	596,0000	3,48301268
3	0	596,5000	3,4830699
3	0	597,0000	3,48301268
3	0	597,5000	3,48314619
3	0	598,0000	3,48312712
3	0	598,5000	3,48308897
3	0	599,0000	3,48312712
3	0	599,5000	3,4831655
3	0	600,0000	3,48310804