File: Experimentelles/Rohdaten/Batterietests/AlteZelle/Studenten_Batterietests/SemArbeitToph/ECLab-Export/Al_Struktur_01_Zyklieren_01_OCV_C03.mpt
EC-Lab ASCII FILE
Nb header lines : 46

Open Circuit Voltage

Run on channel : 3 (SN 6987)
Grouped channel(s) : 3
User :
CE vs. WE compliance from -10 V to 10 V
Electrode connection : standard
Ewe ctrl range : min = 0,00 V, max = 5,00 V
Acquisition started on : 03.16.2015 02:19:29
Saved on :
	File : Al_Struktur_01_Zyklieren_01_OCV_C03.mpr
	Directory : C:\Hupfer\Studenten Batterietests\SemArbeitToph\
	Host : 192.168.0.2
Device : VMP3 (SN 0324)
Address : 192.168.0.1
EC-Lab for windows v10.33 (software)
Internet server v10.33 (firmware)
Command interpretor v10.32 (firmware)
Electrode material :
Initial state :
Electrolyte :
Comments :
Mass of active material : 0,001 mg
 at x = 0,000
Molecular weight of active material (at x = 0) : 0,001 g/mol
Atomic weight of intercalated ion : 0,001 g/mol
Acquisition started at : xo = 0,000
Number of e- transfered per intercalated ion : 1
for DX = 1, DQ = 26,801 mA.h
Battery capacity : 0,000 A.h
Electrode surface area : 0,001 cm²
Characteristic mass : 0,001 g
tR (h:m:s)          0:10:0,0000
dER/dt (mV/h)       1,0
dER (mV)            1,00
dtR (s)             0,5000
E range min (V)     0,000
E range max (V)     5,000

Number of loops : 1
Loop 0 from point number 0 to 1202

mode	error	time/s	Ewe/V
3	0	0,0000	4,06582785
3	0	0,5000	4,06565619
3	0	1,0000	4,0657897
3	0	1,5000	4,06573248
3	0	2,0000	4,06573248
3	0	2,5000	4,06580877
3	0	3,0000	4,06573248
3	0	3,5000	4,06557989
3	0	4,0000	4,06571341
3	0	4,5000	4,06582785
3	0	5,0000	4,06586599
3	0	5,5000	4,06590414
3	0	6,0000	4,06569433
3	0	6,5000	4,06577063
3	0	7,0000	4,06569433
3	0	7,5000	4,06582785
3	0	8,0000	4,06563711
3	0	8,5000	4,06575155
3	0	9,0000	4,0657897
3	0	9,5000	4,06571341
3	0	10,0000	4,06565619
3	0	10,5000	4,06557989
3	0	11,0000	4,06567526
3	0	11,5000	4,06563711
3	0	12,0000	4,06561804
3	0	12,5000	4,06567526
3	0	13,0000	4,06571341
3	0	13,5000	4,06573248
3	0	14,0000	4,06573248
3	0	14,5000	4,06559896
3	0	15,0000	4,06559896
3	0	15,5000	4,06565619
3	0	16,0000	4,0655036
3	0	16,5000	4,06561804
3	0	17,0000	4,06573248
3	0	17,5000	4,06556082
3	0	18,0000	4,06557989
3	0	18,5000	4,06561804
3	0	19,0000	4,06559896
3	0	19,5000	4,06557989
3	0	20,0000	4,0654273
3	0	20,5000	4,06554174
3	0	21,0000	4,06556082
3	0	21,5000	4,06565619
3	0	22,0000	4,06554174
3	0	22,5000	4,06557989
3	0	23,0000	4,06546545
3	0	23,5000	4,0655036
3	0	24,0000	4,06559896
3	0	24,5000	4,0655036
3	0	25,0000	4,06561804
3	0	25,5000	4,06546545
3	0	26,0000	4,06557989
3	0	26,5000	4,0655036
3	0	27,0000	4,0655036
3	0	27,5000	4,0655036
3	0	28,0000	4,06554174
3	0	28,5000	4,06557989
3	0	29,0000	4,06548452
3	0	29,5000	4,06544638
3	0	30,0000	4,06557989
3	0	30,5000	4,06556082
3	0	31,0000	4,06546545
3	0	31,5000	4,06546545
3	0	32,0000	4,06540823
3	0	32,5000	4,06556082
3	0	33,0000	4,06537008
3	0	33,5000	4,06546545
3	0	34,0000	4,06546545
3	0	34,5000	4,06540823
3	0	35,0000	4,0655036
3	0	35,5000	4,06552267
3	0	36,0000	4,06548452
3	0	36,5000	4,06544638
3	0	37,0000	4,0654273
3	0	37,5000	4,06544638
3	0	38,0000	4,0654273
3	0	38,5000	4,06552267
3	0	39,0000	4,06531286
3	0	39,5000	4,06546545
3	0	40,0000	4,06538916
3	0	40,5000	4,06538916
3	0	41,0000	4,06540823
3	0	41,5000	4,06544638
3	0	42,0000	4,06535101
3	0	42,5000	4,06538916
3	0	43,0000	4,06538916
3	0	43,5000	4,06531286
3	0	44,0000	4,06529379
3	0	44,5000	4,06527472
3	0	45,0000	4,06538916
3	0	45,5000	4,06523657
3	0	46,0000	4,06533194
3	0	46,5000	4,06517935
3	0	47,0000	4,06527472
3	0	47,5000	4,06519842
3	0	48,0000	4,06525564
3	0	48,5000	4,06529379
3	0	49,0000	4,06533194
3	0	49,5000	4,06533194
3	0	50,0000	4,06538916
3	0	50,5000	4,06523657
3	0	51,0000	4,06535101
3	0	51,5000	4,06531286
3	0	52,0000	4,06517935
3	0	52,5000	4,06527472
3	0	53,0000	4,06516075
3	0	53,5000	4,06523657
3	0	54,0000	4,06537008
3	0	54,5000	4,06523657
3	0	55,0000	4,06525564
3	0	55,5000	4,06525564
3	0	56,0000	4,06529379
3	0	56,5000	4,0651226
3	0	57,0000	4,06531286
3	0	57,5000	4,06521749
3	0	58,0000	4,06516075
3	0	58,5000	4,06527472
3	0	59,0000	4,06519842
3	0	59,5000	4,06521749
3	0	60,0000	4,06516075
3	0	60,5000	4,06529379
3	0	61,0000	4,06523657
3	0	61,5000	4,0651226
3	0	62,0000	4,06510353
3	0	62,5000	4,0651226
3	0	63,0000	4,06519842
3	0	63,5000	4,06508446
3	0	64,0000	4,06510353
3	0	64,5000	4,06516075
3	0	65,0000	4,06510353
3	0	65,5000	4,06516075
3	0	66,0000	4,06517935
3	0	66,5000	4,06523657
3	0	67,0000	4,06514168
3	0	67,5000	4,06508446
3	0	68,0000	4,06510353
3	0	68,5000	4,06516075
3	0	69,0000	4,0651226
3	0	69,5000	4,06517935
3	0	70,0000	4,06508446
3	0	70,5000	4,0651226
3	0	71,0000	4,06506538
3	0	71,5000	4,06517935
3	0	72,0000	4,06508446
3	0	72,5000	4,06506538
3	0	73,0000	4,06497002
3	0	73,5000	4,06506538
3	0	74,0000	4,06508446
3	0	74,5000	4,06506538
3	0	75,0000	4,06500816
3	0	75,5000	4,0651226
3	0	76,0000	4,06510353
3	0	76,5000	4,06495094
3	0	77,0000	4,06504631
3	0	77,5000	4,06508446
3	0	78,0000	4,06500816
3	0	78,5000	4,06506538
3	0	79,0000	4,06493187
3	0	79,5000	4,06502724
3	0	80,0000	4,06504631
3	0	80,5000	4,06506538
3	0	81,0000	4,06504631
3	0	81,5000	4,0649128
3	0	82,0000	4,06502724
3	0	82,5000	4,06500816
3	0	83,0000	4,06502724
3	0	83,5000	4,06500816
3	0	84,0000	4,06495094
3	0	84,5000	4,06497002
3	0	84,8642	4,0660944
3	0	84,8644	4,06487465
3	0	85,3644	4,06500816
3	0	85,8644	4,06487465
3	0	86,3644	4,06495094
3	0	86,8644	4,06500816
3	0	87,3644	4,06504631
3	0	87,8644	4,06497002
3	0	88,3644	4,06493187
3	0	88,8644	4,06493187
3	0	89,3644	4,0649128
3	0	89,8644	4,06497002
3	0	90,3644	4,0648365
3	0	90,8644	4,06487465
3	0	91,3644	4,06477928
3	0	91,8644	4,0648365
3	0	92,3644	4,06489372
3	0	92,8644	4,0649128
3	0	93,3644	4,06487465
3	0	93,8644	4,0649128
3	0	94,3644	4,06489372
3	0	94,8644	4,0649128
3	0	95,3644	4,06479836
3	0	95,8644	4,06487465
3	0	96,3644	4,06489372
3	0	96,8644	4,06487465
3	0	97,3644	4,06489372
3	0	97,8644	4,06489372
3	0	98,3644	4,06487465
3	0	98,8644	4,06495094
3	0	99,3644	4,06485558
3	0	99,8644	4,06489372
3	0	100,3644	4,06479836
3	0	100,8644	4,06479836
3	0	101,3644	4,06481743
3	0	101,8644	4,06476021
3	0	102,3644	4,06477928
3	0	102,8644	4,06481743
3	0	103,3644	4,06481743
3	0	103,8644	4,06472206
3	0	104,3644	4,06477928
3	0	104,8644	4,06477928
3	0	105,3644	4,06472206
3	0	105,8644	4,06485558
3	0	106,3644	4,06477928
3	0	106,8644	4,0648365
3	0	107,3644	4,06485558
3	0	107,8644	4,06477928
3	0	108,3644	4,06474113
3	0	108,8644	4,06477928
3	0	109,3644	4,06468391
3	0	109,8644	4,06477928
3	0	110,3644	4,06479836
3	0	110,8644	4,06470299
3	0	111,3644	4,06468391
3	0	111,8644	4,06485558
3	0	112,3644	4,06470299
3	0	112,8644	4,06485558
3	0	113,3644	4,06472206
3	0	113,8644	4,06464577
3	0	114,3644	4,06477928
3	0	114,8644	4,06468391
3	0	115,3644	4,06466484
3	0	115,8644	4,06470299
3	0	116,3644	4,06470299
3	0	116,8644	4,06466484
3	0	117,3644	4,06466484
3	0	117,8644	4,06479836
3	0	118,3644	4,06470299
3	0	118,8644	4,06468391
3	0	119,3644	4,06462669
3	0	119,8644	4,06470299
3	0	120,3644	4,06466484
3	0	120,8644	4,06464577
3	0	121,3644	4,06464577
3	0	121,8644	4,06460762
3	0	122,3644	4,06466484
3	0	122,8644	4,06460762
3	0	123,3644	4,06451225
3	0	123,8644	4,06460762
3	0	124,3644	4,06468391
3	0	124,8644	4,06476021
3	0	125,3644	4,06453133
3	0	125,8644	4,06458855
3	0	126,3644	4,06449318
3	0	126,8644	4,06464577
3	0	127,3644	4,06462669
3	0	127,8644	4,06462669
3	0	128,3644	4,06460762
3	0	128,8644	4,06464577
3	0	129,3644	4,06449318
3	0	129,8644	4,0645504
3	0	130,3644	4,06458855
3	0	130,8644	4,0645504
3	0	131,3644	4,06468391
3	0	131,8644	4,06458855
3	0	132,3644	4,06466484
3	0	132,8644	4,06451225
3	0	133,3644	4,06456947
3	0	133,8644	4,06456947
3	0	134,3644	4,06456947
3	0	134,8644	4,06453133
3	0	135,3644	4,06451225
3	0	135,8644	4,06449318
3	0	136,3644	4,06458855
3	0	136,8644	4,06458855
3	0	137,3644	4,06447411
3	0	137,8644	4,06453133
3	0	138,3644	4,06443596
3	0	138,8644	4,06458855
3	0	139,3644	4,06460762
3	0	139,8644	4,06451225
3	0	140,3644	4,06451225
3	0	140,8644	4,06443596
3	0	141,3644	4,06447411
3	0	141,8644	4,06449318
3	0	142,3644	4,06449318
3	0	142,8644	4,06449318
3	0	143,3644	4,06449318
3	0	143,8644	4,06445503
3	0	144,3644	4,06449318
3	0	144,8644	4,06441689
3	0	145,3644	4,06441689
3	0	145,8644	4,06449318
3	0	146,3644	4,06447411
3	0	146,8644	4,06449318
3	0	147,3644	4,06453133
3	0	147,8644	4,06441689
3	0	148,3644	4,06443596
3	0	148,8644	4,06435966
3	0	149,3644	4,0645504
3	0	149,8644	4,06447411
3	0	150,3644	4,06451225
3	0	150,8644	4,06432152
3	0	151,3644	4,06437874
3	0	151,8644	4,06445503
3	0	152,3644	4,06443596
3	0	152,8644	4,06439781
3	0	153,3644	4,06435966
3	0	153,8644	4,06441689
3	0	154,3644	4,06430244
3	0	154,8644	4,06439781
3	0	155,3644	4,06428337
3	0	155,8644	4,06434059
3	0	156,3644	4,06439781
3	0	156,8644	4,06432152
3	0	157,3644	4,06432152
3	0	157,8644	4,06437874
3	0	158,3644	4,06441689
3	0	158,8644	4,0642643
3	0	159,3644	4,06443596
3	0	159,8644	4,06443596
3	0	160,3644	4,06434059
3	0	160,8644	4,0642643
3	0	161,3644	4,06435966
3	0	161,8644	4,06437874
3	0	162,3644	4,06434059
3	0	162,8644	4,06435966
3	0	163,3644	4,0642457
3	0	163,8644	4,06435966
3	0	164,3644	4,06422663
3	0	164,8644	4,06434059
3	0	165,3644	4,06432152
3	0	165,8644	4,06422663
3	0	166,3644	4,06430244
3	0	166,8644	4,06420755
3	0	167,3644	4,06439781
3	0	167,8644	4,06422663
3	0	168,3644	4,06416941
3	0	168,8644	4,06430244
3	0	169,3644	4,06447411
3	0	169,8644	4,06430244
3	0	170,3644	4,0642457
3	0	170,8644	4,06415033
3	0	171,3644	4,06416941
3	0	171,8644	4,06435966
3	0	172,3644	4,06420755
3	0	172,8644	4,06437874
3	0	173,3644	4,0642643
3	0	173,8644	4,06432152
3	0	174,3644	4,06411219
3	0	174,8644	4,06428337
3	0	175,3644	4,06415033
3	0	175,8644	4,06418848
3	0	176,3644	4,0642457
3	0	176,8644	4,06416941
3	0	177,3644	4,06420755
3	0	177,8644	4,06420755
3	0	178,3644	4,06422663
3	0	178,8644	4,06420755
3	0	179,3644	4,06416941
3	0	179,8644	4,06407404
3	0	180,3644	4,0642643
3	0	180,8644	4,06428337
3	0	181,3644	4,06411219
3	0	181,8644	4,06409311
3	0	182,3644	4,06416941
3	0	182,8644	4,06416941
3	0	183,3644	4,06411219
3	0	183,8644	4,06411219
3	0	184,3644	4,06416941
3	0	184,8644	4,06411219
3	0	185,3644	4,06401682
3	0	185,8644	4,06405497
3	0	186,3644	4,06416941
3	0	186,8644	4,06418848
3	0	187,3644	4,06407404
3	0	187,8644	4,06409311
3	0	188,3644	4,06415033
3	0	188,8644	4,06409311
3	0	189,3644	4,06401682
3	0	189,8644	4,06413126
3	0	190,3644	4,06403589
3	0	190,8644	4,06405497
3	0	191,3644	4,0638833
3	0	191,8644	4,06405497
3	0	192,3644	4,06407404
3	0	192,8644	4,06407404
3	0	193,3644	4,06399775
3	0	193,8644	4,06403589
3	0	194,3644	4,06405497
3	0	194,8644	4,06411219
3	0	195,3644	4,06405497
3	0	195,8644	4,0639596
3	0	196,3644	4,06409311
3	0	196,8644	4,0639596
3	0	197,3644	4,06399775
3	0	197,8644	4,06399775
3	0	198,3644	4,06409311
3	0	198,8644	4,06409311
3	0	199,3644	4,06399775
3	0	199,8644	4,06397867
3	0	200,3644	4,0639596
3	0	200,8644	4,06397867
3	0	201,3644	4,06399775
3	0	201,8644	4,06397867
3	0	202,3644	4,06399775
3	0	202,8644	4,06382608
3	0	203,3644	4,0639596
3	0	203,8644	4,06399775
3	0	204,3644	4,0638833
3	0	204,8644	4,06390238
3	0	205,3644	4,0639596
3	0	205,8644	4,06401682
3	0	206,3644	4,06382608
3	0	206,8644	4,06401682
3	0	207,3644	4,06407404
3	0	207,8644	4,06394053
3	0	208,3644	4,06394053
3	0	208,8644	4,06399775
3	0	209,3644	4,06382608
3	0	209,8644	4,06397867
3	0	210,3644	4,06390238
3	0	210,8644	4,06386423
3	0	211,3644	4,06382608
3	0	211,8644	4,06390238
3	0	212,3644	4,06384516
3	0	212,8644	4,06390238
3	0	213,3644	4,0639596
3	0	213,8644	4,06397867
3	0	214,3644	4,06376886
3	0	214,8644	4,06384516
3	0	215,3644	4,06382608
3	0	215,8644	4,06384516
3	0	216,3644	4,0638833
3	0	216,8644	4,0638833
3	0	217,3644	4,06378794
3	0	217,8644	4,06376886
3	0	218,3644	4,06386423
3	0	218,8644	4,0638833
3	0	219,3644	4,06384516
3	0	219,8644	4,06382608
3	0	220,3644	4,06369257
3	0	220,8644	4,06380701
3	0	221,3644	4,06384516
3	0	221,8644	4,06384516
3	0	222,3644	4,06376886
3	0	222,8644	4,06371164
3	0	223,3644	4,06382608
3	0	223,8644	4,06371164
3	0	224,3644	4,06369257
3	0	224,8644	4,06374979
3	0	225,3644	4,06380701
3	0	225,8644	4,06378794
3	0	226,3644	4,06374979
3	0	226,8644	4,06374979
3	0	227,3644	4,06369257
3	0	227,8644	4,0638833
3	0	228,3644	4,06369257
3	0	228,8644	4,06376886
3	0	229,3644	4,06392145
3	0	229,8644	4,06382608
3	0	230,3644	4,06374979
3	0	230,8644	4,06382608
3	0	231,3644	4,06374979
3	0	231,8644	4,06384516
3	0	232,3644	4,06376886
3	0	232,8644	4,06378794
3	0	233,3644	4,0635972
3	0	233,8644	4,06374979
3	0	234,3644	4,06363535
3	0	234,8644	4,06363535
3	0	235,3644	4,06386423
3	0	235,8644	4,06365442
3	0	236,3644	4,06361628
3	0	236,8644	4,06373072
3	0	237,3644	4,06376886
3	0	237,8644	4,06371164
3	0	238,3644	4,06373072
3	0	238,8644	4,06363535
3	0	239,3644	4,06369257
3	0	239,8644	4,06371164
3	0	240,3644	4,06369257
3	0	240,8644	4,0636735
3	0	241,3644	4,06361628
3	0	241,8644	4,06361628
3	0	242,3644	4,06363535
3	0	242,8644	4,0635972
3	0	243,3644	4,06363535
3	0	243,8644	4,06353998
3	0	244,3644	4,06353998
3	0	244,8644	4,06357813
3	0	245,3644	4,06357813
3	0	245,8644	4,06361628
3	0	246,3644	4,06357813
3	0	246,8644	4,06373072
3	0	247,3644	4,06374979
3	0	247,8644	4,06355906
3	0	248,3644	4,06365442
3	0	248,8644	4,06357813
3	0	249,3644	4,06365442
3	0	249,8644	4,0635972
3	0	250,3644	4,06361628
3	0	250,8644	4,06355906
3	0	251,3644	4,06363535
3	0	251,8644	4,06355906
3	0	252,3644	4,06353998
3	0	252,8644	4,06357813
3	0	253,3644	4,06353998
3	0	253,8644	4,06355906
3	0	254,3644	4,06352091
3	0	254,8644	4,06355906
3	0	255,3644	4,06355906
3	0	255,8644	4,06365442
3	0	256,3644	4,06350183
3	0	256,8644	4,06344461
3	0	257,3644	4,06346369
3	0	257,8644	4,06350183
3	0	258,3644	4,06353998
3	0	258,8644	4,06357813
3	0	259,3644	4,06346369
3	0	259,8644	4,06348276
3	0	260,3644	4,06350183
3	0	260,8644	4,06361628
3	0	261,3644	4,06342554
3	0	261,8644	4,06353998
3	0	262,3644	4,06350183
3	0	262,8644	4,06346369
3	0	263,3644	4,06350183
3	0	263,8644	4,06348276
3	0	264,3644	4,06346369
3	0	264,8644	4,06344461
3	0	265,3644	4,06348276
3	0	265,8644	4,06348276
3	0	266,3644	4,06353998
3	0	266,8644	4,06352091
3	0	267,3644	4,06346369
3	0	267,8644	4,06350183
3	0	268,3644	4,06350183
3	0	268,8644	4,06346369
3	0	269,3644	4,06348276
3	0	269,8644	4,06342554
3	0	270,3644	4,06342554
3	0	270,8644	4,06350183
3	0	271,3644	4,06350183
3	0	271,8644	4,06352091
3	0	272,3644	4,06346369
3	0	272,8644	4,06352091
3	0	273,3644	4,06340647
3	0	273,8644	4,06348276
3	0	274,3644	4,06331158
3	0	274,8644	4,06344461
3	0	275,3644	4,06342554
3	0	275,8644	4,06340647
3	0	276,3644	4,06334925
3	0	276,8644	4,06333017
3	0	277,3644	4,06336832
3	0	277,8644	4,06340647
3	0	278,3644	4,06342554
3	0	278,8644	4,06336832
3	0	279,3644	4,06348276
3	0	279,8644	4,06334925
3	0	280,3644	4,06340647
3	0	280,8644	4,06333017
3	0	281,3644	4,06338739
3	0	281,8644	4,06340647
3	0	282,3644	4,06340647
3	0	282,8644	4,06338739
3	0	283,3644	4,06336832
3	0	283,8644	4,06333017
3	0	284,3644	4,06342554
3	0	284,8644	4,06336832
3	0	285,3644	4,06325436
3	0	285,8644	4,06334925
3	0	286,3644	4,06327343
3	0	286,8644	4,06325436
3	0	287,3644	4,06336832
3	0	287,8644	4,06321621
3	0	288,3644	4,06334925
3	0	288,8644	4,0632925
3	0	289,3644	4,06327343
3	0	289,8644	4,06327343
3	0	290,3644	4,06319714
3	0	290,8644	4,06321621
3	0	291,3644	4,06317806
3	0	291,8644	4,06327343
3	0	292,3644	4,06327343
3	0	292,8644	4,06338739
3	0	293,3644	4,06327343
3	0	293,8644	4,06321621
3	0	294,3644	4,06323528
3	0	294,8644	4,06319714
3	0	295,3644	4,06325436
3	0	295,8644	4,06319714
3	0	296,3644	4,06327343
3	0	296,8644	4,06325436
3	0	297,3644	4,06312084
3	0	297,8644	4,06325436
3	0	298,3644	4,06321621
3	0	298,8644	4,06317806
3	0	299,3644	4,06327343
3	0	299,8644	4,06319714
3	0	300,3644	4,06313992
3	0	300,8644	4,06331158
3	0	301,3644	4,06319714
3	0	301,8644	4,06317806
3	0	302,3644	4,06319714
3	0	302,8644	4,06317806
3	0	303,3644	4,06312084
3	0	303,8644	4,06317806
3	0	304,3644	4,06319714
3	0	304,8644	4,06312084
3	0	305,3644	4,06321621
3	0	305,8644	4,06317806
3	0	306,3644	4,0630827
3	0	306,8644	4,06317806
3	0	307,3644	4,06310177
3	0	307,8644	4,06313992
3	0	308,3644	4,06313992
3	0	308,8644	4,06317806
3	0	309,3644	4,06298733
3	0	309,8644	4,06323528
3	0	310,3644	4,06323528
3	0	310,8644	4,0630827
3	0	311,3644	4,06319714
3	0	311,8644	4,06306362
3	0	312,3644	4,06315899
3	0	312,8644	4,06306362
3	0	313,3644	4,06312084
3	0	313,8644	4,06306362
3	0	314,3644	4,06298733
3	0	314,8644	4,06312084
3	0	315,3644	4,06302547
3	0	315,8644	4,06302547
3	0	316,3644	4,06312084
3	0	316,8644	4,06317806
3	0	317,3644	4,06302547
3	0	317,8644	4,0630827
3	0	318,3644	4,06312084
3	0	318,8644	4,06313992
3	0	319,3644	4,06312084
3	0	319,8644	4,06306362
3	0	320,3644	4,0630064
3	0	320,8644	4,06291103
3	0	321,3644	4,06310177
3	0	321,8644	4,06304455
3	0	322,3644	4,0630064
3	0	322,8644	4,06296825
3	0	323,3644	4,06310177
3	0	323,8644	4,06306362
3	0	324,3644	4,06310177
3	0	324,8644	4,0630064
3	0	325,3644	4,06298733
3	0	325,8644	4,06304455
3	0	326,3644	4,06296825
3	0	326,8644	4,06306362
3	0	327,3644	4,06310177
3	0	327,8644	4,06289196
3	0	328,3644	4,06304455
3	0	328,8644	4,0630827
3	0	329,3644	4,06289196
3	0	329,8644	4,06296825
3	0	330,3644	4,06296825
3	0	330,8644	4,0630827
3	0	331,3644	4,06304455
3	0	331,8644	4,06293011
3	0	332,3644	4,06296825
3	0	332,8644	4,06294918
3	0	333,3644	4,06289196
3	0	333,8644	4,06293011
3	0	334,3644	4,06291103
3	0	334,8644	4,06285381
3	0	335,3644	4,06296825
3	0	335,8644	4,06283474
3	0	336,3644	4,06291103
3	0	336,8644	4,06306362
3	0	337,3644	4,06289196
3	0	337,8644	4,06294918
3	0	338,3644	4,06293011
3	0	338,8644	4,06291103
3	0	339,3644	4,06298733
3	0	339,8644	4,06294918
3	0	340,3644	4,06277752
3	0	340,8644	4,06289196
3	0	341,3644	4,06294918
3	0	341,8644	4,06287289
3	0	342,3644	4,06293011
3	0	342,8644	4,06289196
3	0	343,3644	4,06293011
3	0	343,8644	4,06294918
3	0	344,3644	4,06289196
3	0	344,8644	4,06293011
3	0	345,3644	4,06277752
3	0	345,8644	4,06281567
3	0	346,3644	4,06279659
3	0	346,8644	4,06283474
3	0	347,3644	4,06291103
3	0	347,8644	4,06283474
3	0	348,3644	4,06273937
3	0	348,8644	4,06279659
3	0	349,3644	4,06279659
3	0	349,8644	4,06287289
3	0	350,3644	4,06289196
3	0	350,8644	4,06273937
3	0	351,3644	4,06273937
3	0	351,8644	4,06289196
3	0	352,3644	4,06279659
3	0	352,8644	4,06283474
3	0	353,3644	4,06279659
3	0	353,8644	4,06281567
3	0	354,3644	4,0627203
3	0	354,8644	4,06287289
3	0	355,3644	4,06283474
3	0	355,8644	4,06289196
3	0	356,3644	4,06275845
3	0	356,8644	4,06289196
3	0	357,3644	4,06268215
3	0	357,8644	4,06281567
3	0	358,3644	4,06268215
3	0	358,8644	4,06268215
3	0	359,3644	4,06279659
3	0	359,8644	4,0627203
3	0	360,3644	4,06268215
3	0	360,8644	4,0627203
3	0	361,3644	4,06275845
3	0	361,8644	4,06273937
3	0	362,3644	4,06281567
3	0	362,8644	4,06270123
3	0	363,3644	4,06266308
3	0	363,8644	4,0627203
3	0	364,3644	4,06277752
3	0	364,8644	4,0627203
3	0	365,3644	4,06270123
3	0	365,8644	4,062644
3	0	366,3644	4,06277752
3	0	366,8644	4,06266308
3	0	367,3644	4,06270123
3	0	367,8644	4,06279659
3	0	368,3644	4,0627203
3	0	368,8644	4,06266308
3	0	369,3644	4,0627203
3	0	369,8644	4,06262493
3	0	370,3644	4,06275845
3	0	370,8644	4,06262493
3	0	371,3644	4,0627203
3	0	371,8644	4,062644
3	0	372,3644	4,06268215
3	0	372,8644	4,06268215
3	0	373,3644	4,06268215
3	0	373,8644	4,06277752
3	0	374,3644	4,0627203
3	0	374,8644	4,06273937
3	0	375,3644	4,062644
3	0	375,8644	4,06258678
3	0	376,3644	4,06258678
3	0	376,8644	4,06268215
3	0	377,3644	4,06266308
3	0	377,8644	4,06262493
3	0	378,3644	4,06260586
3	0	378,8644	4,06260586
3	0	379,3644	4,06258678
3	0	379,8644	4,0627203
3	0	380,3644	4,06262493
3	0	380,8644	4,06270123
3	0	381,3644	4,06262493
3	0	381,8644	4,06260586
3	0	382,3644	4,0624342
3	0	382,8644	4,06256771
3	0	383,3644	4,062644
3	0	383,8644	4,06256771
3	0	384,3644	4,06266308
3	0	384,8644	4,06256771
3	0	385,3644	4,06258678
3	0	385,8644	4,06251049
3	0	386,3644	4,06254864
3	0	386,8644	4,06260586
3	0	387,3644	4,06260586
3	0	387,8644	4,06252956
3	0	388,3644	4,06254864
3	0	388,8644	4,06256771
3	0	389,3644	4,06256771
3	0	389,8644	4,06254864
3	0	390,3644	4,0624342
3	0	390,8644	4,06256771
3	0	391,3644	4,062644
3	0	391,8644	4,06256771
3	0	392,3644	4,06247234
3	0	392,8644	4,06249142
3	0	393,3644	4,06254864
3	0	393,8644	4,06260586
3	0	394,3644	4,0624342
3	0	394,8644	4,06256771
3	0	395,3644	4,06249142
3	0	395,8644	4,06254864
3	0	396,3644	4,06254864
3	0	396,8644	4,06241512
3	0	397,3644	4,06251049
3	0	397,8644	4,06245327
3	0	398,3644	4,06252956
3	0	398,8644	4,06258678
3	0	399,3644	4,06254864
3	0	399,8644	4,06247234
3	0	400,3644	4,0624342
3	0	400,8644	4,06245327
3	0	401,3644	4,0624342
3	0	401,8644	4,06251049
3	0	402,3644	4,06251049
3	0	402,8644	4,06237745
3	0	403,3644	4,0624342
3	0	403,8644	4,06247234
3	0	404,3644	4,06249142
3	0	404,8644	4,06256771
3	0	405,3644	4,06260586
3	0	405,8644	4,06254864
3	0	406,3644	4,0624342
3	0	406,8644	4,06247234
3	0	407,3644	4,06245327
3	0	407,8644	4,06233931
3	0	408,3644	4,06233931
3	0	408,8644	4,06249142
3	0	409,3644	4,06252956
3	0	409,8644	4,06233931
3	0	410,3644	4,06233931
3	0	410,8644	4,06239653
3	0	411,3644	4,06233931
3	0	411,8644	4,06249142
3	0	412,3644	4,06233931
3	0	412,8644	4,06235838
3	0	413,3644	4,06239653
3	0	413,8644	4,06233931
3	0	414,3644	4,06237745
3	0	414,8644	4,06232023
3	0	415,3644	4,06239653
3	0	415,8644	4,06224394
3	0	416,3644	4,06237745
3	0	416,8644	4,06233931
3	0	417,3644	4,06232023
3	0	417,8644	4,06228209
3	0	418,3644	4,06249142
3	0	418,8644	4,06226301
3	0	419,3644	4,06226301
3	0	419,8644	4,06235838
3	0	420,3644	4,06239653
3	0	420,8644	4,06245327
3	0	421,3644	4,06247234
3	0	421,8644	4,06241512
3	0	422,3644	4,06224394
3	0	422,8644	4,06230116
3	0	423,3644	4,06235838
3	0	423,8644	4,06218672
3	0	424,3644	4,06235838
3	0	424,8644	4,06228209
3	0	425,3644	4,06232023
3	0	425,8644	4,06239653
3	0	426,3644	4,06230116
3	0	426,8644	4,06228209
3	0	427,3644	4,06214857
3	0	427,8644	4,06235838
3	0	428,3644	4,06237745
3	0	428,8644	4,06224394
3	0	429,3644	4,06228209
3	0	429,8644	4,06228209
3	0	430,3644	4,06228209
3	0	430,8644	4,06228209
3	0	431,3644	4,06232023
3	0	431,8644	4,06230116
3	0	432,3644	4,06220579
3	0	432,8644	4,06222486
3	0	433,3644	4,06226301
3	0	433,8644	4,06222486
3	0	434,3644	4,06224394
3	0	434,8644	4,06228209
3	0	435,3644	4,06228209
3	0	435,8644	4,06226301
3	0	436,3644	4,06228209
3	0	436,8644	4,0621295
3	0	437,3644	4,06214857
3	0	437,8644	4,06218672
3	0	438,3644	4,06224394
3	0	438,8644	4,06224394
3	0	439,3644	4,06218672
3	0	439,8644	4,06222486
3	0	440,3644	4,06222486
3	0	440,8644	4,06214857
3	0	441,3644	4,06211042
3	0	441,8644	4,06222486
3	0	442,3644	4,06224394
3	0	442,8644	4,06218672
3	0	443,3644	4,06220579
3	0	443,8644	4,06218672
3	0	444,3644	4,06222486
3	0	444,8644	4,06222486
3	0	445,3644	4,06220579
3	0	445,8644	4,06228209
3	0	446,3644	4,06216764
3	0	446,8644	4,06224394
3	0	447,3644	4,06224394
3	0	447,8644	4,06220579
3	0	448,3644	4,06214857
3	0	448,8644	4,06218672
3	0	449,3644	4,06211042
3	0	449,8644	4,0620532
3	0	450,3644	4,06207228
3	0	450,8644	4,06211042
3	0	451,3644	4,0621295
3	0	451,8644	4,06209135
3	0	452,3644	4,06211042
3	0	452,8644	4,06207228
3	0	453,3644	4,06201506
3	0	453,8644	4,06207228
3	0	454,3644	4,06201506
3	0	454,8644	4,0620532
3	0	455,3644	4,06199598
3	0	455,8644	4,06201506
3	0	456,3644	4,06201506
3	0	456,8644	4,06209135
3	0	457,3644	4,06207228
3	0	457,8644	4,0620532
3	0	458,3644	4,0621295
3	0	458,8644	4,06201506
3	0	459,3644	4,06211042
3	0	459,8644	4,06203413
3	0	460,3644	4,06211042
3	0	460,8644	4,06203413
3	0	461,3644	4,06207228
3	0	461,8644	4,0620532
3	0	462,3644	4,0620532
3	0	462,8644	4,06203413
3	0	463,3644	4,06201506
3	0	463,8644	4,06199598
3	0	464,3644	4,06209135
3	0	464,8644	4,06201506
3	0	465,3644	4,06207228
3	0	465,8644	4,06207228
3	0	466,3644	4,06197691
3	0	466,8644	4,06207228
3	0	467,3644	4,06191969
3	0	467,8644	4,06201506
3	0	468,3644	4,06190062
3	0	468,8644	4,06193876
3	0	469,3644	4,06197691
3	0	469,8644	4,06197691
3	0	470,3644	4,0620532
3	0	470,8644	4,06195784
3	0	471,3644	4,06201506
3	0	471,8644	4,06190062
3	0	472,3644	4,06195784
3	0	472,8644	4,06191969
3	0	473,3644	4,06199598
3	0	473,8644	4,0620532
3	0	474,3644	4,06201506
3	0	474,8644	4,06186247
3	0	475,3644	4,06195784
3	0	475,8644	4,06197691
3	0	476,3644	4,06193876
3	0	476,8644	4,06195784
3	0	477,3644	4,06195784
3	0	477,8644	4,06199598
3	0	478,3644	4,06190062
3	0	478,8644	4,06191969
3	0	479,3644	4,06199598
3	0	479,8644	4,0620532
3	0	480,3644	4,06190062
3	0	480,8644	4,06188154
3	0	481,3644	4,06197691
3	0	481,8644	4,06195784
3	0	482,3644	4,06190062
3	0	482,8644	4,06186247
3	0	483,3644	4,06182432
3	0	483,8644	4,06182432
3	0	484,3644	4,06180525
3	0	484,8644	4,06195784
3	0	485,3644	4,06201506
3	0	485,8644	4,06191969
3	0	486,3644	4,06180525
3	0	486,8644	4,0618434
3	0	487,3644	4,06195784
3	0	487,8644	4,06190062
3	0	488,3644	4,06197691
3	0	488,8644	4,06172895
3	0	489,3644	4,06190062
3	0	489,8644	4,06190062
3	0	490,3644	4,06186247
3	0	490,8644	4,06190062
3	0	491,3644	4,06182432
3	0	491,8644	4,06186247
3	0	492,3644	4,0617671
3	0	492,8644	4,06178617
3	0	493,3644	4,06199598
3	0	493,8644	4,0618434
3	0	494,3644	4,06178617
3	0	494,8644	4,06188154
3	0	495,3644	4,06180525
3	0	495,8644	4,06186247
3	0	496,3644	4,06174803
3	0	496,8644	4,06180525
3	0	497,3644	4,06190062
3	0	497,8644	4,06174803
3	0	498,3644	4,06186247
3	0	498,8644	4,06186247
3	0	499,3644	4,06167173
3	0	499,8644	4,06180525
3	0	500,3644	4,06180525
3	0	500,8644	4,0617671
3	0	501,3644	4,06178617
3	0	501,8644	4,06165266
3	0	502,3644	4,06172895
3	0	502,8644	4,0618434
3	0	503,3644	4,06169081
3	0	503,8644	4,0617671
3	0	504,3644	4,06172895
3	0	504,8644	4,06167173
3	0	505,3644	4,06172895
3	0	505,8644	4,06165266
3	0	506,3644	4,06180525
3	0	506,8644	4,06174803
3	0	507,3644	4,06169081
3	0	507,8644	4,06170988
3	0	508,3644	4,06178617
3	0	508,8644	4,06167173
3	0	509,3644	4,06174803
3	0	509,8644	4,06169081
3	0	510,3644	4,06178617
3	0	510,8644	4,06165266
3	0	511,3644	4,06174803
3	0	511,8644	4,06167173
3	0	512,3644	4,06172895
3	0	512,8644	4,06174803
3	0	513,3644	4,06167173
3	0	513,8644	4,06178617
3	0	514,3644	4,06170988
3	0	514,8644	4,06165266
3	0	515,3644	4,06165266
3	0	515,8644	4,06167173
3	0	516,3644	4,06169081
3	0	516,8644	4,06159544
3	0	517,3644	4,06167173
3	0	517,8644	4,0617671
3	0	518,3644	4,06159544
3	0	518,8644	4,06159544
3	0	519,3644	4,06165266
3	0	519,8644	4,06169081
3	0	520,3644	4,06161451
3	0	520,8644	4,06161451
3	0	521,3644	4,06157637
3	0	521,8644	4,06167173
3	0	522,3644	4,06163359
3	0	522,8644	4,06159544
3	0	523,3644	4,06163359
3	0	523,8644	4,06172895
3	0	524,3644	4,06155729
3	0	524,8644	4,06157637
3	0	525,3644	4,06161451
3	0	525,8644	4,06167173
3	0	526,3644	4,06159544
3	0	526,8644	4,06148148
3	0	527,3644	4,06153822
3	0	527,8644	4,06157637
3	0	528,3644	4,06150007
3	0	528,8644	4,06155729
3	0	529,3644	4,06153822
3	0	529,8644	4,06165266
3	0	530,3644	4,06159544
3	0	530,8644	4,06151915
3	0	531,3644	4,06157637
3	0	531,8644	4,06153822
3	0	532,3644	4,06161451
3	0	532,8644	4,06167173
3	0	533,3644	4,06165266
3	0	533,8644	4,06155729
3	0	534,3644	4,06151915
3	0	534,8644	4,06142426
3	0	535,3644	4,06157637
3	0	535,8644	4,06148148
3	0	536,3644	4,06144333
3	0	536,8644	4,06142426
3	0	537,3644	4,06155729
3	0	537,8644	4,06163359
3	0	538,3644	4,06150007
3	0	538,8644	4,06155729
3	0	539,3644	4,06155729
3	0	539,8644	4,06157637
3	0	540,3644	4,06150007
3	0	540,8644	4,06150007
3	0	541,3644	4,06140518
3	0	541,8644	4,06155729
3	0	542,3644	4,06151915
3	0	542,8644	4,06138611
3	0	543,3644	4,06150007
3	0	543,8644	4,06142426
3	0	544,3644	4,06142426
3	0	544,8644	4,06148148
3	0	545,3644	4,06163359
3	0	545,8644	4,06148148
3	0	546,3644	4,06150007
3	0	546,8644	4,06148148
3	0	547,3644	4,0614624
3	0	547,8644	4,06144333
3	0	548,3644	4,06144333
3	0	548,8644	4,0614624
3	0	549,3644	4,06136703
3	0	549,8644	4,0614624
3	0	550,3644	4,06151915
3	0	550,8644	4,06144333
3	0	551,3644	4,06150007
3	0	551,8644	4,06144333
3	0	552,3644	4,06140518
3	0	552,8644	4,06151915
3	0	553,3644	4,06134796
3	0	553,8644	4,06140518
3	0	554,3644	4,06144333
3	0	554,8644	4,06150007
3	0	555,3644	4,06136703
3	0	555,8644	4,06148148
3	0	556,3644	4,06132889
3	0	556,8644	4,06140518
3	0	557,3644	4,06130981
3	0	557,8644	4,06130981
3	0	558,3644	4,06130981
3	0	558,8644	4,06142426
3	0	559,3644	4,06148148
3	0	559,8644	4,06132889
3	0	560,3644	4,06134796
3	0	560,8644	4,06144333
3	0	561,3644	4,06134796
3	0	561,8644	4,06134796
3	0	562,3644	4,06129074
3	0	562,8644	4,06138611
3	0	563,3644	4,06129074
3	0	563,8644	4,06140518
3	0	564,3644	4,06144333
3	0	564,8644	4,06134796
3	0	565,3644	4,06130981
3	0	565,8644	4,06140518
3	0	566,3644	4,06136703
3	0	566,8644	4,06138611
3	0	567,3644	4,06144333
3	0	567,8644	4,06134796
3	0	568,3644	4,06125259
3	0	568,8644	4,06125259
3	0	569,3644	4,06123352
3	0	569,8644	4,06134796
3	0	570,3644	4,06132889
3	0	570,8644	4,06127167
3	0	571,3644	4,06121445
3	0	571,8644	4,06129074
3	0	572,3644	4,06129074
3	0	572,8644	4,06123352
3	0	573,3644	4,06129074
3	0	573,8644	4,0611763
3	0	574,3644	4,06132889
3	0	574,8644	4,06125259
3	0	575,3644	4,06129074
3	0	575,8644	4,06129074
3	0	576,3644	4,06125259
3	0	576,8644	4,06134796
3	0	577,3644	4,06134796
3	0	577,8644	4,06125259
3	0	578,3644	4,06123352
3	0	578,8644	4,06123352
3	0	579,3644	4,06121445
3	0	579,8644	4,06113815
3	0	580,3644	4,06129074
3	0	580,8644	4,06127167
3	0	581,3644	4,06119537
3	0	581,8644	4,06121445
3	0	582,3644	4,06113815
3	0	582,8644	4,06119537
3	0	583,3644	4,06119537
3	0	583,8644	4,06121445
3	0	584,3644	4,0611763
3	0	584,8644	4,06113815
3	0	585,3644	4,06130981
3	0	585,8644	4,06125259
3	0	586,3644	4,06113815
3	0	586,8644	4,06121445
3	0	587,3644	4,06108093
3	0	587,8644	4,06113815
3	0	588,3644	4,06113815
3	0	588,8644	4,06113815
3	0	589,3644	4,06119537
3	0	589,8644	4,06119537
3	0	590,3644	4,06119537
3	0	590,8644	4,06123352
3	0	591,3644	4,06121445
3	0	591,8644	4,06119537
3	0	592,3644	4,06119537
3	0	592,8644	4,06115723
3	0	593,3644	4,06113815
3	0	593,8644	4,0611763
3	0	594,3644	4,06110001
3	0	594,8644	4,06113815
3	0	595,3644	4,0611763
3	0	595,8644	4,06115723
3	0	596,3644	4,06108093
3	0	596,8644	4,06113815
3	0	597,3644	4,0611763
3	0	597,8644	4,06111908
3	0	598,3644	4,0611763
3	0	598,8644	4,06113815
3	0	599,3644	4,06108093
3	0	599,8644	4,06111908
3	0	600,0000	4,06108093