File: Experimentelles/Rohdaten/Batterietests/AlteZelle/Studenten_Batterietests/SemArbeitToph/ECLab-Export/Al_Sand_01_01_GCPL_C02.mpt
EC-Lab ASCII FILE
Nb header lines : 68

Galvanostatic Cycling with Potential Limitation

Run on channel : 2 (SN 6986)
Grouped channel(s) : 2
User :
CE vs. WE compliance from -10 V to 10 V
Electrode connection : standard
Ewe ctrl range : min = -10,00 V, max = 10,00 V
Acquisition started on : 03.11.2015 16:05:34
Saved on :
	File : Al_Sand_01_01_GCPL_C02.mpr
	Directory : C:\Hupfer\Studenten Batterietests\SemArbeitToph\
	Host : 192.168.0.2
Device : VMP3 (SN 0324)
Address : 192.168.0.1
EC-Lab for windows v10.33 (software)
Internet server v10.33 (firmware)
Command interpretor v10.32 (firmware)
Electrode material :
Initial state :
Electrolyte :
Comments :
Mass of active material : 0,001 mg
 at x = 0,000
Molecular weight of active material (at x = 0) : 0,001 g/mol
Atomic weight of intercalated ion : 0,001 g/mol
Acquisition started at : xo = 0,000
Number of e- transfered per intercalated ion : 1
for DX = 1, DQ = 26,801 mA.h
Battery capacity : 0,000 A.h
Electrode surface area : 0,001 cm²
Characteristic mass : 0,001 g
Ns                  0                   1
Set I/C             I                   I
Is                  0,000               100,000
unit Is             mA                  µA
vs.                 <None>              <None>
N                   1                   1
I sign              > 0                 > 0
t1 (h:m:s)          0:00:0,0000         10:00:0,0000
I Range             1 A                 1 A
Bandwidth           5                   5
dE1 (mV)            0,00                10,00
dt1 (s)             0,0000              10,0000
EM (V)              0,000               4,200
tM (h:m:s)          0:00:0,0000         1:00:0,0000
Im                  0,000               0,000
unit Im             mA                  mA
E range min (V)     -10,000             -10,000
E range max (V)     10,000              10,000
dq                  0,000               1,000
unit dq             mA.h                mA.h
dtq (s)             0,0000              120,0000
dQM                 0,000               0,000
unit dQM            mA.h                mA.h
dxM                 0,000               0,000
tR (h:m:s)          0:00:0,0000         0:15:0,0000
dER/dt (mV/h)       0,0                 0,1
dER (mV)            0,00                5,00
dtR (s)             1,0000              120,0000
EL (V)              pass                4,200
goto Ns'            0                   0
nc cycles           0                   0

mode	ox/red	error	control changes	Ns changes	counter inc.	Ns	time/s	control/V/mA	Ewe/V	dq/mA.h	<I>/mA	P/W	(Q-Qo)/mA.h	x	Capacity/mA.h
1	1	1	1	1	0	1	0,0004	0,100000001	1,6743058	0	0	0	0	0	0
1	1	0	1	0	0	1	1,4556	0,100000001	1,75511968	1,4391877046061885E-005	0,19790205758087334	0,000347341789	7,7400402597462131E-005	-2,8879130868593978E-006	7,7400402597462131E-005
1	1	0	1	0	0	1	4,1328	0,100000001	1,83564746	2,43178258906636E-005	0,19996385431233632	0,000367063156	0,00022536663716886605	-8,408732241436713E-006	0,00022536663716886605
1	1	0	1	0	0	1	9,8296	0,100000001	1,91659486	4,0624875574476186E-005	0,20250561584421046	0,000388121232	0,00054456265428827859	-2,0318364803771379E-005	0,00054456265428827859
1	1	0	1	0	0	1	21,2528	0,100000001	1,99731338	9,8896532365431386E-005	0,20053369691875904	0,000400528632	0,001177703815192191	-4,3941712784440838E-005	0,001177703815192191
1	1	0	1	0	0	1	38,5532	0,100000001	2,07766962	0,00013471781378860274	0,19718008696157904	0,000409675064	0,0021267995149391808	-7,9353749414741005E-005	0,0021267995149391808
1	1	0	1	0	0	1	56,9952	0,100000001	2,15844536	0,00012042829335025616	0,19921967972296246	0,000430004788	0,0031393139371505626	-0,00011713202384756688	0,0031393139371505626
1	1	0	1	0	0	1	72,7728	0,100000001	2,23912573	9,4932053002632333E-005	0,19816502345062269	0,000443716417	0,0040120300332053254	-0,00014969423477064067	0,0040120300332053254
1	1	0	1	0	0	1	86,4190	0,100000001	2,31946278	9,6135644076599027E-005	0,19572917510388134	0,000453986548	0,0047583781809612282	-0,00017754148763917053	0,0047583781809612282
1	1	0	1	0	0	1	98,3754	0,100000001	2,40025759	7,8270643522135078E-005	0,20118115364694016	0,000482886593	0,0054172187045446291	-0,00020212371339457229	0,0054172187045446291
1	1	0	1	0	0	1	109,2710	0,100000001	2,48110962	7,6758399486541747E-005	0,20285585459715123	0,000503307616	0,0060292080297968883	-0,00022495785794813312	0,0060292080297968883
1	1	0	1	0	0	1	120,4318	0,100000001	2,56152296	8,9536595936450688E-005	0,19707248319516234	0,000504805706	0,006643699123969303	-0,00024788534686376899	0,006643699123969303
1	1	0	1	0	0	1	130,8940	0,100000001	2,64233685	6,9736222808145818E-005	0,19842744898149834	0,000524312141	0,0072195115232370406	-0,00026936968166845296	0,0072195115232370406
1	1	0	1	0	0	1	141,2282	0,100000001	2,72326517	6,2707452769287757E-005	0,19802354006340413	0,000539270637	0,007791189843601239	-0,0002906997684309177	0,007791189843601239
1	1	0	1	0	0	1	150,9646	0,100000001	2,80423164	9,1128721946229542E-005	0,19918846830237104	0,000558570609	0,0083325606183198605	-0,00031089903991641741	0,0083325606183198605
1	1	0	1	0	0	1	161,2260	0,100000001	2,88460684	5,9969341978016832E-005	0,20256111519486912	0,000584309164	0,0088973877059490317	-0,00033197349797395789	0,0088973877059490317
1	1	0	1	0	0	1	171,9156	0,100000001	2,96517277	5,7058549014230573E-005	0,19823468600689331	0,00058780011	0,0094915883359379238	-0,00035414392239008736	0,0094915883359379238
1	1	0	1	0	0	1	183,5286	0,100000001	3,0456624	7,583041665082176E-005	0,20052115971738899	0,000610719784	0,010136940389140821	-0,00037822287518015123	0,010136940389140821
1	1	0	1	0	0	1	194,5966	0,100000001	3,12645721	6,1705323947800525E-005	0,19915651051083862	0,000622654334	0,010749683927165763	-0,00040108516042631059	0,010749683927165763
1	1	0	1	0	0	1	203,2746	0,100000001	3,18524146	1,2589206953015594E-005	0,20018174105903085	0,000637627207	0,01123346560587424	-0,0004191357053103088	0,01123346560587424
1	1	0	1	0	0	1	203,4772	0,100000001	3,10360742	3,0177325821585126E-006	0,2004398075685289	0,00062208646	0,011244811230875763	-0,00041955902583347066	0,011244811230875763
1	1	0	1	0	0	1	204,0392	0,100000001	3,02292705	4,4923529960215091E-006	0,20471482524339773	0,000618838007	0,011276608163823482	-0,00042074541215318112	0,011276608163823482
1	1	0	1	0	0	1	204,9706	0,100000001	2,94224668	9,1012799615661299E-006	0,20175251655998586	0,000593605684	0,011328910262771162	-0,00042269687378583898	0,011328910262771162
1	1	0	1	0	0	1	210,8236	0,100000001	2,88147879	0,00020316060178230205	0,19988471847293098	0,000575963582	0,011654831443594773	-0,00043485743124805606	0,011654831443594773
1	1	0	1	0	0	1	215,2518	0,100000001	2,96234989	3,0259114467849331E-005	0,20017055280435862	0,000592975237	0,011903974187916976	-0,00044415328201469984	0,011903974187916976
1	1	0	1	0	0	1	219,7204	0,100000001	3,04356432	3,1448120268682643E-005	0,20009408947908166	0,000608999224	0,012153958925639798	-0,00045348054868719283	0,012153958925639798
1	1	0	1	0	0	1	225,3300	0,100000001	3,12390137	4,4489309764984576E-005	0,20015186103469728	0,000625254645	0,012465396062402053	-0,00046510068699147642	0,012465396062402053
1	1	0	1	0	0	1	233,1712	0,100000001	3,204391	6,0035212639305318E-005	0,20161079380720208	0,000646039785	0,012902709166591158	-0,00048141742688249389	0,012902709166591158
1	1	0	1	0	0	1	244,6478	0,100000001	3,28524327	7,3094642964916096E-005	0,19943968570652694	0,000655207899	0,013542101134317821	-0,00050527400087001933	0,013542101134317821
1	1	0	1	0	0	1	256,3920	0,100000001	3,36573291	7,4151238180283046E-005	0,20393007195768016	0,000686374144	0,014199044996997962	-0,00052978545965703277	0,014199044996997962
1	1	0	1	0	0	1	272,3640	0,100000001	3,44652772	0,00011558958682335086	0,1995025999981792	0,000687591266	0,015090523442464157	-0,00056304771906289421	0,015090523442464157
1	1	0	1	0	0	1	287,3074	0,100000001	3,52724624	0,00013999484533733792	0,20043805915767536	0,000706994382	0,015925415502982422	-0,00059419866436514458	0,015925415502982422
1	1	0	1	0	0	1	303,4872	0,100000001	3,60786939	0,00010326538279900949	0,19986848788589526	0,000721099379	0,016820149171645027	-0,00062758238052515827	0,016820149171645027
1	1	0	1	0	0	1	317,9730	0,100000001	3,68864512	0,00010298536793390909	0,20381931496863008	0,000751817133	0,017632052286615386	-0,0006578755773600503	0,017632052286615386
1	1	0	1	0	0	1	332,0116	0,100000001	3,76919198	9,5660215777241523E-005	0,20581925980023837	0,000775772322	0,018423447146974918	-0,00068740358364177088	0,018423447146974918
1	1	0	1	0	0	1	348,4912	0,100000001	3,84979606	0,00011703168293502595	0,20255484096604906	0,00077979482	0,019347134662625686	-0,00072186760676177408	0,019347134662625686
1	1	0	1	0	0	1	371,2872	0,100000001	3,93017125	0,00019540890124585066	0,20024823861550282	0,000787009893	0,020613246685558099	-0,00076910794864310208	0,020613246685558099
1	1	0	1	0	0	1	382,4042	0,100000001	3,88977385	0,00018788030220361219	0,20048882648195536	0,000779856171	0,021230740147869408	-0,00079214745995072717	0,021230740147869408
1	1	0	1	0	0	1	417,3326	0,100000001	3,97022533	0,00055239907629249824	0,19886367248901827	0,000789533602	0,02316420358567416	-0,00086428758038446221	0,02316420358567416
1	1	0	1	0	0	1	496,8816	0,100000001	3,99217868	0,0005574740543696615	0,20069066464295075	0,000801193004	0,027571223486192525	-0,0010287194181740771	0,027571223486192525
1	1	0	1	0	0	1	570,2674	0,100000001	3,98189831	0,00018886166120341254	0,20080985217911699	0,000799604401	0,031647076456652538	-0,0011807949725445419	0,031647076456652538
1	1	0	1	0	0	1	570,4388	0,100000001	3,8962779	2,7718655471172595E-006	0,20281943540052256	0,000790240883	0,031656764983543302	-0,001181156464509199	0,031656764983543302
1	1	0	1	0	0	1	571,5286	0,100000001	3,87573576	1,1981889217264123E-005	0,19914497817094922	0,000771833293	0,031717503611996563	-0,0011834227044007453	0,031717503611996563
1	1	0	1	0	0	1	574,9086	0,100000001	3,95662594	3,7420203342205946E-005	0,1971790624049639	0,000780163798	0,03190307449309881	-0,001190346603477373	0,03190307449309881
1	1	0	1	0	0	1	620,8662	0,100000001	4,01567745	0,00055903047440180352	0,20125097586867654	0,000808159006	0,034447890481898989	-0,0012852971095609946	0,034447890481898989
1	1	0	1	0	0	1	700,8662	0,100000001	4,02647257	0,00055310413108641894	0,19911749222124176	0,000801741146	0,038882309086507411	-0,0014507512298381587	0,038882309086507411
1	1	0	1	0	0	1	727,9702	0,100000001	3,97089291	1,2190456638733546E-006	0,20317428244483984	0,000806783326	0,040382650738164998	-0,0015067309940923085	0,040382650738164998
1	1	0	1	0	0	1	728,3220	0,100000001	3,89017439	3,0158918789691392E-006	0,19740383706482042	0,000767935358	0,040402075380871494	-0,0015074557536283978	0,040402075380871494
1	1	0	1	0	0	1	728,8500	0,100000001	3,80918884	4,0691290551589594E-006	0,1995758170113584	0,00076022197	0,040431144285602093	-0,0015085403535474544	0,040431144285602093
1	1	0	1	0	0	1	729,6954	0,100000001	3,74851632	1,2466687558425797E-005	0,19598286613143651	0,000734645	0,040477520889023738	-0,0015102707269751226	0,040477520889023738
1	1	0	1	0	0	1	731,2494	0,100000001	3,78866577	1,7852495672802131E-005	0,19897518899584774	0,000753850501	0,040563182779576435	-0,0015134668872852806	0,040563182779576435
1	1	0	1	0	0	1	734,6178	0,100000001	3,86955595	3,0253710203286675E-005	0,19695001714867072	0,000762109121	0,040748584738128928	-0,0015203844836344582	0,040748584738128928
1	1	0	1	0	0	1	741,0434	0,100000001	3,95031261	5,7937676255487731E-005	0,19947938005816726	0,000788005884	0,041101967294178496	-0,0015335696619285677	0,041101967294178496
1	1	0	1	0	0	1	753,3324	0,100000001	3,98981357	0,0002658071286934945	0,20061757043692634	0,0008004267	0,041786243976219245	-0,0015591009449552915	0,041786243976219245
1	1	0	1	0	0	1	785,2728	0,100000001	4,00514889	4,756049235289296E-005	0,20243293544069459	0,000810774043	0,043566606811035418	-0,0016255286760455731	0,043566606811035418
1	1	0	1	0	0	1	834,9180	0,100000001	3,99116778	6,2461641099717888E-008	0,22486191363947411	0,000897461607	0,046314781506906573	-0,0017280667689087021	0,046314781506906573
1	1	0	1	0	0	1	838,2886	0,100000001	3,92994237	0,00015772883767386278	0,19869264118214797	0,000780850649	0,046501025793709286	-0,0017350157936574182	0,046501025793709286
1	1	0	1	0	0	1	839,3922	0,100000001	3,81855392	3,6201027863555482E-007	0,20363078687664595	0,000777575129	0,046562448061548589	-0,0017373075410536198	0,046562448061548589
1	1	0	1	0	0	1	839,4848	0,100000001	3,73726296	8,8489963486790669E-007	0,20162270670889037	0,000753517088	0,046567676730798778	-0,0017375026297333651	0,046567676730798778
1	1	0	1	0	0	1	839,5280	0,100000001	3,82645011	4,6604550008972486E-007	0,19065498212578285	0,000729531748	0,046569954020296128	-0,0017375875984663597	0,04656995900487031
1	1	0	1	0	0	1	841,0174	0,100000001	3,90709233	2,0632261443883184E-005	0,20238731082929878	0,000790745893	0,046653416221017235	-0,0017407016853913862	0,046653421205591418
1	1	0	1	0	0	1	846,3996	0,100000001	3,98781085	3,0967978860355085E-005	0,19893777072380336	0,00079332618	0,046950578474647488	-0,0017517892086132304	0,04695058345922167
1	1	0	1	0	0	1	873,6916	0,100000001	4,00677013	0,00016337519469215638	0,20114593561891238	0,000805945543	0,048463742585198144	-0,0018082473960486598	0,048463747569772326
1	1	0	1	0	0	1	925,0006	0,100000001	3,99761462	1,2546112827128835E-006	0,19637394486370922	0,00078502734	0,0513197763304752	-0,0019148098550631571	0,051319781315049382
1	1	0	1	0	0	1	965,6206	0,100000001	4,0216856	0,00055577273462009094	0,20007818951763296	0,000804651587	0,05358435256558121	-0,0019993042391500928	0,053584357550155392
1	1	0	1	0	0	1	1045,6206	0,100000001	4,02746439	0,00055718531756889485	0,20058671939204893	0,00080785586	0,058030548934935514	-0,0021651978036652995	0,058030553919509696
1	1	0	1	0	0	1	1070,6062	0,100000001	3,89726973	5,9987770186530214E-008	0,21595597812701568	0,000841638714	0,059405882072590528	-0,0022165133321862784	0,05940588705716471
1	1	0	1	0	0	1	1070,6510	0,100000001	3,81035233	5,550129297706816E-007	0,20388230588258739	0,000776863424	0,059408408722706381	-0,0022166076048992182	0,059408413707280563
1	1	0	1	0	0	1	1070,7574	0,100000001	3,7287755	8,7219525956445261E-007	0,20127583421491354	0,000750512409	0,059414276148410547	-0,0022168265264410781	0,05941428113298473
1	1	0	1	0	0	1	1070,8666	0,100000001	3,64254475	8,7074478715658189E-007	0,19591758205952534	0,000713638554	0,059420308712615552	-0,0022170516095224358	0,059420313697189734
1	1	0	1	0	0	1	1071,0094	0,100000001	3,62476826	9,3313280244668326E-007	0,18872349290284067	0,000684078899	0,059428106651105638	-0,0022173425610919405	0,059428111635679821
1	1	0	1	0	0	1	1071,0366	0,100000001	3,72530413	6,0542178402344384E-007	0,19459986406639872	0,000724943704	0,059429551717550733	-0,0022173964784639194	0,059429558859408026
1	1	0	1	0	0	1	1071,3936	0,100000001	3,80611801	4,3971382896933293E-006	0,19639824122565507	0,000747514889	0,059448943367792013	-0,0022181200070067728	0,059448950509649306
1	1	0	1	0	0	1	1072,4370	0,100000001	3,88664579	9,4367880386610816E-006	0,19682756545420544	0,000764999015	0,059506103743172275	-0,0022202527374651526	0,059506110885029581
1	1	0	1	0	0	1	1074,7054	0,100000001	3,96726894	2,3397776431921456E-005	0,19698783274741923	0,000781503739	0,05962982405199392	-0,0022248689085310128	0,059629831193851226
1	1	0	1	0	0	1	1100,2270	0,100000001	3,98918414	2,5055336455504096E-008	0,22549803379609638	0,000899553183	0,061040352438723379	-0,0022774976191154746	0,061040359580580672
1	1	0	1	0	0	1	1111,0548	0,100000001	4,00982189	0,00021936593545973302	0,19971609620276621	0,000800825946	0,061634704683807488	-0,0022996737004946554	0,061634711825664794
1	1	0	1	0	0	1	1181,4286	0,100000001	4,02027416	8,0687702725330995E-005	0,19776398226390653	0,000795065425	0,065513765331769702	-0,0024444066687226352	0,065513772473626995
1	1	0	1	0	0	1	1181,4350	0,100000001	3,86715269	2,0479407575395373E-008	0,36862934566947725	0,00142554601	0,065514199084389261	-0,0024444228526160576	0,065514206226246554
1	1	0	1	0	0	1	1181,4784	0,100000001	3,78487015	5,0492064985964038E-007	0,2065584528879583	0,000781796931	0,065516641398255731	-0,0024445139786301421	0,065516648540113037
1	1	0	1	0	0	1	1181,5702	0,100000001	3,70382738	7,2257004719641485E-007	0,19706456330456454	0,000729893101	0,065521714993893376	-0,0024447032813049043	0,065521722135750682
1	1	0	1	0	0	1	1181,6918	0,100000001	3,62219334	9,6040063682529677E-007	0,20101409185543078	0,000728111889	0,065528382555963366	-0,002444952057010368	0,065528389697820672
1	1	0	1	0	0	1	1181,8056	0,100000001	3,64061832	-1,0974143942197163E-008	-0,19753459594969258	0,000719148084	0,06553457726565097	-0,002445183189957688	0,065534606355796147
1	1	0	1	0	0	1	1181,8442	0,100000001	3,73499346	7,3168507135576678E-007	0,18814759453020518	0,000702730031	0,065536589567131162	-0,0024452582716314826	0,065536618657276352
1	1	0	1	0	0	1	1182,2210	0,100000001	3,8156929	4,1781672566301286E-006	0,20001865031710442	0,00076320977	0,065557138935173261	-0,0024460249961820518	0,065557168025318438
1	1	0	1	0	0	1	1183,2146	0,100000001	3,8962779	8,7133787369562509E-006	0,19979722449343302	0,000778465532	0,065611662856493683	-0,0024480593569947088	0,065611691946638861
1	1	0	1	0	0	1	1185,5370	0,100000001	3,97695827	2,6583401223023734E-005	0,19715749241960656	0,000784087111	0,065738232692916083	-0,0024527818477665837	0,065738261783061261
1	1	0	1	0	0	1	1230,6524	0,100000001	4,03043985	0,00055115931158430054	0,19841735718279226	0,000799709233	0,068241574651245568	-0,0025461849020109165	0,068241603741390758
1	1	0	1	0	0	1	1309,4624	0,100000001	4,03343439	0,00056072013068344032	0,20185925214543216	0,00081418606	0,072610595296968115	-0,0027091989365135581	0,072610624387113293
1	1	0	1	0	0	1	1389,4624	0,100000001	4,03845072	0,0005596362205561664	0,2014690444897561	0,000813622784	0,077058841093769651	-0,0028751689679223053	0,077058870183914829
1	1	0	1	0	0	1	1469,4624	0,100000001	4,03780222	0,00055021535171940922	0,19807753162284662	0,000799797883	0,081496773307802509	-0,0030407541856911936	0,081496802397947699
1	1	0	1	0	0	1	1549,4624	0,100000001	4,04104471	0,0005568905726811952	0,20048061122979648	0,000810151105	0,085943434412363866	-0,0032066650901018182	0,085943463502509043
1	1	0	1	0	0	1	1629,4624	0,100000001	4,04175043	0,00055763344205771053	0,20074804421209795	0,000811373466	0,090420806903709299	-0,003373721877645255	0,090420835993854477
1	1	0	1	0	0	1	1709,4624	0,100000001	4,04056787	0,00055374345025668544	0,1993476471283519	0,00080547767	0,094865714384294566	-0,0035395673519875597	0,094865743474439757
1	1	0	1	0	0	1	1789,4624	0,100000001	4,04201746	0,00055703370373240781	0,20053213840953472	0,000810554426	0,099297714246420544	-0,0037049312257306701	0,099297743336565722
1	1	0	1	0	0	1	1869,4624	0,100000001	4,04316187	0,00055353917939236602	0,1992741096153392	0,000805697462	0,10375097918236477	-0,0038710885279691354	0,10375100827250995
1	1	0	1	0	0	1	1949,4624	0,100000001	4,04381037	0,00055530128485316198	0,19990846759725098	0,000808391953	0,10818203437674493	-0,0040364171548885306	0,1081820634668901
1	1	0	1	0	0	1	2029,4623	0,100000001	4,04590845	0,00055917077847114874	0,2013014853349168	0,000814447354	0,11263464797538821	-0,0042025501548565645	0,11263467706553339
1	1	0	1	0	0	1	2109,4623	0,100000001	4,04772043	0,00056066499888503718	0,2018394046975056	0,000816989457	0,11709562645311664	-0,0043689952597099667	0,11709565554326182
1	1	0	1	0	0	1	2189,4623	0,100000001	4,04674768	0,00054917420441388256	0,19770271858338848	0,000800053007	0,12151511063016402	-0,0045338921564152768	0,1215151397203092
1	1	0	1	0	0	1	2269,4623	0,100000001	4,04941797	0,00055387774674221869	0,19939599386436522	0,000807437696	0,12594948788511309	-0,004699344733881056	0,12594951697525827
1	1	0	1	0	0	1	2349,4623	0,100000001	4,05016184	0,00055286275163003142	0,19903059561474707	0,000806106138	0,13039654480831814	-0,0048652704068174605	0,13039657389846331
1	1	0	1	0	0	1	2429,4623	0,100000001	4,05145884	0,00055170921881828051	0,19861532379202608	0,000804681797	0,13482263917952336	-0,0050304139387543002	0,13482266826966854
1	1	0	1	0	0	1	2509,4623	0,100000001	4,05531168	0,00055636293081525306	0,20029066015325875	0,000812241051	0,13926453736829586	-0,0051961471323730342	0,13926456645844104
1	1	0	1	0	0	1	2589,4623	0,100000001	4,05691385	0,00055369468054216774	0,19933009003068202	0,000808665005	0,14368512948872226	-0,0053610853679354611	0,14368515857886744
1	1	0	1	0	0	1	2669,4623	0,100000001	4,05744791	0,00055295993940408026	0,19906558321428848	0,000807698234	0,14812924992371882	-0,0055269014765486573	0,148129279013864
1	1	0	1	0	0	1	2749,4623	0,100000001	4,06006098	0,000562920112364408	0,20265124557058794	0,000822776405	0,15261663772049994	-0,0056943319486036211	0,15261666681064512
1	1	0	1	0	0	1	2829,4623	0,100000001	4,06387568	0,00056226877651198048	0,20241676465779053	0,000822596543	0,15711141215432851	-0,0058620380260182643	0,1571114412444737
1	1	0	1	0	0	1	2909,4623	0,100000001	4,06412363	0,00056466313396559814	0,2032787333628681	0,000826149888	0,1615879696822384	-0,006029064406180192	0,16158799877238358
1	1	0	1	0	0	1	2989,4623	0,100000001	4,0654397	0,00055529068257080192	0,19990465077550493	0,000812700309	0,16603415120884842	-0,0061949574168926528	0,16603418029899357
1	1	0	1	0	0	1	3069,4623	0,100000001	4,06851053	0,00056108449712478445	0,20199042406762973	0,000821800146	0,17048260799285587	-0,006360935320517728	0,17048263708300106
1	1	0	1	0	0	1	3149,4623	0,100000001	4,06870127	0,00055424423359500038	0,19952792913469962	0,000811819511	0,17491579849450915	-0,0065263436186224346	0,17491582758465434
1	1	0	1	0	0	1	3229,4623	0,100000001	4,07013178	0,00055241038565586016	0,19886774385993142	0,000809417921	0,17934594224301958	-0,0066916382382709786	0,17934597133316477
1	1	0	1	0	0	1	3309,4623	0,100000001	4,07091379	0,0005556769612886839	0,20004371111745542	0,000814360683	0,18376696411126838	-0,0068565925083024614	0,18376699320141357
1	1	0	1	0	0	1	3389,4623	0,100000001	4,07268763	0,00055512139883057933	0,19984370862748528	0,000813901017	0,18821164752959818	-0,007022429622580759	0,18821167661974336
1	1	0	1	0	0	1	3469,4623	0,100000001	4,07514811	0,0005524224014907248	0,19887206956059197	0,000810433121	0,19265607154345683	-0,0071882570581294656	0,19265610063360202
1	1	0	1	0	0	1	3549,4623	0,100000001	4,07850504	0,00055521682026154464	0,19987806034350058	0,000815203704	0,1970678230950591	-0,007352865440182793	0,19706785218520429
1	1	0	1	0	0	1	3629,4623	0,100000001	4,08157587	0,00055427780766950714	0,19954001580182736	0,000814437692	0,20148571586520874	-0,0075177029593570803	0,20148574495535392
1	1	0	1	0	0	1	3709,4623	0,100000001	4,08348322	0,00056115093875221082	0,20201434305410742	0,000824922172	0,20592915280529843	-0,0076834935658563315	0,20592918189544362
1	1	0	1	0	0	1	3789,4623	0,100000001	4,08643961	0,00055775784203492928	0,20079282820502803	0,000820527785	0,21037735972638496	-0,0078494621467598835	0,21037738881653014
1	1	0	1	0	0	1	3869,4623	0,100000001	4,08901453	0,00055356356498330003	0,19928288842829722	0,00081487064	0,21482846249614582	-0,0080155387756709837	0,21482849158629101
1	1	0	1	0	0	1	3949,4623	0,100000001	4,09206629	0,00055233970362693069	0,19884229832887402	0,00081367587	0,21925150057025446	-0,0081805682730539149	0,21925152966039965
1	1	0	1	0	0	1	4029,4623	0,100000001	4,09506083	0,00055404491034191507	0,19945617276177616	0,000816785148	0,22369766195308176	-0,0083464605321747597	0,22369769104322694
1	1	0	1	0	0	1	4109,4623	0,100000001	4,09773111	0,00055898276381711987	0,20123379741053968	0,000824601972	0,22816812067156854	-0,0085132593575571738	0,22816814976171373
1	1	0	1	0	0	1	4189,4623	0,100000001	4,10059214	0,0005628936069599456	0,20264170095900269	0,000830950972	0,23263728414016336	-0,0086800098554246362	0,23263731323030854
1	1	0	1	0	0	1	4269,4623	0,100000001	4,10240412	0,00055452908252386592	0,19963047212555648	0,000818964851	0,23710801109796195	-0,008846818689176425	0,23710804018810714
1	1	0	1	0	0	1	4349,4623	0,100000001	4,10503626	0,00054997291257149645	0,19799025092284499	0,000812757178	0,24154294921849181	-0,0090122921932911155	0,24154297830863699
1	1	0	1	0	0	1	4429,4623	0,100000001	4,10814476	0,00055467574833954381	0,19968327181983974	0,000820327783	0,24593165839324509	-0,0091760408332834035	0,24593168748339027
1	1	0	1	0	0	1	4509,4623	0,100000001	4,11087227	0,00055608939104610016	0,20019218320036157	0,000822964474	0,25036792533676832	-0,0093415639175705971	0,2503679544269135
1	1	0	1	0	0	1	4543,4803	0,100000001	4,06055689	1,458289935357041E-006	0,20507202465903011	0,000832706632	0,25225230572843293	-0,0094118726835599859	0,25225233481857811
1	1	0	1	0	0	1	4543,8585	0,100000001	4,08165216	6,9256659771005312E-006	0,20074394380218893	0,000819366949	0,25227335787110522	-0,0094126581673079962	0,2522733869612504
1	1	0	1	0	0	1	4599,5345	0,100000001	4,11323738	0,00055088612554222342	0,19831900759628701	0,000815733161	0,25535784002531104	-0,0095277443436117773	0,25535786911545622
1	1	0	1	0	0	1	4679,5345	0,100000001	4,11791039	0,00056196979102906253	0,20230912721985827	0,00083309086	0,25980085499200317	-0,0096935192057162176	0,25980088408214835
1	1	0	1	0	0	1	4759,5345	0,100000001	4,11979866	0,00055691637224041747	0,20048989643392026	0,000825978001	0,2642662302516967	-0,0098601283604162726	0,26426625934184189
1	1	0	1	0	0	1	4839,5345	0,100000001	4,12298393	0,00055349889029541773	0,19925960291882493	0,000821544148	0,26871351229812483	-0,010026062433002813	0,26871354138827002
1	1	0	1	0	0	1	4919,5345	0,100000001	4,12622643	0,00054361258042686515	0,19570053132305568	0,000807504694	0,27310370721232653	-0,010189866507931517	0,27310373630247171
1	1	0	1	0	0	1	4999,5345	0,100000001	4,12914467	0,00055530163854774496	0,19990859229752016	0,000825451512	0,27751259472328509	-0,010354368028777686	0,27751262381343027
1	1	0	1	0	0	1	5079,5345	0,100000001	4,13309288	0,00055418733435745043	0,19950744278415734	0,000824582763	0,28197768548751744	-0,010520966568569578	0,28197771457766262
1	1	0	1	0	0	1	5159,5345	0,100000001	4,13524818	0,00054712654265264666	0,1969655577396529	0,000814501487	0,28639361435402061	-0,010685730811858315	0,28639364344416579
1	1	0	1	0	0	1	5228,5003	0,100000001	4,07121897	3,7089712089962426E-008	0,66761483448469299	0,00271800626	0,29021046508128832	-0,010828142644303058	0,29021049417143354
1	1	0	1	0	0	1	5228,5255	0,100000001	3,97325802	5,9734859069188442E-007	0,20287310861263418	0,000806067197	0,29021195380136269	-0,010828198190450635	0,29021198289150784
1	1	0	1	0	0	1	5228,7807	0,100000001	3,89259672	2,8709714872141677E-006	0,2010797174618904	0,000782722258	0,29022616109870605	-0,010828728283816432	0,2902261901888512
1	1	0	1	0	0	1	5228,9841	0,100000001	3,97510815	6,5549565851688384E-007	0,19030519353319309	0,0007564837	0,29023718752029107	-0,010829139694430947	0,29023721661043622
1	1	0	1	0	0	1	5229,1711	0,100000001	3,9333756	1,4471428261862861E-008	0,26048571529395414	0,00102458813	0,29024757365753402	-0,010829527215175794	0,29024760274767917
1	1	0	1	0	0	1	5229,3289	0,100000001	3,94411373	1,6220071663459142E-008	0,14598064865891363	0,000575764279	0,29025631134793338	-0,010829853230152546	0,29025634043807859
1	1	0	1	0	0	1	5229,5235	0,100000001	4,02626276	3,1284826046062842E-006	0,19898476172123981	0,000801164948	0,2902670784691929	-0,010830254965923286	0,29026710755933811
1	1	0	1	0	0	1	5230,5991	0,100000001	4,10688591	1,5167252491331763E-005	0,19971510471952835	0,000820207177	0,29032672919286842	-0,010832480614624869	0,29032675828301357
1	1	0	1	0	0	1	5236,8437	0,100000001	3,99923587	8,679175625244777E-008	0,19528145294908298	0,00078097661	0,29067183916214323	-0,010845357131583803	0,29067186825228838
1	1	0	1	0	0	1	5237,0625	0,100000001	3,95828533	3,3380587526804045E-006	0,198957146637144	0,000787529163	0,29068395090397325	-0,010845809036955891	0,29068397999411846
1	1	0	1	0	0	1	5237,1551	0,100000001	4,04709101	2,3228978626430032E-006	0,1944751722418177	0,000787058729	0,29068898696440243	-0,010845996939141558	0,29068901605454758
1	1	0	1	0	0	1	5239,5251	0,100000001	4,12790489	6,281925618607136E-005	0,20271542220273626	0,000836789957	0,29082168692233158	-0,010850948152988885	0,29082171601247674
1	1	0	1	0	0	1	5319,5251	0,100000001	4,14074135	0,0005506588823219968	0,19823720003601498	0,000820848974	0,29524939178557914	-0,011016151774549155	0,29524942087572429
1	1	0	1	0	0	1	5399,5251	0,100000001	4,14449883	0,0005619517670844992	0,20230263859973686	0,000838443055	0,29971505613515334	-0,011182771715581346	0,29971508522529856
1	1	0	1	0	0	1	5479,5251	0,100000001	4,15058327	0,00056017234450951213	0,20166204646498579	0,000837015104	0,3041721852632935	-0,011349073196026101	0,30417221435343866
1	1	0	1	0	0	1	5559,5251	0,100000001	4,15237617	0,00055716906077290573	0,20058086430671744	0,000832887192	0,30861318366899181	-0,011514772817528566	0,30861321275913702
1	1	0	1	0	0	1	5639,5251	0,100000001	4,15567589	0,00055398200277114906	0,19943352341219389	0,000828781107	0,31303474731285312	-0,011679747301936576	0,31303477640299834
1	1	0	1	0	0	1	5719,5251	0,100000001	4,16000557	0,00055746875272277331	0,20068875340997597	0,00083486631	0,31747684376417728	-0,01184548789299768	0,3174768728543225
1	1	0	1	0	0	1	5799,5251	0,100000001	4,16431618	0,0005519732158333063	0,19871036010581504	0,000827492739	0,32189403713311738	-0,012010299316572483	0,32189406622326253
1	1	0	1	0	0	1	5879,5251	0,100000001	4,16816902	0,00055162404739711846	0,19858465946726554	0,000827734417	0,32632817689843392	-0,012175743032980765	0,32632820598857907
1	1	0	1	0	0	1	5959,5251	0,100000001	4,17160225	0,00055196862263108301	0,19870870655299462	0,000828933669	0,33073161835080442	-0,012340041354058709	0,33073164744094963
1	1	0	1	0	0	1	6039,5251	0,100000001	4,17541695	0,0005493275840435591	0,19775793264997485	0,000825721829	0,33517355011401325	-0,012505775800384802	0,3351735792041584
1	1	0	1	0	0	1	6119,5251	0,100000001	4,17942238	0,00055378444634212384	0,19936240309688378	0,000833219674	0,33959962080495347	-0,012670918448779118	0,33959964989509869
1	1	0	1	0	0	1	6199,5251	0,100000001	4,18426704	0,00055300411536668742	0,1990814839423255	0,000833010068	0,34403966288009555	-0,012836582388302728	0,3440396919702407
1	1	0	1	0	0	1	6279,5251	0,100000001	4,18777609	0,00055138478748728006	0,1984985258986809	0,000831267389	0,34845503123392883	-0,013001325718110139	0,34845506032407405
1	1	0	1	0	0	1	6359,5251	0,100000001	4,19305944	0,0005499828075915575	0,19799381313011011	0,000830199802	0,35287815660134291	-0,013166358472523664	0,35287818569148813
1	1	0	1	0	0	1	6439,5251	0,100000001	4,19798088	0,00055180110543179846	0,19864840036052205	0,000833922182	0,3573106491170249	-0,013331740727833326	0,35731067820717005
2	1	0	0	0	0	1	6944,5987	4,19985914	4,19967842	0,005583824907980704	0,16751474926755459	0,000703508093	0,38261510758432038	-0,014275884095454374	0,38261513667446554
2	1	0	0	0	0	1	7904,5987	4,19985914	4,1996212	0,004239525415987113	0,12718576401947603	0,000534132007	0,42046268312459123	-0,015688028025468397	0,42046271221473638
2	1	0	0	0	0	1	8864,5986	4,19985914	4,19956398	0,0034739475447319501	0,10421842760375117	0,000437671959	0,45039118761197088	-0,016804700767194781	0,4503912167021161
2	1	0	0	0	0	1	9824,5986	4,19985914	4,19956398	0,0030214021960625216	0,090642066979296691	0,000380657148	0,47616539737235456	-0,017766371187148282	0,47616542646249978
3	1	0	1	0	0	1	10123,5822	0	4,17457771	0	0	0	0,4820971717573495	-0,017987693664807923	0,48209720084749472
3	1	0	1	0	0	1	10804,1924	0	4,14041758	0	0	0	0,4820971717573495	-0,017987693664807923	0,48209720084749472
3	1	0	1	0	0	1	10834,6340	0	4,10013437	0	0	0	0,4820971717573495	-0,017987693664807923	0,48209720084749472
1	1	0	1	0	0	1	10964,9056	0,100000001	4,10360575	1,428021759705411E-005	0,1965167583073465	0,000806427328	0,4821139121470864	-0,017988318271256701	0,48211394123723162
1	1	0	1	0	0	1	11003,4646	0,100000001	4,17171669	0,00053998800029936768	0,1943956824613585	0,000810963742	0,48422605062312083	-0,018067124997597933	0,48422607971326605
1	1	0	1	0	0	1	11083,4646	0,100000001	4,19801903	0,00055445274610858822	0,19960299101572378	0,000837937172	0,48864722693025254	-0,018232085029951779	0,4886472560203977
2	1	0	0	0	0	1	11805,7284	4,19985914	4,19975471	0,0039905319792060179	0,11971596082560483	0,000502777693	0,51705534413196243	-0,019292030077867376	0,51705537322210758
2	1	0	0	0	0	1	12765,7284	4,19985914	4,19960213	0,0032937027377926144	0,098811083330103347	0,000414967246	0,5458587724396864	-0,020366724714649792	0,54585880152983155
2	1	0	0	0	0	1	13725,7284	4,19985914	4,19956398	0,0028612021463996371	0,085836065431222963	0,000360474049	0,5698825445423863	-0,02126308395210665	0,56988257363253146
2	1	0	0	0	0	1	14685,7284	4,19985914	4,19964027	0,0025689943443369376	0,077069831263207488	0,000323665561	0,59141882780760192	-0,022066631636572656	0,59141885689774707
3	1	0	1	0	0	1	14902,3706	0	4,16605186	0	0	0	0,59141882780760192	-0,022066631636572656	0,59141885689774707
3	1	0	1	0	0	1	15585,7286	0,100000001	4,16608572	0	0	0	0,59141882780760192	-0,022066631636572656	0,59141885689774707
2	1	0	0	0	0	1	15826,5040	4,19985914	4,19956398	0,002721963246923768	0,08165889839637312	0,000342931773	0,59720192864241421	-0,02228240690418127	0,59720195773255936
2	1	0	0	0	0	1	16786,5039	4,19985914	4,19960213	0,0023942489799926342	0,071827470269408115	0,000301646796	0,6170239063991424	-0,023021991545217338	0,61702393548928755
2	1	0	0	0	0	1	17746,5039	4,19985914	4,19958305	0,0024382397834204214	0,073147194388219866	0,000307187729	0,63676798393692774	-0,023758669624346688	0,6367680130270729
2	1	0	0	0	0	1	18706,5039	4,19985914	4,19965935	0,0022354926300692346	0,067064779714043302	0,000281649234	0,65612225401525504	-0,024480803463061958	0,65612228310540019
3	1	0	1	0	0	1	19218,3569	0	4,18453407	0	0	0	0,66546507891034406	-0,024829396821459405	0,66546510800048934
3	1	0	1	0	0	1	20086,5041	0,100000001	4,16312122	0	0	0	0,66546507891034406	-0,024829396821459405	0,66546510800048934
2	1	0	0	0	0	1	20327,3779	4,19985914	4,19965935	0,0026434283058936963	0,079302850136945856	0,000333044969	0,6711329160101687	-0,025040871444141885	0,67113294510031386
2	1	0	0	0	0	1	21287,3779	4,19985914	4,19952583	0,0023171679741743075	0,069515040066861261	0,000291930221	0,69058760421471194	-0,025766752018159885	0,69058763330485722
2	1	0	0	0	0	1	22247,3779	4,19985914	4,19960213	0,0022379170283316378	0,067137511662795968	0,000281950837	0,70874179351466419	-0,026444109229508208	0,70874182260480934
2	1	0	0	0	0	1	23207,3779	4,19985914	4,19958305	0,0022025833751521616	0,066077502054577946	0,000277497951	0,72639759096145229	-0,027102870770720013	0,72639762005159744
3	1	0	1	0	0	1	23800,7837	0	4,18459129	0	0	0	0,73505974075498688	-0,027426067225901053	0,73505976984513216
1	1	0	1	0	0	1	24587,3782	0,100000001	4,18784094	0	0	0	0,73505974075498688	-0,027426067225901053	0,73505976984513216
2	1	0	0	0	0	1	25427,3786	4,19985914	4,19954491	0,0021389768643168502	0,064169306706415718	0,000269481883	0,75042359780029632	-0,027999313389187037	0,75042362689044147
2	1	0	0	0	0	1	26387,3786	4,19985914	4,19958305	0,0021499707652410208	0,064499123738134003	0,000270869437	0,76735162712293094	-0,028630920923192022	0,7673516562130761
2	1	0	0	0	0	1	27347,3786	4,19985914	4,19954491	0,0020067782813520816	0,060203349169456051	0,000252826663	0,78370085378691917	-0,029240932551794464	0,78370088287706445
3	1	0	1	0	0	1	28187,3786	4,19985914	4,19973564	0	0	0	0,79780331721935334	-0,029767114423422323	0,79780334630949862
3	1	0	1	0	0	1	28934,7822	0	4,17986107	0	0	0	0,79780331721935334	-0,029767114423422323	0,79780334630949862
2	1	0	0	0	0	1	29567,3792	4,19985914	4,19975471	0,0020058046339560534	0,060174139747221555	0,000252716622	0,80613974782323328	-0,030078157857703238	0,80613977691337843
2	1	0	0	0	0	1	30527,3792	4,19985914	4,19958305	0,0016308948988885904	0,048926847559024518	0,000205472359	0,8215171331843456	-0,030651908780640851	0,82151716227449075
2	1	0	0	0	0	1	31487,3792	4,19985914	4,19958305	0,0020905945735641933	0,06271783796626281	0,000263388763	0,83727335183281856	-0,031239794482876659	0,83727338092296371
2	1	0	0	0	0	1	32447,3792	4,19985914	4,19950676	0,0020197148802405766	0,060591447140809677	0,000254454179	0,85374172173186944	-0,031854251505769069	0,85374175082201459
3	1	0	1	0	0	1	33017,8195	0	4,17814445	0	0	0	0,85782644109336691	-0,032006657877110131	0,85782647018351206
3	1	0	1	0	0	1	33172,3982	0	4,17812538	0	0	0	0,85782644109336691	-0,032006657877110131	0,85782647018351206
2	1	0	0	0	0	1	33827,3798	4,19985914	4,19964027	0,0021877896031647558	0,065633687972690406	0,000275637867	0,86229773457079744	-0,032173487848471078	0,86229776366094272
2	1	0	0	0	0	1	34787,3798	4,19985914	4,19952583	0,0020254864298697536	0,060764592782850778	0,000255182473	0,8790064075103273	-0,03279691090089463	0,87900643660047245
2	1	0	0	0	0	1	35747,3798	4,19985914	4,19956398	0,0020288208617778336	0,060864625739965811	0,000255604886	0,89541321466516851	-0,033409070935028589	0,89541324375531366
2	1	0	0	0	0	1	36707,3798	4,19985914	4,19971657	0,0020952019986109549	0,062856059841250099	0,00026397765	0,91181157779573491	-0,034020915911263738	0,91181160688588019
3	1	0	1	0	0	1	37209,9406	0	4,18461037	0	0	0	0,92014609289971866	-0,034331887875668109	0,92014612198986381
3	1	0	1	0	0	1	38087,3798	0,100000001	4,17233419	0	0	0	0,92014609289971866	-0,034331887875668109	0,92014612198986381
2	1	0	0	0	0	1	38807,3804	4,19985914	4,19948769	0,0022961018660415949	0,068883055852943155	0,000289273536	0,93404321261639706	-0,034850408097173562	0,93404324170654221
2	1	0	0	0	0	1	39767,3804	4,19985914	4,19954491	0,0022442268238046026	0,067326804588732134	0,000282741938	0,95214960947436838	-0,035525982108253965	0,95214963856451366
2	1	0	0	0	0	1	40727,3804	4,19985914	4,19950676	0,0022122035689326134	0,066366106944361907	0,000278704916	0,96923034722928026	-0,036163287399185882	0,96923037631942541
2	1	0	0	0	0	1	41687,3802	4,19985914	4,19958305	0,0022194767814065434	0,066584414292202253	0,00027962678	0,98691917093213171	-0,036823281194415686	0,98691920002227699
3	1	0	1	0	0	1	42195,7570	0	4,17490196	0	0	0	0,98691917093213171	-0,036823281194415686	0,98691920002227699
2	1	0	0	0	0	1	42827,3810	4,19985914	4,19965935	0,0023116667822553494	0,069350003338486029	0,000291246397	0,99169720903163302	-0,037001556220048621	0,99169723812177818
2	1	0	0	0	0	1	43787,3810	4,19985914	4,19958305	0,0022662209879244134	0,067986629511097446	0,000285515503	1,0095650865007701	-0,037668230752038886	1,0095651155909154
2	1	0	0	0	0	1	44747,3810	4,19985914	4,19952583	0,0020976182676211334	0,062928547911420454	0,000264270057	1,0272573937395664	-0,038328354522678451	1,0272574228297115
2	1	0	0	0	0	1	45707,3810	4,19985914	4,19950676	0,0021132694138169626	0,063398082296420749	0,000266240677	1,0441080052622251	-0,038957073494476998	1,0441080343523702
3	1	0	1	0	0	1	46327,3276	0	4,18514442	0	0	0	1,0525050178627974	-0,039270377324507866	1,0525050469529427
1	1	0	1	0	0	1	47087,3812	0,100000001	4,18671942	0	0	0	1,0525050178627974	-0,039270377324507866	1,0525050469529427
2	1	0	0	0	0	1	47927,3816	4,19985914	4,19973564	0,0021823979677175843	0,06547193890957655	0,000274964841	1,068131668646463	-0,039853428675501869	1,0681316977366082
2	1	0	0	0	0	1	48887,3816	4,19985914	4,19954491	0,0020713623248032787	0,062140869628351974	0,000260963367	1,0853278713358806	-0,040495042118384448	1,0853279004260259
2	1	0	0	0	0	1	49847,3816	4,19985914	4,19967842	0,0021278681051364918	0,063836043035190861	0,000268090866	1,102291550612029	-0,041127979800086899	1,1022915797021742
3	1	0	1	0	0	1	50687,3816	4,19985914	4,19971657	0	0	0	1,1175534662987717	-0,041697422394223149	1,1175534953889168
3	1	0	1	0	0	1	51314,4252	0	4,17329979	0	0	0	1,1175534662987717	-0,041697422394223149	1,1175534953889168
2	1	0	0	0	0	1	51947,3822	4,19985914	4,19944954	0,0022155090199893651	0,066465270475879744	0,00027911755	1,124534406546881	-0,041957890660854099	1,1245344356370261
2	1	0	0	0	0	1	52907,3822	4,19985914	4,19960213	0,0022043309929302323	0,066129929664730368	0,000277719402	1,1422297623237154	-0,042618128176546669	1,1422297914138606
2	1	0	0	0	0	1	53867,3822	4,19985914	4,19956398	0,0021227553124206995	0,06368265925400279	0,000267439405	1,159079790360477	-0,043246825377701894	1,1590798194506222
2	1	0	0	0	0	1	54827,3822	4,19985914	4,19948769	0,0021173672111680758	0,063521016216725171	0,000266755727	1,1758514725169349	-0,043872599388725818	1,17585150160708
3	1	0	1	0	0	1	55294,7400	0	4,1794796	0	0	0	1,1822125553977856	-0,044109939943577254	1,1822125844879307
1	1	0	1	0	0	1	56087,3824	0,100000001	4,17983007	0	0	0	1,1822125553977856	-0,044109939943577254	1,1822125844879307
2	1	0	0	0	0	1	56927,3828	4,19985914	4,19948769	0,0022127329784582704	0,066381989230102029	0,000278770342	1,1979323627788517	-0,044696467092470637	1,1979323918689968
2	1	0	0	0	0	1	57887,3828	4,19985914	4,1996212	0,0021453018578140509	0,064359055614543437	0,000270283665	1,215400702320667	-0,045348234327208077	1,2154007314108122
2	1	0	0	0	0	1	58847,3828	4,19985914	4,19954491	0,002137234195886361	0,064117025757163558	0,000269262324	1,2327954052188299	-0,045997254079765312	1,232795434308975
3	1	0	1	0	0	1	59687,3828	4,19985914	4,19971657	0	0	0	1,2479382801517512	-0,046562255103324493	1,2479383092418963
3	1	0	1	0	0	1	60306,3710	0	4,16967583	0	0	0	1,2479382801517512	-0,046562255103324493	1,2479383092418963
2	1	0	0	0	0	1	60947,3834	4,19985914	4,1996212	0,0022194527313342938	0,066583581816007219	0,00027962582	1,2549012784451242	-0,046822053931501011	1,2549013075352693
2	1	0	0	0	0	1	61907,3834	4,19985914	4,19965935	0,0022056693598173766	0,066170080671269926	0,000277891784	1,2724935407750738	-0,047478444892079699	1,2724935698652189
2	1	0	0	0	0	1	62867,3834	4,19985914	4,19939232	0,0022303985680602493	0,066911956917174246	0,000280989567	1,2904366145093147	-0,048147925097823437	1,2904366435994598
2	1	0	0	0	0	1	63827,3834	4,19985914	4,19943047	0,0021911731575385459	0,065735194603715034	0,000276050385	1,3081581067778725	-0,048809137801163098	1,3081581358680176
3	1	0	1	0	0	1	64230,2448	0	4,17965126	0	0	0	1,314693128528835	-0,049052968249121696	1,3146931576189802
3	1	0	1	0	0	1	65087,3834	0,100000001	4,17457724	0	0	0	1,314693128528835	-0,049052968249121696	1,3146931576189802
2	1	0	0	0	0	1	65807,3845	4,19985914	4,19971657	0,0022942135743262864	0,068826308789856998	0,000289050979	1,3284901481210715	-0,049567753600398182	1,3284901772112168
2	1	0	0	0	0	1	66767,3859	4,19985914	4,19956398	0,002188014707066856	0,065640347346740454	0,00027566083	1,3462607176827547	-0,050230797443529466	1,3462607467729
2	1	0	0	0	0	1	67727,3873	4,19985914	4,1996212	0,0021240067217482461	0,063720110539166208	0,000267600321	1,3636582600878056	-0,050879923141906451	1,3636582891779507
2	1	0	0	0	0	1	68687,3831	4,19985914	4,19969749	0,0021359405040579795	0,064081113937190016	0,000269121287	1,3805523510434259	-0,051510264389807514	1,380552380133571
3	1	0	1	0	0	1	69079,1734	0	4,16862679	0	0	0	1,3805523510434259	-0,051510264389807514	1,380552380133571
1	1	0	1	0	0	1	69587,7179	0,100000001	4,19046593	1,4348709411919117E-005	0,19404720468465056	0,000813148217	1,3805703897607115	-0,051510937438602758	1,3805704188508568
2	1	0	0	0	0	1	70308,0487	4,19985914	4,19956398	0,002198256550546632	0,065947602212465062	0,000276951178	1,3942195913701731	-0,052020207502198509	1,3942196204603184
2	1	0	0	0	0	1	71268,0501	4,19985914	4,1996212	0,0021631565024929715	0,064894602282481907	0,00027253275	1,411500960956443	-0,052664998636510765	1,4115009900465883
2	1	0	0	0	0	1	72228,0514	4,19985914	4,19958305	0,0021428534105345478	0,064285510388428621	0,000269972341	1,4289712243210408	-0,053316837651662822	1,4289712534111861
2	1	0	0	0	0	1	73188,0468	4,19985914	4,19956398	0,0020813778115198173	0,062444367250541043	0,000262239104	1,446260994670199	-0,053961942229733376	1,446261023760344
3	1	0	1	0	0	1	73579,4875	0	4,1694088	0	0	0	1,446260994670199	-0,053961942229733376	1,446261023760344
2	1	0	0	0	0	1	74208,0476	4,19985914	4,19958305	0,0023814799130545389	0,071444295203822029	0,000300036249	1,4486424745832534	-0,054050798447223245	1,4486425036733987
2	1	0	0	0	0	1	75168,0489	4,19985914	4,19948769	0,0022621705288364451	0,067865018815073165	0,000284998299	1,466958070661841	-0,054734177962496166	1,4669580997519859
2	1	0	0	0	0	1	76128,0503	4,19985914	4,19958305	0,0022178319719723789	0,066534864020820634	0,000279418688	1,4849851574059629	-0,05540679280659527	1,4849851864961082
2	1	0	0	0	0	1	77088,0517	4,19985914	4,19965935	0,0021869004042525904	0,065606918313934618	0,00027552672	1,5025725693841165	-0,056063002794027078	1,5025725984742618
3	1	0	1	0	0	1	77697,6405	0	4,18962669	0	0	0	1,5135557868116173	-0,056472801403340019	1,5135558159017622
3	1	0	1	0	0	1	78480,0467	0	4,16406822	0	0	0	1,5135557868116173	-0,056472801403340019	1,5135558159017622
2	1	0	0	0	0	1	78828,6585	4,19985914	4,19965935	0,0022762037643776278	0,068286015289135488	0,000286777999	1,5182773655768429	-0,056648969855300755	1,5182773946669882
2	1	0	0	0	0	1	79788,6598	4,19985914	4,19964027	0,0021488087346557293	0,064464169849328448	0,000270726334	1,5361755068760781	-0,057316773571482125	1,5361755359662234
2	1	0	0	0	0	1	80748,6612	4,19985914	4,19960213	0,0021957706595558234	0,065873025565930893	0,000276640494	1,5537628350910211	-0,05797298043359593	1,5537628641811664
2	1	0	0	0	0	1	81708,6626	4,19985914	4,19969749	0,0020216876031125299	0,060650541341788966	0,00025471393	1,5710407822523043	-0,058617643872630426	1,5710408113424493
3	1	0	1	0	0	1	82199,7451	0	4,18461037	0	0	0	1,5797875952507459	-0,058943999225817434	1,5797876243408909
3	1	0	1	0	0	1	82892,1449	0	4,15537119	0	0	0	1,5797875952507459	-0,058943999225817434	1,5797876243408909
1	1	0	1	0	0	1	83089,6253	0,100000001	4,20086098	2,0195905984275869E-006	0,2008433068710879	0,000843714806	1,5798411415206733	-0,058945997109142157	1,5798411706108186
2	1	0	0	0	0	1	83929,6267	4,19985914	4,19971657	0,002242973963733297	0,067289122664907853	0,000282595254	1,5960706430033392	-0,059551541630257229	1,5960706720934842
2	1	0	0	0	0	1	84889,6280	4,19985914	4,1996212	0,0022010764144760714	0,066032198002138982	0,000277310231	1,6137268067925184	-0,060210316840196198	1,6137268358826637
2	1	0	0	0	0	1	85849,6294	4,19985914	4,19964027	0,0022133051316510605	0,066399059005755482	0,000278852152	1,6312102728903984	-0,060862648467078285	1,6312103019805437
3	1	0	1	0	0	1	86689,6248	4,19985914	4,19967842	0	0	0	1,6466104510086634	-0,061437249818430451	1,6466104800988086
3	1	0	1	0	0	1	87126,3379	0	4,17000008	0	0	0	1,6466104510086634	-0,061437249818430451	1,6466104800988086
3	1	0	1	0	0	1	87589,6246	0,100000001	4,1628809	0	0	0	1,6466104510086634	-0,061437249818430451	1,6466104800988086
2	1	0	0	0	0	1	87830,3873	4,19985914	4,19952583	0,0023577557672914896	0,070732571846928845	0,000297043269	1,6514862111398771	-0,061619170984455245	1,6514862402300224
2	1	0	0	0	0	1	88790,3887	4,19985914	4,19967842	0,0022194170165200998	0,066582415259739443	0,000279624743	1,6695832343348778	-0,062294395251567181	1,669583263425023
2	1	0	0	0	0	1	89750,3901	4,19985914	4,19960213	0,0022737574538534586	0,068212626062136819	0,000286465889	1,6878115796582493	-0,06297451932385312	1,6878116087483942
2	1	0	0	0	0	1	90710,3915	4,19985914	4,19960213	0,0022533610596014445	0,067600735125732301	0,000283896195	1,705764531782921	-0,063644368105625472	1,7057645608730659
3	1	0	1	0	0	1	91203,1177	0	4,18466759	0	0	0	1,7146724502474054	-0,063976734520359155	1,7146724793375507
3	1	0	1	0	0	1	91954,9370	0	4,1621418	0	0	0	1,7146724502474054	-0,063976734520359155	1,7146724793375507
2	1	0	0	0	0	1	92091,0795	4,19999981	4,20004082	1,2704374889532723E-008	0,22867873714993187	0,000960460049	1,7147100023943008	-0,063978135641449216	1,7147100314844461
2	1	0	0	0	0	1	92781,8526	4,19985914	4,19960213	0,0016272463515935878	0,064536149319083034	0,000271026161	1,7274660658823139	-0,064454081520896755	1,7274660949724592