File: Experimentelles/Rohdaten/Batterietests/AlteZelle/Studenten_Batterietests/SemArbeitToph/ECLab-Export/Al_Sand_01_Zyklieren_02_GCPL_C02.mpt
EC-Lab ASCII FILE
Nb header lines : 77

Galvanostatic Cycling with Potential Limitation

Run on channel : 2 (SN 6986)
Grouped channel(s) : 2
User :
CE vs. WE compliance from -10 V to 10 V
Electrode connection : standard
Ewe ctrl range : min = 0,00 V, max = 5,00 V
Acquisition started on : 03.16.2015 02:19:24
Saved on :
	File : Al_Sand_01_Zyklieren_02_GCPL_C02.mpr
	Directory : C:\Hupfer\Studenten Batterietests\SemArbeitToph\
	Host : 192.168.0.2
Device : VMP3 (SN 0324)
Address : 192.168.0.1
EC-Lab for windows v10.33 (software)
Internet server v10.33 (firmware)
Command interpretor v10.32 (firmware)
Electrode material :
Initial state :
Electrolyte :
Comments :
Mass of active material : 0,001 mg
 at x = 0,000
Molecular weight of active material (at x = 0) : 0,001 g/mol
Atomic weight of intercalated ion : 0,001 g/mol
Acquisition started at : xo = 0,000
Number of e- transfered per intercalated ion : 1
for DX = 1, DQ = 26,801 mA.h
Battery capacity : 0,000 A.h
Electrode surface area : 0,001 cm²
Characteristic mass : 0,001 g
Ns                  0                   1                   2
Set I/C             I                   I                   I
Is                  0,000               100,000             -100,000
unit Is             mA                  µA                  µA
vs.                 <None>              <None>              <None>
N                   1                   1                   1
I sign              > 0                 > 0                 > 0
t1 (h:m:s)          0:00:0,0000         4:00:0,0000         4:00:0,0000
I Range             1 A                 1 A                 1 A
Bandwidth           5                   5                   5
dE1 (mV)            0,00                10,00               10,00
dt1 (s)             0,0000              10,0000             10,0000
EM (V)              0,000               4,500               2,500
tM (h:m:s)          0:00:0,0000         0:00:0,0000         0:00:0,0000
Im                  0,000               0,000               0,000
unit Im             mA                  mA                  mA
E range min (V)     0,000               0,000               0,000
E range max (V)     5,000               5,000               5,000
dq                  0,000               1,000               1,000
unit dq             mA.h                mA.h                mA.h
dtq (s)             0,0000              120,0000            120,0000
dQM                 0,000               0,000               0,000
unit dQM            mA.h                mA.h                mA.h
dxM                 0,000               0,000               0,000
tR (h:m:s)          0:00:10,0000        0:05:0,0000         0:05:0,0000
dER/dt (mV/h)       0,0                 0,1                 0,1
dER (mV)            0,00                5,00                5,00
dtR (s)             1,0000              120,0000            120,0000
EL (V)              pass                4,200               3,500
goto Ns'            0                   0                   0
nc cycles           0                   0                   0

Modify on : 03.16.2015 11:52
Ns                  0                   1                   2
EM (V)                                  4,200

Number of loops : 3
Loop 0 from point number 0 to 2595
Loop 1 from point number 2596 to 5027
Loop 2 from point number 5028 to 23932

mode	ox/red	error	control changes	Ns changes	counter inc.	Ns	time/s	control/V/mA	Ewe/V	dq/mA.h	<I>/mA	P/W	(Q-Qo)/mA.h	x	Capacity/mA.h
3	1	0	0	0	0	0	600,0006	0	3,62960768	0	0	0	0	0	0
1	1	0	0	0	0	1	1012,7382	0,100000001	3,83659196	0,0005653946940311127	0,2035420949931064	0,000780907983	0,022875468242314541	-0,00085351447651491686	0,022875468242314541
1	1	0	0	0	0	1	1672,7382	0,100000001	3,86449647	0,00057300150527846477	0,20628054711133226	0,000797170447	0,060873882306004339	-0,0022712863946422534	0,060873882306004339
1	1	0	0	0	0	1	2332,7381	0,100000001	3,88042259	0,00058074508663763597	0,20906823647105686	0,000811273116	0,098805901103208832	-0,0036865810161076371	0,098805901103208832
1	1	0	0	0	0	1	2992,7381	0,100000001	3,89827538	0,00057474311297138534	0,20690752589662246	0,00080658251	0,13700939725494667	-0,0051120048226758464	0,13700939725494667
1	1	0	0	0	0	1	3652,7381	0,100000001	3,91917968	0,00057185292029256621	0,20586705650596314	0,000806830009	0,17500658180256986	-0,0065297308659056358	0,17500658180256986
1	1	0	0	0	0	1	4312,7381	0,100000001	3,94515777	0,00058135189261039104	0,20928668387361514	0,000825668976	0,2126127040133561	-0,0079328658475591347	0,2126127040133561
1	1	0	0	0	0	1	4972,7381	0,100000001	3,97449255	0,00059242495546407168	0,21327298654920314	0,000847651914	0,25113823361959408	-0,0093703051552933274	0,25113823361959408
1	1	0	0	0	0	1	5632,7381	0,100000001	4,01397467	0,00057554641504958272	0,20719671192642045	0,000831682351	0,28959770335481402	-0,010805279680421395	0,28959770335481402
1	1	0	0	0	0	1	6292,7381	0,100000001	4,06034184	0,0005723438085238967	0,20604377356321462	0,000836608175	0,3275443872843383	-0,012221121477691114	0,3275443872843383
1	1	0	0	0	0	1	6952,7381	0,100000001	4,12585878	0,00057731099533786368	0,2078319608378927	0,000857485342	0,3652166520684704	-0,013626724327685781	0,3652166520684704
1	1	0	0	0	0	1	7612,7381	0,100000001	4,19170046	0,00057041807290911674	0,20535050873350035	0,000860767846	0,40314868853382586	-0,015042019608373632	0,40314868853382586
1	1	0	0	0	0	1	8272,7380	0,100000001	4,27960968	0,00057226358383935354	0,20601489267642944	0,000881663349	0,44103872179664634	-0,016455747693100995	0,44103872179664634
1	1	0	0	0	0	1	8932,7380	0,100000001	4,37711239	0,00057396136848545734	0,20662609515642675	0,000904425629	0,47901792763266144	-0,017872802926428054	0,47901792763266144
1	1	0	0	0	0	1	9592,7380	0,100000001	4,44533825	0,00058377134160656077	0,2101576855227816	0,000934222015	0,51714777158912762	-0,019295478670564246	0,51714777158912762
1	1	0	0	0	0	1	10252,7380	0,100000001	4,48201609	0,00058508744335381517	0,21063148215752957	0,000944053696	0,55543686239055258	-0,020724096128595514	0,55543686239055258
3	1	0	1	0	0	1	10654,4874	0	4,32969618	0	0	0	0,57542375169532576	-0,021469833841215078	0,57542375169532576
1	0	0	1	0	0	2	11272,7834	-0,100000001	4,01139975	-1,2101046211771771E-005	-0,0043563766889813325	1,74751676E-005	0,57496045833484442	-0,02145254774303097	0,00047146424666354938
1	0	0	1	0	0	2	11932,7834	-0,100000001	3,9217546	-7,7915561962355341E-006	-0,0028049602646049891	1,10003657E-005	0,57422168285670016	-0,02142498303664721	0,0012102397248082432
1	0	0	1	0	0	2	12592,7834	-0,100000001	3,85587525	-2,0680090478388595E-005	-0,0074448326623559232	2,87063467E-005	0,573060960826392	-0,02138167493708905	0,0023787871519172589
1	0	0	1	0	0	2	13252,7834	-0,100000001	3,79512644	-1,437418324008791E-005	-0,0051747060290828147	1,96386645E-005	0,57201244880793523	-0,021342553543941021	0,0034272991703737184
1	0	0	1	0	0	2	13912,7834	-0,100000001	3,75568271	-3,9662390399931206E-006	-0,0014278460716847322	5,36253674E-006	0,57134677208669472	-0,021317716250459667	0,0041078191431724934
1	0	0	1	0	0	2	14572,7834	-0,100000001	3,70542455	-9,7462708048988122E-006	-0,003508657532243568	1,30010658E-005	0,5706336860326249	-0,021291110051027926	0,0048294310542146342
1	0	0	1	0	0	2	15232,7834	-0,100000001	3,66542768	-1,5071109912785082E-005	-0,0054255996342914131	1,98871439E-005	0,57003143769340403	-0,021268639355760093	0,0054316793934352442
1	0	0	1	0	0	2	15892,7834	-0,100000001	3,63344145	-1,2579210867148099E-005	-0,0045285159670009344	1,64540979E-005	0,56907504640870586	-0,021232955111046246	0,0063880706781329984
1	0	0	1	0	0	2	16552,7833	-0,100000001	3,60286689	-1,5488487390865987E-005	-0,0055758555282197171	2,00890645E-005	0,56819578594725453	-0,021200148721051232	0,007267331139584768
1	0	0	1	0	0	2	17212,7833	-0,100000001	3,56744766	-9,7137569760541542E-006	-0,0034969525537177766	1,2475195E-005	0,56689827384497779	-0,021151736799991712	0,0085648432418616806
1	0	0	1	0	0	2	17872,7833	-0,100000001	3,52649713	-1,7106401325074128E-005	-0,0061583045515864704	2,17172437E-005	0,56564652948302586	-0,021105032534859091	0,0098165876038139046
1	0	0	1	0	0	2	18532,7833	-0,100000001	3,50231218	-6,4489490370292006E-006	-0,0023216216814388352	8,13104361E-006	0,56485555913926234	-0,021075520367862339	0,010607557947577235
1	0	0	1	0	0	2	19192,7833	-0,100000001	3,46485186	-1,4465010490591843E-005	-0,0052074038396601101	1,80428833E-005	0,56401587960986118	-0,021044190795659248	0,011447237476978208
1	0	0	1	0	0	2	19836,0627	-0,100000001	3,43799663	-6,0379328039319565E-006	-0,002173655835732376	7,47302147E-006	0,56326894009571706	-0,02101632147811567	0,012194321488491213
1	0	0	1	0	0	2	20496,0627	-0,100000001	3,39767551	-2,2071468424957453E-005	-0,0079457287291851571	2,69970078E-005	0,5623491957343527	-0,020982004579383722	0,013114065849855875
1	0	0	1	0	0	2	21156,0627	-0,100000001	3,36156964	-2,3786570201071702E-005	-0,0085631653760617126	2,87856765E-005	0,56088871041612122	-0,020927511908517107	0,014574551168087363
1	0	0	1	0	0	2	21816,0627	-0,100000001	3,336164	-9,3158167465201894E-006	-0,0033536940693510906	1,11884738E-005	0,55988907191511059	-0,020890214052016144	0,015574189669097718
1	0	0	1	0	0	2	22476,0627	-0,100000001	3,28951049	-2,0721085563767706E-005	-0,0074595908932710835	2,45384017E-005	0,55892664861585459	-0,020854304744729014	0,016536612968353248
1	0	0	1	0	0	2	23136,0627	-0,100000001	3,24705315	-2,2305779298353526E-005	-0,0080300806446290099	2,60740981E-005	0,55760798134807066	-0,020805103496000998	0,017855280236137242
1	0	0	1	0	0	2	23796,0627	-0,100000001	3,20451951	-1,5749657715916528E-005	-0,0056698768463762458	1,81692303E-005	0,55648844015110656	-0,02076333190870312	0,018974821433101018
1	0	0	1	0	0	2	24453,6411	-0,100000001	3,15838099	-1,9566846888137258E-005	-0,0070440649650132698	2,22478411E-005	0,55556803906837082	-0,020728990506813834	0,019916100960962333
1	0	0	1	0	0	2	25113,6410	-0,100000001	3,11529422	-1,925266466081505E-005	-0,0069309593618078822	2,15919772E-005	0,55431054153225235	-0,02068207158301783	0,021173598497080707
3	0	0	0	0	0	2	25367,7260	0	3,34350705	0	0	0	0,55390716532287712	-0,02066702107430096	0,021576974706456218
1	1	0	0	0	0	1	25651,8606	0,100000001	3,79833078	0,00032350254403965344	0,20745469604342189	0,000787981553	0,55648801695138758	-0,020763316118552605	0,0025808516285104883
1	1	0	0	0	0	1	26311,8606	0,100000001	3,86268449	0,00056586791067942982	0,20371245031098077	0,000786876946	0,59431499750309594	-0,022174691621853104	0,040407832180218771
1	1	0	0	0	0	1	26971,8606	0,100000001	3,89440346	0,0005679795392377095	0,20447263660116518	0,000796298962	0,63198044782142541	-0,023580040214966531	0,078073282498548211
1	1	0	0	0	0	1	27631,8606	0,100000001	3,91906524	0,00057956787493783565	0,20864443750371939	0,000817691151	0,66991152477864294	-0,024995299695115686	0,11600435945576533
1	1	0	0	0	0	1	28291,8606	0,100000001	3,94983077	0,00057374578813173715	0,20654848622814784	0,00081583159	0,70814102206192358	-0,026421693638860653	0,1542338567390463
1	1	0	0	0	0	1	28951,8606	0,100000001	3,99768567	0,00058353243649585395	0,21007167968188586	0,000839800516	0,74655620696547085	-0,027855015837377421	0,19264904164259373
1	1	0	0	0	0	1	29611,8606	0,100000001	4,05187321	0,00056769575068478778	0,20437047272087648	0,000828083255	0,78449799120947277	-0,029270674820792602	0,23059082588659552
1	1	0	0	0	0	1	30271,8606	0,100000001	4,12267351	0,00056518865516533453	0,20346791832294586	0,000838831824	0,82196279120603904	-0,030668536880623814	0,26805562588316166
1	1	0	0	0	0	1	30931,8606	0,100000001	4,20133209	0,00055601870863346598	0,20016673753150515	0,000840966939	0,85920094187036838	-0,032057942349136	0,30529377654749069
1	1	0	0	0	0	1	31591,8606	0,100000001	4,29362822	0,00056124423884517606	0,20204792843049677	0,000867518713	0,89642092157503731	-0,033446669834712141	0,34251375625215962
1	1	0	0	0	0	1	32251,8606	0,100000001	4,37968731	0,00055198063820683296	0,19871303216031699	0,000870300923	0,93342614845629043	-0,034827384603708397	0,37951898313341299
1	1	0	0	0	0	1	32911,8605	0,100000001	4,44823694	0,00056848067631655277	0,20465304309276301	0,000910345232	0,971111156168432	-0,036233462909480147	0,41720399084555501
1	1	0	0	0	0	1	33571,8606	0,100000001	4,49542475	0,00056216063257886304	0,20237782735143261	0,000909774273	1,0086577385759798	-0,037634376381022701	0,45475057325310189
1	0	0	1	0	0	2	33913,3916	-0,100000001	4,1432538	-6,1098826337450496E-006	-0,0080316867888759014	3,32773161E-005	1,0103498179598875	-0,037697510137861229	2,5132925877360522E-005
1	0	0	1	0	0	2	34551,7090	-0,100000001	3,91885543	-1,8386101899875536E-005	-0,0066189966716263514	2,59388908E-005	1,0088971927632328	-0,037643310738698694	0,0014777581225321501
1	0	0	1	0	0	2	35211,7090	-0,100000001	3,82842875	-2,4251659097085293E-005	-0,0087305972586887002	3,34244687E-005	1,0076548265034802	-0,037596956383168115	0,0027201243822848582
1	0	0	1	0	0	2	35871,7090	-0,100000001	3,7392416	-1,8815495811389862E-005	-0,0067735784794835776	2,53280468E-005	1,0059046889687493	-0,037531656398662368	0,0044702619170153056
1	0	0	1	0	0	2	36531,7090	-0,100000001	3,68217397	-3,1938694091151571E-005	-0,011497929851398	4,23373785E-005	1,0043005340774296	-0,037471803222858042	0,0060744168083342822
1	0	0	1	0	0	2	37191,7090	-0,100000001	3,63532972	-2,6886688701756714E-005	-0,0096792079146034867	3,51871131E-005	1,0025242625291136	-0,037405528143167872	0,007850688356650967
1	0	0	1	0	0	2	37851,7090	-0,100000001	3,59098411	-3,051657005557273E-005	-0,010985965199543229	3,94504277E-005	1,000834369497251	-0,037342475962063731	0,0095405813885135552
1	0	0	1	0	0	2	38511,7090	-0,100000001	3,5568428	-3,0459671107741696E-005	-0,010965481578362208	3,90024943E-005	0,99868883962541862	-0,03726242335785008	0,011686111260345818
1	0	0	1	0	0	2	39171,7090	-0,100000001	3,52508569	-2,0309009204036554E-005	-0,0073112432998349082	2,57727588E-005	0,9971527396153687	-0,037205109401166682	0,013222211270396109
1	0	0	1	0	0	2	39831,7090	-0,100000001	3,49039125	-2,0022393140553805E-005	-0,0072080615171733094	2,51589554E-005	0,99556524203145574	-0,03714587773189769	0,01480970885430873
1	0	0	1	0	0	2	40491,7090	-0,100000001	3,44459605	-2,6097522693505098E-005	-0,0093951081521620826	3,23623535E-005	0,99355780597640525	-0,037070977593657274	0,016817144909359677
1	0	0	1	0	0	2	41151,7090	-0,100000001	3,40301609	-3,3658391039934938E-005	-0,012117020751806869	4,12344161E-005	0,99150786238937587	-0,036994491442246739	0,018867088496389226
1	0	0	1	0	0	2	41811,7090	-0,100000001	3,37196469	-2,7261304268354755E-005	-0,009814069518327584	3,3092696E-005	0,98944083281226688	-0,036917367789573984	0,020934118073498426
1	0	0	1	0	0	2	42471,7090	-0,100000001	3,33147192	-3,554666423602288E-005	-0,012796799101132344	4,26321785E-005	0,98749125962264307	-0,036844626592640083	0,022883691263122198
1	0	0	1	0	0	2	43130,7110	-0,100000001	3,30230856	-2,0819334124628867E-005	-0,0074949602709059405	2,47506723E-005	0,9858280409528009	-0,036782569667846989	0,024546909932964419
1	0	0	1	0	0	2	43790,7110	-0,100000001	3,27289748	-2,2995636758122902E-005	-0,0082784292175044698	2,70944493E-005	0,98430812962525402	-0,036725859732673696	0,026066821260510787
1	0	0	1	0	0	2	44450,7110	-0,100000001	3,22992516	-2,1199604312708186E-005	-0,0076318575383595046	2,46503278E-005	0,98257254978088781	-0,036661102915168474	0,027802401104876669
1	0	0	1	0	0	2	45110,7110	-0,100000001	3,19494462	-2,4755268850454339E-005	-0,0089118967695638618	2,84730158E-005	0,98126281355350387	-0,036612234895565696	0,029112137332260659
1	0	0	1	0	0	2	45770,7110	-0,100000001	3,16330194	-1,8945197056978938E-005	-0,0068202709278086746	2,15745767E-005	0,97971614020343066	-0,036554526433350029	0,030658810682333766
1	0	0	1	0	0	2	46430,7110	-0,100000001	3,1192615	-1,7551699029708589E-005	-0,0063186116389257613	1,97094014E-005	0,97821947446568064	-0,036498683822386086	0,032155476420083635
1	0	0	1	0	0	2	47090,7110	-0,100000001	3,07363796	-2,2685695556807331E-005	-0,0081668503852386944	2,5101941E-005	0,97659711256199283	-0,03643815131847072	0,033777838323771226
1	0	0	1	0	0	2	47745,8824	-0,100000001	3,02160573	-2,398236009562647E-005	-0,0086336496183441037	2,60874858E-005	0,97508287338161178	-0,03638165301873447	0,035292077504152147
3	0	0	0	0	0	2	48304,5280	0	3,04134679	0	0	0	0,97378404573940966	-0,036333192013111578	0,036590905146354061
3	0	0	0	0	0	2	48457,2870	0	3,37329984	0	0	0	0,97378404573940966	-0,036333192013111578	0,036590905146354061
1	1	0	0	0	0	1	48743,0338	0,100000001	3,83401704	0,00057262936363162259	0,20614657052340624	0,000790369464	0,98135565533370893	-0,03661569894721225	0,0075716095942991475
1	1	0	0	0	0	1	49403,0338	0,100000001	3,88398933	0,00058196612084284429	0,20950780311318525	0,000813726045	1,0195057203882645	-0,038039129167705709	0,045721674648854682
1	1	0	0	0	0	1	50063,0338	0,100000001	3,90708733	0,00056977557272877958	0,20511920580029635	0,000801418675	1,0575170325249075	-0,039457382330276576	0,083732986785498112
1	1	0	0	0	0	1	50723,0338	0,100000001	3,93184447	0,00056740171314568992	0,20426461635197584	0,000803136674	1,0953517902352053	-0,040869048009820544	0,12156774449579638
1	1	0	0	0	0	1	51383,0338	0,100000001	3,95629644	0,00057605992096496954	0,20738157116111072	0,000820462999	1,1332683247019126	-0,042283764890096179	0,15948427896250403
1	1	0	0	0	0	1	52043,0338	0,100000001	3,99070501	0,00057610056321198746	0,20739620237000995	0,000827657059	1,1712281070889512	-0,043700095408426822	0,19744406134954259
1	1	0	0	0	0	1	52703,0338	0,100000001	4,04226017	0,00058400565305310822	0,21024203470751264	0,000849852979	1,2095394281322731	-0,045129542306672141	0,23575538239286355
1	1	0	0	0	0	1	53363,0338	0,100000001	4,10600376	0,00057768490340063962	0,20796656483686234	0,000853911508	1,2478180816582792	-0,046557770335924454	0,27403403591886966
1	1	0	0	0	0	1	54023,0338	0,100000001	4,19215822	0,00058828863659211341	0,21178390877868253	0,000887831673	1,286297277715041	-0,047993480876631578	0,31251323197563104
1	1	0	1	0	0	1	54414,8022	0,100000001	4,17825365	0,00057576623696254355	0,20727584492043434	0,000866051065	1,2916375433243008	-0,048192733366576538	0,31785349758489082
1	1	0	0	0	0	1	54805,2816	0,100000001	4,13589144	7,189900802158647E-005	0,21016273821244531	0,000869210286	1,2968904135572064	-0,048388725017525382	0,32310636781779648
1	1	0	1	0	0	1	55195,8086	0,100000001	4,11401463	4,4949421365641882E-005	0,20509241651698486	0,000843753223	1,3020873963462821	-0,048582631432803469	0,32830335060687232
1	1	0	0	0	0	1	55571,8260	0,100000001	4,09175587	3,9555411215457651E-005	0,21046331675597363	0,000861164532	1,3064314617234056	-0,048744714352681971	0,33264741598399603
1	1	0	1	0	0	1	55927,4706	0,100000001	4,07701206	3,7639336805790662E-005	0,21021038202948746	0,000857030274	1,3096708901363843	-0,048865581782228026	0,33588684439697434
1	1	0	0	0	0	1	56284,7564	0,100000001	4,05530643	3,1581389573299219E-005	0,20961099236976528	0,000850036799	1,3129820423771634	-0,048989125324223034	0,33919799663775315
1	1	0	1	0	0	1	56649,2870	0,100000001	4,01595831	2,3172260399907827E-005	0,20597564762973078	0,000827189593	1,3167247649175634	-0,049128771334349325	0,34294071917815283
1	1	0	0	0	0	1	57002,2834	0,100000001	3,99408102	2,8753780664669142E-006	0,2086967950308007	0,000833551923	1,3197884085321426	-0,049243079996721926	0,34600436279273152
3	1	0	1	0	0	1	57348,4476	0,100000001	3,98168492	0	0	0	1,3224630676694202	-0,049342875125251213	0,34867902193000947
3	1	0	0	0	0	1	57528,5018	0	3,97447348	0	0	0	1,325926443113847	-0,049472098319640589	0,3521423973744361
3	1	0	1	0	0	1	57813,5628	0	3,97805929	0	0	0	1,3280973257815232	-0,049553096870754374	0,35431328004211258
3	1	0	0	0	0	1	58129,9494	0	3,99371862	0	0	0	1,3307563429909322	-0,04965230837792409	0,3569722972515216
3	1	0	1	0	0	1	58457,6964	0	4,00211096	0	0	0	1,3329302477097354	-0,049733419685828608	0,35914620197032525
3	1	0	0	0	0	1	58787,1580	0	4,017694	0	0	0	1,3350838173704016	-0,049813772265373274	0,36129977163099168
3	1	0	1	0	0	1	59124,9688	0	4,03333426	0	0	0	1,3375040640525131	-0,04990407492313913	0,36372001831310285
3	1	0	0	0	0	1	59458,9590	0	4,04842091	0	0	0	1,3396715906461422	-0,049984948254617933	0,36588754490673216
3	1	0	1	0	0	1	59795,4994	0	4,06913471	0	0	0	1,3419522718773571	-0,050070043537763085	0,36816822613794682
3	1	0	0	0	0	1	60130,1632	0	4,08916187	0	0	0	1,3440943089786699	-0,050149965822012576	0,37031026323925894
3	1	0	1	0	0	1	60463,3096	0	4,10922718	0	0	0	1,3461086315188299	-0,050225122904271411	0,37232458577941946
3	1	0	0	0	0	1	60795,3406	0	4,12877703	0	0	0	1,348042247379911	-0,050297268711822515	0,37425820164050048
3	1	0	1	0	0	1	61126,4886	0	4,1486516	0	0	0	1,349913146765568	-0,050367074483352365	0,37612910102615718
3	1	0	0	0	0	1	61458,9820	0	4,1688571	0	0	0	1,3518257709059818	-0,050438437061581702	0,37804172516657126
1	1	0	0	0	0	1	61778,0194	0,100000001	4,18538713	0,00019973514646043379	0,21195806093062851	0,000887126545	1,3529390465824718	-0,050479974873886611	0,37915500084306106
1	1	0	1	0	0	1	62100,8624	0,100000001	4,14470339	5,7883597912887731E-005	0,21254687075725955	0,000880943728	1,3542565037894606	-0,050529130973619418	0,38047245805004979
1	1	0	0	0	0	1	62427,2816	0,100000001	4,10279942	4,2447616901662618E-005	0,212238084113332	0,000870770309	1,3557915876035011	-0,050586407014663411	0,38200754186408998
1	1	0	1	0	0	1	62755,2510	0,100000001	4,05221653	3,2582612815416525E-005	0,21180463333236554	0,000858278247	1,3574287905796078	-0,050647493258944762	0,38364474484019622
1	1	0	0	0	0	1	63086,0198	0,100000001	4,01220083	2,5879911977383827E-005	0,20740802079910346	0,000832162623	1,3592035010158914	-0,050713710091446061	0,38541945527647949
3	1	0	1	0	0	1	63416,9048	0,100000001	3,97111034	0	0	0	1,3609786085925133	-0,050779941741787341	0,38719456285310163
3	1	0	0	0	0	1	63519,7520	0	3,96747351	0	0	0	1,362932382720153	-0,050852839681366835	0,38914833698074099
3	1	0	1	0	0	1	63812,0752	0	3,99247885	0	0	0	1,3647520685865498	-0,050920734607635763	0,39096802284713786
3	1	0	0	0	0	1	64134,8666	0	4,02396917	0	0	0	1,3668308160801518	-0,050998295471527789	0,39304677034073984
3	1	0	1	0	0	1	64459,4490	0	4,04842091	0	0	0	1,368618832117275	-0,051065008753885984	0,39483478637786336
3	1	0	0	0	0	1	64787,3738	0	4,07352161	0	0	0	1,370445338460341	-0,05113315816130967	0,39666129272092928
3	1	0	1	0	0	1	65120,2770	0	4,09913731	0	0	0	1,3724850191782022	-0,051209261391272973	0,39870097343879027
3	1	0	0	0	0	1	65450,8732	0	4,12379885	0	0	0	1,3743549107366666	-0,051279029559415213	0,40057086499725459
3	1	0	1	0	0	1	65782,8736	0	4,15012026	0	0	0	1,376286618784275	-0,051351104183880576	0,40250257304486298
3	1	0	0	0	0	1	66115,8733	0	4,19955873	0	0	0	1,3782018184015579	-0,051422562856614675	0,40441777266214534
1	1	0	0	0	0	1	66429,2506	0,100000001	4,16400576	0,0001126216456455489	0,20574343813281418	0,000856716884	1,3789777470070264	-0,051451513796131802	0,4051937012676137
1	1	0	1	0	0	1	66751,7489	0,100000001	4,11283207	4,0759584282835328E-005	0,2135873916991352	0,000878449064	1,3802715927588363	-0,051499788920725946	0,40648754701942355
1	1	0	0	0	0	1	67075,7302	0,100000001	4,06131458	3,4005701306379501E-005	0,20770368839510934	0,00084355002	1,381655922864419	-0,051551440138216858	0,40787187712500602
1	1	0	1	0	0	1	67400,7888	0,100000001	4,00974035	2,4747455533179971E-005	0,20651567240560147	0,000828074233	1,3831109861512414	-0,0516057305058016	0,40932694041182822
3	1	0	0	0	0	1	67728,5365	0,100000001	3,96902752	0	0	0	1,3847341331768496	-0,05166629230367143	0,41095008743743654
3	1	0	1	0	0	1	67820,1911	0	3,96840811	0	0	0	1,3864777494859464	-0,05173134897248089	0,41269370374653338
3	1	0	0	0	0	1	68115,6340	0	3,99310827	0	0	0	1,3880531664030347	-0,051790129895828026	0,41426912066362195
3	1	0	1	0	0	1	68430,8003	0	4,01805639	0	0	0	1,3895882325163693	-0,05184740527643488	0,41580418677695693
3	1	0	0	0	0	1	68752,4830	0	4,04321384	0	0	0	1,3912040015148493	-0,051907691790192698	0,4174199557754368
3	1	0	1	0	0	1	69077,4072	0	4,06875324	0	0	0	1,3928884352552941	-0,051970540277793946	0,41910438951588166
3	1	0	0	0	0	1	69399,1411	0	4,09267139	0	0	0	1,394326337258591	-0,052024190334816755	0,42054229151917888
3	1	0	1	0	0	1	69724,4596	0	4,12416124	0	0	0	1,3959311879334614	-0,052084069471240858	0,42214714219404922
3	1	0	0	0	0	1	70048,8581	0	4,14834642	0	0	0	1,397422410990349	-0,052139709008464051	0,42363836525093683
1	1	0	0	0	0	1	70375,7753	0,100000001	4,19988298	4,7482627841333549E-006	0,20744841696604246	0,000871259079	1,3990222309077595	-0,052199400440563392	0,42523818516834733
1	1	0	1	0	0	1	70687,0340	0,100000001	4,1505971	7,2227090708497498E-005	0,20682277163783648	0,000858437968	1,3996719165720013	-0,052223641086207917	0,42588787083258925
1	1	0	0	0	0	1	71011,8227	0,100000001	4,10104465	3,5832462569077811E-005	0,21188714747374301	0,000868958654	1,401102860382121	-0,052277031523687891	0,42731881464270912
1	1	0	1	0	0	1	71336,6340	0,100000001	4,04994678	3,0122348448468582E-005	0,2050689859112729	0,000830518489	1,4025220381307602	-0,0523299829535944	0,42873799239134816
1	1	0	0	0	0	1	71661,7410	0,100000001	3,99966931	2,1852025210029549E-005	0,2065843208342817	0,000826268981	1,4039580442402448	-0,052383562272270029	0,43017399850083302
3	1	0	1	0	0	1	71924,0911	0	3,94881988	0	0	0	1,4056013691165157	-0,052444876932877485	0,43181732337710368
3	1	0	0	0	0	1	72064,0429	0	3,97300482	0	0	0	1,4070328903659981	-0,052498288915396467	0,43324884462658624
3	1	0	1	0	0	1	72370,6580	0	3,99894452	0	0	0	1,4086840053547984	-0,05255989423557632	0,4348999596153863
3	1	0	0	0	0	1	72685,3629	0	4,02341604	0	0	0	1,4101158529469984	-0,052613318394380858	0,43633180720758605
3	1	0	1	0	0	1	73005,1916	0	4,04876423	0	0	0	1,4116140135712512	-0,052669216781570112	0,43782996783183885
3	1	0	0	0	0	1	73325,4530	0	4,07371235	0	0	0	1,4130397163335618	-0,05272241166850967	0,4392556705941495
3	1	0	1	0	0	1	73646,8425	0	4,0988512	0	0	0	1,4144538406607971	-0,052775174548469203	0,44066979492138477
3	1	0	0	0	0	1	73966,7002	0	4,12303591	0	0	0	1,4157513790170362	-0,052823587449099354	0,44196733327762438
3	1	0	1	0	0	1	74290,7609	0	4,14899492	0	0	0	1,4172322872682421	-0,05287884212705417	0,44344824152883021
3	1	0	0	0	0	1	74611,8881	0	4,19959688	0	0	0	1,4185097812279517	-0,052926507144299827	0,44472573548853958
1	1	0	0	0	0	1	74923,7354	0,100000001	4,16003847	7,8065975432180698E-005	0,21345706919625725	0,000887989649	1,4191975089514787	-0,052952167190324384	0,44541346321206662
1	1	0	1	0	0	1	75244,0013	0,100000001	4,10064411	3,6708258152421978E-005	0,20804433280936611	0,000853115751	1,4203743211448626	-0,052996075635500352	0,44659027540545043
1	1	0	0	0	0	1	75561,8006	0,100000001	4,04765797	2,8755853250622749E-005	0,20531752482651523	0,000831055106	1,4214069069486765	-0,05303460280016704	0,4476228612092647
1	1	0	1	0	0	1	75882,1490	0,100000001	3,98788214	1,5511971544060445E-005	0,20836981508620118	0,00083095429	1,4225869081562178	-0,05307863023174889	0,44880286241680595
3	1	0	0	0	0	1	75999,1843	0	3,95814657	0	0	0	1,4240620822321781	-0,053133670959915616	0,45027803649276704
3	1	0	1	0	0	1	76271,1707	0	3,98336172	0	0	0	1,4255729959755315	-0,053190045183125261	0,45178895023612026
3	1	0	0	0	0	1	76580,9584	0	4,00888205	0	0	0	1,4270149132105669	-0,053243845053842778	0,45323086747115661
3	1	0	1	0	0	1	76895,9901	0	4,03310537	0	0	0	1,4283586192186976	-0,05329398053163808	0,45457457347928717
3	1	0	0	0	0	1	77214,2164	0	4,05902576	0	0	0	1,4297254562369587	-0,053344979058521312	0,4559414104975481
3	1	0	1	0	0	1	77531,1542	0	4,08290577	0	0	0	1,4309333561070902	-0,053390047426714566	0,4571493103676793
3	1	0	0	0	0	1	77854,0519	0	4,10911274	0	0	0	1,4323920858436611	-0,053444474594469024	0,45860804010424998
3	1	0	1	0	0	1	78174,1720	0	4,13362169	0	0	0	1,4336842504272421	-0,053492686992416179	0,45990020468783021
3	1	0	0	0	0	1	78495,3515	0	4,15856981	0	0	0	1,4349949229936214	-0,053541589948085805	0,46121087725420922
1	1	0	0	0	0	1	78813,4771	0,100000001	4,1905942	0,00019640870133000941	0,20927943328171498	0,000877005165	1,4360692662883741	-0,053581675140882944	0,46228522054896179
1	1	0	1	0	0	1	79128,3778	0,100000001	4,13985872	5,0634741290162003E-005	0,20961949407789402	0,000867795083	1,4369339689268539	-0,05361393835892969	0,46314992318744179
1	1	0	0	0	0	1	79445,7175	0,100000001	4,09080219	3,7763799861487418E-005	0,2086398283443447	0,000853504287	1,437942453431565	-0,053651566271722304	0,46415840769215264
1	1	0	1	0	0	1	79766,5896	0,100000001	4,03901768	2,8205622388256922E-005	0,20463576146425136	0,000826527481	1,4391463379837483	-0,053696484823004256	0,465362292244336
1	1	0	0	0	0	1	80087,5212	0,100000001	3,99017096	1,5335118998669914E-005	0,20477166828160218	0,000817073975	1,4403515540207301	-0,053741453053774246	0,46656750828131712
3	1	0	1	0	0	1	80250,1207	0	3,95372176	0	0	0	1,4416827170634179	-0,053791120536664672	0,46789867132400486
3	1	0	0	0	0	1	80476,3655	0	3,9782691	0	0	0	1,4429931236953437	-0,053840013569962278	0,46920907795593024
3	1	0	1	0	0	1	80782,3402	0	4,0038085	0	0	0	1,4443850778793942	-0,053891949252071514	0,47060103213998144
3	1	0	0	0	0	1	81093,8691	0	4,02864218	0	0	0	1,4456094411668947	-0,053937631892502093	0,47182539542748205
3	1	0	1	0	0	1	81411,8061	0	4,05467701	0	0	0	1,4469453063694054	-0,053987474819297645	0,47316126062999251
3	1	0	0	0	0	1	81731,4916	0	4,07991123	0	0	0	1,4482896632634803	-0,054037634582522643	0,47450561752406707
3	1	0	1	0	0	1	82050,5157	0	4,10449696	0	0	0	1,4495453987461226	-0,05408448776173433	0,47576135300670854
3	1	0	0	0	0	1	82368,7712	0	4,12891054	0	0	0	1,4507222690251434	-0,05412839837416352	0,47693822328572922
3	1	0	1	0	0	1	82687,8706	0	4,15483141	0	0	0	1,4519131906032611	-0,054172833259454182	0,4781291448638473
1	1	0	1	0	0	1	83009,3463	0,100000001	4,2000165	0,00021990552189408077	0,20931205769517962	0,000879114086	1,4531798596413526	-0,054220094384320013	0,47939581390193869
1	1	0	0	0	0	1	83319,2176	0,100000001	4,15261889	6,0269664151387085E-005	0,21180285284534787	0,000879536499	1,4537583112668592	-0,054241677192204141	0,47997426552744512
1	1	0	1	0	0	1	83635,2341	0,100000001	4,10064411	4,108269718289376E-005	0,20860048706793232	0,000855396385	1,4546908491002291	-0,054276471432577632	0,48090680336081536
1	1	0	0	0	0	1	83952,5623	0,100000001	4,05011845	2,7731404385632941E-005	0,2078989580465711	0,000842015434	1,4556980369480723	-0,054314050965359123	0,48191399120865862
1	1	0	1	0	0	1	84272,2016	0,100000001	4,00171041	2,0823235965023437E-005	0,21405958699699482	0,000856604485	1,4568310881354528	-0,054356326628563814	0,48304704239603898
3	1	0	0	0	0	1	84549,4115	0	3,94840026	0	0	0	1,4579846104967562	-0,054399366098791354	0,48420056475734234
3	1	0	1	0	0	1	84663,1521	0	3,97321463	0	0	0	1,4591423956365082	-0,05444256461901417	0,48535834989709446
3	1	0	0	0	0	1	84960,1690	0	3,99923062	0	0	0	1,4603318714012595	-0,05448694555906423	0,48654782566184589
3	1	0	1	0	0	1	85272,3211	0	4,02396917	0	0	0	1,4615951399506714	-0,054534079807125408	0,48781109421125754
3	1	0	0	0	0	1	85587,3747	0	4,04994678	0	0	0	1,4628425838116954	-0,054580623614786323	0,48905853807228166
3	1	0	1	0	0	1	85903,8148	0	4,07478046	0	0	0	1,4640372181146746	-0,054625197026833376	0,49025317237526086
3	1	0	0	0	0	1	86219,8739	0	4,09915638	0	0	0	1,4651414561307309	-0,054666397631876237	0,49135741039131693
3	1	0	1	0	0	1	86536,7900	0	4,12458086	0	0	0	1,466269577566312	-0,054708489359413178	0,49248553182689837
3	1	0	0	0	0	1	86855,2188	0	4,14981508	0	0	0	1,4674341576347619	-0,0547519414075616	0,49365011189534848
3	1	0	1	0	0	1	87175,6731	0	4,20055056	0	0	0	1,4686596530169482	-0,054797666287967034	0,4948756072775351
1	1	0	1	0	0	1	87487,4298	0,100000001	4,16299486	6,5174918317132518E-005	0,20434572541708506	0,00085069018	1,4693340601969363	-0,05482282932660249	0,49555001445752358
1	1	0	0	0	0	1	87803,2715	0,100000001	4,11304188	4,7668477670600019E-005	0,20527100563919171	0,000844288268	1,470250397871672	-0,054857019117275981	0,49646635213225946
1	1	0	1	0	0	1	88120,5335	0,100000001	4,06219196	2,8940462544974355E-005	0,20721099822631978	0,000841730856	1,4712394993074557	-0,054893923821706086	0,49745545356804282
1	1	0	0	0	0	1	88438,2748	0,100000001	4,01311636	2,4546744204229779E-005	0,21060128786184246	0,000845167495	1,4722640708545478	-0,0549321519636792	0,49848002511513542
1	1	0	1	0	0	1	88756,0237	0,100000001	3,97234631	7,4032147725423181E-009	0,13325785957635302	0,000529346347	1,4732940206128448	-0,05497058077394343	0,49950997487343245
3	1	0	0	0	0	1	88852,0347	0	3,96388769	0	0	0	1,4743707034813408	-0,055010753259382534	0,50058665774192845
3	1	0	1	0	0	1	89128,5962	0	3,98856878	0	0	0	1,4754650008366829	-0,055051582965008781	0,50168095509727014
3	1	0	0	0	0	1	89434,9998	0	4,01431799	0	0	0	1,4766351583961882	-0,055095243116847501	0,50285111265677549
3	1	0	1	0	0	1	89746,6569	0	4,03978062	0	0	0	1,4777696696716896	-0,055137573257903098	0,50398562393227686
3	1	0	0	0	0	1	90060,7054	0	4,06440449	0	0	0	1,478869580996376	-0,055178612428273658	0,5050855352569632
3	1	0	1	0	0	1	90376,2363	0	4,08424091	0	0	0	1,4799390502947395	-0,055218515765712358	0,50615500455532736
3	1	0	0	0	0	1	90693,5167	0	4,10428715	0	0	0	1,4810494286588739	-0,055259945475397798	0,50726538291946144
3	1	0	1	0	0	1	91012,0544	0	4,12572527	0	0	0	1,4822023641962522	-0,055302963050435693	0,5084183184568393
3	1	0	0	0	0	1	91330,0887	0	4,14535189	0	0	0	1,4833146872589341	-0,05534446531943863	0,50953064151952166
3	1	0	1	0	0	1	91648,0846	0	4,16520739	0	0	0	1,4844064602733917	-0,055385200838512467	0,51062241453397958
1	1	0	1	0	0	1	91966,5828	0,100000001	4,19511461	0,00016488125036201542	0,20259834893636845	0,000849923294	1,4854606454149542	-0,055424533903511168	0,51167659967554202
1	1	0	0	0	0	1	92279,2695	0,100000001	4,15427828	6,9315513589729869E-005	0,20376931843753965	0,000846514478	1,48617927021872	-0,055451346761140992	0,51239522447930765
1	1	0	1	0	0	1	92595,2896	0,100000001	4,11464405	3,6339179477757882E-005	0,20804878619130355	0,000856046681	1,487092668412001	-0,055485426875809235	0,51330862267258835
1	1	0	0	0	0	1	92912,8019	0,100000001	4,07462788	3,3912036443750067E-005	0,20442625574389696	0,000832960941	1,4880969261416464	-0,055522897081941184	0,51431288040223379
1	1	0	1	0	0	1	93229,3417	0,100000001	4,03506994	2,7042732105073002E-005	0,20495549180609635	0,000827009731	1,489040935590943	-0,055558119343728646	0,51525688985153082
1	1	0	0	0	0	1	93546,9522	0,100000001	3,99486303	1,270554906833503E-005	0,2062217647134688	0,000823827693	1,4900517036477434	-0,055595832458919968	0,5162676579083305
3	1	0	1	0	0	1	93798,2769	0	3,95410323	0	0	0	1,4911107720799043	-0,05563534772605655	0,51732672634049139
3	1	0	0	0	0	1	93941,5277	0	3,97563696	0	0	0	1,4922288082118499	-0,055677063157355008	0,51844476247243654
3	1	0	1	0	0	1	94236,0812	0	3,99408102	0	0	0	1,4932273973297584	-0,055714321859961517	0,51944335159034406
3	1	0	0	0	0	1	94541,3445	0	4,0135169	0	0	0	1,4941893827452112	-0,055750214829215213	0,52040533700579725
3	1	0	1	0	0	1	94851,8999	0	4,03478384	0	0	0	1,4952087501496672	-0,05578824879762951	0,52142470441025235
3	1	0	0	0	0	1	95165,0988	0	4,05486774	0	0	0	1,4962379684943514	-0,055826650317868467	0,52245392275493651
3	1	0	1	0	0	1	95479,3089	0	4,07451344	0	0	0	1,4972466964361421	-0,055864287313625811	0,52346265069672691
3	1	0	0	0	0	1	95793,7309	0	4,09484577	0	0	0	1,4982390503604502	-0,055901313372775789	0,52445500462103565
3	1	0	1	0	0	1	96109,1156	0	4,11458683	0	0	0	1,4992423695840934	-0,05593874856198697	0,52545832384467885
3	1	0	0	0	0	1	96425,8667	0	4,13568163	0	0	0	1,500297148080617	-0,055978103765857024	0,52651310234120205
3	1	0	1	0	0	1	96743,0784	0	4,15647173	0	0	0	1,5013547538795856	-0,056017564460182669	0,52757070814017037
3	1	0	0	0	0	1	97060,0672	0	4,19963503	0	0	0	1,502365544611207	-0,056055278421402067	0,52858149887179219
1	1	0	0	0	0	1	97372,7397	0,100000001	4,17749071	7,7639931049197926E-005	0,2059718633823377	0,000860445551	1,5030920160676198	-0,05608238404819209	0,52930797032820531
1	1	0	1	0	0	1	97686,0012	0,100000001	4,13743639	4,5704939542545216E-005	0,2083284649358295	0,000861945795	1,5038580902448189	-0,056110967305741062	0,53007404450540454
1	1	0	0	0	0	1	98001,2609	0,100000001	4,09597111	3,5675846414847507E-005	0,21075332748776979	0,000863239518	1,5047348309335795	-0,05614367967962912	0,53095078519416563
1	1	0	1	0	0	1	98316,7651	0,100000001	4,057271	2,6414445422175856E-005	0,20726248054797962	0,000840920024	1,5056310050905315	-0,056177117142343962	0,53184695935111712
1	1	0	0	0	0	1	98632,0852	0,100000001	4,01687384	2,3284869521856307E-005	0,20626365678478029	0,000828535063	1,5065153756567555	-0,056210114197218656	0,53273132991734138
1	1	0	1	0	0	1	98947,5329	0,100000001	3,97579122	9,8770881692568461E-009	0,17778757860216637	0,000706846302	1,507416257133465	-0,056243727296362707	0,53363221139405069
3	1	0	0	0	0	1	99066,3143	0	3,96510839	0	0	0	1,5084269231397293	-0,056281436603911328	0,5346428774003159
3	1	0	1	0	0	1	99327,3008	0	3,98505926	0	0	0	1,5094095083348214	-0,056318098178640058	0,53562546259540832
3	1	0	0	0	0	1	99628,4077	0	4,00537252	0	0	0	1,5104180932876742	-0,056355729839287898	0,53663404754826125
3	1	0	1	0	0	1	99936,2961	0	4,02530432	0	0	0	1,511406130644505	-0,0563925948415016	0,5376220849050912
3	1	0	0	0	0	1	100247,3798	0	4,04519749	0	0	0	1,5123865973263203	-0,056429177371651603	0,53860255158690618
3	1	0	1	0	0	1	100560,7695	0	4,0607996	0	0	0	1,5133587691790694	-0,056465450410576634	0,53957472343965549
3	1	0	0	0	0	1	100874,2633	0	4,08109379	0	0	0	1,5143525711909984	-0,05650253049982272	0,54056852545158406
3	1	0	1	0	0	1	101188,5184	0	4,09558964	0	0	0	1,5153181565861386	-0,056538557789158771	0,54153411084672454
3	1	0	0	0	0	1	101504,3367	0	4,11149693	0	0	0	1,5163288275315203	-0,056576267280992499	0,5425447817921063
3	1	0	1	0	0	1	101818,7542	0	4,12564898	0	0	0	1,5172447988702342	-0,05661044340317648	0,54346075313082074
3	1	0	0	0	0	1	102134,4264	0	4,13631105	0	0	0	1,518195786256097	-0,056645926021159162	0,54441174051668326
3	1	0	1	0	0	1	102449,8109	0	4,15115023	0	0	0	1,5191336573330755	-0,056680919252022304	0,54534961159366189
3	1	0	0	0	0	1	102765,4460	0	4,16141176	0	0	0	1,5200636339319226	-0,056715617929292128	0,5462795881925081
3	1	0	1	0	0	1	103081,9181	0	4,19992113	0	0	0	1,5210246195120963	-0,056751473593347264	0,54724057377268218
1	1	0	1	0	0	1	103396,0475	0,100000001	4,19030809	9,5313851754698483E-005	0,21035430861060269	0,000881449378	1,5218484529838045	-0,05678221192783257	0,54806440724439008
1	1	0	0	0	0	1	103708,1322	0,100000001	4,15977144	5,8393042583432461E-005	0,20751727898768435	0,000863224443	1,5225480020193315	-0,056808313042901773	0,54876395627991802
1	1	0	1	0	0	1	104021,9697	0,100000001	4,13169527	3,8987045973539354E-005	0,20954523618788109	0,000865777081	1,5233472282311398	-0,056838133247435405	0,54956318249172589
1	1	0	0	0	0	1	104335,7718	0,100000001	4,11163044	4,0858126744627955E-005	0,20923085531568982	0,00086027995	1,5241582291038893	-0,056868392780399962	0,55037418336447565
1	1	0	1	0	0	1	104651,2356	0,100000001	4,08977222	3,2757606061382426E-005	0,20602272871685802	0,000842586043	1,5250497458461613	-0,056901656468711142	0,55126570010674758
1	1	0	0	0	0	1	104966,6965	0,100000001	4,07060337	2,943930516019463E-005	0,20531097231597171	0,000835739542	1,5259400319165222	-0,056934874238998662	0,55215598617710906
1	1	0	1	0	0	1	105281,8952	0,100000001	4,05029011	2,4747551297148067E-005	0,20518472163562096	0,000831057667	1,5268151793901331	-0,056967527167887373	0,55303113365072019
1	1	0	0	0	0	1	105597,0105	0,100000001	4,02988195	2,6308643206540083E-005	0,20751783065071482	0,000836272375	1,5276871630326832	-0,057000062049985389	0,55390311729327002
1	1	0	1	0	0	1	105912,7155	0,100000001	4,01044607	2,1837686186035478E-005	0,2052628947442281	0,000823195791	1,5285886622759011	-0,057033698198828474	0,55480461653648806
1	1	0	0	0	0	1	106228,0610	0,100000001	3,99019003	2,6316903883384333E-006	0,1982026670741496	0,000790866325	1,5294735231588858	-0,057066713548080742	0,55568947741947341
3	1	0	1	0	0	1	106543,3887	0,100000001	3,98160481	0	0	0	1,5303521232433283	-0,05709949529852167	0,5565680775039161
3	1	0	0	0	0	1	106700,5179	0	3,96545172	0	0	0	1,5312639844817254	-0,057133518067336742	0,55747993874231315
3	1	0	1	0	0	1	106947,6198	0	3,97559881	0	0	0	1,5321700240110838	-0,057167323620360205	0,55838597827167123
3	1	0	0	0	0	1	107241,2981	0	3,98616552	0	0	0	1,5330880652165174	-0,057201576972054458	0,5593040194771047
3	1	0	1	0	0	1	107545,6437	0	3,99606442	0	0	0	1,5339973022503261	-0,057235501828268051	0,56021325651091302
3	1	0	0	0	0	1	107854,2408	0	4,00592566	0	0	0	1,5349184114295699	-0,057269869650190112	0,56113436569015693
3	1	0	1	0	0	1	108164,2539	0	4,01540518	0	0	0	1,5358127203467018	-0,057303237518299424	0,56202867460728864
3	1	0	0	0	0	1	108475,0133	0	4,02614355	0	0	0	1,5367102341660602	-0,057336724965619846	0,56292618842664698
3	1	0	1	0	0	1	108786,7434	0	4,0350318	0	0	0	1,5375814505767517	-0,05736923122126567	0,56379740483733856
3	1	0	0	0	0	1	109098,0203	0	4,04628468	0	0	0	1,5384417988491376	-0,057401331972058944	0,56465775310972442
3	1	0	1	0	0	1	109410,7058	0	4,05500126	0	0	0	1,5393034773408899	-0,057433482355125274	0,56551943160147667
3	1	0	0	0	0	1	109724,6910	0	4,06104755	0	0	0	1,540186271442424	-0,057466420589982803	0,56640222570301114
3	1	0	1	0	0	1	110037,7483	0	4,07071781	0	0	0	1,5410542789113818	-0,057498807115698074	0,56727023317196832
3	1	0	0	0	0	1	110351,4504	0	4,0815897	0	0	0	1,5419325254584314	-0,057531575675183546	0,56814847971901792
3	1	0	1	0	0	1	110664,7885	0	4,0900774	0	0	0	1,5427774995704339	-0,057563102795382131	0,56899345383102042
3	1	0	0	0	0	1	110978,9295	0	4,09583759	0	0	0	1,5436441131889856	-0,057595437314664691	0,56986006744957165
3	1	0	1	0	0	1	111293,2708	0	4,10142612	0	0	0	1,5445078540266272	-0,057627664646629018	0,57072380828721306
3	1	0	0	0	0	1	111606,7081	0	4,10608006	0	0	0	1,5453401274653757	-0,057658717887632256	0,5715560817259616
3	1	0	1	0	0	1	111920,8244	0	4,11092472	0	0	0	1,546189300822496	-0,057690401687312141	0,57240525508308192
3	1	0	0	0	0	1	112234,7676	0	4,11601734	0	0	0	1,547024269391953	-0,057721555487265754	0,57324022365253926
3	1	0	1	0	0	1	112549,3469	0	4,12179613	0	0	0	1,5479022208293974	-0,057754313035815066	0,57411817508998342
3	1	0	0	0	0	1	112863,3124	0	4,12597322	0	0	0	1,5487332778612765	-0,057785320891042534	0,57494923212186246
3	1	0	1	0	0	1	113175,7069	0	4,12961626	0	0	0	1,5494875344762582	-0,05781346321945632	0,57570348873684429
3	1	0	0	0	0	1	113490,1969	0	4,13665438	0	0	0	1,550352621684711	-0,057845740786325811	0,57656857594529715
3	1	0	1	0	0	1	113804,1972	0	4,14157534	0	0	0	1,5511873885129123	-0,057876887059041946	0,57740334277349837
3	1	0	0	0	0	1	114118,1859	0	4,14647722	0	0	0	1,5520088515169885	-0,057907536948192781	0,57822480577757427
3	1	0	1	0	0	1	114432,0794	0	4,15151262	0	0	0	1,5528276026662598	-0,057938085654394714	0,57904355692684557
3	1	0	0	0	0	1	114746,9354	0	4,15803576	0	0	0	1,553695123644673	-0,057970454028493683	0,57991107790525901
3	1	0	1	0	0	1	115060,4557	0	4,16146898	0	0	0	1,5544961705885504	-0,058000342166988813	0,58071212484913626
3	1	0	0	0	0	1	115374,3260	0	4,16698122	0	0	0	1,5553114842618368	-0,058030762616340019	0,58152743852242227
3	1	0	1	0	0	1	115688,4197	0	4,17246199	0	0	0	1,5561277787947654	-0,058061219662883264	0,58234373305535066
3	1	0	0	0	0	1	116002,6645	0	4,19969225	0	0	0	1,5569462609497181	-0,058091758332545498	0,58316221521030387
1	1	0	0	0	0	1	116316,8300	0,100000001	4,20053148	3,3246719193955264E-005	0,21191256540316278	0,000890145428	1,5577680734676163	-0,058122421262526963	0,58398402772820224
1	1	0	1	0	0	1	116630,5941	0,100000001	4,19864321	9,0084390312433242E-005	0,20453070212939187	0,000858751417	1,558555969020737	-0,058151818704950746	0,5847719232813225
1	1	0	0	0	0	1	116942,7739	0,100000001	4,18853426	7,3130312701480256E-005	0,2098765844298424	0,000879075262	1,5592683660391629	-0,058178399195536179	0,58548432029974797
1	1	0	1	0	0	1	117255,2432	0,100000001	4,17916918	6,2153902232646938E-005	0,21021617859788202	0,000878528983	1,5599919734466976	-0,058205397960811814	0,58620792770728294
1	1	0	0	0	0	1	117568,6823	0,100000001	4,17054796	5,813235095929769E-005	0,20765678966050499	0,000866042625	1,5607659890246918	-0,058234277522701798	0,58698194328527706
1	1	0	1	0	0	1	117882,6504	0,100000001	4,16925097	5,5799557534770829E-005	0,2082073535594593	0,000868068717	1,5615711574782624	-0,058264319440264998	0,58778711173884749
1	1	0	0	0	0	1	118195,6672	0,100000001	4,15952349	5,3091821250816192E-005	0,2100336283829577	0,00087363983	1,5623254064494061	-0,058292461483476902	0,58854136070999091
1	1	0	1	0	0	1	118508,5717	0,100000001	4,1486516	4,6691746696001952E-005	0,21000790640251965	0,000871249649	1,5630733464114826	-0,058320368129077952	0,58928930067206758
1	1	0	0	0	0	1	118822,3814	0,100000001	4,14798403	4,1821722660627635E-005	0,20472972175062806	0,000849215605	1,5638734693103645	-0,058350221790211917	0,59008942357094938
1	1	0	1	0	0	1	119136,0645	0,100000001	4,13953447	3,8519608907815482E-005	0,2086527610989624	0,00086372532	1,5646592864902387	-0,058379541685735462	0,59087524075082381
1	1	0	0	0	0	1	119449,4413	0,100000001	4,13957262	3,9824165357483757E-005	0,21366174320829136	0,000884468318	1,5654433510365584	-0,05840879618814464	0,59165930529714394
1	1	0	1	0	0	1	119763,2406	0,100000001	4,14039278	4,3494857037232986E-005	0,20883105185105962	0,000864642556	1,5662395375443888	-0,05843850297723593	0,59245549180497408
1	1	0	0	0	0	1	120077,6541	0,100000001	4,14014482	4,8790294989115667E-005	0,20562526803979408	0,000851318415	1,5670671525214576	-0,058469382404770547	0,59328310678204288
1	1	0	1	0	0	1	120392,1302	0,100000001	4,15076876	4,5959181927558451E-005	0,21195630754155514	0,000879781612	1,5679077223662067	-0,058500745195836301	0,59412367662679283
1	1	0	0	0	0	1	120706,7126	0,100000001	4,1615262	5,5194654690308698E-005	0,20876318890412691	0,000868773495	1,5687579559924227	-0,058532468555581709	0,59497391025300877
1	1	0	1	0	0	1	121021,4319	0,100000001	4,17110109	5,5513622581958765E-005	0,20874147473684909	0,000870681775	1,5696109060460426	-0,058564293268885798	0,59582686030662861
1	1	0	0	0	0	1	121335,9978	0,100000001	4,18086672	5,7858844256649408E-005	0,20754472741401878	0,000867716852	1,570458300820297	-0,058595910707247629	0,59667425508088282
1	1	0	1	0	0	1	121651,7721	0,100000001	4,192101	6,7628052082326682E-005	0,20876440108131056	0,000875161437	1,5713603064746358	-0,058629565750970509	0,59757626073522112
1	1	0	0	0	0	1	121966,0865	0,100000001	4,20053148	6,8631020022349235E-005	0,20706648536382266	0,000869789277	1,5721848983184147	-0,058660332381337434	0,59840085257900019
3	1	0	0	0	0	1	122279,3268	0	4,19988298	0	0	0	1,5729494841329069	-0,058688860106072678	0,59916543839349235
3	1	0	1	0	0	1	122592,7069	0	4,17278242	0	0	0	1,5737136400068205	-0,058717371789146893	0,59992959426740557
3	1	0	0	0	0	1	122906,4988	0	4,16724825	0	0	0	1,5744993246427485	-0,058746686739277606	0,60071527890333363
3	1	0	1	0	0	1	123220,6008	0	4,16330004	0	0	0	1,5752944247469318	-0,058776352993188147	0,60151037900751667
3	1	0	0	0	0	1	123533,9555	0	4,15773058	0	0	0	1,5760520123947744	-0,05880461960691657	0,60226796665535782
3	1	0	1	0	0	1	123847,6226	0	4,15218019	0	0	0	1,5768189186915654	-0,058833233911966336	0,60303487295214912
3	1	0	1	0	0	1	123854,9962	0	3,93123412	0	0	0	1,5768189186915654	-0,058833233911966336	0,60303487295214912
3	1	0	0	0	0	1	124166,3681	0	4,10220814	0	0	0	1,577598896321311	-0,058862335926023219	0,60381485058189478
3	1	0	1	0	0	1	124481,1399	0	4,09740162	0	0	0	1,578390067521352	-0,058891855587237734	0,60460602178193536
3	1	0	0	0	0	1	124795,5674	0	4,09299564	0	0	0	1,5791721718352109	-0,058921036950738253	0,60538812609579456
3	1	0	1	0	0	1	125110,5317	0	4,08803654	0	0	0	1,5799756295668666	-0,058951015038966733	0,60619158382744947
3	1	0	0	0	0	1	125424,5290	0	4,0805788	0	0	0	1,5807098699877162	-0,05897841053626537	0,60692582424829888
3	1	0	1	0	0	1	125739,4694	0	4,07184315	0	0	0	1,5814527961701107	-0,059006130111005402	0,60766875043069338
3	1	0	0	0	0	1	126053,1235	0	4,0664072	0	0	0	1,582172525443857	-0,059032984177895168	0,60838847970443866
3	1	0	1	0	0	1	126367,4258	0	4,06223011	0	0	0	1,5829237229515741	-0,059061012366903872	0,60913967721215578
3	1	0	0	0	0	1	126681,6107	0	4,05648899	0	0	0	1,5836563416804595	-0,059088347356694963	0,60987229594104166
3	1	0	1	0	0	1	126996,0915	0	4,05116749	0	0	0	1,5843814854368774	-0,059115403445213056	0,6105974396974592
3	1	0	0	0	0	1	127312,6056	0	4,04170704	0	0	0	1,5851200899061421	-0,059142961771025587	0,6113360441667232
3	1	0	1	0	0	1	127629,6987	0	4,03218985	0	0	0	1,5858527042581469	-0,059170296597509363	0,61206865851872832
3	1	0	0	0	0	1	127945,4818	0	4,02728796	0	0	0	1,5865949556129517	-0,059197990993524698	0,6128109098735328
3	1	0	1	0	0	1	128261,5360	0	4,02232885	0	0	0	1,5873547582538189	-0,059226340251620954	0,61357071251440026
3	1	0	0	0	0	1	128582,9173	0	4,01105642	0	0	0	1,5880903656452051	-0,059253786752428237	0,61430631990578675
3	1	0	1	0	0	1	128906,0182	0	4,00213003	0	0	0	1,5888349094806902	-0,059281566683980032	0,6150508637412713
3	1	0	0	0	0	1	129240,0587	0	3,99101019	0	0	0	1,5895582648084384	-0,059308556043819891	0,61577421906901914
3	1	0	1	0	0	1	129606,8539	0	3,98145437	0	0	0	1,5902860581632182	-0,059335710992415283	0,61650201242379866
3	1	0	0	0	0	1	130095,1009	0,100000001	3,9950633	0	0	0	1,5909820228956675	-0,059361678372317517	0,61719797715624768
1	1	0	1	0	0	1	130407,4895	0,100000001	4,00634527	2,8534666138390701E-006	0,20710649724534291	0,000829740136	1,591694987709728	-0,059388280048121498	0,61791094197030784
1	1	0	0	0	0	1	130720,5994	0,100000001	4,02595282	2,091863095305032E-005	0,20803063385773642	0,000837521511	1,5924324856246611	-0,059415797086904141	0,61864843988524173
1	1	0	1	0	0	1	131033,6383	0,100000001	4,04594135	2,5299733243054816E-005	0,2069038200351472	0,000837120693	1,5931784348228669	-0,059443629454428557	0,61939438908344717
1	1	0	0	0	0	1	131346,8934	0,100000001	4,0673418	2,760232110155953E-005	0,20488317626562157	0,000833329919	1,593939367129105	-0,059472020861858662	0,62015532138968538
1	1	0	1	0	0	1	131660,2706	0,100000001	4,0881319	3,227753471872873E-005	0,20661292099631168	0,000844660855	1,5947006373574429	-0,059500424877616666	0,62091659161802317
1	1	0	0	0	0	1	131973,6318	0,100000001	4,10718632	3,018903264568912E-005	0,2050575482448016	0,000842209556	1,595463714633096	-0,059528896316739597	0,6216796688936759
1	1	0	1	0	0	1	132287,5105	0,100000001	4,12776613	3,389380266062087E-005	0,20618058543642333	0,000851065211	1,5962525619933853	-0,059558329272368538	0,62246851625396518
1	1	0	0	0	0	1	132601,4367	0,100000001	4,14861345	3,7967566652844346E-005	0,20443197489853155	0,000848109252	1,5970412303881434	-0,059587755550552896	0,6232571846487232
1	1	0	1	0	0	1	132914,9898	0,100000001	4,16917467	5,156234463138713E-005	0,20592901268071277	0,000858554034	1,5978171675874922	-0,05961670681071927	0,62403312184807142
1	1	0	0	0	0	1	133229,3706	0,100000001	4,18794298	6,5299506500777267E-005	0,20441581415174922	0,000856081781	1,5986334831569546	-0,059647164642163866	0,62484943741753434
1	1	0	1	0	0	1	133542,8307	0,100000001	4,20007372	1,0079237096425558E-005	0,20500140183363312	0,000861020992	1,5994092688215008	-0,059676110248363008	0,62562522308208077
3	1	0	1	0	0	1	133855,0321	0	4,17246199	0	0	0	1,6001035412953248	-0,059702014487820646	0,626319495555904
3	1	0	0	0	0	1	134167,8738	0	4,16312838	0	0	0	1,6008181592780342	-0,059728677845569626	0,62703411353861325
3	1	0	1	0	0	1	134480,4364	0	4,15233278	0	0	0	1,6015032702299971	-0,059754240256328845	0,627719224490576
3	1	0	0	0	0	1	134793,1207	0	4,14254808	0	0	0	1,6021851508585504	-0,059779682139378406	0,62840110511912883
3	1	0	1	0	0	1	135106,2503	0	4,13306856	0	0	0	1,602872393613881	-0,059805324090587507	0,62908834787445965
3	1	0	0	0	0	1	135419,9754	0	4,11761951	0	0	0	1,6035562761430816	-0,059830840667241818	0,6297722304036599
3	1	0	1	0	0	1	135733,6878	0	4,10192204	0	0	0	1,6042214941617648	-0,059855660845914035	0,63043744842234266
3	1	0	0	0	0	1	136048,7493	0	4,0881319	0	0	0	1,6049282697786317	-0,059882031594449254	0,63114422403920947
3	1	0	1	0	0	1	136363,8621	0	4,07258701	0	0	0	1,6056022576253722	-0,059907178987197453	0,63181821188595008
3	1	0	0	0	0	1	136681,6388	0	4,05252171	0	0	0	1,6062781628204163	-0,059932397918788749	0,63249411708099418
3	1	0	1	0	0	1	137002,4146	0	4,03297186	0	0	0	1,6069601093252845	-0,059957842259772211	0,63317606358586253
3	1	0	0	0	0	1	137331,0929	0	4,01065588	0	0	0	1,6076112468101798	-0,059982137074797312	0,63382720107075891
3	1	0	1	0	0	1	137683,8611	0	3,99188757	0	0	0	1,6082556196613379	-0,060006179492242534	0,63447157392191718
1	1	0	0	0	0	1	138209,1378	0,100000001	4,0005455	9,8770881692568461E-009	0,17778768208821261	0,000711247732	1,6089046754076768	-0,060030396634803174	0,63512062966825613
1	1	0	1	0	0	1	138521,5393	0,100000001	4,04033375	2,2310523679686915E-005	0,20343939319215536	0,000821963069	1,6096191947570765	-0,060057056312410752	0,63583514901765594
1	1	0	0	0	0	1	138835,0973	0,100000001	4,08118916	2,9456136427819731E-005	0,2063878446761968	0,000842307811	1,6103939885659376	-0,060085964911140723	0,63660994282651674
1	1	0	1	0	0	1	139149,0628	0,100000001	4,12147188	3,4985738353596787E-005	0,20320851591302816	0,000837518193	1,6111900756830512	-0,06011566799183072	0,63740602994363046
1	1	0	0	0	0	1	139463,5258	0,100000001	4,16236544	4,2610108133819373E-005	0,20306640821051533	0,000845236587	1,6120131115663264	-0,060146376567219251	0,63822906582690611
1	1	0	1	0	0	1	139778,4473	0,100000001	4,20041704	4,5326326352854573E-005	0,20628918979328237	0,000866500603	1,6128614942776259	-0,060178030866840525	0,63907744853820531
3	1	0	0	0	0	1	139933,6273	0	3,98576498	0	0	0	1,6128614942776259	-0,060178030866840525	0,63907744853820531