File: Experimentelles/Rohdaten/Batterietests/AlteZelle/Studenten_Batterietests/SemArbeitToph/ECLab-Export/Al_Struktur_01_01_GCPL_C03.mpt
EC-Lab ASCII FILE
Nb header lines : 68

Galvanostatic Cycling with Potential Limitation

Run on channel : 3 (SN 6987)
Grouped channel(s) : 3
User :
CE vs. WE compliance from -10 V to 10 V
Electrode connection : standard
Ewe ctrl range : min = -10,00 V, max = 10,00 V
Acquisition started on : 03.11.2015 16:50:59
Saved on :
	File : Al_Struktur_01_01_GCPL_C03.mpr
	Directory : C:\Hupfer\Studenten Batterietests\SemArbeitToph\
	Host : 192.168.0.2
Device : VMP3 (SN 0324)
Address : 192.168.0.1
EC-Lab for windows v10.33 (software)
Internet server v10.33 (firmware)
Command interpretor v10.32 (firmware)
Electrode material :
Initial state :
Electrolyte :
Comments :
Mass of active material : 0,001 mg
 at x = 0,000
Molecular weight of active material (at x = 0) : 0,001 g/mol
Atomic weight of intercalated ion : 0,001 g/mol
Acquisition started at : xo = 0,000
Number of e- transfered per intercalated ion : 1
for DX = 1, DQ = 26,801 mA.h
Battery capacity : 0,000 A.h
Electrode surface area : 0,001 cm²
Characteristic mass : 0,001 g
Ns                  0                   1
Set I/C             I                   I
Is                  0,000               100,000
unit Is             mA                  µA
vs.                 <None>              <None>
N                   1                   1
I sign              > 0                 > 0
t1 (h:m:s)          0:00:0,0000         10:00:0,0000
I Range             1 A                 1 A
Bandwidth           5                   5
dE1 (mV)            0,00                10,00
dt1 (s)             0,0000              10,0000
EM (V)              0,000               4,200
tM (h:m:s)          0:00:0,0000         1:00:0,0000
Im                  0,000               0,000
unit Im             mA                  mA
E range min (V)     -10,000             -10,000
E range max (V)     10,000              10,000
dq                  0,000               1,000
unit dq             mA.h                mA.h
dtq (s)             0,0000              120,0000
dQM                 0,000               0,000
unit dQM            mA.h                mA.h
dxM                 0,000               0,000
tR (h:m:s)          0:00:0,0000         0:15:0,0000
dER/dt (mV/h)       0,0                 0,1
dER (mV)            0,00                5,00
dtR (s)             1,0000              120,0000
EL (V)              pass                4,200
goto Ns'            0                   0
nc cycles           0                   0

mode	ox/red	error	control changes	Ns changes	counter inc.	Ns	time/s	control/V/mA	Ewe/V	dq/mA.h	<I>/mA	P/W	(Q-Qo)/mA.h	x	Capacity/mA.h
1	1	1	1	1	0	1	0,0004	0,100000001	2,87895489	0	0	0	0	0	0
1	1	0	1	0	0	1	0,1720	0,100000001	2,90911341	3,954136170446873E-006	0,20811243528088198	0,000605422654	7,0715605289571827E-006	-2,6384943114964397E-007	7,0715605289571827E-006
1	1	0	1	0	0	1	0,3906	0,100000001	2,93967247	4,3345496046046413E-006	0,20805838627701971	0,000611623516	1,9717403793914451E-005	-7,3568284588229965E-007	1,9717403793914451E-005
1	1	0	1	0	0	1	0,6234	0,100000001	2,97002172	4,2276418966551622E-006	0,20848645496487366	0,000619209313	3,3162145161794291E-005	-1,2373242229649198E-006	3,3162145161794291E-005
1	1	0	1	0	0	1	0,8704	0,100000001	3,00056171	4,802211943599913E-006	0,20980538147682496	0,000629534014	4,7350973074220954E-005	-1,7667284694595808E-006	4,7350973074220954E-005
1	1	0	1	0	0	1	1,1178	0,100000001	3,03079653	4,6994996956653062E-006	0,20938365509634611	0,000634599244	6,1603405139926413E-005	-2,2985058724297677E-006	6,1603405139926413E-005
1	1	0	1	0	0	1	1,3806	0,100000001	3,06105065	4,9975188999540275E-006	0,20584746561015008	0,000630109513	7,6664492719703245E-005	-2,8604552998788598E-006	7,6664492719703245E-005
1	1	0	1	0	0	1	1,6706	0,100000001	3,09132361	5,5955655831429696E-006	0,20430057411963344	0,000631559175	9,3304778618531098E-005	-3,4813267398664672E-006	9,3304778618531098E-005
1	1	0	1	0	0	1	1,9666	0,100000001	3,12161565	5,7188840765092109E-006	0,2071225673594503	0,000646557019	0,00011023148620915083	-4,1128849582728896E-006	0,00011023148620915083
1	1	0	1	0	0	1	2,2878	0,100000001	3,15179348	6,1749008778068762E-006	0,20853324316766218	0,000657253724	0,00012881260043548214	-4,8061713126310893E-006	0,00012881260043548214
1	1	0	1	0	0	1	2,6186	0,100000001	3,181952	6,3473903859655066E-006	0,20735577102296445	0,000659796118	0,00014781054463444483	-5,5150101537020262E-006	0,00014781054463444483
1	1	0	1	0	0	1	2,9594	0,100000001	3,21212983	6,880850708319081E-006	0,21099713096864038	0,000677750155	0,00016764113194412653	-6,2549160287344576E-006	0,00016764113194412653
1	1	0	1	0	0	1	3,3310	0,100000001	3,24223137	7,651932667526935E-006	0,21092617380544922	0,000683871447	0,00018919865343429974	-7,059256139928727E-006	0,00018919865343429974
1	1	0	1	0	0	1	3,7126	0,100000001	3,27254248	7,3917685304250982E-006	0,20986094149656765	0,000686778862	0,00021125464390135472	-7,8821947988491226E-006	0,00021125464390135472
1	1	0	1	0	0	1	4,1266	0,100000001	3,30300617	7,9283568163712832E-006	0,20772987816572298	0,000686133048	0,00023520959101079235	-8,7759860832711757E-006	0,00023520959101079235
1	1	0	1	0	0	1	4,5604	0,100000001	3,33345079	8,1799859450095232E-006	0,2079657496183056	0,000693243579	0,0002604443988315761	-9,7175306916245786E-006	0,0002604443988315761
1	1	0	1	0	0	1	5,0214	0,100000001	3,36351395	9,3113488600485862E-006	0,20794576143289686	0,000699428492	0,00028710139622829021	-1,0712139105210165E-005	0,00028710139622829021
1	1	0	1	0	0	1	5,4980	0,100000001	3,39395857	9,4328751452267187E-006	0,20936098261822624	0,000710562512	0,00031471802222356192	-1,1742552552042312E-005	0,00031471802222356192
1	1	0	1	0	0	1	6,0144	0,100000001	3,42409825	1,0422465710590283E-005	0,21008330070538698	0,000719345873	0,0003448335223454567	-1,2866202352310758E-005	0,0003448335223454567
1	1	0	1	0	0	1	6,5264	0,100000001	3,45421886	1,0126640333483616E-005	0,21269490152563987	0,000734694768	0,00037490605516524768	-1,398824898476756E-005	0,00037490605516524768
1	1	0	1	0	0	1	7,0836	0,100000001	3,48462534	1,1398337012777725E-005	0,21108032038377677	0,00073553581	0,00040755496441283149	-1,5206423685720262E-005	0,00040755496441283149
1	1	0	1	0	0	1	7,6706	0,100000001	3,51468849	1,1834664365483656E-005	0,20925733198442413	0,000735474343	0,00044170602357346144	-1,6480645619590749E-005	0,00044170602357346144
1	1	0	1	0	0	1	8,2916	0,100000001	3,54479003	1,2644782394998605E-005	0,20823978852679626	0,000738166331	0,00047767663559565926	-1,7822757517141181E-005	0,00047767663559565926
1	1	0	1	0	0	1	8,9576	0,100000001	3,57510114	1,3119870810872981E-005	0,2089890978420871	0,000747157144	0,00051634635535337843	-1,9265576753292858E-005	0,00051634635535337843
1	1	0	1	0	0	1	9,6538	0,100000001	3,60522175	1,3768959351297882E-005	0,20985713343298819	0,000756581489	0,00055674661765123398	-2,0772964858356214E-005	0,00055674661765123398
1	1	0	1	0	0	1	10,3642	0,100000001	3,63536143	1,4090180188003515E-005	0,21047572596773898	0,000765155361	0,0005982244332503113	-2,2320557925873974E-005	0,0005982244332503113
1	1	0	1	0	0	1	11,1784	0,100000001	3,66572976	1,6810049107919136E-005	0,20882049108790941	0,000765479461	0,00064543262784017446	-2,4081959138114458E-005	0,00064543262784017446
1	1	0	1	0	0	1	12,0288	0,100000001	3,69592643	1,7136670411874851E-005	0,2099796291396217	0,000776069239	0,00069457928217823296	-2,5915686889846954E-005	0,00069457928217823296
1	1	0	1	0	0	1	12,9294	0,100000001	3,72621846	1,7368562008357712E-005	0,20814522240229101	0,000775594555	0,00074674126637230323	-2,7861920652661357E-005	0,00074674126637230323
1	1	0	1	0	0	1	13,9542	0,100000001	3,75641537	2,1796863215665024E-005	0,20758917872666778	0,000779791153	0,00080611887329568474	-3,0077379001014304E-005	0,00080611887329568474
1	1	0	1	0	0	1	15,2290	0,100000001	3,78666925	2,8271695470230448E-005	0,20771042094685885	0,000786530669	0,000879896060972992	-3,2830105067738451E-005	0,000879896060972992
1	1	0	1	0	0	1	17,2194	0,100000001	3,81682801	4,6017353290071091E-005	0,21146601484457757	0,000807129429	0,00099577458512410522	-3,7153688604149222E-005	0,00099577458512410522
1	1	0	1	0	0	1	39,3104	0,100000001	3,82971501	0,00057502526666720704	0,20700910122968429	0,000792785839	0,0022704391431175168	-8,4713137067608794E-005	0,0022704391431175168
1	1	0	1	0	0	1	69,3104	0,100000001	3,82841873	0,00057460268681330816	0,2068569724784376	0,000791935134	0,0039918117995034483	-0,00014893986528751933	0,0039918117995034483
1	1	0	1	0	0	1	99,3104	0,100000001	3,82847595	0,00057608224700101549	0,20738961415946787	0,000793986139	0,0057207378508065722	-0,00021344842082743773	0,0057207378508065722
1	1	0	1	0	0	1	129,3104	0,100000001	3,82838058	0,00057407861734264422	0,20666830746423251	0,000791204919	0,0074402150866772134	-0,00027760442835950285	0,0074402150866772134
1	1	0	1	0	0	1	159,3104	0,100000001	3,83160233	0,00058055911810116634	0,20900128779623654	0,000800809823	0,0091886155282869491	-0,00034283959958535725	0,0091886155282869491
1	1	0	1	0	0	1	189,3104	0,100000001	3,83560562	0,0005827084408957097	0,20977504402181885	0,000804614334	0,01093127524883693	-0,00040786057678999053	0,01093127524883693
1	1	0	1	0	0	1	219,3104	0,100000001	3,83894181	0,00057786733725956749	0,2080322466687809	0,000798623718	0,012676411746786074	-0,00047297396588944934	0,012676411746786074
1	1	0	1	0	0	1	249,3104	0,100000001	3,84277344	0,00057911527420042291	0,20848150397883802	0,000801147195	0,014420230291072893	-0,00053803818036575923	0,014420230291072893
1	1	0	1	0	0	1	279,3104	0,100000001	3,8378551	0,00057836559285968538	0,20821161868935466	0,000799086003	0,016156870281610838	-0,00060283455335003046	0,016156870281610838
1	1	0	1	0	0	1	309,3104	0,100000001	3,83781695	0,00058614318435556365	0,21101155169860304	0,000809823687	0,01790428729694481	-0,00066803303161930534	0,01790428729694481
1	1	0	1	0	0	1	339,3104	0,100000001	3,83918953	0,00058788937631953101	0,21164018082151181	0,000812526792	0,019658288425111728	-0,00073347717199081126	0,019658288425111728
1	1	0	1	0	0	1	369,3104	0,100000001	3,84084821	0,00057792816061526541	0,20805414307738528	0,000799104397	0,02140495964844007	-0,00079864782375762829	0,02140495964844007
1	1	0	1	0	0	1	399,3104	0,100000001	3,84122944	0,00057337455304629274	0,20641484431114294	0,000792886771	0,023126973423992384	-0,00086289847299563034	0,023126973423992384
1	1	0	1	0	0	1	429,3104	0,100000001	3,84370756	0,00058027056149641677	0,20889740741590243	0,000802940573	0,024862930921281168	-0,00092766938123915341	0,024862930921281168
1	1	0	1	0	0	1	459,3104	0,100000001	3,84527087	0,00057623748751398592	0,20744550074554906	0,00079768413	0,026593002004559459	-0,00099222065946157722	0,026593002004559459
1	1	0	1	0	0	1	489,3104	0,100000001	3,84835911	0,00058373854576382362	0,21014588178370803	0,00080871681	0,028334334930289325	-0,0010571921321675774	0,028334334930289325
1	1	0	1	0	0	1	519,3104	0,100000001	3,84999871	0,00058345317174784013	0,21004314713535862	0,00080866582	0,030091690883154042	-0,0011227614455591683	0,030091690883154042
1	1	0	1	0	0	1	549,3104	0,100000001	3,85001779	0,00057990668333611546	0,2087664112748847	0,000803754374	0,031845380469129926	-0,0011881939618726538	0,031845380469129926
1	1	0	1	0	0	1	579,3104	0,100000001	3,85379243	0,00058227348436291021	0,20961845966605539	0,000807826058	0,033593032997769402	-0,0012534012274600082	0,033593032997769402
1	1	0	1	0	0	1	609,3104	0,100000001	3,8554318	0,00058266353083236352	0,20975887639860579	0,000808711047	0,035345988108202195	-0,001318806339503468	0,035345988108202195
1	1	0	1	0	0	1	639,3104	0,100000001	3,85585117	0,00058537652898538445	0,2107355557583663	0,000812564918	0,037101856367665235	-0,001384320145054017	0,037101856367665235
1	1	0	1	0	0	1	662,2494	0,100000001	3,86086488	0,0005839164183181193	0,2102099159048721	0,000811592094	0,038440666802165613	-0,0014342729624149998	0,038440666802165613
1	1	0	1	0	0	1	692,2494	0,100000001	3,86288571	0,00059282984802209664	0,21341875067936592	0,000824412215	0,040206644092120019	-0,0015001639494849178	0,040206644092120019
1	1	0	1	0	0	1	722,2494	0,100000001	3,86442971	0,00058748377077778189	0,21149416282279341	0,000817304302	0,04197380460619367	-0,0015660990842375866	0,04197380460619367
1	1	0	1	0	0	1	752,2494	0,100000001	3,86599302	0,00058204433612608243	0,20953596629871344	0,000810064608	0,043733869313358214	-0,0016317694648940627	0,043733869313358214
1	1	0	1	0	0	1	782,2494	0,100000001	3,86637425	0,00058253764089279706	0,20971355601921696	0,000810831087	0,045475865282851571	-0,0016967656766543507	0,045475865282851571
1	1	0	1	0	0	1	812,2494	0,100000001	3,86683178	0,00057923550634582848	0,20852478755227744	0,000806330296	0,047214984880301683	-0,0017616545671063814	0,047214984880301683
1	1	0	1	0	0	1	842,2494	0,100000001	3,86898613	0,00059071129074734118	0,21265607004118704	0,000822763366	0,048981486593533306	-0,0018275651211138672	0,048981486593533306
1	1	0	1	0	0	1	872,2494	0,100000001	3,869596	0,00057992330344435238	0,20877239451400118	0,000807864824	0,050728325434520832	-0,0018927420269209126	0,050728325434520832
1	1	0	1	0	0	1	902,2494	0,100000001	3,87053013	0,00057778989419879181	0,20800436716619734	0,000805087155	0,052466685095606995	-0,0019576025631254595	0,052466685095606995
1	1	0	1	0	0	1	932,2494	0,100000001	3,87119746	0,00057754235773036877	0,20791525403531389	0,000804880983	0,054199501003495514	-0,0020222562544445466	0,054199501003495514
1	1	0	1	0	0	1	962,2494	0,100000001	3,87321806	0,00058126671859166682	0,20925602397925187	0,000810494239	0,05593669087817271	-0,0020870731443453808	0,05593669087817271
1	1	0	1	0	0	1	992,2494	0,100000001	3,87459064	0,00057892396413286515	0,20841263235277741	0,000807513657	0,057675183148115866	-0,0021519386283646765	0,057675183148115866
1	1	0	1	0	0	1	1022,2494	0,100000001	3,8764019	0,00058265080035891802	0,20975429342804963	0,00081309193	0,05941415316274679	-0,002216821937680607	0,05941415316274679
1	1	0	1	0	0	1	1052,2494	0,100000001	3,87952828	0,00057842641594757645	0,20823351500154854	0,000807847828	0,061157556906759322	-0,0022818706754009782	0,061157556906759322
1	1	0	1	0	0	1	1082,2494	0,100000001	3,88151073	0,0005870215846800969	0,21132777582342358	0,000820271031	0,06290840053239465	-0,0023471970051077238	0,06290840053239465
1	1	0	1	0	0	1	1112,2494	0,100000001	3,88406539	0,00058985092511110835	0,21234633840431872	0,000824767048	0,064672388690890944	-0,0024130137750085238	0,064672388690890944
1	1	0	1	0	0	1	1142,2494	0,100000001	3,88623857	0,00058731332414721446	0,21143280203423907	0,000821678317	0,066433893706363098	-0,0024787378955044723	0,066433893706363098
1	1	0	1	0	0	1	1172,2494	0,100000001	3,89205313	0,00058221938009560102	0,20959898212933203	0,000815770356	0,068182543099251469	-0,0025439823554372506	0,068182543099251469
1	1	0	1	0	0	1	1202,2494	0,100000001	3,89455032	0,00058418305013370176	0,21030590336090666	0,000819046923	0,069941566739577382	-0,0026096138924902486	0,069941566739577382
1	1	0	1	0	0	1	1232,2494	0,100000001	3,89649487	0,00057892856114854426	0,20841428727846365	0,000812085229	0,071682960135016179	-0,0026745876214023914	0,071682960135016179
1	1	0	1	0	0	1	1262,2494	0,100000001	3,8968761	0,0005835472355874048	0,21007701011845738	0,000818644068	0,073426903508420211	-0,0027396564934208989	0,073426903508420211
1	1	0	1	0	0	1	1292,2494	0,100000001	3,89721918	0,00058777197359916237	0,21159791584111142	0,000824643474	0,075181484932555098	-0,0028051222854151859	0,075181484932555098
1	1	0	1	0	0	1	1322,2494	0,100000001	3,89866805	0,00058994428158013363	0,2123799467340168	0,000827998912	0,076938438815221389	-0,0028706765970270845	0,076938438815221389
1	1	0	1	0	0	1	1352,2494	0,100000001	3,8993926	0,00058856196795817882	0,21188231381754182	0,000826212345	0,07870433158878711	-0,0029365644306769069	0,07870433158878711
1	1	0	1	0	0	1	1382,2494	0,100000001	3,8998692	0,00058612444235922573	0,21100480457975094	0,000822891132	0,080468362889677875	-0,0030023828102784506	0,080468362889677875
1	1	0	1	0	0	1	1412,2494	0,100000001	3,90143228	0,00058896615948610829	0,21202782277127229	0,000827212178	0,082240468118422323	-0,0030685024389837261	0,082240468118422323
1	1	0	1	0	0	1	1442,2494	0,100000001	3,90185165	0,00058099301395192742	0,20915749030645651	0,000816101499	0,083986327422729562	-0,0031336427969602291	0,083986327422729562
1	1	0	1	0	0	1	1472,2494	0,100000001	3,90541673	0,00058575950296057587	0,21087342639291814	0,000823548588	0,08573027221044544	-0,0031987117217486131	0,08573027221044544
1	1	0	1	0	0	1	1502,2494	0,100000001	3,90549278	0,00058653075564942438	0,21115107736791763	0,000824649003	0,087486147542252493	-0,0032642257911778259	0,087486147542252493
1	1	0	1	0	0	1	1532,2494	0,100000001	3,90858126	0,0005904824964308905	0,212573704085184	0,000830861623	0,089239843140065011	-0,0033296585318010195	0,089239843140065011
1	1	0	1	0	0	1	1551,9544	0,100000001	3,91267991	0,00058961718012889229	0,21226219020859517	0,000830514007	0,090407574901071462	-0,0033732281738362208	0,090407574901071462
1	1	0	1	0	0	1	1581,9544	0,100000001	3,9119935	0,0005885177651755511	0,21186640081539389	0,00082881999	0,092174408312862707	-0,0034391511039629395	0,092174408312862707
1	1	0	1	0	0	1	1611,9544	0,100000001	3,91227961	0,00058467529394601779	0,21048311113781702	0,000823468785	0,093931786190136602	-0,0035047212353837146	0,093931786190136602
1	1	0	1	0	0	1	1641,9544	0,100000001	3,91313744	0,00058341957730096243	0,21003105313417715	0,000821880356	0,095679701814384666	-0,0035699383174219603	0,095679701814384666
1	1	0	1	0	0	1	1671,9544	0,100000001	3,9143002	0,00057713958046688794	0,20777025421679776	0,000813275168	0,097414402180588429	-0,003634662320414471	0,097414402180588429
1	1	0	1	0	0	1	1701,9544	0,100000001	3,91662598	0,00058799829231161216	0,21167939057965158	0,000829069002	0,099170474834182131	-0,0037001837521848461	0,099170474834182131
1	1	0	1	0	0	1	1731,9544	0,100000001	3,91837978	0,00059297023648934234	0,21346929052885114	0,00083645375	0,10094779494622592	-0,0037664979551975053	0,10094779494622592
1	1	0	1	0	0	1	1761,9544	0,100000001	3,91902804	0,00059134922719581248	0,21288572716843834	0,00083430513	0,10272818274083686	-0,0038329266175712883	0,10272818274083686
1	1	0	1	0	0	1	1791,9544	0,100000001	3,92139196	0,00059332350633955661	0,21359646767814102	0,000837595493	0,10450052030006294	-0,0038990549148392045	0,10450052030006294
1	1	0	1	0	0	1	1821,9544	0,100000001	3,92331743	0,00059094644999752448	0,21274072737339158	0,000834649429	0,10627916791394512	-0,0039654186487303002	0,10627916791394512
1	1	0	1	0	0	1	1851,9544	0,100000001	3,92322206	0,00058942657706182861	0,21219357310271882	0,000832482532	0,10804914256185371	-0,0040314587825999936	0,10804914256185371
1	1	0	1	0	0	1	1881,9544	0,100000001	3,9263103	0,00059089658940210931	0,21272277755858874	0,000835215615	0,10982880542862659	-0,0040978603969414624	0,10982880542862659
1	1	0	1	0	0	1	1911,9544	0,100000001	3,92787361	0,00059828448827771674	0,21538242122099565	0,000845994917	0,11160986440015371	-0,0041643141018283955	0,11160986440015371
1	1	0	1	0	0	1	1941,9544	0,100000001	3,92903638	0,00058758137040088576	0,2115292986879984	0,000831106328	0,11337745456554902	-0,0042302652674495462	0,11337745456554902
1	1	0	1	0	0	1	1971,9544	0,100000001	3,93113351	0,00058999131366734694	0,21239687828584138	0,00083496049	0,1151510177832179	-0,004296439295681881	0,1151510177832179
1	1	0	1	0	0	1	2001,9543	0,100000001	3,93344021	0,00058630408320162035	0,21106947528464675	0,000830229139	0,11692327719182101	-0,0043625646770449805	0,11692327719182101
1	1	0	1	0	0	1	2031,9543	0,100000001	3,93443155	0,00058621426266969907	0,21103713989233821	0,000830311154	0,11867884098145485	-0,0044280671224168371	0,11867884098145485
1	1	0	1	0	0	1	2061,9543	0,100000001	3,9378438	0,0005842711023795936	0,21033760217022845	0,000828276621	0,12044019110995358	-0,0044937854638715597	0,12044019110995358
1	1	0	1	0	0	1	2091,9543	0,100000001	3,93894958	0,00058771645462554368	0,21157792901010374	0,000833394821	0,12219741056399125	-0,0045593496843083885	0,12219741056399125
1	1	0	1	0	0	1	2121,9543	0,100000001	3,94177103	0,00058946017156292992	0,21220566712342083	0,000836466148	0,12395482910821418	-0,0046249213330677088	0,12395482910821418
1	1	0	1	0	0	1	2151,9543	0,100000001	3,94449711	0,00058767366625989478	0,21156252519808106	0,000834507751	0,1257115333335544	-0,0046904663296291034	0,1257115333335544
1	1	0	1	0	0	1	2181,9543	0,100000001	3,94752812	0,00058518274342517056	0,21066579295492698	0,000831609126	0,12746731530900874	-0,0047559769158072774	0,12746731530900874
1	1	0	1	0	0	1	2211,9543	0,100000001	3,94760442	0,00058034552987333798	0,2089243960322759	0,000824750867	0,12921508311877808	-0,0048211884826885843	0,12921508311877808
1	1	0	1	0	0	1	2241,9543	0,100000001	3,94848132	0,00058173880583047872	0,20942597538951747	0,000826914562	0,13096187528215344	-0,0048863636468911616	0,13096187528215344
1	1	0	1	0	0	1	2271,9543	0,100000001	3,95059752	0,0005875495443339977	0,21151784130362928	0,000835621846	0,13271890519399232	-0,0049519207952537114	0,13271890519399232
1	1	0	1	0	0	1	2301,9543	0,100000001	3,95261812	0,000582682979920672	0,20976587807057373	0,000829124416	0,13446717267315914	-0,0050171510054720499	0,13446717267315914
1	1	0	1	0	0	1	2331,9543	0,100000001	3,95618296	0,00058971230475438963	0,21229643507463933	0,00083988352	0,13622599050497261	-0,0050827748635327366	0,13622599050497261
1	1	0	1	0	0	1	2361,9543	0,100000001	3,9592905	0,00057990703682228915	0,20876653852991046	0,000826567353	0,13796678663048806	-0,005147726307501001	0,13796678663048806
1	1	0	1	0	0	1	2391,9543	0,100000001	3,96030068	0,00058086181993948096	0,20911026046078262	0,000828139484	0,13971492185487802	-0,0052129515831157971	0,13971492185487802
1	1	0	1	0	0	1	2421,9543	0,100000001	3,9632175	0,00058781723701746931	0,21161421067211354	0,00083867315	0,14146105238810552	-0,0052781020610079866	0,14146105238810552
1	1	0	1	0	0	1	2451,9543	0,100000001	3,96510482	0,00058378557756957082	0,2101628132342047	0,000833317579	0,14320507603391717	-0,0053431739280979488	0,14320507603391717
1	1	0	1	0	0	1	2481,9543	0,100000001	3,967278	0,00058587266260592461	0,21091416386627283	0,000836755149	0,14496064654247962	-0,0054086766241620672	0,14496064654247962
1	1	0	1	0	0	1	2511,9543	0,100000001	3,97048068	0,00058589776984643597	0,21092320247308525	0,000837466505	0,14670949148859418	-0,0054739283804486381	0,14670949148859418
1	1	0	1	0	0	1	2541,9543	0,100000001	3,97282553	0,0005853439955860375	0,21072384373430557	0,000837169064	0,14846956362211686	-0,0055395990381925222	0,14846956362211686
1	1	0	1	0	0	1	2571,9543	0,100000001	3,97501802	0,00058159382027594586	0,20937378058856707	0,000832264544	0,15021292033448714	-0,0056046460210990867	0,15021292033448714
1	1	0	1	0	0	1	2601,9543	0,100000001	3,97728658	0,00057967152368898202	0,20868175379977802	0,000829987112	0,15195705537149994	-0,0056697220443445318	0,15195705537149994
1	1	0	1	0	0	1	2631,9543	0,100000001	3,9806416	0,00057533963804402278	0,20712227492819699	0,000824479561	0,15370033357922384	-0,0057347660981371878	0,15370033357922384
1	1	0	1	0	0	1	2661,9543	0,100000001	3,98403502	0,00058934701191758118	0,21216492965006618	0,000845272501	0,15546088876236291	-0,0058004547791117261	0,15546088876236291
1	1	0	1	0	0	1	2691,9543	0,100000001	3,9879241	0,00059264985392325453	0,21335395280214579	0,000850839366	0,15723570309959498	-0,0058666754882971098	0,15723570309959498
1	1	0	1	0	0	1	2721,9543	0,100000001	3,99146986	0,00058151708374751936	0,20934615543763568	0,000835598854	0,15899865301960605	-0,0059324535201241011	0,15899865301960605
1	1	0	1	0	0	1	2751,9543	0,100000001	3,99514914	0,00058519229136159027	0,2106692302121249	0,000841655012	0,16074327888599683	-0,0059975478568735654	0,16074327888599683
1	1	0	1	0	0	1	2781,9543	0,100000001	3,99676943	0,00058361407024537523	0,21010107059593459	0,000839725544	0,16250039614292589	-0,0060631082641988659	0,16250039614292589
1	1	0	1	0	0	1	2811,9543	0,100000001	4,00136375	0,00058474389699680934	0,21050780823672589	0,000842318288	0,16425934410813597	-0,0061287369777115469	0,16425934410813597
1	1	0	1	0	0	1	2841,9543	0,100000001	4,00515747	0,00058729139943503667	0,21142490913765565	0,000846790033	0,16601128184378458	-0,0061941041301339328	0,16601128184378458
1	1	0	1	0	0	1	2871,9543	0,100000001	4,00799799	0,00059038029934176141	0,21253691313216813	0,000851847522	0,16777870545290515	-0,0062600490813165376	0,16777870545290515
1	1	0	1	0	0	1	2901,9543	0,100000001	4,01198244	0,00058688119647983053	0,21127723607005088	0,000847640564	0,16953576931308378	-0,0063256074963372877	0,16953576931308378
1	1	0	1	0	0	1	2931,9543	0,100000001	4,01541376	0,00058849195059264691	0,2118571075653136	0,000850693963	0,1713015185154056	-0,0063914899731509658	0,1713015185154056
1	1	0	1	0	0	1	2961,9543	0,100000001	4,02126646	0,00059283373779141248	0,21342015099635498	0,000858219282	0,17307470300211968	-0,006457649870422167	0,17307470300211968
1	1	0	1	0	0	1	2991,9543	0,100000001	4,02734756	0,00059310249184485926	0,21351690245804	0,000859906781	0,17485929078130179	-0,0065242352398672397	0,17485929078130179
1	1	0	1	0	0	1	3021,9543	0,100000001	4,03262854	0,00059289880463729306	0,21344357506146374	0,000860738626	0,1766354036227639	-0,0065905043979913037	0,1766354036227639
1	1	0	1	0	0	1	3051,9543	0,100000001	4,03773737	0,00058969073356191322	0,21228866944515162	0,000857165898	0,17840002971767475	-0,0066563449701574451	0,17840002971767475
1	1	0	1	0	0	1	3081,9543	0,100000001	4,04429531	0,00059775122410555686	0,21519044611416835	0,000870293705	0,1801855358563455	-0,0067229646048297869	0,1801855358563455
1	1	0	1	0	0	1	3111,9543	0,100000001	4,05230188	0,00059142490268374477	0,21291297034478218	0,000862787652	0,18196152104027904	-0,0067892289998798221	0,18196152104027904
1	1	0	1	0	0	1	3141,9543	0,100000001	4,05476093	0,00058527256364706483	0,21069812823562576	0,000854330545	0,18372586671156896	-0,0068550591090636339	0,18372586671156896
1	1	0	1	0	0	1	3171,9543	0,100000001	4,0588789	0,00058721254145436813	0,21139652026389782	0,000858032901	0,18548740319966714	-0,0069207844038455744	0,18548740319966714
1	1	0	1	0	0	1	3201,9543	0,100000001	4,0637784	0,00058551302768248653	0,21078469529056442	0,000856582308	0,18725267465734918	-0,0069866490553644096	0,18725267465734918
1	1	0	1	0	0	1	3231,9543	0,100000001	4,07582664	0,000588874924644	0,21199497822728362	0,000864054775	0,18901071416364342	-0,0070522438730535027	0,18901071416364342
1	1	0	1	0	0	1	3261,9543	0,100000001	4,08478642	0,00059145778963963187	0,21292480964920061	0,000869752374	0,19078193533412016	-0,0071183305163561805	0,19078193533412016
1	1	0	1	0	0	1	3291,9543	0,100000001	4,08945704	0,00058396981538459661	0,21022913884928954	0,000859723019	0,19253979873646362	-0,0071839187633700966	0,19253979873646362
1	1	0	1	0	0	1	3321,9543	0,100000001	4,09708261	0,00058601269723847514	0,21096457633526451	0,000864339294	0,19430347924223648	-0,0072497240543341427	0,19430347924223648
1	1	0	1	0	0	1	3351,9543	0,100000001	4,10268736	0,00058885547539219264	0,21198797649645606	0,000869720418	0,19606905092608624	-0,0073155999076949517	0,19606905092608624
1	1	0	1	0	0	1	3381,9543	0,100000001	4,10720539	0,00058223635380508173	0,20960509266489942	0,000860891188	0,19782269383361466	-0,0073810306823728026	0,19782269383361466
1	1	0	1	0	0	1	3411,9543	0,100000001	4,1141634	0,00058662305125759706	0,2111843037876992	0,000868846721	0,19957585722767379	-0,0074464435657584026	0,19957585722767379
1	1	0	1	0	0	1	3441,9543	0,100000001	4,11856699	0,00058327918899100685	0,20998051334131642	0,000864818809	0,20132999167166138	-0,007511892680322423	0,20132999167166138
1	1	0	1	0	0	1	3471,9543	0,100000001	4,126688	0,00058835509840109286	0,21180784077510957	0,000874064863	0,20309561463059514	-0,0075777704468255565	0,20309561463059514
1	1	0	1	0	0	1	3501,9543	0,100000001	4,13364649	0,00058802481426671142	0,21168893848372848	0,000875047233	0,2048590430034919	-0,0076435663303729997	0,2048590430034919
1	1	0	1	0	0	1	3531,9543	0,100000001	4,14180565	0,00058781440845421619	0,21161319238931674	0,00087646069	0,20662239110370877	-0,0077093592188388262	0,20662239110370877
1	1	0	1	0	0	1	3561,9543	0,100000001	4,15002203	0,0005909637777093385	0,21274696534980224	0,000882904569	0,20838497078028019	-0,0077751234363852851	0,20838497078028019
1	1	0	1	0	0	1	3591,9543	0,100000001	4,15833378	0,00058518769434011648	0,21066757528435251	0,000876026112	0,21015346799016112	-0,0078411084450557312	0,21015346799016112
1	1	0	1	0	0	1	3621,9543	0,100000001	4,16641665	0,00058974589886557722	0,21230852895497235	0,000884565816	0,21191364691792374	-0,0079067830874362918	0,21191364691792374
1	1	0	1	0	0	1	3651,9543	0,100000001	4,17400408	0,00059057868180175616	0,21260833081957043	0,000887428061	0,21368256600006867	-0,0079727838367281203	0,21368256600006867
1	1	0	1	0	0	1	3681,9543	0,100000001	4,18250656	0,0005925395232931607	0,21331423377430867	0,000892188167	0,21545828490549315	-0,0080390382965689677	0,21545828490549315
1	1	0	1	0	0	1	3711,9543	0,100000001	4,19076109	0,00058980919754339584	0,21233131647956275	0,000889829826	0,21722894876532451	-0,0081051041458621542	0,21722894876532451
1	1	0	1	0	0	1	3741,9543	0,100000001	4,19720602	0,00058845658832871245	0,21184437714997558	0,0008891545	0,2189946806404879	-0,008170985976176256	0,2189946806404879
2	1	0	0	0	0	1	3869,9193	4,20005465	4,19939852	0,0055019739333400768	0,16505894707170384	0,000693148293	0,22496283071615795	-0,008393665679762624	0,22496283071615795
2	1	0	0	0	0	1	4229,9197	4,20005465	4,19945574	0,0037888575970825946	0,11366572928865082	0,000477334193	0,23662406297351222	-0,0088287619339780326	0,23662406297351222
2	1	0	0	0	0	1	4589,9197	4,20005465	4,19947481	0,0035561295755007437	0,1066838885566648	0,000448016304	0,2472237925440959	-0,009224252095744489	0,2472237925440959
2	1	0	0	0	0	1	4949,9197	4,20005465	4,19945574	0,0033584293673519533	0,10075288224039325	0,000423107267	0,25750773504455958	-0,0096079598173445389	0,25750773504455958
2	1	0	0	0	0	1	5309,9197	4,20005465	4,19943666	0,003425982743132407	0,10277948353834331	0,000431615917	0,26765521888986637	-0,0099865760830500685	0,26765521888986637
2	1	0	0	0	0	1	5669,9197	4,20005465	4,19932222	0,0034296331976352442	0,10288899717475432	0,000432064058	0,27786331483973171	-0,01036745386787052	0,27786331483973171
2	1	0	0	0	0	1	6029,9197	4,20005465	4,19947481	0,0033148824198739475	0,099446473800236122	0,00041762297	0,2875939241413815	-0,010730515983858424	0,2875939241413815
2	1	0	0	0	0	1	6389,9197	4,20005465	4,19947481	0,0032960353562096525	0,098881061883461709	0,000415248534	0,29740246354440563	-0,011096485776706741	0,29740246354440563
2	1	0	0	0	0	1	6749,9197	4,20005465	4,19955111	0,0031423453512502477	0,094270361678856922	0,000395893207	0,30708883351082419	-0,011457897263616746	0,30708883351082419
2	1	0	0	0	0	1	7109,9197	4,20005465	4,19943666	0,0032483036309950464	0,097449110109686643	0,000409231376	0,31676753620991802	-0,01181902267447412	0,31676753620991802
3	1	0	1	0	0	1	7349,9193	4,20005465	4,19953203	0	0	0	0,32340360056697146	-0,012066623157919203	0,32340360056697146
3	1	0	1	0	0	1	7709,9193	0	4,19402266	0	0	0	0,32340360056697146	-0,012066623157919203	0,32340360056697146
3	1	0	1	0	0	1	8069,9192	0	4,19028616	0	0	0	0,32340360056697146	-0,012066623157919203	0,32340360056697146
1	1	0	1	0	0	1	8249,9194	0,100000001	4,20174646	0	0	0	0,32340360056697146	-0,012066623157919203	0,32340360056697146
2	1	0	0	0	0	1	8489,9198	4,20005465	4,19941759	0,0034048410202055232	0,10214523184285779	0,000428950472	0,33035047154673715	-0,012325820254341629	0,33035047154673715
2	1	0	0	0	0	1	8849,9198	4,20005465	4,19953203	0,0033848782722538259	0,10154634939705608	0,000426447135	0,34027099817950707	-0,012695968441300194	0,34027099817950707
2	1	0	0	0	0	1	9209,9198	4,20005465	4,19945574	0,0034577802018629152	0,1037334073118079	0,000435623864	0,35068881399477939	-0,013084671156270339	0,35068881399477939
2	1	0	0	0	0	1	9569,9198	4,20005465	4,19937944	0,003261806030145872	0,097854182089115686	0,000410926848	0,36052308904106035	-0,013451601180570506	0,36052308904106035
2	1	0	0	0	0	1	9929,9198	4,20005465	4,19953203	0,0032989414331201824	0,098968244191833152	0,000415620307	0,37045906439509549	-0,013822325780090501	0,37045906439509549
2	1	0	0	0	0	1	10289,9198	4,20005465	4,19932222	0,0024371323668176	0,073113971889732992	0,000307029113	0,37956074257987744	-0,014161921630501184	0,37956074257987744
2	1	0	0	0	0	1	10649,9198	4,20005465	4,19955111	0,0037084054530841664	0,11125216493947646	0,000467209145	0,38853615576570355	-0,014496806364035731	0,38853615576570355
2	1	0	0	0	0	1	11009,9198	4,20005465	4,19945574	0,0032327113170150874	0,096981340684624486	0,000407268846	0,39867314584027616	-0,014875031093046141	0,39867314584027616
2	1	0	0	0	0	1	11369,9198	4,20005465	4,19951296	0,0032865044990471277	0,098595136165124237	0,000414051552	0,40844729041871661	-0,015239717568744912	0,40844729041871661
2	1	0	0	0	0	1	11729,9198	4,20005465	4,19941759	0,0032992798498451789	0,098978396693705958	0,000415651622	0,41869953518281491	-0,015622242605183104	0,41869953518281491
3	1	0	1	0	0	1	11877,9240	0	4,20458364	0	0	0	0,42193112765838573	-0,015742817665368947	0,42193112765838573
3	1	0	1	0	0	1	12039,9698	0	4,19953203	0	0	0	0,42193112765838573	-0,015742817665368947	0,42193112765838573
3	1	0	1	0	0	1	12195,8672	0	4,19855976	0	0	0	0,42193112765838573	-0,015742817665368947	0,42193112765838573
3	1	0	1	0	0	1	12340,3108	0	4,19711065	0	0	0	0,42193112765838573	-0,015742817665368947	0,42193112765838573
3	1	0	1	0	0	1	12700,3108	0	4,19369841	0	0	0	0,42193112765838573	-0,015742817665368947	0,42193112765838573
2	1	0	0	0	0	1	12749,9204	4,19999981	4,20687103	0	0	0	0,42193112765838573	-0,015742817665368947	0,42193112765838573
2	1	0	0	0	0	1	13109,9204	4,20005465	4,19932222	0,003076671479364935	0,092300145498443763	0,000387598062	0,43151868859095616	-0,01610054245437592	0,43151868859095616
2	1	0	0	0	0	1	13469,9204	4,20005465	4,19937944	0,0035070929792960198	0,10521279065271221	0,000441828422	0,44150179522330016	-0,016473025585258294	0,44150179522330016
2	1	0	0	0	0	1	13829,9204	4,20005465	4,19947481	0,00295451972202328	0,088635592733826675	0,000372222945	0,45066920595521485	-0,016815074005380854	0,45066920595521485
2	1	0	0	0	0	1	14189,9204	4,20005465	4,19943666	0,0036564366109459398	0,10969309965645379	0,000460649229	0,461278678561072	-0,017210927692893014	0,461278678561072
2	1	0	0	0	0	1	14549,9204	4,20005465	4,19937944	0,0033817741662314573	0,10145322621525757	0,000426040584	0,47183431908084742	-0,017604772832895456	0,47183431908084742
2	1	0	0	0	0	1	14909,9204	4,20005465	4,19936037	0,0031345864958845651	0,094037596015091123	0,000394897768	0,48150695819980026	-0,017965672003425194	0,48150695819980026
2	1	0	0	0	0	1	15269,9204	4,20005465	4,19947481	0,0033269402716995296	0,099808209359383181	0,000419142074	0,49028051814028563	-0,018293025320981501	0,49028051814028563
2	1	0	0	0	0	1	15629,9204	4,20005465	4,19955111	0,0035092642271729549	0,10527792808980888	0,000442120043	0,50003436088209466	-0,018656954307859437	0,50003436088209466
2	1	0	0	0	0	1	15989,9204	4,20005465	4,19937944	0,0032824293451079475	0,098472881545468672	0,000413525006	0,50993747225614106	-0,019026452708099965	0,50993747225614106
2	1	0	0	0	0	1	16349,9201	4,20005465	4,1993413	0,0031805395195393229	0,095416345768642778	0,000400685793	0,51983769773195098	-0,019395843431597152	0,51983769773195098
3	1	0	1	0	0	1	16411,0559	0	4,19955111	0	0	0	0,51983769773195098	-0,019395843431597152	0,51983769773195098
3	1	0	1	0	0	1	16771,0559	0	4,19602394	0	0	0	0,51983769773195098	-0,019395843431597152	0,51983769773195098
3	1	0	1	0	0	1	16914,4909	0	4,20107603	0	0	0	0,51983769773195098	-0,019395843431597152	0,51983769773195098
3	1	0	1	0	0	1	17023,8073	0	4,19611931	0	0	0	0,51983769773195098	-0,019395843431597152	0,51983769773195098
3	1	0	1	0	0	1	17164,9241	0	4,2011714	0	0	0	0,51983769773195098	-0,019395843431597152	0,51983769773195098
2	1	0	0	0	0	1	17249,9209	4,19999981	4,21039438	0	0	0	0,51983769773195098	-0,019395843431597152	0,51983769773195098
2	1	0	0	0	0	1	17609,9209	4,20005465	4,19937944	0,0027501590357952515	0,082504772072758784	0,000346468849	0,52803470103881299	-0,019701684645964336	0,52803470103881299
2	1	0	0	0	0	1	17969,9209	4,20005465	4,19930315	0,0028846971484048474	0,086540915499913024	0,000363411527	0,53659449140135354	-0,020021061933151264	0,53659449140135354
2	1	0	0	0	0	1	18329,9209	4,20005465	4,19949389	0,0037891595915709619	0,11367478912341154	0,000477376569	0,54796661927588032	-0,020445371314138403	0,54796661927588032
2	1	0	0	0	0	1	18689,9209	4,20005465	4,19924593	0,003407988972814249	0,10223967042226294	0,000429329521	0,55839275479116723	-0,020834384448302045	0,55839275479116723
2	1	0	0	0	0	1	19049,9209	4,20005465	4,19941759	0,002783381241470265	0,083501438255076019	0,000350657414	0,5674841068129591	-0,021173595015687898	0,5674841068129591
2	1	0	0	0	0	1	19409,9209	4,20005465	4,19943666	0,002998768260869495	0,08996304891528489	0,000377794117	0,57654070084796902	-0,021511508715854304	0,57654070084796902
2	1	0	0	0	0	1	19769,9209	4,20005465	4,1993413	0,0026117395438180534	0,078352187263166694	0,000329027564	0,58430610718367552	-0,021801246466939373	0,58430610718367552
2	1	0	0	0	0	1	20129,9209	4,20005465	4,19943666	0,0026854558625681997	0,080563676852446016	0,000338322046	0,59222507725741389	-0,022096713887559056	0,59222507725741389
2	1	0	0	0	0	1	20489,9209	4,20005465	4,19941759	0,0028201113847539011	0,084603342566885018	0,000355284777	0,6007877998625504	-0,02241620058065968	0,6007877998625504
2	1	0	0	0	0	1	20849,9207	4,20005465	4,19947481	0,0030425065371534118	0,091275349345280128	0,000383308536	0,60990230078304218	-0,022756274864580054	0,60990230078304218
3	1	0	1	0	0	1	21089,9209	0	4,20235348	0	0	0	0,60990230078304218	-0,022756274864580054	0,60990230078304218
3	1	0	1	0	0	1	21449,9209	0	4,20284891	0	0	0	0,60990230078304218	-0,022756274864580054	0,60990230078304218
3	1	0	1	0	0	1	21749,8711	0	4,20326853	0	0	0	0,60990230078304218	-0,022756274864580054	0,60990230078304218
3	1	0	1	0	0	1	21749,9209	0	4,20334435	0	0	0	0,60990230078304218	-0,022756274864580054	0,60990230078304218