File: Experimentelles/Rohdaten/Batterietests/AlteZelle/Studenten_Batterietests/S vs Li GCPL 300µm/ECLab-Export/S vs Li GCPL 300µm_02_GCPL_C06_loop3.mpt
EC-Lab ASCII FILE
Nb header lines : 3
mode	ox/red	error	control changes	Ns changes	counter inc.	Ns	time/s	control/V/mA	Ewe/V	dq/mA.h	<I>/mA	P/W	(Q-Qo)/mA.h	x	Capacity/mA.h
1	0	0	1	1	0	1	219600,15	-0,200000003	2,32252717	0	0	0	0	0	0
1	0	0	1	0	0	1	219840,15	-0,200000003	2,27970672	-0,00055584281742572774	-0,20010338296464797	0,000456177018	-0,013337506622695978	0,00049764030456116179	0,013337506622695978
1	0	0	1	0	0	1	220080,15	-0,200000003	2,27204919	-0,00055584216431114406	-0,20010314784343462	0,000454644207	-0,026677749565760179	0,00099538270491428403	0,026677749565760179
1	0	0	1	0	0	1	220320,15	-0,200000003	2,2663157	-0,00055584884806970765	-0,20010555399614099	0,000453502347	-0,04001794905656151	0,0014931234840050563	0,04001794905656151
1	0	0	1	0	0	1	220560,15	-0,200000003	2,26054406	-0,00055585187561147744	-0,20010664391100762	0,000452349894	-0,053358250895817133	0,0019908680818542672	0,053358250895817133
1	0	0	1	0	0	1	220800,15	-0,200000003	2,25538206	-0,0005558545692273312	-0,2001076136125633	0,000451319123	-0,066698547072215078	0,0024886124684146442	0,066698547072215078
1	0	0	1	0	0	1	221040,15	-0,200000003	2,25022006	-0,00055585250702997056	-0,20010687122162957	0,000450284482	-0,08003900176989687	0,0029863627696172557	0,08003900176989687
1	0	0	1	0	0	1	221280,15	-0,200000003	2,24547696	-0,00055584999662141005	-0,20010596747468922	0,00044933334	-0,093379441717766067	0,003484112520484528	0,093379441717766067
1	0	0	1	0	0	1	221520,15	-0,200000003	2,24029589	-0,00055585088997665376	-0,20010628908252666	0,000448297302	-0,10671986130002704	0,0039818615114835757	0,10671986130002704
1	0	0	1	0	0	1	221760,15	-0,200000003	2,23477197	-0,00055585247460752723	-0,20010685954955181	0,00044719319	-0,12006029089793795	0,0044796108761799891	0,12006029089793795
1	0	0	1	0	0	1	222000,15	-0,200000003	2,22852397	-0,00055585038820654157	-0,2001061084453145	0,000445941259	-0,13340073174270555	0,0049773606605117472	0,13340073174270555
1	0	0	1	0	0	1	222240,15	-0,200000003	2,22174287	-0,00055585423892901997	-0,20010749470518982	0,000444587407	-0,14674115286233088	0,0054751097088719251	0,14674115286233088
1	0	0	1	0	0	1	222480,15	-0,200000003	2,21471405	-0,00055584789463960461	-0,20010521076135766	0,000443175813	-0,1600815635927425	0,0059728583695965722	0,1600815635927425
1	0	0	1	0	0	1	222720,15	-0,200000003	2,2063899	-0,00055585023293230266	-0,20010605254659725	0,000441511977	-0,17342189135833731	0,0064706039347923558	0,17342189135833731
1	0	0	1	0	0	1	222960,15	-0,200000003	2,19709444	-0,00055585352906584736	-0,20010723915448768	0,000439654512	-0,18676224985593619	0,0069683506466405325	0,18676224985593619
1	0	0	1	0	0	1	223200,15	-0,200000003	2,18680835	-0,00055584331356982387	-0,20010356157649462	0,00043758814	-0,20010258270151488	0,0074660964013773453	0,20010258270151488
1	0	0	1	0	0	1	223440,15	-0,200000003	2,17520809	-0,00055585080052746656	-0,20010625688082429	0,000435272756	-0,21344294498312717	0,0079638432544121472	0,21344294498312717
1	0	0	1	0	0	1	223680,15	-0,200000003	2,16275048	-0,00055584951359033581	-0,20010579358352966	0,000432778907	-0,22678333894397235	0,0084615912894417254	0,22678333894397235
1	0	0	1	0	0	1	223920,15	-0,200000003	2,14939761	-0,00055584554265273939	-0,20010436404621866	0,000430103828	-0,24012372048951267	0,008959338861239584	0,24012372048951267
1	0	0	1	0	0	1	224160,15	-0,200000003	2,13534021	-0,0005558495453563001	-0,20010580501927504	0,00042729397	-0,25346405672688864	0,0094570847425289139	0,25346405672688864
1	0	0	1	0	0	1	224400,15	-0,200000003	2,12095857	-0,0005558428535883625	-0,20010339598319446	0,000424411002	-0,26680435005742291	0,0099548290229062912	0,26680435005742291
1	0	0	1	0	0	1	224640,15	-0,200000003	2,10581541	-0,00055584518666151501	-0,20010423588939792	0,000421382574	-0,2801446715728183	0,010452574354898731	0,2801446715728183
1	0	0	1	0	0	1	224880,15	-0,200000003	2,0902338	-0,00055584207960632115	-0,20010311734970314	0,000418262294	-0,29348496851866099	0,010950318770168128	0,29348496851866099
1	0	0	1	0	0	1	225120,15	-0,200000003	2,07415724	-0,00055583938455250534	-0,20010214713048125	0,000415043323	-0,30682521216634074	0,011448061196811402	0,30682521216634074
1	0	0	1	0	0	1	225360,15	-0,200000003	2,05853772	-0,00055583582847399846	-0,20010086694241907	0,000411915185	-0,32016534522477933	0,011945799497221402	0,32016534522477933
1	0	0	1	0	0	1	225600,15	-0,200000003	2,04569912	-0,00055584394534428902	-0,20010378901526653	0,000409352157	-0,33350553248610432	0,012443539820013968	0,33350553248610432
1	0	0	1	0	0	1	225840,15	-0,200000003	2,03659415	-0,00055583863676422163	-0,20010187792674125	0,000407526328	-0,34684571410243123	0,012941279932184067	0,34684571410243123
1	0	0	1	0	0	1	226080,15	-0,200000003	2,03002238	-0,00055585452194097965	-0,20010759658947936	0,000406222913	-0,3601859867830681	0,013439023442086011	0,3601859867830681
1	0	0	1	0	0	1	226320,15	-0,200000003	2,02512693	-0,00055586256831139334	-0,20011049328237507	0,000405249157	-0,3735263578408832	0,013936770622572739	0,3735263578408832
1	0	0	1	0	0	1	226560,15	-0,200000003	2,02226973	-0,00055585220758782496	-0,20010676342247405	0,000404669845	-0,38686682052857082	0,01443452122189321	0,38686682052857082
1	0	0	1	0	0	1	226800,15	-0,200000003	2,02089834	-0,00055585320953610867	-0,20010712412379974	0,000404396153	-0,40020724246524	0,014932270300738397	0,40020724246524
1	0	0	1	0	0	1	227040,15	-0,200000003	2,02074599	-0,00055585123441947827	-0,20010641308192406	0,000404364226	-0,41354776177002131	0,015430023012518752	0,41354776177002131
1	0	0	1	0	0	1	227280,15	-0,200000003	2,02087927	-0,00055584802383515571	-0,20010525727174877	0,000404388556	-0,42688814771834496	0,015927770748590378	0,42688814771834496
1	0	0	1	0	0	1	227520,15	-0,200000003	2,02225065	-0,00055585153163969517	-0,20010652008118538	0,000404665538	-0,44022854755331539	0,016425519002791469	0,44022854755331539
1	0	0	1	0	0	1	227760,15	-0,200000003	2,02373648	-0,00055584830383708077	-0,20010535807242605	0,000404960505	-0,45356887665813158	0,016923264617955398	0,45356887665813158
1	0	0	1	0	0	1	228000,15	-0,200000003	2,0253365	-0,00055584851133492262	-0,20010543277163738	0,000405280851	-0,4669092143122809	0,017421010552106448	0,4669092143122809
1	0	0	1	0	0	1	228240,15	-0,200000003	2,02716517	-0,00055585379627843699	-0,2001073353510049	0,000405650615	-0,48024962198565466	0,017918759098768902	0,48024962198565466
1	0	0	1	0	0	1	228480,15	-0,200000003	2,02910805	-0,00055585215054783558	-0,20010674288808109	0,000406038191	-0,49359003613357882	0,018416507887005536	0,49359003613357882
1	0	0	1	0	0	1	228720,15	-0,200000003	2,03078437	-0,00055584843132810458	-0,20010540396918742	0,000406370935	-0,50693037339525568	0,018914253806512912	0,50693037339525568
1	0	0	1	0	0	1	228960,15	-0,200000003	2,03234625	-0,00055584998230718899	-0,20010596232157043	0,000406684616	-0,5202706790166992	0,019411998545480637	0,5202706790166992
1	0	0	1	0	0	1	229200,15	-0,200000003	2,03423214	-0,00055585119053969773	-0,20010639728520554	0,000407062878	-0,53361107514522963	0,019909746661389462	0,53361107514522963
1	0	0	1	0	0	1	229440,15	-0,200000003	2,0356226	-0,0005558433670807216	-0,20010358084041478	0,000407335378	-0,54695143576518368	0,020407493452425565	0,54695143576518368
1	0	0	1	0	0	1	229680,15	-0,200000003	2,0372417	-0,0005558456473209792	-0,20010440172677907	0,00040766102	-0,56029174357889702	0,020905238273189824	0,56029174357889702
1	0	0	1	0	0	1	229920,15	-0,200000003	2,03920364	-0,00055585186786701286	-0,20010664112300083	0,0004080582	-0,5736320361792471	0,02140298252632305	0,5736320361792471
1	0	0	1	0	0	1	230160,15	-0,200000003	2,04080367	-0,00055586065163711712	-0,20010980327974358	0,000408384833	-0,58697254347689037	0,021900734790100947	0,58697254347689037
1	0	0	1	0	0	1	230400,15	-0,200000003	2,04238462	-0,00055585160540789363	-0,20010654663773267	0,000408694526	-0,60031297295410266	0,02239848415029393	0,60031297295410266
1	0	0	1	0	0	1	230640,15	-0,200000003	2,04394674	-0,00055585348652054861	-0,20010722383818253	0,000409008499	-0,61365347314583565	0,022896236148940758	0,61365347314583565
1	0	0	1	0	0	1	230880,15	-0,200000003	2,04539442	-0,0005558491085014409	-0,20010564775155034	0,000409294968	-0,62699388850579238	0,023393984982399958	0,62699388850579238
1	0	0	1	0	0	1	231120,15	-0,200000003	2,04663253	-0,0005558424541503191	-0,20010325218552131	0,000409537839	-0,64033420237672589	0,023891730029167248	0,64033420237672589
1	0	0	1	0	0	1	231360,15	-0,200000003	2,04817533	-0,00055584254643403827	-0,20010328540765498	0,000409846602	-0,65367449693393638	0,024389474355313565	0,65367449693393638
1	0	0	1	0	0	1	231600,15	-0,200000003	2,04926109	-0,00055584049050758285	-0,20010254527424688	0,000410062348	-0,66701478573558669	0,024887218466712192	0,66701478573558669
1	0	0	1	0	0	1	231840,15	-0,200000003	2,05044222	-0,00055585155200130406	-0,20010652741136346	0,000410306879	-0,68035511731550989	0,025384964174225696	0,68035511731550989
1	0	0	1	0	0	1	232080,15	-0,200000003	2,05156589	-0,00055585220445526976	-0,20010676229475437	0,0004105322	-0,69369552016170957	0,025882712540779795	0,69369552016170957
1	0	0	1	0	0	1	232320,15	-0,200000003	2,05286121	-0,00055584849642299936	-0,20010542740334586	0,000410788663	-0,70703600610241331	0,026380464007701565	0,70703600610241331
1	0	0	1	0	0	1	232560,15	-0,200000003	2,05394697	-0,00055585137016243411	-0,20010646194938051	0,000411008048	-0,72037642817137178	0,02687821309148264	0,72037642817137178
1	0	0	1	0	0	1	232800,15	-0,200000003	2,05486131	-0,00055584565322349466	-0,20010440385168432	0,000411186804	-0,73371683258471859	0,027375961516509101	0,73371683258471859
1	0	0	1	0	0	1	233040,15	-0,200000003	2,05585194	-0,00055584610531396333	-0,20010456660422758	0,00041138535	-0,74705715369546534	0,027873706833403555	0,74705715369546534
1	0	0	1	0	0	1	233280,15	-0,200000003	2,05710912	-0,00055585207735415968	-0,20010671653836186	0,000411641347	-0,76039747204379123	0,028371452047228381	0,76039747204379123
1	0	0	1	0	0	1	233520,15	-0,200000003	2,05813766	-0,00055585254177202784	-0,20010688372876826	0,000411847519	-0,77373785793687872	0,028869199781239066	0,77373785793687872
1	0	0	1	0	0	1	233760,15	-0,200000003	2,05943298	-0,00055585176961123942	-0,20010660575092794	0,000412106136	-0,78707827412446413	0,029366948645578208	0,78707827412446413
1	0	0	1	0	0	1	234000,15	-0,200000003	2,06049967	-0,00055584696471359994	-0,20010487598804835	0,000412316032	-0,80041861159898061	0,029864694573026912	0,80041861159898061
1	0	0	1	0	0	1	234240,15	-0,200000003	2,0616045	-0,00055585017385913261	-0,20010603128025933	0,000412539492	-0,81375897889770214	0,030362441613256806	0,81375897889770214
1	0	0	1	0	0	1	234480,15	-0,200000003	2,06289959	-0,00055584965987006816	-0,20010584624422512	0,000412798254	-0,82709934281751002	0,030860188527414893	0,82709934281751002
1	0	0	1	0	0	1	234720,15	-0,200000003	2,06402349	-0,0005558449227404263	-0,20010414087782086	0,000413019647	-0,8404396881110121	0,031357934746600461	0,8404396881110121
1	0	0	1	0	0	1	234960,15	-0,200000003	2,0649569	-0,00055584869230621382	-0,20010549792129203	0,000413209229	-0,85378012708459763	0,031855684461115898	0,85378012708459763
1	0	0	1	0	0	1	235200,16	-0,200000003	2,06611872	-0,00055585749454051258	-0,20010866672514381	0,000413448259	-0,86712060166052467	0,032353435504002566	0,86712060166052467
1	0	0	1	0	0	1	235440,16	-0,200000003	2,06731892	-0,00055584711842983955	-0,20010493133520406	0,000413680711	-0,88046110023770291	0,032851187442408192	0,88046110023770291
1	0	0	1	0	0	1	235680,16	-0,200000003	2,06832838	-0,00055584915330840486	-0,20010566388205485	0,000413884234	-0,89380148892055539	0,033348935280508755	0,89380148892055539
1	0	0	1	0	0	1	235920,16	-0,200000003	2,06928086	-0,00055584801633242093	-0,2001052545707647	0,000414073962	-0,90714176306676992	0,03384667884509337	0,90714176306676992
1	0	0	1	0	0	1	236160,16	-0,200000003	2,07002378	-0,00055584182421366374	-0,20010302540836086	0,000414218026	-0,92048211150130662	0,034344425181475174	0,92048211150130662
1	0	0	1	0	0	1	236400,16	-0,200000003	2,0708046	-0,00055585753196146758	-0,20010868019668547	0,000414385984	-0,93382253559810355	0,034842174340917626	0,93382253559810355
1	0	0	1	0	0	1	236640,16	-0,200000003	2,07143331	-0,00055584284254329062	-0,20010339200696918	0,000414500828	-0,9471629309664928	0,035339922428464563	0,9471629309664928
1	0	0	1	0	0	1	236880,16	-0,200000003	2,07198572	-0,00055585159216572832	-0,20010654187055392	0,000414617884	-0,96050334683569152	0,035837671280924262	0,96050334683569152
1	0	0	1	0	0	1	237120,16	-0,200000003	2,07253814	-0,00055584483980056307	-0,20010411101947475	0,000414723414	-0,9738436821128937	0,036335417126388224	0,9738436821128937
1	0	0	1	0	0	1	237360,16	-0,200000003	2,07312846	-0,00055584287066509318	-0,20010340213081651	0,000414840062	-0,98718404371412134	0,036833163954036954	0,98718404371412134
1	0	0	1	0	0	1	237600,16	-0,200000003	2,07339525	-0,00055584715255101517	-0,20010494360950726	0,00041489664	-1,0005243129938595	0,03733090733704679	1,0005243129938595
1	0	0	1	0	0	1	237840,16	-0,200000003	2,07360482	-0,00055584438997093171	-0,2001039490808328	0,000414936512	-1,0138645840088691	0,037828650784801946	1,0138645840088691
1	0	0	1	0	0	1	238080,16	-0,200000003	2,07394767	-0,00055584690680768755	-0,20010485514192314	0,000415007002	-1,027204912420445	0,038326396374100147	1,027204912420445
1	0	0	1	0	0	1	238320,16	-0,200000003	2,07427144	-0,00055584528857221203	-0,2001042725772431	0,000415070564	-1,0405452886732514	0,038824143748418982	1,0405452886732514
1	0	0	1	0	0	1	238560,16	-0,200000003	2,07448101	-0,00055584763521038822	-0,20010511736685437	0,000415114278	-1,0538856490764443	0,039321890531367443	1,0538856490764443
1	0	0	1	0	0	1	238800,16	-0,200000003	2,07470965	-0,00055584632733712589	-0,20010464653255357	0,00041515904	-1,0672260282450862	0,039819638014480026	1,0672260282450862
1	0	0	1	0	0	1	239040,16	-0,200000003	2,07495713	-0,00055584397372851763	-0,20010379923358717	0,0004152068	-1,0805663668866462	0,040317383985472698	1,0805663668866462
1	0	0	1	0	0	1	239280,16	-0,200000003	2,0751667	-0,00055585252780963974	-0,20010687871162752	0,000415255141	-1,0939067537886446	0,040815131757127206	1,0939067537886446
1	0	0	1	0	0	1	239520,16	-0,200000003	2,07537627	-0,00055584870088597139	-0,20010550101000426	0,000415294198	-1,1072471546369211	0,041312880049136102	1,1072471546369211
1	0	0	1	0	0	1	239760,16	-0,200000003	2,07518578	-0,00055584681858701843	-0,20010482338248723	0,000415254675	-1,1205874493529504	0,04181062438120816	1,1205874493529504
1	0	0	1	0	0	1	240000,16	-0,200000003	2,07537627	-0,0005558488911224736	-0,20010556949513437	0,000415294344	-1,1339278355207154	0,042308372125467437	1,1339278355207154
1	0	0	1	0	0	1	240240,16	-0,200000003	2,07497621	-0,00055584836553865011	-0,20010538028498752	0,000415213901	-1,1472682867766584	0,042806122298254144	1,1472682867766584
1	0	0	1	0	0	1	240480,16	-0,200000003	2,07495713	-0,00055584796295894528	-0,20010523535631642	0,000415209797	-1,1606087156335037	0,043303871635300403	1,1606087156335037
1	0	0	1	0	0	1	240720,16	-0,200000003	2,07472873	-0,00055585066856775008	-0,20010620937533379	0,000415166112	-1,1739491279944182	0,043801620356861312	1,1739491279944182
1	0	0	1	0	0	1	240960,16	-0,200000003	2,07444286	-0,00055584825200753082	-0,20010533941379094	0,00041510709	-1,1872894934985938	0,044299367330134278	1,1872894934985938
1	0	0	1	0	0	1	241200,16	-0,200000003	2,07423329	-0,00055584538245532243	-0,20010430637515757	0,000415063027	-1,2006297383464115	0,044797109801556314	1,2006297383464115
1	0	0	1	0	0	1	241440,16	-0,200000003	2,07379532	-0,00055584551794330285	-0,20010435515082288	0,000414975482	-1,213970079737479	0,045294855875136813	1,213970079737479
1	0	0	1	0	0	1	241680,16	-0,200000003	2,07333803	-0,00055584813987380934	-0,20010529904565754	0,00041488593	-1,2273104880740584	0,045792604446544358	1,2273104880740584
1	0	0	1	0	0	1	241920,16	-0,200000003	2,07303333	-0,00055584976242151533	-0,20010588316274029	0,00041482618	-1,2406508222918285	0,046290350252479475	1,2406508222918285
1	0	0	1	0	0	1	242160,16	-0,200000003	2,07248092	-0,00055584062317676013	-0,2001025930351432	0,000414708804	-1,2539910858158094	0,046788093420734272	1,2539910858158094
1	0	0	1	0	0	1	242400,16	-0,200000003	2,07189035	-0,00055584936394045747	-0,20010573970958192	0,000414597162	-1,2673314488670698	0,047285840302485677	1,2673314488670698
1	0	0	1	0	0	1	242640,16	-0,200000003	2,07116652	-0,00055585273308306931	-0,20010695260073242	0,000414454815	-1,280671851085531	0,04778358864561801	1,280671851085531
1	0	0	1	0	0	1	242880,16	-0,200000003	2,07023335	-0,00055585135629690355	-0,20010645695779027	0,000414267066	-1,2940123151896723	0,048281339297788282	1,2940123151896723
1	0	0	1	0	0	1	243120,16	-0,200000003	2,06886172	-0,00055584677646226355	-0,20010480821757786	0,000413989183	-1,3073527107927014	0,048779087394089946	1,3073527107927014
1	0	0	1	0	0	1	243360,16	-0,200000003	2,06749034	-0,00055584919652425574	-0,20010567943975875	0,000413716567	-1,3206931215598531	0,049276836056185414	1,3206931215598531
1	0	0	1	0	0	1	243600,16	-0,200000003	2,06581402	-0,0005558557945175303	-0,20010805471696595	0,000413386035	-1,3340335697957408	0,049774586116289798	1,3340335697957408
1	0	0	1	0	0	1	243840,16	-0,200000003	2,06400442	-0,00055584849853316947	-0,20010542816300698	0,000413018483	-1,3473741139684837	0,050272339755927238	1,3473741139684837
1	0	0	1	0	0	1	244080,16	-0,200000003	2,06192827	-0,00055585016615937152	-0,20010602850834579	0,000412604277	-1,360714619493256	0,050770091953556941	1,360714619493256
1	0	0	1	0	0	1	244320,16	-0,200000003	2,05945206	-0,00055585140956938266	-0,20010647613587974	0,000412109686	-1,3740550426931675	0,051267841079535386	1,3740550426931675
1	0	0	1	0	0	1	244560,16	-0,200000003	2,0566709	-0,00055585692109250368	-0,20010846028389286	0,000411557237	-1,3873955357401606	0,051765592811602368	1,3873955357401606
1	0	0	1	0	0	1	244800,16	-0,200000003	2,05377555	-0,0005558545974468192	-0,20010762377157731	0,00041097615	-1,4007361207921782	0,052263347976500512	1,4007361207921782
1	0	0	1	0	0	1	245040,16	-0,200000003	2,05015635	-0,00055585663474351174	-0,2001083571982719	0,000410253415	-1,4140766747713662	0,0527611019820296	1,4140766747713662
1	0	0	1	0	0	1	245280,16	-0,200000003	2,04621339	-0,00055585434729440346	-0,20010753371672176	0,000409462722	-1,4274172140520226	0,053258855439136717	1,4274172140520226
1	0	0	1	0	0	1	245520,16	-0,200000003	2,04200387	-0,00055584740878144896	-0,20010503585244899	0,000408615248	-1,4407576959908054	0,05375660675674144	1,4407576959908054
1	0	0	1	0	0	1	245760,16	-0,200000003	2,03680348	-0,00055585690667149101	-0,20010845509232912	0,000407581596	-1,4540981898392208	0,054254358518710554	1,4540981898392208
1	0	0	1	0	0	1	246000,16	-0,200000003	2,03175592	-0,00055586021549834157	-0,20010964626980896	0,000406573963	-1,4674387392702246	0,054752112354540787	1,4674387392702246
1	0	0	1	0	0	1	246240,16	-0,200000003	2,02526045	-0,00055585522986865715	-0,20010785144340336	0,000405270519	-1,4807793119038416	0,055249867056091706	1,4807793119038416
1	0	0	1	0	0	1	246480,16	-0,200000003	2,01899362	-0,00055585634528100493	-0,20010825299178576	0,000404017279	-1,4941198122368272	0,055747619060008858	1,4941198122368272
1	0	0	1	0	0	1	246720,16	-0,200000003	2,01204085	-0,00055584960599078074	-0,20010582684768467	0,00040262111	-1,5074603494185779	0,056245372438802982	1,5074603494185779
1	0	0	1	0	0	1	246960,16	-0,200000003	2,00455499	-0,00055585265392727322	-0,20010692410465027	0,000401125319	-1,5208008400940563	0,056743124082385555	1,5208008400940563
1	0	0	1	0	0	1	247200,16	-0,200000003	1,99649751	-0,00055584555346187616	-0,2001043679375073	0,000399507873	-1,5341414216342394	0,057240879116252442	1,5341414216342394
1	0	0	1	0	0	1	247440,16	-0,200000003	1,98762095	-0,0005558461926339401	-0,2001045980394143	0,000397732103	-1,5474817772615462	0,057738625721006157	1,5474817772615462
1	0	0	1	0	0	1	247680,16	-0,200000003	1,97788739	-0,00055585301647004154	-0,20010705462002643	0,000395789219	-1,560822182655223	0,058236374182610048	1,560822182655223
1	0	0	1	0	0	1	247920,16	-0,200000003	1,96737278	-0,00055584556765440429	-0,20010437304681661	0,000393679889	-1,5741625782061171	0,05873412227696649	1,5741625782061171
1	0	0	1	0	0	1	248160,16	-0,200000003	1,95590568	-0,00055585358533180422	-0,20010725941022896	0,000391390931	-1,5875030366345613	0,059231872717368858	1,5875030366345613
1	0	0	1	0	0	1	248400,16	-0,200000003	1,94327676	-0,00055584836361888378	-0,20010537959387174	0,00038886012	-1,6008435104410419	0,059729623731546445	1,6008435104410419
1	0	0	1	0	0	1	248640,16	-0,200000003	1,93038106	-0,00055585316215869446	-0,20010710706793331	0,000386282976	-1,6141839054576467	0,060227371805967834	1,6141839054576467
1	0	0	1	0	0	1	248880,16	-0,200000003	1,91674256	-0,00055584808932989837	-0,20010528084985242	0,000383550301	-1,6275242542742304	0,060725118156604314	1,6275242542742304
1	0	0	1	0	0	1	249120,16	-0,200000003	1,90293252	-0,0005558456067972713	-0,20010438713824653	0,000380785146	-1,6408645540045091	0,061222862675764762	1,6408645540045091
1	0	0	1	0	0	1	249360,16	-0,200000003	1,88887501	-0,00055584949492497574	-0,20010578686400112	0,000377974822	-1,6542048715326797	0,061720607858988493	1,6542048715326797
1	0	0	1	0	0	1	249600,16	-0,200000003	1,87476027	-0,00055585354831980333	-0,20010724608591075	0,000375153119	-1,6675453267223338	0,062218358178547238	1,6675453267223338
1	0	0	1	0	0	1	249840,16	-0,200000003	1,86089313	-0,0005558594311657879	-0,20010936391013382	0,000372382143	-1,6808859469423578	0,062716114655610982	1,6808859469423578
1	0	0	1	0	0	1	250080,16	-0,200000003	1,84769273	-0,00055585761781533568	-0,20010871110407315	0,000369739399	-1,6942265230047434	0,063213869485093875	1,6942265230047434
1	0	0	1	0	0	1	250320,16	-0,200000003	1,83420658	-0,00055584683624489446	-0,2001048297393216	0,000367033586	-1,7075669301270592	0,06371161801119561	1,7075669301270592
1	0	0	1	0	0	1	250560,16	-0,200000003	1,8212347	-0,00055584996965361965	-0,20010595776628618	0,000364439911	-1,7209073083587533	0,064209365459349427	1,7209073083587533
1	0	0	1	0	0	1	250800,16	-0,200000003	1,80871999	-0,0005558519155755639	-0,20010665829807654	0,000361936924	-1,7342477029835571	0,064707113519152192	1,7342477029835571
1	0	0	1	0	0	1	251040,16	-0,200000003	1,79563391	-0,00055584642897049587	-0,20010468312056106	0,000359314756	-1,7475881737283027	0,065204864419092326	1,7475881737283027
1	0	0	1	0	0	1	251280,16	-0,200000003	1,78138578	-0,00055584557507021562	-0,20010437571650826	0,000356463075	-1,7609284679914134	0,065702608734265382	1,7609284679914134
1	0	0	1	0	0	1	251520,16	-0,200000003	1,76469958	-0,00055584560734861421	-0,20010438733672995	0,000353124138	-1,7742687268323709	0,066200351727790272	1,7742687268323709
1	0	0	1	0	0	1	251760,16	-0,200000003	1,74008918	-0,00055584777567618426	-0,20010516793453299	0,000348200847	-1,7876090038409322	0,066698095399172902	1,7876090038409322
1	0	0	1	0	0	1	252000,16	-0,200000003	1,70054507	-0,00055584791552358202	-0,20010521827958835	0,000340287952	-1,800949337469152	0,067195841183111104	1,800949337469152
1	0	0	1	0	0	1	252240,16	-0,200000003	1,65054345	-0,00055584936472359622	-0,20010573999151181	0,000330283219	-1,8142896508062707	0,06769358620996105	1,8142896508062707
1	0	0	1	0	0	1	252480,16	-0,200000003	1,59730375	-0,00055585307595299347	-0,20010707603388579	0,00031963177	-1,827630038773929	0,068191334021376755	1,827630038773929
1	0	0	1	0	0	1	252720,16	-0,200000003	1,53876853	-0,00055584209741072531	-0,20010312375928762	0,000307912385	-1,8409703361318154	0,068689078452020058	1,8409703361318154
1	1	0	0	0	0	2	252945,42	0,200000003	2,28079247	0,00055536242445144384	0,19993044152096458	0,000455999834	-1,8446018469847072	0,068824575004559731	0,0044429029102027418
1	1	0	0	0	0	2	253185,42	0,200000003	2,31113625	0,0005553625600122743	0,19993049032285587	0,000462066615	-1,8312730287648083	0,068327258875988608	0,017771721130101219
1	1	0	0	0	0	2	253425,42	0,200000003	2,30403113	0,00055536037367333965	0,19992970324096253	0,000460644253	-1,8179444575997037	0,067829951965364019	0,031100292295205926
1	1	0	0	0	0	2	253665,42	0,200000003	2,28283048	0,00055536771570973926	0,19993234637365286	0,000456411653	-1,804615698111792	0,067332638028162317	0,04442905178311799
1	1	0	0	0	0	2	253905,42	0,200000003	2,26816344	0,00055536470888306694	0,19993126391622022	0,000453476794	-1,7912869161587475	0,066835323252756288	0,057757833736162227
1	1	0	0	0	0	2	254145,42	0,200000003	2,26008701	0,00055538073614901965	0,19993703373106042	0,000451875094	-1,7779580231700528	0,066338004334460864	0,071086726724856474
1	1	0	0	0	0	2	254385,42	0,200000003	2,25574398	0,00055536886113385357	0,1999327587262695	0,000450997119	-1,7646290571269898	0,065840682690408742	0,084415692767919002
1	1	0	0	0	0	2	254625,42	0,200000003	2,25307727	0,00055537881689601472	0,19993634280008672	0,000450472027	-1,751300112148823	0,065343361832316237	0,097744637746085773
1	1	0	0	0	0	2	254865,42	0,200000003	2,25161052	0,00055536883921507328	0,19993275083550982	0,000450170686	-1,7379712382527421	0,064846043626391898	0,11107351164216634
1	1	0	0	0	0	2	255105,42	0,200000003	2,25077248	0,00055536820350835731	0,19993252198112787	0,000450002612	-1,7246423292119798	0,06434872410917225	0,12440242068292867
1	1	0	0	0	0	2	255345,42	0,200000003	2,25033426	0,00055537340480834253	0,1999343944488296	0,000449919229	-1,7113132954054285	0,063851399936773261	0,13773145448948032
1	1	0	0	0	0	2	255585,42	0,200000003	2,25033426	0,00055537547922796678	0,19993514123977747	0,000449920888	-1,6979841982447498	0,063354073400546611	0,15106055165015907
1	1	0	0	0	0	2	255825,42	0,200000003	2,25042963	0,00055537410844614112	0,19993464775839747	0,000449938845	-1,6846551095615283	0,06285674718062528	0,16438964033338016
1	1	0	0	0	0	2	256065,42	0,200000003	2,25067711	0,00055538227522952685	0,19993758779995632	0,000449994957	-1,6713260191308096	0,06235942089550249	0,17771873076409926
1	1	0	0	0	0	2	256305,42	0,200000003	2,2511344	0,00055538513991650605	0,19993861908710746	0,000450088701	-1,6579968599930198	0,061862092046826483	0,19104788990188893
1	1	0	0	0	0	2	256545,42	0,200000003	2,25142002	0,00055538366307069862	0,19993808742269997	0,000450144609	-1,6446676451316627	0,061364761119029274	0,20437710476324547
1	1	0	0	0	0	2	256785,42	0,200000003	2,25214386	0,00055538048034244115	0,19993694164070656	0,000450286752	-1,6313384060046861	0,060867429285849165	0,21770634389022246
1	1	0	0	0	0	2	257025,42	0,200000003	2,25244856	0,00055539171982556582	0,19994098785399837	0,000450356776	-1,6180091737388941	0,060370097708669069	0,23103557615601453
1	1	0	0	0	0	2	257265,42	0,200000003	2,25326777	0,0005553799482575721	0,19993675009018368	0,000450511026	-1,6046800445801274	0,059872769978550733	0,24436470531478045
1	1	0	0	0	0	2	257505,42	0,200000003	2,25372481	0,00055537649905847174	0,19993550837870179	0,000450599618	-1,5913510391554032	0,059375446865115891	0,25769371073950432
1	1	0	0	0	0	2	257745,42	0,200000003	2,25458193	0,00055537914448645376	0,19993646073262634	0,000450773136	-1,5780219627120365	0,05887812110188	0,27102278718287088
1	1	0	0	0	0	2	257985,42	0,200000003	2,25505829	0,0005553821767378185	0,19993755234294682	0,000450870837	-1,564692879187833	0,058380795074448563	0,28435187070707395
1	1	0	0	0	0	2	258225,42	0,200000003	2,25568676	0,00055538051217794419	0,19993695310148586	0,00045099514	-1,551363808904216	0,057883469541041216	0,29768094099069056
1	1	0	0	0	0	2	258465,42	0,200000003	2,25639153	0,0005553798672283689	0,1999367209196751	0,000451135536	-1,5380347980594746	0,057386146225378227	0,311009951835432
1	1	0	0	0	0	2	258705,42	0,200000003	2,25713444	0,00055537188448839718	0,19993384713373488	0,000451277563	-1,5247057942817424	0,056888823173394867	0,32433895561316352
1	1	0	0	0	0	2	258945,42	0,200000003	2,25785828	0,00055538259950528544	0,19993770453921114	0,000451430999	-1,5113767017464794	0,056391496809748685	0,33766804814842643
1	1	0	0	0	0	2	259185,42	0,200000003	2,25846791	0,00055537480284108058	0,19993489774053654	0,000451546541	-1,4980476587958467	0,055894172296171738	0,35099709109905894
1	1	0	0	0	0	2	259425,42	0,200000003	2,25924873	0,0005553722125333216	0,19993396522988922	0,000451700558	-1,4847187080280733	0,05539685122206121	0,36432604186683277
1	1	0	0	0	0	2	259665,42	0,200000003	2,25962973	0,00055537041840453946	0,1999333193436287	0,000451775268	-1,4713898966345174	0,054899535348190131	0,37765485326038842
1	1	0	0	0	0	2	259905,42	0,200000003	2,26050591	0,00055536715176701549	0,19993214335430406	0,000451947795	-1,4580609979404832	0,054402216217020819	0,39098375195442259
1	1	0	0	0	0	2	260145,42	0,200000003	2,26134419	0,00055537539045512678	0,19993510928156006	0,000452122098	-1,4447321092886704	0,053904897460540288	0,40431264060623565
1	1	0	0	0	0	2	260385,42	0,200000003	2,26218224	0,00055537415593034694	0,19993466485270886	0,000452288659	-1,4314031854512235	0,053407577391236448	0,41764156444368301
1	1	0	0	0	0	2	260625,42	0,200000003	2,26292515	0,00055537603292117523	0,19993534056930134	0,000452438719	-1,4180741359114987	0,052910252631811616	0,4309706139834071
1	1	0	0	0	0	2	260865,42	0,200000003	2,26361084	0,00055538269015981088	0,1999377371748352	0,00045258124	-1,4047450542888438	0,05241292667532951	0,44429969560606221
1	1	0	0	0	0	2	261105,42	0,200000003	2,26423955	0,00055537059528049498	0,19993338301896272	0,000452697073	-1,3914160488835757	0,051915603562620595	0,45762870101133018
1	1	0	0	0	0	2	261345,42	0,200000003	2,26524901	0,00055537054126295776	0,19993336357265238	0,00045289885	-1,378087092670611	0,051418282285342656	0,47095765722429453
1	1	0	0	0	0	2	261585,42	0,200000003	2,26589656	0,00055537178604801491	0,19993381169520282	0,000453029323	-1,3647582183965008	0,050920964065313542	0,48428653149840442
1	1	0	0	0	0	2	261825,42	0,200000003	2,26679206	0,00055537918030884525	0,19993647362868525	0,000453214423	-1,3514292264086349	0,050423641453225939	0,49761552348627027
1	1	0	0	0	0	2	262065,42	0,200000003	2,26772523	0,00055537246007389491	0,19993405434448166	0,000453395507	-1,3381003103918806	0,049926321675722662	0,51094443950302413
1	1	0	0	0	0	2	262305,43	0,200000003	2,26854444	0,00055538030439035763	0,19993305988786131	0,000453557033	-1,3247711874345526	0,049428994176988339	0,52427356246035226
1	1	0	0	0	0	2	262545,43	0,200000003	2,26923013	0,00055537951701134451	0,19993277642756448	0,000453693472	-1,311441991814007	0,048931663967091661	0,5376027580808983
1	1	0	0	0	0	2	262785,44	0,200000003	2,27003026	0,00055539119279550182	0,19993697963125619	0,000453863002	-1,2981127701313637	0,048434332784783091	0,55093197976354112
1	1	0	0	0	0	2	263025,44	0,200000003	2,27077293	0,00055537867160720954	0,19993247209259091	0,000454001245	-1,284783511847901	0,04793700023684873	0,56426123804700422
1	1	0	0	0	0	2	263265,45	0,200000003	2,27174449	0,00055538940628618003	0,19993633649795629	0,000454204273	-1,2714542090732218	0,047439666028887258	0,57759054082168333
1	1	0	0	0	0	2	263505,45	0,200000003	2,2724874	0,00055539781109988691	0,19993936218194176	0,000454359688	-1,2581247663385038	0,04694232659882857	0,5909199835564009
1	1	0	0	0	0	2	263745,45	0,200000003	2,27355409	0,00055539232521752512	0,19993738730231766	0,00045456845	-1,2447952769854149	0,046444985429375789	0,60424947290949005
1	1	0	0	0	0	2	263985,46	0,200000003	2,2744875	0,00055538828056719578	0,1999359312562351	0,000454751775	-1,2314658753322418	0,045947647532124768	0,6175788745626633
1	1	0	0	0	0	2	264225,46	0,200000003	2,27530646	0,00055538735226872902	0,19993559706591165	0,000454914756	-1,2181365898665669	0,045450313969985523	0,63090816002833818
1	1	0	0	0	0	2	264465,47	0,200000003	2,2762208	0,00055537677352461549	0,1999317887936864	0,000455088884	-1,2048073638802024	0,044952982627099328	0,64423738601470221
1	1	0	0	0	0	2	264705,47	0,200000003	2,27723026	0,00055538981449604038	0,19993648345067645	0,000455301401	-1,1914781513148722	0,044455651784969965	0,65756659858003213
1	1	0	0	0	0	2	264945,48	0,200000003	2,27804947	0,00055539442895352838	0,19993814463269648	0,00045546898	-1,178148754352915	0,043958314062754515	0,67089599554198938
1	1	0	0	0	0	2	265185,48	0,200000003	2,27881145	0,00055539217626055078	0,19993733367883939	0,000455619476	-1,1648194216576981	0,043460978738417562	0,68422532823720627
1	1	0	0	0	0	2	265425,49	0,200000003	2,27982092	0,00055539787255393133	0,19993938430497178	0,000455825997	-1,1514899406675645	0,042963637880997875	0,69755480922733965
1	1	0	0	0	0	2	265665,49	0,200000003	2,28060198	0,0005553986799203687	0,1999396749512929	0,000455982808	-1,1381603886741853	0,042466294374351642	0,71088436122071898
1	1	0	0	0	0	2	265905,50	0,200000003	2,28168774	0,00055539219148457056	0,19993733915472592	0,000456194568	-1,12483095404716	0,041968955246801856	0,72421379584774451
1	1	0	0	0	0	2	266145,50	0,200000003	2,2825067	0,00055540415339668589	0,19994164535784416	0,000456368143	-1,1115014818814475	0,041471614718633197	0,73754326801345638
1	1	0	0	0	0	2	266385,51	0,200000003	2,28349733	0,00055538950947506566	0,19993637364523984	0,000456554175	-1,0981720355548157	0,040974275154555373	0,75087271434008781
1	1	0	0	0	0	2	266625,51	0,200000003	2,28456402	0,00055540050055252179	0,19994033036624803	0,000456776499	-1,0848426136353579	0,040476936501142029	0,76420213625954522
1	1	0	0	0	0	2	266865,51	0,200000003	2,28568769	0,00055539641302824019	0,19993885888583984	0,000456997775	-1,0715131583289859	0,039979596602018022	0,77753159156591693
1	1	0	0	0	0	2	267105,52	0,200000003	2,28644967	0,0005553895685970784	0,1999363949380647	0,000457144517	-1,0581836022287216	0,039482252942138381	0,79086114766618099
1	1	0	0	0	0	2	267345,52	0,200000003	2,28757358	0,000555383878927264	0,19993434668706022	0,000457364542	-1,0448542471832318	0,038984916783882688	0,80419050271167091
1	1	0	0	0	0	2	267585,53	0,200000003	2,28850698	0,00055539083168490067	0,1999368496362704	0,000457556889	-1,0315248641943651	0,038487579583022042	0,81751988570053786
1	1	0	0	0	0	2	267825,53	0,200000003	2,28921175	0,00055539661623289184	0,19993893203112326	0,000457702554	-1,018195341255643	0,037990237160444128	0,83084940863925952
1	1	0	0	0	0	2	268065,54	0,200000003	2,29018307	0,00055538986137426566	0,19993650032651261	0,000457891176	-1,0048659331172998	0,037492899021222688	0,84417881677760243
1	1	0	0	0	0	2	268305,54	0,200000003	2,29144025	0,00055537829115821261	0,1999323351382441	0,000458132999	-0,9915367194958967	0,03699556813968983	0,85750803039900518
1	1	0	0	0	0	2	268545,55	0,200000003	2,29227853	0,00055538119385225907	0,19993338008798042	0,000458302995	-0,97820757040827802	0,036498239665999226	0,87083717948662387
1	1	0	0	0	0	2	268785,55	0,200000003	2,29347849	0,00055538768934541286	0,19993571842049139	0,000458548282	-0,96487829875692237	0,036000906619290803	0,88416645113797952
1	1	0	0	0	0	2	269025,56	0,200000003	2,29445004	0,00055539299916807142	0,19993762991053261	0,000458746916	-0,95154896827012314	0,035503571377352883	0,89749578162477875
1	1	0	0	0	0	2	269265,56	0,200000003	2,2957263	0,00055537824046115078	0,19993231688067085	0,000458989874	-0,93821973218016333	0,035006239657487955	0,91082501771473856
1	1	0	0	0	0	2	269505,57	0,200000003	2,29658341	0,00055538269595222336	0,19993392082890058	0,000459164934	-0,92489063688496909	0,034508913190865037	0,9241541130099328
1	1	0	0	0	0	2	269745,57	0,200000003	2,29799294	0,00055538903737813235	0,19993620369361629	0,000459451985	-0,91156130155305472	0,03401157776814935	0,93748344834184717
1	1	0	0	0	0	2	269985,57	0,200000003	2,29888821	0,00055538571011688979	0,19993500591194237	0,000459628238	-0,89823204996485274	0,033514245470024173	0,95081269993004915
1	1	0	0	0	0	2	270225,58	0,200000003	2,30003119	0,00055538549046466752	0,1999349268386649	0,000459856557	-0,88490284547623334	0,033016914929247744	0,96414190441866854
1	1	0	0	0	0	2	270465,58	0,200000003	2,30115485	0,00055538883901635808	0,19993613229406259	0,000460084004	-0,87157357779937997	0,03251958203083335	0,97747117209552192
1	1	0	0	0	0	2	270705,59	0,200000003	2,3023932	0,00055539210647261811	0,19993730854635725	0,000460334297	-0,85824430658615386	0,032022249000472134	0,99080044330874803
1	1	0	0	0	0	2	270945,59	0,200000003	2,30365038	0,00055538424701491994	0,19993447919839242	0,000460579147	-0,84491503236052301	0,031524915857714054	1,0041297175343786
1	1	0	0	0	0	2	271185,60	0,200000003	2,30485034	0,00055538821795748339	0,19993590870786259	0,000460822339	-0,83158580242322266	0,03102758436741312	1,0174589474716784
1	1	0	0	0	0	2	271425,60	0,200000003	2,3060503	0,00055538191145658496	0,19993363842056358	0,000461057032	-0,81825659333049818	0,030530253654851341	1,0307881565644029
1	1	0	0	0	0	2	271665,61	0,200000003	2,30717421	0,00055538472421715654	0,19993465099487232	0,000461284071	-0,80492736219072474	0,030032922119684525	1,044117387704176
1	1	0	0	0	0	2	271905,61	0,200000003	2,30829811	0,00055539296757843757	0,1999376185477935	0,000461515621	-0,79159808103787699	0,029535588718462669	1,0574466688570242
1	1	0	0	0	0	2	272145,62	0,200000003	2,30940294	0,00055537467008001274	0,19993103157519213	0,000461721327	-0,77826880119639078	0,029038255366169459	1,0707759486985098
1	1	0	0	0	0	2	272385,62	0,200000003	2,31045055	0,00055538009427322285	0,19993298424714925	0,000461935269	-0,76493974603170662	0,02854093039686983	1,0841050038631934
1	1	0	0	0	0	2	272625,63	0,200000003	2,31170774	0,00055538518135911885	0,19993481555582749	0,000462190859	-0,75161059820400704	0,028043601970188499	1,0974341516908933
1	1	0	0	0	0	2	272865,63	0,200000003	2,31281257	0,00055538552427540224	0,19993493900098502	0,000462412048	-0,7382813086293632	0,027546268254738102	1,1107634412655368
1	1	0	0	0	0	2	273105,63	0,200000003	2,31410766	0,00055538432844645453	0,19993450852016291	0,000462669967	-0,72495217368814541	0,027048940308868736	1,1240925762067544
1	1	0	0	0	0	2	273345,64	0,200000003	2,31530786	0,00055538363607062227	0,19993425926966259	0,000462909375	-0,71162291095357568	0,02655160759485759	1,137421838941324
1	1	0	0	0	0	2	273585,64	0,200000003	2,31660318	0,00055538412332203654	0,19993443467679427	0,000463168748	-0,69829370065588096	0,026054276837336752	1,1507510492390189
1	1	0	0	0	0	2	273825,65	0,200000003	2,31774592	0,00055538335260417722	0,19993415721439728	0,000463396573	-0,68496448111365568	0,025556945734890058	1,1640802687812448
1	1	0	0	0	0	2	274065,65	0,200000003	2,31877446	0,00055538584934754502	0,19993505602935814	0,000463604316	-0,67163527913105587	0,025059615287616592	1,1774094707638448
1	1	0	0	0	0	2	274305,66	0,200000003	2,31972694	0,00055538697132054304	0,19993545992953283	0,000463795674	-0,65830607528392499	0,024562284770774957	1,190738674610976
1	1	0	0	0	0	2	274545,66	0,200000003	2,32056499	0,00055538012801938586	0,1999329963862241	0,00046395752	-0,64497684996638643	0,024064953452843552	1,2040678999285149
1	1	0	0	0	0	2	274785,67	0,200000003	2,32144141	0,00055537977156208621	0,19993286807337696	0,000464132434	-0,63164774702273024	0,023567626700846234	1,2173970028721717
1	1	0	0	0	0	2	275025,67	0,200000003	2,32239366	0,00055539173765480518	0,19993717578381126	0,000464332843	-0,61831848189989363	0,023070293897725642	1,2307262679950083
1	1	0	0	0	0	2	275265,68	0,200000003	2,32302237	0,00055538028322408595	0,19993305226815024	0,000464448938	-0,60498931781224781	0,022572964864363859	1,2440554320826536
1	1	0	0	0	0	2	275505,68	0,200000003	2,32384133	0,00055537959420680998	0,19993280421739699	0,000464612123	-0,59166017560128653	0,022075636647250586	1,2573845742936146
1	1	0	0	0	0	2	275745,69	0,200000003	2,32429862	0,00055538056882967546	0,19993315508651021	0,000464704353	-0,57833103949068851	0,021578308657750074	1,2707137104042122
1	1	0	0	0	0	2	275985,69	0,200000003	2,32469845	0,00055538338073591392	0,1999341673462825	0,000464786659	-0,56500198781293395	0,02108098381855247	1,2840427620819664
1	1	0	0	0	0	2	276225,69	0,200000003	2,32542229	0,00055537767497118976	0,19993211330587715	0,00046492659	-0,55167287108410426	0,020583656552211792	1,2973718788107962
1	1	0	0	0	0	2	276465,70	0,200000003	2,32561278	0,00055538421687318221	0,19993446835455824	0,000464970159	-0,53834370729430867	0,020086327529963203	1,3107010426005925
1	1	0	0	0	0	2	276705,70	0,200000003	2,32593679	0,0005553893439778023	0,1999363140766823	0,000465039222	-0,52501449843515981	0,019588996826116445	1,3240302514597414
1	1	0	0	0	0	2	276945,71	0,200000003	2,32641292	0,0005553948733318183	0,19993830460580058	0,000465139048	-0,51168516872612422	0,01909166161319793	1,3373595811687766
1	1	0	0	0	0	2	277185,71	0,200000003	2,32677484	0,00055539393879224851	0,1999379681687232	0,000465210644	-0,49835567518484154	0,018594320287478	1,35068907471006
1	1	0	0	0	0	2	277425,72	0,200000003	2,32715583	0,00055539240041209587	0,1999374143648593	0,000465285528	-0,48502623623397683	0,018096980998599962	1,3640185136609242
1	1	0	0	0	0	2	277665,72	0,200000003	2,32753682	0,00055538551737202534	0,19993493652047222	0,00046535593	-0,47169681337791187	0,017599642310240544	1,3773479365169901
1	1	0	0	0	0	2	277905,73	0,200000003	2,32751775	0,00055538418576286899	0,19993445715506115	0,000465351011	-0,45836759316848723	0,017102311182899738	1,3906771567264149
1	1	0	0	0	0	2	278145,73	0,200000003	2,32774639	0,00055538591230826253	0,19993507869943504	0,00046539816	-0,44503848189923763	0,016604984120263331	1,4040062679956646
1	1	0	0	0	0	2	278385,74	0,200000003	2,32814622	0,00055538449773854682	0,19993456946414269	0,000465476915	-0,43170927506793798	0,016107653492078355	1,4173354748269646
1	1	0	0	0	0	2	278625,74	0,200000003	2,32843208	0,00055539195174144371	0,19993725285351712	0,000465540303	-0,41838001873657696	0,015610321016979533	1,4306647311583266
1	1	0	0	0	0	2	278865,75	0,200000003	2,32860351	0,00055538079372793434	0,19993323603668707	0,000465565245	-0,4050507355460583	0,015112987539729434	1,4439940143488448
1	1	0	0	0	0	2	279105,75	0,200000003	2,32881308	0,0005553841110716263	0,19993443025974902	0,000465609919	-0,39172149820838202	0,014615655773310525	1,457323251686521
1	1	0	0	0	0	2	279345,75	0,200000003	2,32915592	0,00055539170641452077	0,19993716452821526	0,000465684832	-0,37839224963159354	0,014118323587545234	1,4706525002633094
1	1	0	0	0	0	2	279585,76	0,200000003	2,3292892	0,00055540066443218131	0,1999403893617895	0,000465719	-0,36506279471875142	0,013620983703104358	1,4839819551761514
1	1	0	0	0	0	2	279825,76	0,200000003	2,32968926	0,00055539249021642739	0,19993744670077872	0,000465792109	-0,35173345749982438	0,013123648209981696	1,4973112923950781
1	1	0	0	0	0	2	280065,77	0,200000003	2,32978439	0,00055537841268794394	0,19993237888810496	0,000465799327	-0,33840425428636531	0,012626317716783214	1,510640495608537
1	1	0	0	0	0	2	280305,77	0,200000003	2,33026075	0,00055538909720215526	0,19993622522984986	0,000465903548	-0,3250750705308848	0,012128987949588078	1,5239696793640179
1	1	0	0	0	0	2	280545,78	0,200000003	2,33029866	0,00055538408474127443	0,19993442078333235	0,000465906924	-0,3117457886385719	0,011631654520775774	1,5372989612563302
1	1	0	0	0	0	2	280785,78	0,200000003	2,33045125	0,00055538429712338579	0,1999344972370928	0,000465937599	-0,29841653905290522	0,011134322297367882	1,5506282108419968
1	1	0	0	0	0	2	281025,79	0,200000003	2,33064151	0,00055539656215409434	0,19993891256080346	0,000465985941	-0,28508721191946995	0,010636987180548477	1,563957537975432
1	1	0	0	0	0	2	281265,79	0,200000003	2,3307941	0,00055538134348226918	0,19993343395374688	0,000466003665	-0,27175791014837981	0,010139653010032269	1,5772868397465222
1	1	0	0	0	0	2	281505,80	0,200000003	2,3310225	0,00055538837595035635	0,19993596559351178	0,000466055237	-0,25842855382435453	0,009642316804072704	1,5906161960705478
1	1	0	0	0	0	2	281745,80	0,200000003	2,33127022	0,00055539335564358362	0,19993775824855619	0,000466108933	-0,24509906582524144	0,0091449756851385741	1,6039456840696608
1	1	0	0	0	0	2	281985,81	0,200000003	2,33113694	0,00055539420220504205	0,19993806299550298	0,000466083002	-0,23176965936869645	0,0086476376086672947	1,6172750905262058
1	1	0	0	0	0	2	282225,81	0,200000003	2,33132744	0,00055539200902895795	0,19993727347197011	0,000466119265	-0,21844026811756528	0,0081503000995304486	1,630604481777336
1	1	0	0	0	0	2	282465,82	0,200000003	2,33155584	0,0005553897942031424	0,19993647615002886	0,000466163066	-0,2051109463921033	0,0076529651844897984	1,6439338035027981
1	1	0	0	0	0	2	282705,82	0,200000003	2,33184171	0,00055539173406776461	0,19993717448319136	0,000466221856	-0,19178145100653264	0,0071556237899570061	1,657263298888369
1	1	0	0	0	0	2	282945,82	0,200000003	2,33191776	0,00055539690107935002	0,19993903458085642	0,000466241385	-0,178452009939568	0,0066582844221244352	1,6705927399553334
1	1	0	0	0	0	2	283185,83	0,200000003	2,33227968	0,00055539385400215776	0,19993793765418842	0,000466311176	-0,16512245239472816	0,0061609407083457344	1,6839222975001734
1	1	0	0	0	0	2	283425,83	0,200000003	2,3325274	0,00055539277760436134	0,19993755015844291	0,000466359808	-0,15179301741362797	0,0056636015675849485	1,6972517324812733
1	1	0	0	0	0	2	283665,84	0,200000003	2,33290839	0,0005553843065011833	0,19993450061070739	0,000466428872	-0,13846370181743331	0,0051662668812355034	1,7105810480774678
1	1	0	0	0	0	2	283905,84	0,200000003	2,33309889	0,00055538509785880646	0,19993478549629386	0,000466467638	-0,12513438082774098	0,004668931993647408	1,72391036906716
1	1	0	0	0	0	2	284145,85	0,200000003	2,33330846	0,00055539049654702342	0,19993672898895763	0,000466514059	-0,11180504343994576	0,0041715964942240461	1,7372397064549542
1	1	0	0	0	0	2	284385,85	0,200000003	2,33386087	0,00055540372120423443	0,19994148977854019	0,000466635625	-0,098475659392471488	0,0036742592538653248	1,7505690905024288
1	1	0	0	0	0	2	284625,86	0,200000003	2,33416557	0,00055539327771133843	0,1999377301934881	0,000466687779	-0,085146140748898586	0,0031769169915451974	1,7638986091460013
1	1	0	0	0	0	2	284865,86	0,200000003	2,33456564	0,0005553918854966759	0,1999372290058599	0,000466766593	-0,071816598977892352	0,0026795738663094362	1,7772281509170077
1	1	0	0	0	0	2	285105,87	0,200000003	2,33479404	0,00055539114680720704	0,19993696308277142	0,000466811616	-0,058487130453692928	0,0021822334740105194	1,790557619441207
1	1	0	0	0	0	2	285345,87	0,200000003	2,33536553	0,00055538710606015392	0,19993550843253123	0,000466922502	-0,045157844315953107	0,0016848998867956314	1,8038869055789472
1	1	0	0	0	0	2	285585,88	0,200000003	2,33570838	0,00055539626188079514	0,1999388044668247	0,000466998754	-0,031828537570706221	0,0011875655306869478	1,8172162123241936
1	1	0	0	0	0	2	285825,88	0,200000003	2,3360703	0,00055539614264998176	0,19993876154223082	0,00046707099	-0,018499031742604614	0,00069022374652928448	1,8305457181522947
1	1	0	0	0	0	2	286065,88	0,200000003	2,33662271	0,00055538926304794016	0,1999362849424929	0,000467175676	-0,0051695690704281562	0,00019288357257721235	1,843875180824472
1	1	0	0	0	0	2	286305,89	0,200000003	2,33702278	0,00055538841148051955	0,19993597838412422	0,000467254926	0,0081598924914213914	-0,00030445655994706989	1,8572046423863219
1	1	0	0	0	0	2	286545,89	0,200000003	2,33734655	0,00055538864939825402	0,19993606403285946	0,000467319856	0,021489225786780771	-0,00080179190667614771	1,8705339756816806
1	1	0	0	0	0	2	286785,90	0,200000003	2,33751798	0,00055537794888185126	0,19993221192112656	0,000467345148	0,034818435910041587	-0,0012991226576886216	1,8838631858049418
1	1	0	0	0	0	2	287025,90	0,200000003	2,33814669	0,00055539412803533997	0,19993803629957946	0,000467484468	0,048147774174382726	-0,0017964581898170899	1,8971925240692829
1	1	0	0	0	0	2	287265,91	0,200000003	2,33868003	0,00055538621525052525	0,19993518774956723	0,000467584439	0,061477026320756762	-0,0022937905087684189	1,9105217762156563
1	1	0	0	0	0	2	287505,91	0,200000003	2,33923244	0,00055538464495208525	0,19993462245068608	0,00046769355	0,074806242053723622	-0,002791121469086567	1,9238509919486237
1	1	0	0	0	0	2	287745,92	0,200000003	2,33972764	0,00055538514073358637	0,1999348009378999	0,000467792968	0,088135565732497741	-0,00328845645700792	1,9371803156273978
1	1	0	0	0	0	2	287985,92	0,200000003	2,34039426	0,00055538751991920998	0,19993565742823277	0,000467928272	0,1014648223889607	-0,0037857889442367302	1,9505095722838605
1	1	0	0	0	0	2	288225,93	0,200000003	2,34087062	0,00055539171015140083	0,19993716588277629	0,00046802705	0,11479410617458861	-0,0042831224436911603	1,963838856069489
1	1	0	0	0	0	2	288465,93	0,200000003	2,34138489	0,00055540260389281651	0,19994108754486419	0,000468139042	0,12812362860153162	-0,0047804648471739136	1,977168378496432
1	1	0	0	0	0	2	288705,94	0,200000003	2,34226108	0,00055540051858623827	0,19994033685360579	0,000468312472	0,14145314979964205	-0,005277807204807271	1,9904978996945424
1	1	0	0	0	0	2	288865,40	0,200000003	2,34245157	0,00052571341786368019	0,19993764022167142	0,000468344253	0,1503097367077896	-0,0056082583701579994	1,9993544866026899