File: Experimentelles/Rohdaten/Batterietests/AlteZelle/Studenten_Batterietests/S vs Li GCPL 300µm/ECLab-Export/S vs Li GCPL 300µm_02_GCPL_C06_loop0.mpt
EC-Lab ASCII FILE
Nb header lines : 3
mode	ox/red	error	control changes	Ns changes	counter inc.	Ns	time/s	control/V/mA	Ewe/V	dq/mA.h	<I>/mA	P/W	(Q-Qo)/mA.h	x	Capacity/mA.h
1	0	0	1	1	0	1	3600,00	-0,200000003	2,35106134	0	0	0	0	0	0
1	0	0	1	0	0	1	3840,00	-0,200000003	2,33207035	-0,00055589157401521997	-0,20012097170096016	0,00046669619	-0,013338854828659632	0,00049769060793834803	0,013338854828659632
1	0	0	1	0	0	1	4080,00	-0,200000003	2,32883215	-0,00055590254858218957	-0,20012492254516906	0,000466057361	-0,026680359730890832	0,00099548009368471296	0,026680359730890832
1	0	0	1	0	0	1	4320,00	-0,200000003	2,32582235	-0,0005558926965362496	-0,20012137317595805	0,000465446763	-0,040021826131622605	0,0014932681428883686	0,040021826131622605
1	0	0	1	0	0	1	4560,00	-0,200000003	2,32309842	-0,0005558880199326409	-0,20011968959863853	0,000464897748	-0,053363170179849478	0,0019910516269555616	0,053363170179849478
1	0	0	1	0	0	1	4800,00	-0,200000003	2,32027936	-0,00055589479671170317	-0,20012212923913046	0,000464339246	-0,066704493429951949	0,0024888343350167699	0,066704493429951949
1	0	0	1	0	0	1	5040,00	-0,200000003	2,31791735	-0,00055589477588484685	-0,20012212174146211	0,000463866541	-0,080045926341105446	0,0029866211346792333	0,080045926341105446
1	0	0	1	0	0	1	5280,00	-0,200000003	2,31551743	-0,00055588849614229472	-0,20011986103411597	0,000463381031	-0,093387286405472026	0,0034844052163301325	0,093387286405472026
1	0	0	1	0	0	1	5520,00	-0,200000003	2,31342196	-0,0005558943143578039	-0,20012195559172467	0,000462966535	-0,10672853941564485	0,0039821853036451264	0,10672853941564485
1	0	0	1	0	0	1	5760,00	-0,200000003	2,31107903	-0,00055589709185726099	-0,20012295549154131	0,000462499971	-0,12006989922619256	0,004479969375825703	0,12006989922619256
1	0	0	1	0	0	1	6000,00	-0,200000003	2,30888844	-0,0005558894856356912	-0,20012021725174301	0,000462055265	-0,13341134767815613	0,0049777567553366848	0,13341134767815613
1	0	0	1	0	0	1	6240,00	-0,200000003	2,30643129	-0,00055588027003076339	-0,20011689963392883	0,000461555872	-0,14675260735640899	0,0054755370914467104	0,14675260735640899
1	0	0	1	0	0	1	6480,00	-0,200000003	2,30427885	-0,00055588764967686592	-0,20011955630655795	0,000461131247	-0,16009383842106803	0,0059733163599450803	0,16009383842106803
1	0	0	1	0	0	1	6720,00	-0,200000003	2,30201221	-0,00055588129022717478	-0,20011726690464141	0,000460672396	-0,17343499063325818	0,0064710926863518157	0,17343499063325818
1	0	0	1	0	0	1	6960,00	-0,200000003	2,29999304	-0,00055588318229797824	-0,20011794805013885	0,00046026989	-0,18677616796956192	0,0069688699501730099	0,18677616796956192
1	0	0	1	0	0	1	7200,00	-0,200000003	2,29806924	-0,00055587937939663725	-0,20011657900563955	0,000459881761	-0,20011730629173398	0,0074666457583244979	0,20011730629173398
1	0	0	1	0	0	1	7440,00	-0,200000003	2,29576421	-0,00055588808610952557	-0,20011971342231731	0,000459427683	-0,21345855145180208	0,0079644255527415283	0,21345855145180208
1	0	0	1	0	0	1	7680,00	-0,200000003	2,29355478	-0,0005558849673834112	-0,20011859068090253	0,000458982948	-0,22679985276768003	0,0084622074424073306	0,22679985276768003
1	0	0	1	0	0	1	7920,00	-0,200000003	2,29121184	-0,00055588336101505485	-0,20011801238828723	0,000458512746	-0,24014105987932342	0,0089599858171864819	0,24014105987932342
1	0	0	1	0	0	1	8160,00	-0,200000003	2,28902125	-0,00055588072068244224	-0,20011706186853517	0,000458072202	-0,25348228769771402	0,0094577649645622106	0,25348228769771402
1	0	0	1	0	0	1	8400,00	-0,200000003	2,28702116	-0,00055588504568073478	-0,20011861886793936	0,000457675516	-0,26682355780907453	0,0099555456899455078	0,26682355780907453
1	0	0	1	0	0	1	8640,00	-0,200000003	2,2844305	-0,00055588685769918893	-0,20011927119459075	0,000457158574	-0,28016484793324918	0,010453327162033814	0,28016484793324918
1	0	0	1	0	0	1	8880,00	-0,200000003	2,28197336	-0,0005558851028482119	-0,20011863944823139	0,00045666541	-0,29350603863752614	0,010951104924632061	0,29350603863752614
1	0	0	1	0	0	1	9120,00	-0,200000003	2,27955437	-0,0005558849185324377	-0,20011857309455187	0,00045618118	-0,30684729186599021	0,011448885020091795	0,30684729186599021
1	0	0	1	0	0	1	9360,00	-0,200000003	2,27711606	-0,00055589135946912902	-0,2001208918317888	0,000455698493	-0,320188630682104	0,011946668308941816	0,320188630682104
1	0	0	1	0	0	1	9600,00	-0,200000003	2,27425885	-0,00055588864561915398	-0,20011991484578598	0,000455124478	-0,33353001388843354	0,012444453254050466	0,33353001388843354
1	0	0	1	0	0	1	9840,00	-0,200000003	2,27149677	-0,00055587888566404576	-0,20011640126190451	0,000454563764	-0,34687125676276454	0,012942232963183574	0,34687125676276454
1	0	0	1	0	0	1	10080,00	-0,200000003	2,26860142	-0,00055587361516555155	-0,20011450388242355	0,000453980058	-0,36021239399613446	0,01344000873071039	0,36021239399613446
1	0	0	1	0	0	1	10320,00	-0,200000003	2,26545858	-0,00055587711521072518	-0,20011576389870134	0,000453353976	-0,37355343833517773	0,013937781032224981	0,37355343833517773
1	0	0	1	0	0	1	10560,00	-0,200000003	2,26208711	-0,00055588049748705491	-0,20011698151819478	0,000452682056	-0,38689453758171117	0,01443555538241185	0,38689453758171117
1	0	0	1	0	0	1	10800,00	-0,200000003	2,25871539	-0,00055588154126207034	-0,2001173572772049	0,000452008157	-0,40023573801219539	0,014933333507907968	0,40023573801219539
1	0	0	1	0	0	1	11040,00	-0,200000003	2,25482965	-0,00055587301005671418	-0,20011428604323946	0,000451223634	-0,41357687634875296	0,015431109316596198	0,41357687634875296
1	0	0	1	0	0	1	11280,00	-0,200000003	2,25090575	-0,00055587858808868454	-0,20011629413477315	0,000450442923	-0,42691791104422592	0,015928881258296214	0,42691791104422592
1	0	0	1	0	0	1	11520,00	-0,200000003	2,24696279	-0,0005558710136289399	-0,20011356732923203	0,000449647749	-0,44025884109545408	0,016426649295578762	0,44025884109545408
1	0	0	1	0	0	1	11760,00	-0,200000003	2,24204826	-0,00055587762135846746	-0,20011594611189075	0,000448669598	-0,45359976106659072	0,016924416956759542	0,45359976106659072
1	0	0	1	0	0	1	12000,00	-0,200000003	2,23747683	-0,00055588829811082944	-0,20011978974278762	0,000447763392	-0,46694088757609344	0,017422192324164448	0,46694088757609344
1	0	0	1	0	0	1	12240,00	-0,200000003	2,23250508	-0,00055587937408685677	-0,20011657709411856	0,000446761289	-0,48028204938513382	0,01791996900864257	0,48028204938513382
1	0	0	1	0	0	1	12480,00	-0,200000003	2,22660017	-0,00055588073828236928	-0,20011706820450899	0,000445580692	-0,49362315554703194	0,018417743616850998	0,49362315554703194
1	0	0	1	0	0	1	12720,00	-0,200000003	2,22052383	-0,00055588128195040749	-0,20011726392500515	0,000444365141	-0,5069643060350617	0,018915519878926992	0,5069643060350617
1	0	0	1	0	0	1	12960,00	-0,200000003	2,21463799	-0,00055588079993923507	-0,20011709040098093	0,000443186902	-0,52030546780955053	0,019413296562115952	0,52030546780955053
1	0	0	1	0	0	1	13200,00	-0,200000003	2,2078948	-0,00055588541146781715	-0,20011875055129062	0,000441841141	-0,53364670261497491	0,019911075970187302	0,53364670261497491
1	0	0	1	0	0	1	13440,00	-0,200000003	2,20094228	-0,00055588376895089946	-0,20011815924519309	0,000440448523	-0,54698797045671718	0,020408856610888096	0,54698797045671718
1	0	0	1	0	0	1	13680,00	-0,200000003	2,19336104	-0,00055588749899218483	-0,20011950206007206	0,000438934308	-0,56032917685115469	0,020906634958907328	0,56032917685115469
1	0	0	1	0	0	1	13920,00	-0,200000003	2,1860466	-0,00055588578024175437	-0,2001188833099096	0,000437469193	-0,57367045465356326	0,021404415971253971	0,57367045465356326
1	0	0	1	0	0	1	14160,00	-0,200000003	2,17812252	-0,00055588403802861779	-0,20011825611317283	0,000435882073	-0,58701168016790118	0,021902195032662397	0,58701168016790118
1	0	0	1	0	0	1	14400,00	-0,200000003	2,17017937	-0,0005558814279735088	-0,20011731649332224	0,000434290472	-0,60035287421155469	0,022399972919857277	0,60035287421155469
1	0	0	1	0	0	1	14640,00	-0,200000003	2,16183615	-0,0005558781159553264	-0,20011612416676211	0,000432618283	-0,61369394586362701	0,022897746240457702	0,61369394586362701
1	0	0	1	0	0	1	14880,00	-0,200000003	2,15332174	-0,00055588026217702362	-0,2001168968065825	0,000430916058	-0,6270350104857408	0,023395519298760925	0,6270350104857408
1	0	0	1	0	0	1	15120,00	-0,200000003	2,14419746	-0,00055587431875616314	-0,20011475717504678	0,000429085543	-0,64037605893549734	0,023893291753651754	0,64037605893549734
1	0	0	1	0	0	1	15360,00	-0,200000003	2,13535905	-0,00055588297375291584	-0,20011787297391552	0,00042732351	-0,65371708467437888	0,024391063361169296	0,65371708467437888
1	0	0	1	0	0	1	15600,00	-0,200000003	2,12598753	-0,0005558814879183968	-0,20011733807348221	0,000425446953	-0,66705819436963699	0,024888838101212134	0,66705819436963699
1	0	0	1	0	0	1	15840,00	-0,200000003	2,11642528	-0,00055588226295096998	-0,2001176170852119	0,000423533987	-0,68039934439428928	0,025386614345998896	0,68039934439428928
1	0	0	1	0	0	1	16080,00	-0,200000003	2,10655832	-0,00055587571844044659	-0,20011526106139498	0,000421554461	-0,69374056289458547	0,025884393145703994	0,69374056289458547
1	0	0	1	0	0	1	16320,00	-0,200000003	2,09606266	-0,0005558876484400697	-0,20011955586131126	0,000419463118	-0,70708176138872589	0,026382171198952522	0,70708176138872589
1	0	0	1	0	0	1	16560,00	-0,200000003	2,08651948	-0,00055588116789029696	-0,20011722286336486	0,000417548494	-0,72042291934474995	0,026879947739669424	0,72042291934474995
1	0	0	1	0	0	1	16800,00	-0,200000003	2,08438611	-0,00055587719260404512	-0,20011579176029683	0,000417118572	-0,73376399020081139	0,027377721030569613	0,73376399020081139
1	0	0	1	0	0	1	17040,00	-0,200000003	2,08484316	-0,00055587836519214842	-0,20011621389201914	0,000417210918	-0,74710502435250253	0,0278754929519804	0,74710502435250253
1	0	0	1	0	0	1	17280,00	-0,200000003	2,08541465	-0,00055587233150667616	-0,20011404176522282	0,000417320756	-0,76044613252711962	0,028373267635286077	0,76044613252711962
1	0	0	1	0	0	1	17520,00	-0,200000003	2,08573842	-0,00055587295164581805	-0,20011426501531661	0,000417386007	-0,77378715801985434	0,028871039233619552	0,77378715801985434
1	0	0	1	0	0	1	17760,00	-0,200000003	2,08604336	-0,00055587269700235782	-0,20011417334366986	0,000417446834	-0,7871281534995799	0,029368809712127309	0,7871281534995799
1	0	0	1	0	0	1	18000,00	-0,200000003	2,08629084	-0,00055587647904041741	-0,20011553487738774	0,000417499221	-0,80046913314723059	0,029866579599919059	0,80046913314723059
1	0	0	1	0	0	1	18240,00	-0,200000003	2,08634806	-0,00055587596392052038	-0,20011534943422259	0,00041751028	-0,81381010244042266	0,030364349101372038	0,81381010244042266
1	0	0	1	0	0	1	18480,00	-0,200000003	2,08642435	-0,00055587885362903277	-0,20011638972929965	0,000417527714	-0,82715109578272717	0,030862119500129741	0,82715109578272717
1	0	0	1	0	0	1	18720,00	-0,200000003	2,08648133	-0,00055587916794253715	-0,20011650288216259	0,000417539355	-0,84049214662037632	0,031359892044116051	0,84049214662037632
1	0	0	1	0	0	1	18960,00	-0,200000003	2,08653855	-0,00055587674219989114	-0,20011562961479946	0,000417548988	-0,8538332109669417	0,031857665092138195	0,8538332109669417
1	0	0	1	0	0	1	19200,00	-0,200000003	2,08684325	-0,00055587735893246195	-0,20011585163852762	0,000417610427	-0,86717425103357274	0,032355437234243341	0,86717425103357274
1	0	0	1	0	0	1	19440,00	-0,200000003	2,08680511	-0,00055587512193702989	-0,20011504632016234	0,000417601113	-0,88051530708471181	0,032853209972751968	0,88051530708471181
1	0	0	1	0	0	1	19680,00	-0,200000003	2,08670998	-0,0005558738677112592	-0,20011459479887946	0,000417581119	-0,89385632438831027	0,033350981265537766	0,89385632438831027
1	0	0	1	0	0	1	19920,00	-0,200000003	2,08659577	-0,00055588091372946893	-0,20011713136546566	0,000417563569	-0,9071973954084151	0,03384875456255863	0,9071973954084151
1	0	0	1	0	0	1	20160,00	-0,200000003	2,0867672	-0,00055587660722186163	-0,20011558102270822	0,000417594623	-0,92053851480254131	0,034346529664479283	0,92053851480254131
1	0	0	1	0	0	1	20400,00	-0,200000003	2,08653855	-0,00055588193794919386	-0,20011750008457104	0,000417552888	-0,9338796220648151	0,034844304313744205	0,9338796220648151
1	0	0	1	0	0	1	20640,00	-0,200000003	2,08623385	-0,00055587834142479629	-0,20011620533577229	0,000417489209	-0,9472207907758304	0,035342081255744294	0,9472207907758304
1	0	0	1	0	0	1	20880,00	-0,200000003	2,08602428	-0,00055587137035942746	-0,20011369575220912	0,000417442032	-0,960561804737264	0,035839852423829421	0,960561804737264
1	0	0	1	0	0	1	21120,00	-0,200000003	2,08581471	-0,00055587765304164762	-0,20011595751783574	0,000417404808	-0,97390280817745306	0,036337623199352762	0,97390280817745306
1	0	0	1	0	0	1	21360,00	-0,200000003	2,08531952	-0,00055588325788080698	-0,20011797525995754	0,00041730993	-0,9872438471519904	0,036835395300710426	0,9872438471519904
1	0	0	1	0	0	1	21600,00	-0,200000003	2,08478618	-0,00055587499969287053	-0,20011500231226442	0,000417196978	-1,000584902819057	0,0373331680248888	1,000584902819057
1	0	0	1	0	0	1	21840,00	-0,200000003	2,08459568	-0,00055587862102273434	-0,2001163059910312	0,000417161587	-1,0139259890942909	0,03783094189109904	1,0139259890942909
1	0	0	1	0	0	1	22080,00	-0,200000003	2,08406234	-0,00055588084944172032	-0,20011710822187587	0,000417056523	-1,027267066503372	0,03832871542650121	1,027267066503372
1	0	0	1	0	0	1	22320,00	-0,200000003	2,08373833	-0,00055587638009670701	-0,20011549925765158	0,000416988332	-1,0406081658759926	0,03882648978139257	1,0406081658759926
1	0	0	1	0	0	1	22560,00	-0,200000003	2,08324313	-0,00055587246860315398	-0,20011409111995546	0,000416886294	-1,0539492071398939	0,039324261968169472	1,0539492071398939
1	0	0	1	0	0	1	22800,00	-0,200000003	2,08263373	-0,00055586848892685446	-0,20011265843647024	0,000416761381	-1,0672901520449312	0,039822030559667603	1,0672901520449312
1	0	0	1	0	0	1	23040,00	-0,200000003	2,0821383	-0,00055587081528786163	-0,20011349592644298	0,00041666397	-1,0806309460732813	0,04031979352175369	1,0806309460732813
1	0	0	1	0	0	1	23280,00	-0,200000003	2,08150983	-0,00055587779843724435	-0,20011600986025123	0,000416543451	-1,0939720363802374	0,040817567538392915	1,0939720363802374
1	0	0	1	0	0	1	23520,00	-0,200000003	2,08082414	-0,00055587855442116653	-0,2001162820144665	0,00041640678	-1,1073130510803941	0,041315338734040794	1,1073130510803941
1	0	0	1	0	0	1	23760,00	-0,200000003	2,08025265	-0,00055587513931757869	-0,20011505257716	0,000416289869	-1,1206541065795115	0,041813111451952755	1,1206541065795115
1	0	0	1	0	0	1	24000,00	-0,200000003	2,07947159	-0,00055587327414502701	-0,20011438111503325	0,000416132156	-1,1339951800082568	0,042310884838843238	1,1339951800082568
1	0	0	1	0	0	1	24240,00	-0,200000003	2,0787859	-0,00055586944172862496	-0,20011300144511181	0,000415992079	-1,1473361282999226	0,042808653556701037	1,1473361282999226
1	0	0	1	0	0	1	24480,00	-0,200000003	2,07792878	-0,0005558784688206183	-0,20011625119826877	0,000415827322	-1,1606770877959283	0,043306422692607814	1,1606770877959283
1	0	0	1	0	0	1	24720,00	-0,200000003	2,07705259	-0,00055588073786679245	-0,20011706805490134	0,000415653689	-1,1740182437866213	0,043804199159995584	1,1740182437866213
1	0	0	1	0	0	1	24960,00	-0,200000003	2,07653832	-0,0005558846409569184	-0,20011847316736368	0,000415553688	-1,187359452313536	0,044301977587580403	1,187359452313536
1	0	0	1	0	0	1	25200,00	-0,200000003	2,07571912	-0,00055588323529147443	-0,20011796712779776	0,000415388698	-1,2007006642461722	0,044799756142237274	1,2007006642461722
1	0	0	1	0	0	1	25440,00	-0,200000003	2,074862	-0,00055587790948235334	-0,20011604983649091	0,000415213202	-1,2140418228439366	0,045297532706898374	1,2140418228439366
1	0	0	1	0	0	1	25680,00	-0,200000003	2,07415724	-0,00055588295263548691	-0,20011786537164099	0,00041507592	-1,2273829064197526	0,045795306472389702	1,2273829064197526
1	0	0	1	0	0	1	25920,00	-0,200000003	2,07330012	-0,00055586602958043418	-0,20011177307174826	0,000414891751	-1,2407238830559578	0,046293076247820378	1,2407238830559578
1	0	0	1	0	0	1	26160,00	-0,200000003	2,07249999	-0,00055587742442886042	-0,20011587521723133	0,000414740149	-1,2540648530680886	0,046790845776097939	1,2540648530680886
1	0	0	1	0	0	1	26400,00	-0,200000003	2,07137609	-0,00055587005817393459	-0,20011322336542598	0,000414509734	-1,2674058129833278	0,047288614927646886	1,2674058129833278
1	0	0	1	0	0	1	26640,00	-0,200000003	2,07051897	-0,00055586826995263494	-0,2001125796057503	0,000414336886	-1,2807465996635728	0,047786377615565286	1,2807465996635728
1	0	0	1	0	0	1	26880,00	-0,200000003	2,06954741	-0,00055586095030605792	-0,20010994453295066	0,00041413703	-1,2940873976282539	0,048284140724521171	1,2940873976282539
1	0	0	1	0	0	1	27120,00	-0,200000003	2,06844282	-0,00055586415747884243	-0,20011109911516707	0,000413918373	-1,3074281978834288	0,048781903918938458	1,3074281978834288
1	0	0	1	0	0	1	27360,00	-0,200000003	2,06716657	-0,00055586917454169856	-0,20011290525781715	0,000413666712	-1,3207690326454027	0,04927966840085081	1,3207690326454027
1	0	0	1	0	0	1	27600,00	-0,200000003	2,06613779	-0,0005558663313430217	-0,20011188170628109	0,000413458707	-1,3341099268073288	0,049777435099055245	1,3341099268073288
1	0	0	1	0	0	1	27840,00	-0,200000003	2,06512833	-0,00055587657520920032	-0,20011556949815005	0,000413264323	-1,3474510025186874	0,050275208571113094	1,3474510025186874
1	0	0	1	0	0	1	28080,00	-0,200000003	2,06419492	-0,00055587934821181824	-0,20011656777910458	0,000413079601	-1,3607920079542022	0,05077297942108473	1,3607920079542022
1	0	0	1	0	0	1	28320,00	-0,200000003	2,06343293	-0,00055586853999892877	-0,20011267682241725	0,000412919093	-1,3741329349151992	0,051270747343066592	1,3741329349151992
1	0	0	1	0	0	1	28560,00	-0,200000003	2,06225204	-0,00055587874605506669	-0,20011635100267136	0,000412690366	-1,387473830784764	0,051768514104985325	1,387473830784764
1	0	0	1	0	0	1	28800,00	-0,200000003	2,06093764	-0,00055587929805864883	-0,20011654972396336	0,000412427733	-1,4008147837533944	0,052266282997346963	1,4008147837533944
1	0	0	1	0	0	1	29040,00	-0,200000003	2,05971861	-0,00055587417412549261	-0,20011470510800477	0,000412179972	-1,4141557600543165	0,05276405276026777	1,4141557600543165
1	0	0	1	0	0	1	29280,00	-0,200000003	2,05844235	-0,00055587046449548666	-0,20011336964118646	0,00041192185	-1,4274966955526238	0,053261821000788166	1,4274966955526238
1	0	0	1	0	0	1	29520,00	-0,200000003	2,0570519	-0,00055588557816627962	-0,20011881056273782	0,000411654793	-1,4408376794374989	0,053759591046676454	1,4408376794374989
1	0	0	1	0	0	1	29760,00	-0,200000003	2,05564237	-0,00055587849446468883	-0,20011626043013424	0,000411367451	-1,4541788345822272	0,054257367482500128	1,4541788345822272
1	0	0	1	0	0	1	30000,00	-0,200000003	2,05440426	-0,00055588252939697773	-0,20011771300577584	0,000411122688	-1,4675200734349853	0,05475514704158295	1,4675200734349853
1	0	0	1	0	0	1	30240,00	-0,200000003	2,05278516	-0,00055588238861908518	-0,20011766232573392	0,000410798559	-1,4808612522089546	0,055252924359045382	1,4808612522089546
1	0	0	1	0	0	1	30480,00	-0,200000003	2,05133748	-0,00055587906334549197	-0,20011646522722586	0,000410506414	-1,4942023899750019	0,055750700146447104	1,4942023899750019
1	0	0	1	0	0	1	30720,00	-0,200000003	2,04958487	-0,0005558730870626039	-0,2001143137653601	0,00041015126	-1,5075434288417862	0,056248472243784352	1,5075434288417862
1	0	0	1	0	0	1	30960,00	-0,200000003	2,04796576	-0,00055587121053453946	-0,2001136382152487	0,00040982588	-1,5208843642029766	0,056746240479188742	1,5208843642029766
1	0	0	1	0	0	1	31200,00	-0,200000003	2,04625154	-0,00055588103895882771	-0,20011717644803533	0,00040949008	-1,5342254109826333	0,057244012871765888	1,5342254109826333
1	0	0	1	0	0	1	31440,00	-0,200000003	2,04436564	-0,00055587110621399354	-0,20011360065985174	0,000409105356	-1,5475664668642275	0,05774178560394857	1,5475664668642275
1	0	0	1	0	0	1	31680,00	-0,200000003	2,04259419	-0,00055587868190970688	-0,20011632791034157	0,000408756459	-1,5609074070145053	0,058239554018040243	1,5609074070145053
1	0	0	1	0	0	1	31920,00	-0,200000003	2,0403657	-0,00055587429692761773	-0,20011474931677037	0,000408307271	-1,5742484431718854	0,058737326014285978	1,5742484431718854
1	0	0	1	0	0	1	32160,00	-0,200000003	2,03819418	-0,00055587392562544998	-0,20011461564798838	0,000407872431	-1,5875893853317232	0,05923509450335703	1,5875893853317232
1	0	0	1	0	0	1	32400,00	-0,200000003	2,03587031	-0,00055587576766726054	-0,20011527878304816	0,000407408748	-1,6009302753657427	0,059732861047543718	1,6009302753657427
1	0	0	1	0	0	1	32640,00	-0,200000003	2,0336988	-0,00055587119377073318	-0,2001136321802784	0,000406970852	-1,6142712083077168	0,060230629192683878	1,6142712083077168
1	0	0	1	0	0	1	32880,00	-0,200000003	2,03124142	-0,00055587510108864966	-0,20011503601917059	0,000406481937	-1,6276121765165526	0,060728398653678067	1,6276121765165526
1	0	0	1	0	0	1	33120,00	-0,200000003	2,02872705	-0,00055586805397106541	-0,20011249905684496	0,000405973638	-1,6409531281339846	0,061226167495624678	1,6409531281339846
1	0	0	1	0	0	1	33360,00	-0,200000003	2,02575564	-0,00055587247621102464	-0,20011409106322733	0,000405382249	-1,6542940475228301	0,061723935135079398	1,6542940475228301
1	0	0	1	0	0	1	33600,00	-0,200000003	2,02289844	-0,00055587183429383571	-0,20011385997303978	0,000404810009	-1,6676349873151091	0,062221703535813645	1,6676349873151091
1	0	0	1	0	0	1	33840,00	-0,200000003	2,01969838	-0,00055587637598647008	-0,20011549498238506	0,000404172955	-1,6809759546562099	0,062719472964431475	1,6809759546562099
1	0	0	1	0	0	1	34080,00	-0,200000003	2,01632667	-0,00055587741958763859	-0,20011587067880506	0,000403498969	-1,6943170283367107	0,06321724636071529	1,6943170283367107
1	0	0	1	0	0	1	34320,00	-0,200000003	2,01303148	-0,00055587118240859776	-0,2001136252943545	0,000402835023	-1,7076579949670493	0,063715015762813632	1,7076579949670493
1	0	0	1	0	0	1	34560,00	-0,200000003	2,00924087	-0,00055586107198645677	-0,20010998554239053	0,000402069156	-1,7209987817975558	0,064212778456338496	1,7209987817975558
1	0	0	1	0	0	1	34800,00	-0,200000003	2,0054884	-0,00055587233139077824	-0,20011403892793872	0,000401326397	-1,7343396258394006	0,064710543284495296	1,7343396258394006
1	0	0	1	0	0	1	35040,00	-0,200000003	2,0008595	-0,00055586938299155898	-0,20011297750422176	0,000400397956	-1,7476805603433578	0,065208311487915149	1,7476805603433578
1	0	0	1	0	0	1	35280,00	-0,200000003	1,99634504	-0,00055585902209331603	-0,20010924758086125	0,000399487093	-1,7610214395375238	0,065706077627652339	1,7610214395375238
1	0	0	1	0	0	1	35520,00	-0,200000003	1,99127829	-0,00055585439549386502	-0,20010758200506198	0,000398469885	-1,7743621327797722	0,066203836829273459	1,7743621327797722
1	0	0	1	0	0	1	35760,00	-0,200000003	1,98592567	-0,00055585533953126925	-0,20010792185852691	0,000397399446	-1,7877027823421974	0,066701594401141645	1,7877027823421974
1	0	0	1	0	0	1	36000,00	-0,200000003	1,97996366	-0,00055586252142323386	-0,20011050733962934	0,000396211544	-1,8010434089993862	0,067199351118384653	1,8010434089993862
1	0	0	1	0	0	1	36240,00	-0,200000003	1,97352529	-0,00055586165180885133	-0,20011019427845219	0,000394922536	-1,8143840363113936	0,067697107860059853	1,8143840363113936
1	0	0	1	0	0	1	36480,00	-0,200000003	1,96662986	-0,00055586062695665478	-0,20010982533166218	0,000393541966	-1,827724690866664	0,068194865618217792	1,827724690866664
1	0	0	1	0	0	1	36720,00	-0,200000003	1,9593153	-0,00055586301527172333	-0,20011068512508518	0,000392079935	-1,8410653984228461	0,068692625353911014	1,8410653984228461
1	0	0	1	0	0	1	36960,00	-0,200000003	1,95152462	-0,00055586210870411661	-0,20011035876074739	0,00039052029	-1,8544060944996362	0,06919038466129271	1,8544060944996362
1	0	0	1	0	0	1	37200,00	-0,200000003	1,94377196	-0,0005558550465678176	-0,20010781639168445	0,000388963963	-1,8677467021698256	0,069688140670105254	1,8677467021698256
1	0	0	1	0	0	1	37440,00	-0,200000003	1,93569553	-0,00055585988050368096	-0,20010955660859206	0,000387351174	-1,8810873474844669	0,070185898083482906	1,8810873474844669
1	0	0	1	0	0	1	37680,00	-0,200000003	1,92721903	-0,0005558658538187543	-0,20011170700201443	0,000385659077	-1,8944281120689722	0,070683659946979546	1,8944281120689722
1	0	0	1	0	0	1	37920,00	-0,200000003	1,91834259	-0,00055585589780244563	-0,20010812283615002	0,000383875944	-1,9077688761154781	0,071181421790402714	1,9077688761154781
1	0	0	1	0	0	1	38160,00	-0,200000003	1,90938997	-0,00055586360599928435	-0,20011089778700678	0,000382089755	-1,9211095223890685	0,071679179239560051	1,9211095223890685
1	0	0	1	0	0	1	38400,00	-0,200000003	1,90028489	-0,00055585731589049107	-0,20010863334784541	0,000380263402	-1,934450217486137	0,072176938510387008	1,934450217486137
1	0	0	1	0	0	1	38640,00	-0,200000003	1,89110363	-0,00055586624058501594	-0,20011184623786838	0,000378432247	-1,94779090225972	0,072674697396030835	1,94779090225972
1	0	0	1	0	0	1	38880,00	-0,200000003	1,88169384	-0,00055586017113510106	-0,20010966123590307	0,000376545126	-1,961131560446855	0,073172455289698534	1,961131560446855
1	0	0	1	0	0	1	39120,00	-0,200000003	1,87232208	-0,00055586261504226266	-0,20011054104247962	0,000374671392	-1,9744722693227101	0,073670215074630541	1,9744722693227101
1	0	0	1	0	0	1	39360,00	-0,200000003	1,86235988	-0,00055586790763338406	-0,20011244637527978	0,000372681388	-1,9878131084290477	0,074167979718636954	1,9878131084290477
1	0	0	1	0	0	1	39600,00	-0,200000003	1,85235953	-0,0005558703586210807	-0,20011332873084893	0,000370681839	-2,0011539785660419	0,074665745520438861	2,0011539785660419
1	1	0	0	0	0	2	39830,00	0,200000003	2,24023867	0,00055534266986449562	0,19992336077883213	0,000447876053	-1,9883811685594166	0,074189174805865971	0,012772810006625122
1	1	0	0	0	0	2	40070,00	0,200000003	2,26035357	0,0005553388438514537	0,19992198341413965	0,000451894361	-1,975053108612647	0,073691886969484826	0,026100869953394762
1	1	0	0	0	0	2	40310,00	0,200000003	2,2661252	0,00055533907522592282	0,19992206670894832	0,000453048444	-1,9617250103513066	0,073194597703535488	0,039428968214735379
1	1	0	0	0	0	2	40550,00	0,200000003	2,26452518	0,0005553303208599488	0,19991891513720355	0,000452721404	-1,9483969383774557	0,07269730941840777	0,052757040188586528
1	1	0	0	0	0	2	40790,00	0,200000003	2,26069641	0,00055533203729407654	0,19991953305348838	0,00045195737	-1,9350688674892861	0,072200021173788275	0,066085111076755635
1	1	0	0	0	0	2	41030,00	0,200000003	2,25682974	0,00055533135141763418	0,19991928613796963	0,000451183791	-1,921740827954487	0,071702734099005184	0,079413150611554586
1	1	0	0	0	0	2	41270,00	0,200000003	2,25372481	0,00055533918573458989	0,19992210649206842	0,000450569409	-1,9084126765747386	0,071205442851136653	0,092741301991302938
1	1	0	0	0	0	2	41510,00	0,200000003	2,25119138	0,00055533802748885421	0,19992168952360435	0,000450061983	-1,8950845063931523	0,070708150901746278	0,10606947217288946
1	1	0	0	0	0	2	41750,00	0,200000003	2,2492485	0,00055533554916083814	0,19992079732552019	0,000449671556	-1,8817564057524317	0,070210861547019085	0,11939757281361024
1	1	0	0	0	0	2	41990,00	0,200000003	2,24743891	0,00055533602445407053	0,19992096843108355	0,000449310173	-1,8684283035691645	0,069713572134737421	0,13272567499687688
1	1	0	0	0	0	2	42230,00	0,200000003	2,2462008	0,00055533605074551373	0,19992097789600307	0,000449062674	-1,8551003202474474	0,069216287157339994	0,14605365831859411
1	1	0	0	0	0	2	42470,00	0,200000003	2,24551511	0,00055534355159600576	0,1999236782021752	0,000448931649	-1,8417721410128387	0,068718994870169165	0,15938183755320314
1	1	0	0	0	0	2	42710,00	0,200000003	2,24467683	0,00055533482024404736	0,19992053491547603	0,000448756997	-1,8284440696529693	0,068221706607949901	0,1727099089130727
1	1	0	0	0	0	2	42950,00	0,200000003	2,24452448	0,0005553384147485097	0,19992182893708006	0,000448729435	-1,8151159730730538	0,067724417404736819	0,18603800549298778
1	1	0	0	0	0	2	43190,00	0,200000003	2,24437213	0,00055532937607500288	0,19991857501462368	0,000448691688	-1,8017878529661443	0,067227127323699968	0,19936612559989674
1	1	0	0	0	0	2	43430,00	0,200000003	2,244277	0,00055533169818503987	0,19991941097423542	0,000448674546	-1,788459799047873	0,066729839712250189	0,21269417951816822
1	1	0	0	0	0	2	43670,00	0,200000003	2,24456263	0,00055534573887785274	0,19992446562363862	0,000448742998	-1,7751316856345706	0,066232549880960806	0,22602229293147066
1	1	0	0	0	0	2	43910,00	0,200000003	2,24479127	0,00055533247998770739	0,1999196924231952	0,000448777981	-1,7618035791592365	0,065735260308536333	0,23935039940680486
1	1	0	0	0	0	2	44150,00	0,200000003	2,24509597	0,00055534010617269408	0,19992243784978534	0,000448845065	-1,7484755684336525	0,065237974308663808	0,25267841013238838
1	1	0	0	0	0	2	44390,00	0,200000003	2,24526739	0,0005553354333473577	0,19992075563266733	0,000448875566	-1,7351474953686448	0,064740685982823539	0,266006483197396
1	1	0	0	0	0	2	44630,00	0,200000003	2,24585795	0,00055534827774597542	0,19992537961616112	0,000449004001	-1,7218193905561469	0,064243396472441728	0,27933458800989379
1	1	0	0	0	0	2	44870,00	0,200000003	2,2463913	0,00055534574204766093	0,19992446676476957	0,000449108571	-1,7084912223043603	0,063746104595054771	0,29266275626168064
1	1	0	0	0	0	2	45110,00	0,200000003	2,24690557	0,00055534702047622867	0,19992492699905312	0,000449212443	-1,6951629971282586	0,063248810593745088	0,30599098143778234
1	1	0	0	0	0	2	45350,00	0,200000003	2,24734378	0,00055534068872945184	0,19992264757021773	0,000449294923	-1,6818349243021843	0,06275152227681975	0,31931905426385658
1	1	0	0	0	0	2	45590,00	0,200000003	2,24806762	0,0005553355403029257	0,19992079413667174	0,000449435465	-1,6685067877869299	0,062254231583565478	0,33264719077911046
1	1	0	0	0	0	2	45830,00	0,200000003	2,24858189	0,00055533516596588826	0,19992065937533853	0,000449537969	-1,6551787109120365	0,061756943115573248	0,34597526765400397
1	1	0	0	0	0	2	46070,00	0,200000003	2,24922943	0,0005553415262268649	0,19992294906928586	0,000449672574	-1,6418505944199696	0,061259653169411034	0,35930338414607021
1	1	0	0	0	0	2	46310,00	0,200000003	2,24953413	0,00055533619049522605	0,19992102820589942	0,000449729181	-1,6285224067105379	0,060762360566033178	0,37263157185550195
1	1	0	0	0	0	2	46550,00	0,200000003	2,25002956	0,00055535121718297402	0,19992643781347862	0,000449840387	-1,6151942394843738	0,060265068726913574	0,38595973908166566
1	1	0	0	0	0	2	46790,00	0,200000003	2,25073433	0,00055534206539226906	0,19992314316883101	0,000449973886	-1,6018658965700682	0,059767770332633178	0,39928808199597126
1	1	0	0	0	0	2	47030,00	0,200000003	2,25128675	0,00055533726698491309	0,19992141574218605	0,000450080435	-1,5885377633556646	0,059270479762538099	0,41261621521037466
1	1	0	0	0	0	2	47270,00	0,200000003	2,25187707	0,00055534205044474867	0,19992313778772368	0,000450202322	-1,5752095631890544	0,058773186694366157	0,42594441537698515
1	1	0	0	0	0	2	47510,00	0,200000003	2,25271535	0,00055533757607969971	0,19992152701630902	0,000450366293	-1,561881454954663	0,058275897056308915	0,43927252361137645
1	1	0	0	0	0	2	47750,00	0,200000003	2,25313425	0,00055535328279601203	0,19992718143417094	0,000450462772	-1,5485531254906029	0,057778599163875277	0,45260085307543616
1	1	0	0	0	0	2	47990,00	0,200000003	2,25395346	0,00055534413318915494	0,19992388757570854	0,000450619147	-1,5352249130311101	0,057281305637039347	0,46592906553492928
1	1	0	0	0	0	2	48230,00	0,200000003	2,25444865	0,00055534102638810874	0,19992276912733398	0,000450715626	-1,5218966228739322	0,056784009211198342	0,47925735569210669
1	1	0	0	0	0	2	48470,00	0,200000003	2,25532484	0,00055533917396432826	0,19992210225477424	0,000450889289	-1,5085684479519619	0,056286717084937862	0,49258553061407712
1	1	0	0	0	0	2	48710,00	0,200000003	2,25593448	0,00055533927181528672	0,1999221374811192	0,000451011234	-1,4952403095538499	0,055789426321431648	0,5059136690121888
1	1	0	0	0	0	2	48950,00	0,200000003	2,25665832	0,0005553471299037337	0,19992496639295485	0,000451162341	-1,4819120667286224	0,055292131661609338	0,51924191183741619
1	1	0	0	0	0	2	49190,00	0,200000003	2,25740123	0,00055534154861917094	0,199922957130516	0,000451306318	-1,4685838546155811	0,054794838147699994	0,53257012395045722
1	1	0	0	0	0	2	49430,00	0,200000003	2,25801063	0,00055534280687404998	0,19992341010227162	0,000451429194	-1,4552556679363718	0,05429754558276112	0,54589831062966643
1	1	0	0	0	0	2	49670,00	0,200000003	2,25879169	0,00055533525011026195	0,19992068966731299	0,000451579195	-1,4419275530900547	0,053800255698004026	0,55922642547598368
1	1	0	0	0	0	2	49910,00	0,200000003	2,25943923	0,00055533405825495718	0,19992026059940406	0,000451707689	-1,4285995183975166	0,053302968803892205	0,5725544601685216
1	1	0	0	0	0	2	50150,00	0,200000003	2,26016307	0,00055534711178143814	0,19992495986892848	0,000451863016	-1,415271476044807	0,052805681623969075	0,58588250252123072
1	1	0	0	0	0	2	50390,00	0,200000003	2,2610774	0,00055534160336107021	0,19992297683759971	0,000452041335	-1,4019432837052773	0,052308388847836032	0,59921069486076006
1	1	0	0	0	0	2	50630,00	0,200000003	2,26166797	0,00055533884349465376	0,19992198328569165	0,000452157139	-1,3886150685409437	0,051811095220078874	0,61253891002509376
1	1	0	0	0	0	2	50870,00	0,200000003	2,26233459	0,0005553311329450873	0,1999192074878529	0,000452284148	-1,3752869306366909	0,0513138044749992	0,62586704792934605
1	1	0	0	0	0	2	51110,00	0,200000003	2,26330614	0,00055533303703202144	0,19991989295914787	0,00045247993	-1,3619588531164312	0,050816515982927501	0,63919512544960614
1	1	0	0	0	0	2	51350,00	0,200000003	2,26401091	0,00055533000209596416	0,19991880038216934	0,000452618347	-1,3486308716678149	0,050319231075417984	0,65252310689822259
1	1	0	0	0	0	2	51590,00	0,200000003	2,2650013	0,00055533238440420896	0,19991965801313584	0,000452818291	-1,3353029585912779	0,049821948718962669	0,66585101997475904
1	1	0	0	0	0	2	51830,00	0,200000003	2,26578236	0,00055533476145648294	0,1999205137519529	0,000452976383	-1,3219748749010942	0,04932465999668281	0,679179103664944
1	1	0	0	0	0	2	52070,00	0,200000003	2,26652527	0,00055532844008919264	0,19991823805973261	0,000453119748	-1,3086468337794866	0,04882737286269376	0,69250714478655168
1	1	0	0	0	0	2	52310,00	0,200000003	2,26742053	0,00055533237325565683	0,19991965399965709	0,000453301938	-1,2953188137768043	0,048330086516680205	0,70583516478923354
1	1	0	0	0	0	2	52550,00	0,200000003	2,26827765	0,00055532884584946765	0,19991838413343133	0,000453470391	-1,2819908149547917	0,047832800960945907	0,71916316361124634
1	1	0	0	0	0	2	52790,00	0,200000003	2,26896334	0,00055533755148450534	0,19992151816203907	0,000453614601	-1,2686628810494779	0,047335517827340941	0,73249109751655962
1	1	0	0	0	0	2	53030,00	0,200000003	2,26987767	0,00055534368503590419	0,19992372624053856	0,000453802408	-1,255334663878392	0,046838224124709146	0,74581931468764582
1	1	0	0	0	0	2	53270,00	0,200000003	2,27081108	0,00055532999134808774	0,19991879651293379	0,000453977817	-1,2420065112630478	0,046340932830738874	0,75914746730299034
1	1	0	0	0	0	2	53510,00	0,200000003	2,27178264	0,00055532740069346298	0,19991786387727066	0,000454169931	-1,2286785684215072	0,045843649363711264	0,77247541014453082
1	1	0	0	0	0	2	53750,00	0,200000003	2,27281117	0,00055533481396983066	0,19992053265675802	0,000454381632	-1,2153506018892618	0,045346365012751597	0,78580337667677619
1	1	0	0	0	0	2	53990,00	0,200000003	2,27366829	0,00055533669006907277	0,19992120805248394	0,000454554509	-1,2020225864146019	0,044849078835684646	0,79913139215143578
1	1	0	0	0	0	2	54230,00	0,200000003	2,27492547	0,0005553348617967632	0,1999205498744537	0,000454804365	-1,1886944643676976	0,044351788682263968	0,81245951419834022
1	1	0	0	0	0	2	54470,00	0,200000003	2,2759161	0,00055533660907712256	0,19992117889538192	0,000455003843	-1,1753664197131402	0,043854501416455802	0,82578755885289766
1	1	0	0	0	0	2	54710,00	0,200000003	2,27698278	0,00055533500361276992	0,19992060092821603	0,000455215777	-1,1620384587881546	0,043357217274710541	0,83911551977788314
1	1	0	0	0	0	2	54950,00	0,200000003	2,27797318	0,00055533484108332128	0,19992054241761462	0,000455413625	-1,1487105194120886	0,042859933936984448	0,85244345915394918
1	1	0	0	0	0	2	55190,00	0,200000003	2,27898288	0,00055533557015491853	0,19992080488338915	0,0004556161	-1,135382541319216	0,04236264915468224	0,86577143724682163
1	1	0	0	0	0	2	55430,00	0,200000003	2,27997327	0,00055533227729797363	0,19991961945489117	0,000455811387	-1,1220545122060272	0,041865362468743443	0,87909946636001075
1	1	0	0	0	0	2	55670,00	0,200000003	2,28113532	0,00055531906352109382	0,19991486249522333	0,000456032867	-1,1087265817564899	0,041368079464078131	0,89242739680954803
1	1	0	0	0	0	2	55910,00	0,200000003	2,2825067	0,00055534110581792064	0,19992279772206621	0,000456325128	-1,0953986266268123	0,040870795538563603	0,90575535193922611
1	1	0	0	0	0	2	56150,00	0,200000003	2,28357339	0,000555329253597392	0,19991853092268384	0,000456528651	-1,082070636574923	0,040373510310054406	0,91908334199111501
1	1	0	0	0	0	2	56390,00	0,200000003	2,28467822	0,00055533590663058886	0,19992092601463027	0,000456754991	-1,0687426797259632	0,039876226320391142	0,93241129884007501
1	1	0	0	0	0	2	56630,00	0,200000003	2,28606868	0,00055533078394085165	0,19991908184632829	0,000457028742	-1,0554148464495048	0,039378946941384058	0,94573913211653299
1	1	0	0	0	0	2	56870,00	0,200000003	2,28732586	0,00055533567625366982	0,19992084307893955	0,000457284128	-1,0420868291024859	0,038881660694456877	0,95906714946355174
1	1	0	0	0	0	2	57110,00	0,200000003	2,28858304	0,00055533857273475987	0,19992188581213002	0,000457537826	-1,0287586334785694	0,03838436779577895	0,97239534508746893
1	1	0	0	0	0	2	57350,00	0,200000003	2,28995466	0,0005553342064039575	0,1999203139330441	0,000457808463	-1,0154304314193534	0,037887074656991341	0,98572354714668493
1	1	0	0	0	0	2	57590,00	0,200000003	2,29138327	0,00055533696241262886	0,19992130609616397	0,000458096329	-1,0021023416688235	0,037389785708591821	0,99905163689721498
1	1	0	0	0	0	2	57830,00	0,200000003	2,29283094	0,00055533793958028154	0,19992165787651824	0,000458386552	-0,98877416509648755	0,036892493520753971	1,0123798134695507
1	1	0	0	0	0	2	58070,00	0,200000003	2,29445004	0,00055534845639848045	0,19992544393106278	0,000458718947	-0,97544594982220595	0,036395199888894509	1,025708028743833
1	1	0	0	0	0	2	58310,00	0,200000003	2,29599285	0,00055534266845219661	0,19992336027040451	0,000459022616	-0,96211760437758618	0,035897901400204704	1,0390363741884528
1	1	0	0	0	0	2	58550,00	0,200000003	2,2975738	0,00055533411468151546	0,19992028091296506	0,000459331612	-0,94878947905356134	0,035400611124510253	1,0523644995124781
1	1	0	0	0	0	2	58790,00	0,200000003	2,29905963	0,00055534999676297114	0,1999259984622784	0,0004596418	-0,93546126463524864	0,034903317524588134	1,065692713930791
1	1	0	0	0	0	2	59030,00	0,200000003	2,30067873	0,00055534021896289459	0,19992247845425744	0,000459957402	-0,92213311971173222	0,034406026517610291	1,0790208588543075
1	1	0	0	0	0	2	59270,00	0,200000003	2,3023169	0,00055533450384189677	0,19992042101070208	0,000460280164	-0,90880502219819981	0,033908737279562707	1,0923489563678402
1	1	0	0	0	0	2	59510,00	0,200000003	2,30410743	0,00055533922280702323	0,19992211983814438	0,000460642041	-0,89547681443398349	0,033411443927913869	1,1056771641320571
1	1	0	0	0	0	2	59750,00	0,200000003	2,30559325	0,00055533322649863027	0,19991996116712694	0,000460934127	-0,88214886605198579	0,032914160254164352	1,119005112514055
1	1	0	0	0	0	2	59990,00	0,200000003	2,3072505	0,00055534157111909658	0,19992296523048922	0,000461272371	-0,86882087557972915	0,032416875009970688	1,1323331029863115
1	1	0	0	0	0	2	60230,00	0,200000003	2,3088696	0,00055534079971661171	0,1999226875255952	0,000461595424	-0,85549272057889344	0,031919583626994522	1,1456612579871472
1	1	0	0	0	0	2	60470,00	0,200000003	2,31085062	0,00055532435418582624	0,19991676713452346	0,00046197779	-0,84216482344910554	0,03142230186553385	1,1589891551169355
1	1	0	0	0	0	2	60710,00	0,200000003	2,31239343	0,00055533285283545651	0,19991982664838464	0,000462293305	-0,82883704082085811	0,030925024376279616	1,1723169377451832
1	1	0	0	0	0	2	60950,00	0,200000003	2,31405067	0,00055532589981208243	0,19991732355997466	0,000462618831	-0,81550912169680704	0,03042774179418343	1,1856448568692339
1	1	0	0	0	0	2	61190,00	0,200000003	2,3156507	0,000555322356959184	0,1999160481329336	0,000462935743	-0,8021812656175433	0,029930461564373018	1,1989727129484973
1	1	0	0	0	0	2	61430,00	0,200000003	2,31728888	0,00055533269928147392	0,19991977136895104	0,000463271863	-0,78885330331309107	0,029433177371158003	1,2123006752529499
1	1	0	0	0	0	2	61670,00	0,200000003	2,31852698	0,00055533176711201677	0,19991943578794707	0,000463518605	-0,77552536646165261	0,028935894127629152	1,2256286121043886
1	1	0	0	0	0	2	61910,00	0,200000003	2,31982231	0,00055534221569531494	0,19992319727792739	0,000463786302	-0,76219732725171469	0,028438607064967069	1,2389566513143269
1	1	0	0	0	0	2	62150,00	0,200000003	2,3211174	0,00055534329033974144	0,19992358414992022	0,000464046112	-0,74886913280154982	0,027941314210083389	1,2522848457644917
1	1	0	0	0	0	2	62390,00	0,200000003	2,3224318	0,00055534727080994182	0,1999250171191897	0,000464312208	-0,73554091582829786	0,027444020514833046	1,2656130627377435
1	1	0	0	0	0	2	62630,00	0,200000003	2,32347941	0,00055533374925620026	0,19992014935985178	0,000464510347	-0,72221278864401434	0,026946730169729846	1,2789411899220264
1	1	0	0	0	0	2	62870,00	0,200000003	2,32475567	0,00055534211423744755	0,1999231607530952	0,000464772515	-0,70888462976151398	0,026449438641923555	1,2922693488045269
1	1	0	0	0	0	2	63110,00	0,200000003	2,32538438	0,00055533443005134662	0,19992039444610403	0,000464891753	-0,69555656325081613	0,025952150560633408	1,3055974153152253
1	1	0	0	0	0	2	63350,00	0,200000003	2,32631755	0,0005553387270280057	0,19992194135769843	0,000465081917	-0,68222848966889395	0,025454862215506371	1,318925488897147
1	1	0	0	0	0	2	63590,00	0,200000003	2,32709861	0,00055533578425563053	0,19992088195964534	0,000465235615	-0,66890040619121165	0,024957573501155222	1,3322535723748299
1	1	0	0	0	0	2	63830,00	0,200000003	2,32755589	0,00055532024646053709	0,19991528835342208	0,00046531402	-0,6555723962795959	0,024460287531652931	1,3455815822864456
1	1	0	0	0	0	2	64070,00	0,200000003	2,32782245	0,000555337346818712	0,19992144448235363	0,000465381629	-0,64224450486808896	0,023963005983549018	1,3589094736979533
1	1	0	0	0	0	2	64310,00	0,200000003	2,32812715	0,00055533484928558272	0,19992054537042874	0,000465440447	-0,62891643921336563	0,023465717934196432	1,3722375393526758
1	1	0	0	0	0	2	64550,00	0,200000003	2,32841301	0,0005553446744622455	0,19992408243402077	0,000465505844	-0,61558827332732941	0,0229684261450788	1,3855657052387118
1	1	0	0	0	0	2	64790,00	0,200000003	2,32875586	0,00055534236992730042	0,19992325280144205	0,000465572433	-0,60226011667934362	0,022471134700645254	1,3988938618866984
1	1	0	0	0	0	2	65030,00	0,200000003	2,32906055	0,00055533088952551283	0,19991911985680624	0,000465623743	-0,58893202300668557	0,021973845605905853	1,4122219555593565
1	1	0	0	0	0	2	65270,00	0,200000003	2,32934642	0,00055533628298093882	0,19992106150075597	0,000465685414	-0,57560404432550349	0,021476560801653027	1,4255499342405382
1	1	0	0	0	0	2	65510,00	0,200000003	2,32951784	0,00055534615372121338	0,19992461496724819	0,000465727964	-0,56227584393819782	0,020979267725246643	1,4388781346278437
1	1	0	0	0	0	2	65750,01	0,200000003	2,32961297	0,00055534385324186746	0,19991983569233965	0,000465735851	-0,54894752277307667	0,020481970142457578	1,4522064557929648
1	1	0	0	0	0	2	65990,01	0,200000003	2,32989883	0,00055535353728300992	0,19992332257645574	0,000465801102	-0,53561907015178989	0,019984667654862227	1,4655349084142518
1	1	0	0	0	0	2	66230,01	0,200000003	2,33012724	0,00055535705229391661	0,19992458745033402	0,000465849735	-0,52229051381545978	0,019487361297519165	1,4788634647505818
1	1	0	0	0	0	2	66470,02	0,200000003	2,33031774	0,00055534874630057146	0,19992159754034221	0,000465880847	-0,50896206797691731	0,018990059062997126	1,4921919105891245
1	1	0	0	0	0	2	66710,02	0,200000003	2,33062267	0,00055534649396687744	0,19992078684424061	0,000465939927	-0,49563369895700032	0,018492759694681283	1,5055202796090413
1	1	0	0	0	0	2	66950,03	0,200000003	2,33087015	0,00055535706081075802	0,19992459036971123	0,000465998251	-0,48230525523162368	0,017995457539004304	1,5188487233344182
1	1	0	0	0	0	2	67190,03	0,200000003	2,33125114	0,00055537223460359712	0,19993005352540131	0,000466087164	-0,46897653350390067	0,017498145010685997	1,5321774450621411
1	1	0	0	0	0	2	67430,04	0,200000003	2,33132744	0,00055535494844118752	0,19992382988282109	0,00046608792	-0,45564800962835136	0,017000839864498307	1,5455059689376902
1	1	0	0	0	0	2	67670,04	0,200000003	2,33165121	0,00055536126699795322	0,19992610526539334	0,000466157944	-0,4423194919144055	0,016503534948208333	1,5588344866516355
1	1	0	0	0	0	2	67910,05	0,200000003	2,3320322	0,00055536178274783821	0,19992629018575043	0,000466234545	-0,42899090115214694	0,01600622730638759	1,5721630774138941
1	1	0	0	0	0	2	68150,05	0,200000003	2,33235598	0,00055535975494815245	0,19992556093589443	0,000466297584	-0,41566225248163002	0,015508917503931872	1,5854917260844109
1	1	0	0	0	0	2	68390,06	0,200000003	2,33269882	0,00055535713807410662	0,1999246181374193	0,000466363912	-0,40233368104772582	0,015011610583278022	1,5988202975183149
1	1	0	0	0	0	2	68630,06	0,200000003	2,33290839	0,00055535028865188358	0,19992215313687203	0,000466400059	-0,38900519417034144	0,014514306817541613	1,6121487843956998
1	1	0	0	0	0	2	68870,07	0,200000003	2,33323216	0,00055535710960129901	0,19992460791533971	0,000466470519	-0,37567674659228294	0,014017004518115891	1,6254772319737584
1	1	0	0	0	0	2	69110,07	0,200000003	2,33336544	0,0005553492274300919	0,19992177089947891	0,000466490543	-0,36234834587729946	0,013519703967214506	1,6388056326887418
1	1	0	0	0	0	2	69350,08	0,200000003	2,33401322	0,00055534576368000774	0,19992052378790429	0,000466617144	-0,34901997824021811	0,013022404650494122	1,652134000325823
1	1	0	0	0	0	2	69590,08	0,200000003	2,33407021	0,00055534773888025018	0,1999212346993159	0,000466630183	-0,33569169248226835	0,012525108388794227	1,6654622860837728
1	1	0	0	0	0	2	69830,09	0,200000003	2,3346417	0,00055535454411307974	0,19992368500746278	0,000466750178	-0,32236326436763987	0,012027806815575242	1,6787907141984016
1	1	0	0	0	0	2	70070,09	0,200000003	2,33504176	0,00055534785920464326	0,19992127781043504	0,000466824538	-0,3090348500255801	0,01153050575622932	1,6921191285404608
1	1	0	0	0	0	2	70310,10	0,200000003	2,33540368	0,00055534591973076262	0,19992058035605824	0,000466895261	-0,29570651574143347	0,011033207683951774	1,705447462824608
1	1	0	0	0	0	2	70550,10	0,200000003	2,33586073	0,00055534826675885254	0,19992142452472314	0,000466988597	-0,28237828141091837	0,010535913341078611	1,7187756971551229
1	1	0	0	0	0	2	70790,10	0,200000003	2,33603215	0,00055534728248086234	0,19992107093872678	0,000467022037	-0,26904989317332374	0,010038613255725379	1,7321040853927178
1	1	0	0	0	0	2	71030,11	0,200000003	2,33660364	0,00055534496836364269	0,1999202371259169	0,000467134349	-0,25572159448028026	0,0095413165113997466	1,7454323840857616
1	1	0	0	0	0	2	71270,11	0,200000003	2,33708	0,00055534325740238035	0,19991962193910778	0,00046722815	-0,24239332228072486	0,0090440207555817728	1,7587606562853174
1	1	0	0	0	0	2	71510,12	0,200000003	2,33736563	0,00055534534780846701	0,19992037372568106	0,000467286998	-0,2290649651996295	0,0085467218327194202	1,7720890133664128
1	1	0	0	0	0	2	71750,12	0,200000003	2,33789897	0,00055535209799392358	0,19992280444029658	0,00046739931	-0,21573661132688154	0,008049423029564823	1,7854173672391606
1	1	0	0	0	0	2	71990,13	0,200000003	2,33826089	0,00055534851624982221	0,19992151452821206	0,000467468664	-0,20240828735782944	0,0075521253421573222	1,7987456912082125
1	1	0	0	0	0	2	72230,13	0,200000003	2,33871818	0,00055534847506549626	0,19992149988600816	0,00046756005	-0,18908002502355296	0,0070548299544261696	1,812073953542489
1	1	0	0	0	0	2	72470,14	0,200000003	2,33925152	0,00055534788721634278	0,19992128841577264	0,000467666192	-0,1757517400061544	0,0065575337203572352	1,8254022385598877
1	1	0	0	0	0	2	72710,14	0,200000003	2,3398037	0,00055534046319789357	0,19991861534717667	0,000467770325	-0,16242355440068477	0,0060602411954810278	1,8387304241653571
1	1	0	0	0	0	2	72950,15	0,200000003	2,34039426	0,00055534139179438349	0,1999189503311736	0,000467889156	-0,14909540973196326	0,0055629501980099354	1,8520585688340784
1	1	0	0	0	0	2	73190,15	0,200000003	2,34115624	0,00055534956856817011	0,19992189316914195	0,000468048383	-0,13576719415788416	0,005065656554964617	1,8653867844081578
1	1	0	0	0	0	2	73430,16	0,200000003	2,34161329	0,00055534059654507373	0,19991866405173414	0,000468132203	-0,12243897854943971	0,004568362910637081	1,8787150000166019
1	1	0	0	0	0	2	73670,16	0,200000003	2,34205151	0,00055534803991516435	0,19992134286493683	0,000468226091	-0,1091107140519551	0,0040710674421937248	1,8920432645140864
1	1	0	0	0	0	2	73910,17	0,200000003	2,34279442	0,00055533510982907475	0,19991668887067984	0,000468363694	-0,095782600724667136	0,0035737776141136557	1,9053713778413744
1	1	0	0	0	0	2	74150,17	0,200000003	2,34332776	0,0005553396279621456	0,19991831461937683	0,000468474143	-0,082454417043799987	0,0030764851610469568	1,9186995615222413
1	1	0	0	0	0	2	74390,18	0,200000003	2,34389925	0,00055534503912346234	0,19992026334602211	0,000468592945	-0,069126260939756915	0,0025791937369086403	1,9320277176262845
1	1	0	0	0	0	2	74630,18	0,200000003	2,34450865	0,00055533533527867654	0,19991676931296317	0,000468706596	-0,055798039931080288	0,0020818998910911811	1,9453559386349613
1	1	0	0	0	0	2	74870,19	0,200000003	2,3451755	0,00055533194405751091	0,19991554899900144	0,000468837039	-0,042470005857731622	0,0015846130200821459	1,9586839727083098
1	1	0	0	0	0	2	75110,19	0,200000003	2,3459754	0,00055534347473995558	0,1999196997927527	0,000469006685	-0,029141805680599354	0,001087319951517615	1,9720121728854419
1	1	0	0	0	0	2	75350,20	0,200000003	2,34660411	0,00055534586692849792	0,19992056081727693	0,000469134422	-0,015813496341441942	0,00059002280997115622	1,9853404822245994
1	1	0	0	0	0	2	75590,20	0,200000003	2,34700394	0,0005553420626256201	0,1999191917628088	0,00046921114	-0,0024852749825251152	9,2728951085764442E-005	1,9986687035835165
1	1	0	0	0	0	2	75600,00	0,200000003	2,34708023	0,00054416404000504147	0,19991744167299002	0,000469222286	-0,0019411109425200736	7,2425459116843226E-005	1,9992128676235216