File: Experimentelles/Ausgewaehlte_Daten/LiS/CV/LiS_NMR_02_CV_C01.mpt
EC-Lab ASCII FILE
Nb header lines : 77

Cyclic Voltammetry

Run on channel : 1 (SN 6985)
Grouped channel(s) : 1
User :
CE vs. WE compliance from -10 V to 10 V
Electrode connection : standard
Ewe ctrl range : min = 0,00 V, max = 5,00 V
Acquisition started on : 09.17.2015 16:13:32
Saved on :
	File : LiS_NMR_02_CV_C01.mpr
	Directory : C:\Gielisch\NeueZelle\LiS-Test\150917\
	Host : 192.168.0.2
Device : VMP3 (SN 0324)
Address : 192.168.0.1
EC-Lab for windows v10.33 (software)
Internet server v10.33 (firmware)
Command interpretor v10.32 (firmware)
Electrode material :
Initial state :
Electrolyte :
Comments :
Mass of active material : 0,001 mg
 at x = 0,000
Molecular weight of active material (at x = 0) : 0,001 g/mol
Atomic weight of intercalated ion : 0,001 g/mol
Acquisition started at : xo = 0,000
Number of e- transfered per intercalated ion : 1
for DX = 1, DQ = 26,801 mA.h
Battery capacity : 0,000 A.h
Electrode surface area : 0,001 cm²
Characteristic mass : 0,001 g
Ei (V)              0,000
vs.                 Eoc
dE/dt               10,000
dE/dt unit          mV/s
E1 (V)              3,000
vs.                 Ref
Step percent        50
N                   10
E range min (V)     0,000
E range max (V)     5,000
I Range             Auto
Bandwidth           5
E2 (V)              1,200
vs.                 Ref
nc cycles           0
Reverse Scan        1
Ef (V)              0,000
vs.                 Eoc

Modify on : 09.17.2015 16:27
E1 (V)              4,000

Modify on : 09.17.2015 16:34
E1 (V)              3,500

Modify on : 09.17.2015 16:35
E2 (V)              1,400

Modify on : 09.17.2015 16:45
E2 (V)              1,500

Number of loops : 8
Loop 0 from point number 0 to 3600
Loop 1 from point number 3601 to 7199
Loop 2 from point number 7200 to 10799
Loop 3 from point number 10800 to 15998
Loop 4 from point number 15999 to 20197
Loop 5 from point number 20198 to 24196
Loop 6 from point number 24197 to 28195
Loop 7 from point number 28196 to 32194

mode	ox/red	error	control changes	counter inc.	time/s	control/V	Ewe/V	<I>/mA	cycle number	(Q-Qo)/C	P/W
2	1	1	1	0	0,0508	2,82128692	2,8214798	0,00010477699106559158	1	0	2,95626165E-007
2	1	0	1	0	5,9066	2,87984538	2,8803606	0,0055895104979518106	1	2,7372851E-005	1,60998061E-005
2	1	0	0	0	11,8076	2,93885469	2,93932724	0,0063149540941662413	1	6,26989495E-005	1,85617173E-005
2	1	0	1	0	17,7086	2,99786472	2,99841404	0,0070509598299395392	1	0,00010229004	2,11416973E-005
2	0	0	1	0	23,4798	2,94445586	2,94479823	-0,004315754733397639	1	9,10908057E-005	1,2709027E-005
2	0	0	0	0	29,3808	2,88544631	2,88611722	-0,0051883198019048064	1	6,25640168E-005	1,4974099E-005
2	0	0	1	0	35,2818	2,82643676	2,82707477	-0,0057589786700663059	1	3,00818483E-005	1,62810629E-005
2	0	0	0	0	41,1828	2,76742744	2,76815724	-0,0066505169551992346	1	-6,46228409E-006	1,84096771E-005
2	0	0	0	0	47,0837	2,70841742	2,70911455	-0,0081295977251008154	1	-4,98683003E-005	2,20240108E-005
2	0	0	1	0	53,0246	2,64900827	2,64942241	-0,010234390607500366	1	-0,000104315113	2,71152239E-005
2	0	0	0	0	58,9256	2,58999848	2,5905807	-0,012859606919206566	1	-0,000172352826	3,33138487E-005
2	0	0	1	0	64,8266	2,53098917	2,53141809	-0,016166359459964086	1	-0,000257715204	4,09238164E-005
2	0	0	0	0	70,7276	2,47197962	2,47245598	-0,021046853201739658	1	-0,000366658584	5,20374197E-005
2	0	0	0	0	76,6284	2,4129703	2,41355181	-0,029032512339418336	1	-0,000512572587	7,00714736E-005
2	0	0	1	0	82,5294	2,35396075	2,35462093	-0,042804230629742477	1	-0,000720985408	0,000100787736
2	0	0	0	0	88,4304	2,29495096	2,29542732	-0,066474097573922867	1	-0,00103796297	0,000152586465
2	0	0	1	0	94,3714	2,23554134	2,23603725	-0,10334551541341686	1	-0,0015347969	0,000231084428
2	0	0	1	0	100,2722	2,17653275	2,17721391	-0,18468404295879725	1	-0,00234777108	0,000402096659
2	0	0	0	0	106,1732	2,11752272	2,11811757	-0,41022715082875091	1	-0,00400288124	0,000868909352
2	0	0	1	0	112,0742	2,05851293	2,05918241	-0,76260291495257088	1	-0,0074306624	0,0015703385
2	0	0	0	0	118,0152	1,99910343	1,99967694	-1,15573299276056	1	-0,0131156305	0,00231109257
2	0	0	1	0	123,9162	1,94009376	1,94097757	-1,5713236533381315	1	-0,0211557094	0,00304990401
2	0	0	1	0	129,8170	1,88108432	1,88153434	-1,9465528889386742	1	-0,0315613821	0,00366250612
2	0	0	0	0	135,7180	1,82207477	1,82270157	-2,2240219543929491	1	-0,0439275615	0,00405372819
2	0	0	1	0	141,6190	1,76306534	1,76365924	-2,3055971055119072	1	-0,0576724559	0,00406628754
2	0	0	0	0	147,5200	1,70405591	1,70471501	-2,5320353256883389	1	-0,0718707517	0,00431639841
2	0	0	0	0	153,4208	1,64504611	1,6457175	-2,8193125081834864	1	-0,0876569301	0,00463979179
2	0	0	1	0	159,3218	1,58603656	1,58659911	-3,1372491518656602	1	-0,105248377	0,00497755688
2	0	0	0	0	165,2228	1,52702725	1,52774417	-3,4670347245754912	1	-0,124701105	0,00529674208
2	0	0	1	0	171,1238	1,4680177	1,46842134	-3,7758062652967507	1	-0,146085545	0,00554447435
2	0	0	1	0	177,0247	1,40900826	1,40951335	-4,0606398454517824	1	-0,169383138	0,00572352624
2	0	0	0	0	182,9256	1,34999883	1,35056424	-4,3322907780055571	1	-0,194137439	0,00585103687
2	0	0	1	0	188,8266	1,29098928	1,29176247	-4,6586546528118477	1	-0,22054033	0,00601787539
2	0	0	0	0	194,7276	1,23197961	1,23266232	-4,9436806931539866	1	-0,248872474	0,00609388901
2	1	0	1	1	200,4790	1,22557867	1,2262243	-4,9110378932069824	1	-0,277652353	0,00602203421
2	1	0	1	1	206,3799	1,28458869	1,285339	-4,4971609232942054	1	-0,305403858	0,00578037649
2	1	0	0	1	212,2808	1,34359777	1,34429991	-4,2070556271959168	1	-0,330998719	0,00565554434
2	1	0	1	1	218,1818	1,4026072	1,4030081	-3,7240279786012634	1	-0,354396671	0,00522484165
2	1	0	0	1	224,0828	1,46161664	1,46222842	-3,3199742900000614	1	-0,375168651	0,00485456083
2	1	0	0	1	229,9837	1,52062547	1,52115858	-2,9488047707080941	1	-0,393645614	0,0044855997
2	1	0	1	1	235,8846	1,57963574	1,58032632	-2,6210583843014845	1	-0,410106122	0,00414212747
2	1	0	0	1	241,7856	1,63864517	1,63912356	-2,2448017078417309	1	-0,424430937	0,00367950741
2	1	0	1	1	247,6866	1,69765472	1,69832611	-1,9130459278821946	1	-0,436695606	0,00324897585
2	1	0	0	1	253,5876	1,75666428	1,75737739	-1,6017157322278771	1	-0,447049528	0,0028148191
2	1	0	0	1	259,4884	1,81567371	1,81633043	-1,30687274425118	1	-0,455617934	0,00237371284
2	1	0	1	1	265,3894	1,87468338	1,875386	-1,0359105120102594	1	-0,462518156	0,00194273202
2	1	0	0	1	271,2904	1,93369293	1,93438387	-0,77295135209957696	1	-0,467846453	0,00149518461
2	1	0	1	1	277,1914	1,99270236	1,99327445	-0,52277397688616122	1	-0,471659005	0,00104203203
2	1	0	0	1	283,1324	2,05211282	2,05279016	-0,28025291199619408	1	-0,4740403	0,000575300422
2	1	0	0	1	289,0332	2,11112142	2,11169314	-0,051084976927894598	1	-0,475013852	0,000107875792
2	1	0	1	1	295,0942	2,171731	2,17227697	0,18998233510043283	1	-0,474594802	0,000412694266
2	1	0	0	1	300,9952	2,23074079	2,23135471	0,42562653869390534	1	-0,472776741	0,000949723762
2	1	0	1	1	306,8962	2,28975034	2,29029918	0,67406678482614285	1	-0,469541907	0,00154381455
2	1	0	1	1	312,7971	2,34876013	2,34935021	0,93372315019461299	1	-0,464797497	0,00219364278
2	1	0	0	1	318,7380	2,40816927	2,40894055	1,1499102907600189	1	-0,458595544	0,00277006556
2	1	0	1	1	324,6390	2,46717906	2,46769762	1,580568264479993	1	-0,450645536	0,00390036451
2	1	0	0	1	330,5400	2,52618861	2,52673984	1,7437612615801683	1	-0,440774262	0,00440603122
2	1	0	1	1	336,4410	2,5851984	2,58580971	2,036835375227703	1	-0,429668576	0,00526686851
2	1	0	1	1	342,3418	2,64420748	2,64465952	2,384135307261225	1	-0,41661486	0,00630522612
2	1	0	0	1	348,2428	2,70321679	2,70379972	2,7399178130759126	1	-0,401509374	0,00740818912
2	1	0	1	1	354,1438	2,76222658	2,76281548	2,9813665477214074	1	-0,384531707	0,0082369661
2	1	0	0	1	360,0248	2,82103634	2,82175994	3,0537183592716915	1	-0,366689622	0,00861686002
2	1	0	0	0	365,9118	2,87954545	2,88006663	2,912544222341641	2	0,0169319082	0,00838832185
2	1	0	1	0	371,8128	2,938555	2,9390955	2,8149049817412042	2	0,0338202864	0,00827327464
2	1	0	0	0	377,7138	2,99756455	2,99811101	2,7075941532298426	2	0,0501557812	0,0081176674
2	0	0	0	0	383,5150	2,94445586	2,94486046	2,1622477226235405	2	0,0641963631	0,00636751764
2	0	0	1	0	389,4160	2,88544631	2,88601446	1,7699789203427478	2	0,0757511407	0,00510818465
2	0	0	0	0	395,3170	2,82643676	2,827106	1,4577792514529478	2	0,0852427781	0,00412129657
2	0	0	1	0	401,2180	2,76742744	2,76815295	1,1998683170036019	2	0,0930553675	0,003321419
2	0	0	1	0	407,1189	2,70841718	2,70894527	0,97969124519056909	2	0,0994699299	0,00265392987
2	0	0	0	0	413,0198	2,64940834	2,64982319	0,78643406361893491	2	0,104669482	0,00208391133
2	0	0	1	0	418,9208	2,59039855	2,59117293	0,60702484790925542	2	0,108776011	0,00157290639
2	0	0	0	0	424,8618	2,53098917	2,53156495	0,4289851764010064	2	0,111852415	0,00108600385
2	0	0	1	0	430,7628	2,47197962	2,47263408	0,23991352154149005	2	0,113834463	0,00059321837
2	0	0	1	0	436,7036	2,41257024	2,41314197	0,014790096113251341	2	0,114610791	3,56906021E-005
2	0	0	0	0	442,6446	2,35316062	2,35371208	-0,27044170680973245	2	0,113884814	0,000636541925
2	0	0	1	0	448,5456	2,29415107	2,29475451	-0,61047512679188237	2	0,111302219	0,00140089053
2	0	0	0	0	454,4466	2,23514128	2,23572564	-0,9899591494489641	2	0,106595084	0,00221327716
2	0	0	1	0	460,3876	2,17573118	2,17632675	-1,4048128515055395	2	0,0994910896	0,00305733178
2	0	0	1	0	466,2884	2,11672258	2,11727118	-1,8467051094328896	2	0,0899088234	0,00390997529
2	0	0	0	0	472,1894	2,05771279	2,05818439	-2,301929219177472	2	0,0776488185	0,00473779486
2	0	0	1	0	478,0904	1,99870336	1,99939167	-2,7121347704971299	2	0,0628200099	0,00542261964
2	0	0	0	0	483,9914	1,93969381	1,94042516	-3,0046568717117734	2	0,0458636358	0,00583031168
2	0	0	0	0	489,8922	1,88068414	1,88129807	-3,1133831228923014	2	0,0277359765	0,00585720176
2	0	0	1	0	495,7932	1,82167459	1,82235825	-3,1118014821851718	2	0,00937749911	0,0056708171
2	0	0	0	0	501,6942	1,76266539	1,76336539	-2,3172390626536502	2	-0,00783373509	0,00408613915
2	0	0	1	0	507,5952	1,70365572	1,70427418	-2,1475958098415971	2	-0,0204606876	0,00366009213
2	0	0	1	0	513,4960	1,64464629	1,64518702	-2,2560753910629811	2	-0,0334260091	0,00371166598
2	0	0	0	0	519,3970	1,5856365	1,58626509	-2,3957515243027034	2	-0,0471229404	0,00380029692
2	0	0	1	0	525,2980	1,5266273	1,52727652	-2,5362617199619491	2	-0,0616681539	0,00387357292
2	0	0	0	0	531,1990	1,46761751	1,46810067	-2,6669744680877018	2	-0,077016063	0,00391538721
2	0	0	1	0	537,1000	1,40860808	1,40914738	-2,8490180057728765	2	-0,0932933688	0,00401468622
2	0	0	1	0	543,0008	1,34959877	1,3502878	-3,0340425314174765	2	-0,110639192	0,00409683073
2	0	0	0	0	548,9018	1,29058921	1,29124117	-3,2373089989026515	2	-0,129127041	0,00418014685
2	0	0	1	0	554,8028	1,23157966	1,23214984	-3,4028251160074093	2	-0,148720041	0,00419279048
2	1	0	0	1	560,6142	1,22657895	1,22728026	-3,3179469031316237	2	-0,168686703	0,00407205056
2	1	0	1	1	566,5152	1,28558838	1,28624678	-2,9645071151079712	2	-0,187185422	0,00381308771
2	1	0	1	1	572,4160	1,34459794	1,34522223	-2,6551395254554605	2	-0,203723833	0,00357175269
2	1	0	0	1	578,3170	1,40360749	1,40419757	-2,3833871017451626	2	-0,218567923	0,00334674632
2	1	0	1	1	584,2180	1,46261692	1,46318626	-2,1413066767983971	2	-0,231919095	0,00313313049
2	1	0	0	1	590,1190	1,52162623	1,52209938	-1,9198906750038774	2	-0,243882447	0,00292226439
2	1	0	0	1	596,0198	1,58063591	1,58121276	-1,6997446064595891	2	-0,254557401	0,00268765795
2	1	0	1	1	601,9208	1,63964546	1,64017498	-1,4756578909302221	2	-0,263930708	0,00242033717
2	1	0	0	1	607,8218	1,69865489	1,69921732	-1,2560752766827674	2	-0,272011846	0,00213434477
2	1	0	1	1	613,7228	1,75766456	1,75834417	-1,040935611421311	2	-0,27879408	0,00183032302
2	1	0	1	1	619,6236	1,81667411	1,81731486	-0,83859866429809843	2	-0,284339637	0,00152399787
2	1	0	0	1	625,5246	1,87568331	1,87634385	-0,6473592383856	2	-0,288727939	0,0012146685
2	1	0	1	1	631,4656	1,93509293	1,93583179	-0,46398809207258362	2	-0,292013794	0,000898202881
2	1	0	0	1	637,3666	1,9941026	1,9946425	-0,27528012609454234	2	-0,294196993	0,000549085438
2	1	0	0	1	643,2675	2,05311131	2,05374622	-0,085387891491366054	2	-0,295259595	0,000175365058
2	1	0	1	1	649,3285	2,11372256	2,11440253	0,18854054437835987	2	-0,29500857	0,000398650591
2	1	0	0	1	655,2294	2,1727314	2,17331505	0,50257331415735142	2	-0,292969018	0,00109225011
2	1	0	1	1	661,1304	2,23174071	2,23225474	0,80360301363246835	2	-0,28910774	0,0017938466
2	1	0	0	1	667,0614	2,29105043	2,2914753	1,1197058879942805	2	-0,283421844	0,00256577833
2	1	0	1	1	672,9624	2,35006022	2,3506422	1,4679989135486054	2	-0,275804341	0,00345074013
2	1	0	1	1	678,8632	2,4090693	2,40967989	1,8672056979051277	2	-0,265984297	0,0044993679
2	1	0	0	1	684,7642	2,46807909	2,46866012	2,1101041085742106	2	-0,25421384	0,00520912977
2	1	0	1	1	690,6652	2,52708864	2,52768898	2,3209512517960035	2	-0,241117105	0,00586664304
2	1	0	0	1	696,5662	2,58609796	2,58681107	2,4455072976372864	2	-0,227112263	0,0063260654
2	1	0	0	1	702,4670	2,64510775	2,64554596	2,8279125748409162	2	-0,21157378	0,00748137292
2	1	0	1	1	708,3680	2,70411706	2,70485592	3,2038903920738733	2	-0,193747595	0,0086660618
2	1	0	0	1	714,2690	2,76312661	2,7639246	3,4876263169226995	2	-0,173946276	0,00963953603
2	1	0	1	1	720,1400	2,82183647	2,82245493	3,6780498855643699	2	-0,152855784	0,0103811296
2	1	0	0	0	726,0198	2,88024545	2,88087749	3,8259778938911635	3	0,0213430915	0,0110221738
2	1	0	1	0	731,9208	2,939255	2,93977737	3,9316083816466618	3	0,0442455187	0,0115580531
2	1	0	0	0	737,8218	2,99826431	2,99882865	3,9777533820381843	3	0,0676034167	0,0119286012
2	0	0	1	0	743,5532	2,94445562	2,94505239	3,2469400264426509	3	0,088265568	0,00956240855
2	0	0	1	0	749,4540	2,88544631	2,88604093	2,6004976657805619	3	0,105417155	0,0075051426
2	0	0	0	0	755,3550	2,82643676	2,82705688	2,0798429656359757	3	0,119165048	0,00587983429
2	0	0	1	0	761,2560	2,76742744	2,76796126	1,6703803972513568	3	0,130177051	0,00462354813
2	0	0	0	0	767,1570	2,70841789	2,70898581	1,336256977446655	3	0,139018744	0,00361990114
2	0	0	0	0	773,0578	2,64940834	2,64983654	1,0457263340552672	3	0,146025121	0,00277100387
2	0	0	1	0	778,9588	2,59039855	2,59101272	0,78084249387460774	3	0,151402459	0,0020231728
2	0	0	0	0	784,8598	2,53138924	2,5319171	0,52840443259036186	3	0,155257151	0,00133787619
2	0	0	1	0	790,8008	2,47197962	2,47249627	0,27622819153798874	3	0,157645151	0,000682973186
2	0	0	1	0	796,7417	2,41257071	2,41322303	0,0029910054554153632	3	0,158489674	7,21796323E-006
2	0	0	0	0	802,6826	2,35316062	2,35371637	-0,32086806889209421	3	0,157570556	0,00075523241
2	0	0	1	0	808,5836	2,29415107	2,29462528	-0,682448493937648	3	0,154617205	0,00156596361
2	0	0	0	0	814,5246	2,23474145	2,23528433	-1,0678580980058064	3	0,149424106	0,00238696649
2	0	0	1	0	820,4256	2,17573166	2,17643356	-1,474762272779593	3	0,1419276	0,003209722
2	0	0	1	0	826,3264	2,11672258	2,11732459	-1,8882519660724598	3	0,132008135	0,00399804255
2	0	0	0	0	832,2274	2,05771279	2,05850077	-2,2519283369183584	3	0,11971771	0,00463559618
2	0	0	1	0	838,1284	1,99870336	1,9992671	-2,414433447575128	3	0,105766349	0,00482709752
2	0	0	0	0	844,0294	1,93969381	1,94029593	-2,3126022156189946	3	0,0917706564	0,00448713265
2	0	0	0	0	849,9303	1,88068426	1,8811909	-1,616999350028049	3	0,0816647485	0,0030418844
2	0	0	1	0	855,8312	1,82167459	1,82230961	-1,5884616857877453	3	0,0694372877	0,00289466907
2	0	0	0	0	861,7322	1,76266539	1,76322281	-1,7526430631125402	3	0,0595025383	0,00309030013
2	0	0	1	0	867,6332	1,70365572	1,70424736	-1,8958662047430294	3	0,0487219952	0,00323102507
2	0	0	0	0	873,5342	1,64464629	1,64508903	-2,0425627662075846	3	0,0370920263	0,00336019765
2	0	0	0	0	879,4350	1,5856365	1,58619404	-2,1837720738516867	3	0,0246095955	0,00346388621
2	0	0	1	0	885,3360	1,5266273	1,52707601	-2,3143882674199565	3	0,0113142515	0,0035342467
2	0	0	0	0	891,2370	1,46761751	1,46810508	-2,4452517178875405	3	-0,00273231114	0,00358988647
2	0	0	1	0	897,1380	1,40860808	1,40926325	-2,5368986154595882	3	-0,0174412727	0,00357515807
2	0	0	1	0	903,0388	1,34959877	1,35012305	-2,6269442806089245	3	-0,0326824002	0,00354669802
2	0	0	0	0	908,9398	1,29058921	1,29121006	-2,7301821915639782	3	-0,0484781489	0,00352523872
2	0	0	1	0	914,8408	1,23157966	1,23224795	-2,8598572965021418	3	-0,0649757385	0,00352405338
2	1	0	0	1	920,6522	1,22657895	1,22735608	-2,7596516043499514	3	-0,0816497803	0,00338707515
2	1	0	0	1	926,5530	1,28558838	1,28623784	-2,4364878607017034	3	-0,0969397575	0,00313390279
2	1	0	1	1	932,4540	1,34459794	1,34519994	-2,1588942946659149	3	-0,110483684	0,00290414458
2	1	0	0	1	938,3550	1,40360749	1,40429997	-1,9068789804975203	3	-0,122460537	0,00267783017
2	1	0	1	1	944,2560	1,46261692	1,46320856	-1,688712351300095	3	-0,133050442	0,00247093826
2	1	0	1	1	950,1569	1,52162659	1,52244294	-1,5072948162996659	3	-0,142463237	0,00229477044
2	1	0	0	1	956,0578	1,58063591	1,58123529	-1,3566155208757653	3	-0,150908589	0,00214512832
2	1	0	1	1	961,9588	1,63964546	1,64020157	-1,1977003945244693	3	-0,158453166	0,00196447014
2	1	0	0	1	967,8598	1,69865489	1,69927061	-1,0173016959042461	3	-0,165001348	0,0017286709
2	1	0	0	1	973,7607	1,75766361	1,75844502	-0,81847694451489165	3	-0,170419157	0,0014392467
2	1	0	1	1	979,6616	1,81667411	1,81722152	-0,61513280744353805	3	-0,174641684	0,00111783261
2	1	0	0	1	985,6026	1,87608349	1,87679851	-0,42793233878910899	3	-0,177715346	0,000803142786
2	1	0	1	1	991,5036	1,93509293	1,93584967	-0,26980206825666954	3	-0,179761052	0,000522296235
2	1	0	0	1	997,4046	1,9941026	1,99469137	-0,1050402330648561	3	-0,180864379	0,000209522841
2	1	0	0	1	1003,4255	2,05431199	2,0550034	0,076390708509200384	3	-0,180958301	0,000156983166
2	1	0	1	1	1009,3664	2,11372185	2,11443758	0,2523659866441168	3	-0,179986849	0,000533612154
2	1	0	0	1	1015,2674	2,1727314	2,17332387	0,52090776249490387	3	-0,177754223	0,00113210129
2	1	0	1	1	1021,1684	2,23174071	2,23234367	0,81827282560644134	3	-0,173790514	0,00182666618
2	1	0	0	1	1027,0994	2,29105043	2,2916224	1,1501172382246558	3	-0,16799894	0,0026356345
2	1	0	0	1	1033,0002	2,35005999	2,35068274	1,5352342641615094	3	-0,160067782	0,00360884867
2	1	0	1	1	1038,9012	2,4090693	2,40962195	1,9350673881945734	3	-0,149826169	0,00466278102
2	1	0	0	1	1044,8022	2,46807909	2,468611	2,376715483488873	3	-0,136992291	0,005867186
2	1	0	1	1	1050,7032	2,52708864	2,52771997	2,592242250287975	3	-0,122276276	0,00655246247
2	1	0	1	1	1056,6041	2,58609843	2,58671403	2,735043765788153	3	-0,10648635	0,00707477611
2	1	0	0	1	1062,5050	2,64510775	2,64561272	2,8775070869812253	3	-0,090097487	0,00761276949
2	1	0	1	1	1068,4060	2,70411706	2,70464611	3,1179247622688634	3	-0,0723989904	0,00843288284
2	1	0	0	1	1074,3070	2,76312661	2,76370621	3,3252099371618586	3	-0,0533558391	0,00918990374
2	1	0	1	1	1080,2080	2,82213616	2,8227706	3,4971074902960224	3	-0,0332160406	0,00987153221
2	1	0	0	0	1086,0220	2,88024545	2,88089538	3,6336603931806765	4	0,0199597217	0,0104681952
2	1	0	1	0	1091,9230	2,939255	2,93984842	3,7131751356301523	4	0,0416658148	0,0109161725
2	1	0	0	0	1097,8240	2,99826431	2,99888611	3,7212974969987565	4	0,0636435673	0,0111597469
2	1	0	0	0	1103,7249	3,05727434	3,05770636	3,6695059798752397	4	0,0854752883	0,0112202717
2	1	0	1	0	1109,6258	3,11628342	3,11673021	3,571382684288231	4	0,106861986	0,0111310361
2	1	0	0	0	1115,5268	3,17529321	3,17579436	3,401543749151408	4	0,127489582	0,0108026033
2	1	0	1	0	1121,4278	3,23430276	3,23487687	3,1556375159157818	4	0,146856025	0,0102080991
2	1	0	0	0	1127,3288	3,29331231	3,29373288	2,8580976310640976	4	0,164625213	0,00941381045
2	1	0	0	0	1133,2296	3,35232115	3,35289001	2,5345484843408742	4	0,180548355	0,00849806238
2	1	0	1	0	1139,1306	3,41133118	3,41194606	2,1801970625917165	4	0,194473132	0,00743871462
2	1	0	0	0	1145,0316	3,47034049	3,4709034	1,8186133462521709	4	0,206283897	0,00631223107
2	1	0	1	0	1150,9326	3,52935004	3,52995872	1,4251018098934907	4	0,215847865	0,00503055053
2	1	0	1	0	1156,8334	3,58835959	3,58898783	1,2622557690850016	4	0,223548755	0,00453022076
2	1	0	0	0	1162,7344	3,64736891	3,647892	1,5197889726195059	4	0,231659263	0,00554402592
2	1	0	1	0	1168,6354	3,7063787	3,70680952	1,9115800653342826	4	0,241744429	0,00708586304
2	1	0	0	0	1174,5364	3,76538849	3,7657938	2,3462693779556957	4	0,254310191	0,00883556623
2	1	0	0	0	1180,4373	3,82439804	3,8250196	2,7730563895882128	4	0,26942721	0,0106069949
2	1	0	1	0	1186,3382	3,88340759	3,88404775	3,1725686413270182	4	0,286989808	0,0123224081
2	1	0	0	0	1192,2392	3,94241691	3,94306278	3,5265088738114656	4	0,306778044	0,0139052458
2	0	0	1	0	1198,0506	3,99942565	3,9999404	3,8249951457535757	4	0,328208476	0,0152997524
2	0	0	0	0	1203,9516	3,94041634	3,94098711	3,0513872059958944	4	0,348334789	0,0120254774
2	0	0	1	0	1209,8526	3,88140678	3,88205147	2,4548813940750202	4	0,364526331	0,00952997617
2	0	0	0	0	1215,7536	3,82239723	3,82290268	1,9382694071089795	4	0,377456099	0,00740981521
2	0	0	0	0	1221,6544	3,76338863	3,76378512	1,4654978050185933	4	0,387479156	0,00551581895
2	0	0	1	0	1227,5554	3,70437837	3,7049737	1,0199984472107016	4	0,394797713	0,00377906743
2	0	0	0	0	1233,4564	3,64536881	3,6460073	0,59565942230875814	4	0,399549097	0,00217177859
2	0	0	1	0	1239,3974	3,5859592	3,58650184	0,21602361863134157	4	0,401908964	0,000774769112
2	0	0	0	0	1245,2984	3,52694988	3,52763772	0,057941226211066125	4	0,402587742	0,000204395648
2	0	0	0	0	1251,3193	3,46673918	3,46713734	-0,062324287926369126	4	0,402690858	0,000216086861
2	0	0	1	0	1257,2602	3,40733027	3,4079361	-0,39475526329543872	4	0,401364237	0,0013453007
2	0	0	0	0	1263,1612	3,3483212	3,348876	-0,76568031849132851	4	0,397943646	0,00256416854
2	0	0	1	0	1269,1022	3,28891158	3,28952646	-1,1100592998166902	4	0,392339349	0,00365156936
2	0	0	0	0	1275,0032	3,22990155	3,23053312	-1,3543857490074984	4	0,384996116	0,00437538791
2	0	0	0	0	1280,9040	3,17089224	3,17147279	-1,4102189022081859	4	0,376711339	0,00447247084
2	0	0	1	0	1286,8050	3,11188293	3,11233282	-1,2713559850774394	4	0,368736953	0,00395688275
2	0	0	0	0	1292,7060	3,05287337	3,05326819	-1,1079215807495277	4	0,361737639	0,00338278175
2	0	0	1	0	1298,6070	2,99386382	2,99437308	-0,95327709118524595	4	0,355613917	0,00285446737
2	0	0	1	0	1304,5078	2,93485427	2,93545985	-0,7655167035344585	4	0,350539744	0,00224714354
2	0	0	0	0	1310,4088	2,87584472	2,87643981	-0,6465227668070112	4	0,346410871	0,00185968378
2	0	0	1	0	1316,3098	2,8168354	2,81736183	-0,6014442968837632	4	0,342767239	0,00169448624
2	0	0	0	0	1322,2108	2,75782585	2,7584312	-0,62079197630561997	4	0,339177787	0,00171241199
2	0	0	0	0	1328,1117	2,69881582	2,69946456	-0,66795386722290931	4	0,335388124	0,0018031178
2	0	0	1	0	1334,0126	2,63980675	2,64034653	-0,73048662670232819	4	0,331256747	0,00192873785
2	0	0	0	0	1339,9136	2,5807972	2,58167887	-0,77351936394417818	4	0,326782674	0,00199697865
2	0	0	1	0	1345,8146	2,52178788	2,52232003	-0,76133874231191002	4	0,322231382	0,00192034
2	0	0	0	0	1351,7156	2,46277809	2,46335363	-0,7144791912287456	4	0,317860723	0,00176001491
2	0	0	0	0	1357,6164	2,40376854	2,40444517	-0,6819844955785417	4	0,313769758	0,00163979433
2	0	0	1	0	1363,5174	2,34475923	2,34542513	-0,78641072329547866	4	0,30953595	0,00184446748
2	0	0	0	0	1369,4184	2,28574944	2,28615546	-1,068301703918861	4	0,304123312	0,00244230381
2	0	0	1	0	1375,3194	2,22674036	2,22744322	-1,4180005507336694	4	0,296786606	0,00315851578
2	0	0	1	0	1381,2202	2,16773057	2,16823602	-1,4398055879606133	4	0,288164914	0,00312183844
2	0	0	0	0	1387,1212	2,10872102	2,10941195	-1,5669184062216032	4	0,279265642	0,00330527639
2	0	0	1	0	1393,0222	2,04971147	2,05015135	-1,7465387190933584	4	0,269491792	0,00358066871
2	0	0	0	0	1398,9232	1,99070215	1,99118507	-1,9158623232333734	4	0,25864628	0,0038148365
2	0	0	0	0	1404,8241	1,931692	1,93246329	-2,0510600383019194	4	0,246942014	0,00396359805
2	0	0	1	0	1410,7250	1,87268293	1,87331867	-2,168050465760409	4	0,234480351	0,00406144932
2	0	0	0	0	1416,6260	1,8136735	1,81419194	-2,3031375021846224	4	0,221278191	0,00417833356
2	0	0	1	0	1422,5270	1,75466394	1,7552923	-2,420947840368303	4	0,207309976	0,00424947124
2	0	0	1	0	1428,4279	1,69565511	1,69636202	-2,4661361858061533	4	0,192839131	0,00418345956
2	0	0	0	0	1434,3288	1,63664484	1,63735485	-2,494715614727241	4	0,178210095	0,00408473471
2	0	0	1	0	1440,2298	1,57763529	1,57811201	-2,544796430954225	4	0,1633652	0,00401597377
2	0	0	0	0	1446,1308	1,51862586	1,51932371	-2,6369252141427082	4	0,148099124	0,00400634296
2	0	0	1	0	1452,0318	1,45961642	1,46016574	-2,745803438954887	4	0,132226944	0,00400932832
2	0	0	1	0	1457,9326	1,40060687	1,40102077	-2,8774003102271734	4	0,115642726	0,00403129775
2	1	0	0	1	1463,6540	1,45651579	1,45716274	-2,4838077677068816	4	0,100366808	0,00361931208
2	1	0	1	1	1469,5550	1,51552546	1,51622725	-2,1760565726845334	4	0,0866506398	0,00329939625
2	1	0	0	1	1475,4560	1,57453489	1,57495737	-1,9076163492820886	4	0,074618265	0,0030044145
2	1	0	0	1	1481,3568	1,63354433	1,6342181	-1,656871633673152	4	0,0641101301	0,00270768953
2	1	0	1	1	1487,2578	1,69255388	1,69306433	-1,4163094467862915	4	0,055050157	0,00239790301
2	1	0	0	1	1493,1588	1,75156343	1,75227165	-1,1910373368473018	4	0,0473667532	0,00208702101
2	1	0	1	1	1499,0598	1,81057286	1,81110418	-0,98045722381384512	4	0,0409632996	0,00177571015
2	1	0	1	1	1504,9607	1,86958265	1,87030709	-0,77494245617238182	4	0,0357854068	0,00144938042
2	1	0	0	1	1510,8616	1,92859197	1,92934918	-0,58016503691949235	4	0,0317912139	0,00111934089
2	1	0	1	1	1516,8026	1,9880017	1,98852968	-0,38895042344099994	4	0,0289038178	0,000773439475
2	1	0	0	1	1522,7036	2,04701114	2,0476923	-0,19521950243937696	4	0,0271763504	0,000399749464
2	1	0	1	1	1528,7246	2,10722065	2,10794187	0,01658420140760153	4	0,0266312566	3,49585316E-005
2	1	0	0	1	1534,6656	2,16663098	2,16719007	0,33603937008707475	4	0,0276935548	0,000728261191
2	1	0	0	1	1540,5664	2,22564006	2,22624445	0,6718182619661088	4	0,0306517016	0,00149563164
2	1	0	1	1	1546,5074	2,28504944	2,28545618	1,0403393889191008	4	0,0357281566	0,00237765
2	1	0	0	1	1552,4084	2,34405899	2,34481478	1,4831212374071328	4	0,0431368314	0,00347764464
2	1	0	1	1	1558,3094	2,4030683	2,40370989	2,0034413870286086	4	0,0533890165	0,00481569208
2	1	0	1	1	1564,2102	2,46207809	2,46251631	2,5950481599127821	4	0,0670282915	0,00639034854
2	1	0	0	1	1570,1112	2,52108765	2,5216608	2,780945856262143	4	0,083098717	0,00701260194
2	1	0	1	1	1576,0122	2,5800972	2,58071661	2,6877751960246669	4	0,0992773622	0,00693638623
2	1	0	0	1	1581,9132	2,63910675	2,63961577	2,8174296507128957	4	0,115380183	0,0074369316
2	1	0	0	1	1587,8141	2,69811654	2,69864058	3,1125756645267162	4	0,133098096	0,0083997231
2	1	0	1	1	1593,7150	2,75712585	2,75771832	3,1565700355503309	4	0,151667774	0,00870493148
2	1	0	0	1	1599,6160	2,81613541	2,81647968	3,0373854730968058	4	0,170016736	0,00855473429
2	1	0	0	0	1605,4344	2,87354422	2,87412739	2,8355617208613174	5	0,014282533	0,00814976543
2	1	0	0	0	1611,3352	2,93255424	2,93322301	2,5943486025487843	5	0,0303337332	0,00760980323
2	1	0	1	0	1617,2362	2,99156332	2,99223471	2,283481826108919	5	0,044760067	0,00683271373
2	1	0	0	0	1623,1372	3,05057311	3,0512588	1,9492826883991619	5	0,0572483875	0,00594776589
2	1	0	1	0	1629,0382	3,10958266	3,1099267	1,6340938434004784	5	0,0677743852	0,00508191204
2	1	0	0	0	1634,9392	3,16859245	3,16906381	1,3768922242271274	5	0,0767026097	0,00436345953
2	1	0	0	0	1640,8400	3,22760153	3,22818947	1,1198882129457264	5	0,0840213001	0,00361521123
2	1	0	1	0	1646,7410	3,28661108	3,28716469	0,95223395002109606	5	0,0900755078	0,00313014979
2	1	0	0	0	1652,6420	3,34562039	3,3460865	0,8610112540147936	5	0,0954074934	0,00288101821
2	1	0	1	0	1658,5430	3,40463018	3,40519166	0,81773863387880397	5	0,100334696	0,00278455671
2	1	0	1	0	1664,4438	3,4636395	3,46400666	0,85055715990839347	5	0,105215371	0,00294633559
2	0	0	0	0	1670,2352	3,47844195	3,47892737	0,6455931703525577	5	0,110056043	0,0022459717
2	0	0	1	0	1676,1762	3,41903234	3,41973352	0,35130139219540269	5	0,11280518	0,00120135711
2	0	0	0	0	1682,0772	3,36002278	3,36047316	0,25031676088218368	5	0,114580438	0,000841182773
2	0	0	1	0	1687,9782	3,30101323	3,30145717	0,1863687090506696	5	0,115812913	0,000615288329
2	0	0	0	0	1693,8792	3,24200368	3,24256253	0,20086946786829674	5	0,116944022	0,000651331793
2	0	0	0	0	1699,7800	3,18299413	3,18352032	0,2096058856006031	5	0,118159324	0,000667284592
2	0	0	1	0	1705,6810	3,12398481	3,12450027	0,20479480204758848	5	0,119381927	0,000639881415
2	0	0	0	0	1711,5820	3,0649755	3,06548476	0,1932926741428671	5	0,120557338	0,000592535769
2	0	0	1	0	1717,4830	3,00596595	3,00654507	0,17665778816229238	5	0,121648073	0,000531129597
2	0	0	1	0	1723,3838	2,94695592	2,94735575	0,15817211987450675	5	0,122632705	0,000466189493
2	0	0	0	0	1729,2848	2,88794661	2,8886342	0,1408849903899756	5	0,123511933	0,000406965206
2	0	0	1	0	1735,1858	2,82893705	2,82960105	0,12138575779412042	5	0,124284819	0,000343473279
2	0	0	0	0	1741,0868	2,76992774	2,7706387	0,1032592197535217	5	0,124941461	0,000286094
2	0	0	0	0	1746,9877	2,71091819	2,71154809	0,095026645452276787	5	0,125519142	0,000257669308
2	0	0	1	0	1752,8886	2,6519084	2,65242553	0,086412712741919309	5	0,126054198	0,000229203288
2	0	0	0	0	1758,7896	2,59289932	2,59348989	0,07090945622918249	5	0,126520902	0,000183902957
2	0	0	1	0	1764,7306	2,5334897	2,53396177	0,037162370108827002	5	0,12685129	9,41680264E-005
2	0	0	0	0	1770,7116	2,47367978	2,47429156	-0,029197669803613216	5	0,126901612	7,22435507E-005
2	0	0	0	0	1776,6524	2,41427064	2,41489339	-0,19537226922897078	5	0,12630257	0,000471803214
2	0	0	1	0	1782,5534	2,35526085	2,35581064	-0,52391202106244083	5	0,124252275	0,00123423757
2	0	0	0	0	1788,4544	2,2962513	2,29673266	-0,93313267896020058	5	0,119959205	0,00214315625
2	0	0	1	0	1794,3954	2,23684168	2,23739624	-1,3375594377241757	5	0,113199063	0,00299265049
2	0	0	1	0	1800,2963	2,1778326	2,17844319	-1,7373777951530371	5	0,104125105	0,00378477876
2	0	0	0	0	1806,1972	2,11882257	2,11944985	-2,1482625313930938	5	0,0926573873	0,00455313455
2	0	0	1	0	1812,0982	2,05981326	2,06045675	-2,553762659154552	5	0,0787633881	0,0052619176
2	0	0	0	0	1817,9992	2,00080371	2,00131178	-2,1684545797330301	5	0,0636174977	0,00433975365
2	0	0	1	0	1823,9002	1,94179404	1,94249701	-1,6896082861004019	5	0,052289024	0,00328205898
2	0	0	1	0	1829,8010	1,88278461	1,88337898	-1,821962366501487	5	0,0419803336	0,00343144569
2	0	0	0	0	1835,7020	1,82377505	1,82429659	-1,9897063266899834	5	0,0307206679	0,00362981437
2	0	0	1	0	1841,6030	1,76476538	1,76531672	-2,1303622021719235	5	0,0185602624	0,00376076391
2	0	0	0	0	1847,5040	1,70575619	1,70630121	-2,2440532037505392	5	0,00562675158	0,00382903079
2	0	0	0	0	1853,4049	1,64674604	1,64705777	-2,2957947109380755	5	-0,00781795569	0,00378130656
2	0	0	1	0	1859,3058	1,58773708	1,58835471	-2,2443421560305126	5	-0,021239901	0,00356481131
2	0	0	0	0	1865,2068	1,52872753	1,5293082	-2,1596202946923462	5	-0,0342338197	0,00330272503
2	0	0	1	0	1871,1078	1,46971798	1,47033715	-2,1893847656470838	5	-0,0470007919	0,00321913371
2	0	0	1	0	1877,0087	1,41070926	1,41127801	-2,2717358319396438	5	-0,060155075	0,00320605072
2	1	0	0	1	1882,7400	1,44651413	1,44728076	-2,0528782153571114	5	-0,0726825297	0,00297109107
2	1	0	1	1	1888,6410	1,5055238	1,5062784	-1,8199967830269408	5	-0,0840845257	0,00274142181
2	1	0	0	1	1894,5420	1,56453335	1,56517804	-1,6143284026119443	5	-0,0942060575	0,00252671144
2	1	0	1	1	1900,4430	1,62354279	1,62427378	-1,420881267774984	5	-0,103155665	0,00230790023
2	1	0	1	1	1906,3438	1,68255222	1,68327594	-1,2336578544367267	5	-0,110986575	0,00207658648
2	1	0	0	1	1912,2448	1,74156177	1,74225593	-1,0495573353988158	5	-0,117721654	0,00182859751
2	1	0	1	1	1918,1458	1,8005712	1,80107522	-0,87269958660558272	5	-0,123383924	0,00157179765
2	1	0	0	1	1924,0468	1,85958087	1,86020672	-0,70106005323705562	5	-0,128018484	0,00130411668
2	1	0	0	1	1929,9477	1,91859078	1,91926241	-0,53687345947720346	5	-0,131663918	0,00103040109
2	1	0	1	1	1935,8886	1,97800004	1,97857189	-0,36146725269241389	5	-0,134335935	0,000715188973
2	1	0	0	1	1941,7896	2,03700948	2,0376718	-0,17437009337461597	5	-0,135931686	0,000355309021
2	1	0	1	1	1947,8106	2,09721899	2,09787726	0,041303043189044595	5	-0,136343583	8,66487171E-005
2	1	0	0	1	1953,7516	2,15662837	2,15714645	0,37836499101724019	5	-0,135067284	0,000816188694
2	1	0	0	1	1959,6525	2,21563792	2,21630454	0,69214910167299341	5	-0,131901488	0,00153401319
2	1	0	1	1	1965,5834	2,27494788	2,27565408	1,0261708539393224	5	-0,126846761	0,00233520987
2	1	0	0	1	1971,4844	2,33395767	2,33449626	1,4570460224317178	5	-0,119532928	0,00340146851
2	1	0	1	1	1977,3854	2,39296699	2,39347577	1,9203509509011562	5	-0,109584622	0,00459631346
2	1	0	0	1	1983,2863	2,45197654	2,45265627	2,6125595050829382	5	-0,0964007527	0,00640771026
2	1	0	0	1	1989,1871	2,51098585	2,51160073	3,3209566832692461	5	-0,0788173378	0,00834091753
2	1	0	1	1	1995,0881	2,5699954	2,57056284	3,3769350272637888	5	-0,0586084016	0,00868062396
2	1	0	0	1	2000,9891	2,62900519	2,6293776	3,1087968614366285	5	-0,0395210236	0,00817420054
2	1	0	1	1	2006,8901	2,68801427	2,68850446	3,0218028406853958	5	-0,0214368794	0,00812413078
2	1	0	1	1	2012,7909	2,74702406	2,74769807	2,9649070810273485	5	-0,00372577365	0,00814666972
2	1	0	0	1	2018,6919	2,80603337	2,80642414	2,8061133471352093	5	0,0133567918	0,00787514448
2	1	0	1	0	2024,5445	2,86414289	2,86459327	2,612341659212568	6	0,0103919813	0,00748329656
2	1	0	0	0	2030,4455	2,92315245	2,92385387	2,3788167723903014	6	0,0251685325	0,00695531256
2	1	0	0	0	2036,3463	2,98216176	2,98282909	2,0993468096410765	6	0,0383848436	0,00626199273
2	1	0	1	0	2042,2473	3,04117179	3,04165745	1,8289286541166058	6	0,0499758571	0,00556297461
2	1	0	0	0	2048,1483	3,1001811	3,10066843	1,5555257846911766	6	0,0599693023	0,00482316967
2	1	0	1	0	2054,0493	3,15919018	3,15980887	1,3262336645965256	6	0,068471387	0,00419064471
2	1	0	1	0	2059,9501	3,21819949	3,21881056	1,0911486116702027	6	0,0755832866	0,00351220067
2	1	0	0	0	2065,8511	3,27720904	3,27758121	0,93406264828862989	6	0,0814960003	0,00306146615
2	1	0	1	0	2071,7521	3,33621907	3,33671737	0,84630690832380838	6	0,0867362469	0,00282388693
2	1	0	0	0	2077,6531	3,39522862	3,39594197	0,78798571573915405	6	0,0915444717	0,00267595379
2	1	0	1	0	2083,5541	3,45423794	3,45470381	0,77990773386701312	6	0,0961382538	0,0026943502
2	0	0	0	0	2089,2855	3,48844361	3,48926401	0,67752229201573222	6	0,10066966	0,00236405409
2	0	0	0	0	2095,2263	3,42903447	3,42956257	0,38155085296698534	6	0,103587188	0,00130855257
2	0	0	1	0	2101,1273	3,37002444	3,37063575	0,31034061016031942	6	0,105616421	0,0010460451
2	0	0	0	0	2107,0283	3,31101489	3,3115716	0,26408872470535715	6	0,107274137	0,000874548743
2	0	0	1	0	2112,9293	3,25200534	3,25265789	0,25663033417529558	6	0,108808935	0,000834730687
2	0	0	0	0	2118,8303	3,19299579	3,19351792	0,24012569708680643	6	0,110272132	0,000766845711
2	0	0	0	0	2124,7311	3,133986	3,13446236	0,22320427145395027	6	0,111636259	0,000699625409
2	0	0	1	0	2130,6321	3,07497716	3,07559848	0,20398714593439226	6	0,112895325	0,000627382542
2	0	0	0	0	2136,5331	3,01596761	3,01653838	0,1840711884649	6	0,114037983	0,000555257779
2	0	0	1	0	2142,4341	2,95695758	2,95747399	0,1641500699678784	6	0,115061551	0,000485469558
2	0	0	1	0	2148,3349	2,89794827	2,89863658	0,14588156447711421	6	0,11597266	0,000422857644
2	0	0	0	0	2154,2359	2,83893871	2,83953643	0,12725320246277571	6	0,116775908	0,000361340091
2	0	0	1	0	2160,1369	2,77992964	2,78047204	0,11045408323062205	6	0,117471062	0,000307114504
2	0	0	0	0	2166,0379	2,72091985	2,72147846	0,10233888369812494	6	0,118093215	0,000278513064
2	0	0	0	0	2171,9388	2,66191006	2,66236424	0,093196493414340326	6	0,118670769	0,000248123019
2	0	0	1	0	2177,8397	2,60290098	2,60346556	0,07713245108068279	6	0,119175337	0,000200811686
2	0	0	0	0	2183,7807	2,54349136	2,54400396	0,043120558089059238	6	0,119542412	0,000109698871
2	0	0	1	0	2189,7617	2,48368144	2,48424935	-0,020284830221768301	6	0,119630881	5,03925767E-005
2	0	0	0	0	2195,7027	2,42427206	2,424891	-0,1692784447567881	6	0,119128481	0,000410481764
2	0	0	0	0	2201,6035	2,36526275	2,36569285	-0,4692091768200761	6	0,117316	0,00111000484
2	0	0	1	0	2207,5045	2,30625296	2,30689526	-0,8564942726106537	6	0,113404617	0,00197584252
2	0	0	0	0	2213,4455	2,24684334	2,24765682	-1,2361576406768098	6	0,107177235	0,00277845818
2	0	0	1	0	2219,3465	2,18783379	2,1884141	-1,6167777117203776	6	0,0987671316	0,00353817921
2	0	0	1	0	2225,2474	2,12882447	2,12946129	-2,0147979968494525	6	0,0880472064	0,00429043453
2	0	0	0	0	2231,1483	2,06981468	2,07044125	-2,4046438308777632	6	0,0749889538	0,004978674
2	0	0	1	0	2237,0493	2,01080513	2,01136756	-1,7780339792370755	6	0,0632453933	0,00357627985
2	0	0	0	0	2242,9503	1,9517957	1,95245445	-1,733171545796921	6	0,0528967865	0,00338393846
2	0	0	1	0	2248,8513	1,89278626	1,89338577	-1,8142663328735917	6	0,0424733534	0,00343510602
2	0	0	1	0	2254,7521	1,83377671	1,83444571	-1,9346377358392317	6	0,0314401612	0,00354898791
2	0	0	0	0	2260,6531	1,77476704	1,7754215	-2,0711227161464976	6	0,0196132623	0,00367711578
2	0	0	1	0	2266,5541	1,71575761	1,71632588	-2,2036275311752541	6	0,00700196112	0,00378214289
2	0	0	0	0	2272,4551	1,65674806	1,65735936	-2,297296223541089	6	-0,0062898281	0,00380744529
2	0	0	0	0	2278,3560	1,59773827	1,59846783	-2,345998948226569	6	-0,0200159792	0,00375000387
2	0	0	1	0	2284,2569	1,53872919	1,53931046	-2,2830002832191987	6	-0,0337433293	0,00351424632
2	1	0	0	1	2289,9883	1,51852584	1,51922572	-2,0427171499640691	6	-0,0463677756	0,00310334843
2	1	0	1	1	2295,8893	1,57753527	1,57809412	-1,6988010710036326	6	-0,0573319495	0,00268086791
2	1	0	0	1	2301,7903	1,63654482	1,63701177	-1,4582549464647414	6	-0,066624172	0,00238718046
2	1	0	0	1	2307,6911	1,69555449	1,6962322	-1,2538175833997886	6	-0,0746130869	0,00212676567
2	1	0	1	1	2313,5921	1,75456393	1,75521636	-1,0627459011696043	6	-0,08143989	0,00186534901
2	1	0	0	1	2319,4931	1,81357348	1,81421423	-0,87757838793375155	6	-0,0871559158	0,00159211515
2	1	0	1	1	2325,3941	1,87258279	1,87333643	-0,70049586692065805	6	-0,0918095708	0,00131226447
2	1	0	1	1	2331,2950	1,93159223	1,93220937	-0,5180824412241376	6	-0,095408313	0,00100104371
2	1	0	0	1	2337,2359	1,99100208	1,99157703	-0,33168649928713312	6	-0,0979333371	0,000660579186
2	1	0	1	1	2343,1369	2,05001163	2,05068183	-0,13763267205407237	6	-0,0993286967	0,000282240828
2	1	0	0	1	2349,1979	2,11062121	2,11124754	0,12845185452520307	6	-0,0994528383	0,000271193654
2	1	0	1	1	2355,0989	2,169631	2,17022729	0,46252757476435859	6	-0,0977112725	0,00100378995
2	1	0	0	1	2360,9999	2,22864079	2,22926593	0,79470143650419802	6	-0,0940010548	0,0017716008
2	1	0	0	1	2366,9407	2,28805017	2,28863716	1,1778236232973888	6	-0,0881573856	0,00269561098
2	1	0	1	1	2372,8417	2,34705949	2,3476572	1,6054722589475149	6	-0,0799768195	0,00376909855
2	1	0	0	1	2378,7427	2,40606904	2,40666366	2,0547721261779478	6	-0,0691901594	0,00494514545
2	1	0	1	1	2384,6437	2,46507859	2,46550131	2,6072289212434186	6	-0,0555088744	0,00642812625
2	1	0	1	1	2390,5445	2,52408814	2,52460575	3,202981135911401	6	-0,0382562801	0,00808626413
2	1	0	0	1	2396,4455	2,5830977	2,5837326	3,0809172008324595	6	-0,0192608703	0,00796026643
2	1	0	1	1	2402,3465	2,64210677	2,64256096	2,7344600842506778	6	-0,00215920457	0,00722597726
2	1	0	0	1	2408,2475	2,7011168	2,70167899	2,4472609264431283	6	0,0130753564	0,00661171321
2	1	0	0	1	2414,1484	2,76012659	2,76081061	2,2372562314697325	6	0,0269045457	0,00617664075
2	1	0	1	1	2420,0493	2,81913543	2,81978154	2,0143750268552195	6	0,0394321419	0,00568009773
2	1	0	0	0	2425,9559	2,87734532	2,87801719	1,8274306067162131	7	0,00988361798	0,00525937648
2	1	0	1	0	2431,8569	2,93635464	2,93689013	1,6553583338304813	7	0,0201490149	0,00486160535
2	1	0	1	0	2437,7577	2,99536395	2,99595928	1,5026572426184154	7	0,0294681974	0,0045018997
2	1	0	0	0	2443,6587	3,05437374	3,05505037	1,3421826550254128	7	0,0378726386	0,00410043541
2	1	0	1	0	2449,5597	3,11338282	3,11385202	1,1648151014966003	7	0,0452677906	0,00362706184
2	1	0	0	0	2455,4607	3,17239261	3,17285848	1,0165988310343694	7	0,0517154559	0,00322552421
2	1	0	1	0	2461,3617	3,23140264	3,23204803	0,88554860685549568	7	0,0572790466	0,00286213565
2	1	0	1	0	2467,2625	3,29041147	3,29108071	0,8134222519066592	7	0,0622813553	0,00267703831
2	1	0	0	0	2473,1635	3,34942079	3,34999442	0,75900167764888858	7	0,0669144988	0,00254265149
2	1	0	1	0	2479,0645	3,40843081	3,40903211	0,72546744939905536	7	0,0712840781	0,00247314177
2	1	0	0	0	2484,9655	3,46744037	3,46777153	0,73385843593213274	7	0,0755632371	0,00254485337
2	0	0	1	0	2490,7769	3,47444153	3,47505546	0,54706794209778374	7	0,079633221	0,00190109143
2	0	0	0	0	2496,7179	3,41503191	3,41568351	0,3938142477224247	7	0,0823010728	0,00134514482
2	0	0	0	0	2502,6187	3,35602212	3,35655689	0,33509803294307706	7	0,084449634	0,00112477562
2	0	0	1	0	2508,5197	3,29701233	3,29736304	0,29894746374338867	7	0,0862984359	0,000985738356
2	0	0	0	0	2514,4207	3,23800325	3,23862839	0,27650600306137885	7	0,0879961103	0,000895500183
2	0	0	1	0	2520,3217	3,17899346	3,17959952	0,25210937647217958	7	0,0895533785	0,00080160686
2	0	0	1	0	2526,2226	3,11998391	3,12050319	0,22871292537909626	7	0,0909689665	0,000713699439
2	0	0	0	0	2532,1235	3,0609746	3,06157732	0,2052434893945856	7	0,0922466964	0,000628368813
2	0	0	1	0	2538,0245	3,00196505	3,00246406	0,18192270408488019	7	0,0933861658	0,000546216383
2	0	0	0	0	2543,9255	2,94295549	2,94346189	0,1606531842197807	7	0,0943932086	0,000472876534
2	0	0	1	0	2549,8265	2,88394594	2,88436604	0,14132921582225866	7	0,0952815264	0,000407645188
2	0	0	1	0	2555,7273	2,82493663	2,82573795	0,12226720811385216	7	0,096056357	0,000345495093
2	0	0	0	0	2561,6283	2,76592731	2,76662016	0,10778223079870718	7	0,0967292935	0,000298192492
2	0	0	1	0	2567,5293	2,70691752	2,70739508	0,09932031825667753	7	0,0973375067	0,000268899341
2	0	0	0	0	2573,4303	2,64790797	2,64847326	0,088540170479703526	7	0,0978925154	0,00023449627
2	0	0	0	0	2579,3311	2,58889842	2,58949757	0,070104473805124186	7	0,0983643159	0,000181535361
2	0	0	1	0	2585,2721	2,52948904	2,5300858	0,030556026578846349	7	0,0986734405	7,73093707E-005
2	0	0	0	0	2591,2531	2,46967936	2,47018361	-0,043377040626688122	7	0,0986629128	0,000107149252
2	0	0	1	0	2597,1941	2,4102695	2,41103458	-0,21132197469058899	7	0,0979679823	0,000509504578
2	0	0	0	0	2603,0951	2,35126019	2,35179186	-0,5092588556861415	7	0,0958933234	0,00119767082
2	0	0	0	0	2608,9959	2,29225063	2,29284716	-0,82068538555392371	7	0,0918925554	0,00188170618
2	0	0	1	0	2614,8969	2,23324108	2,23371148	-0,95672445716681318	7	0,0870590806	0,00213704631
2	0	0	0	0	2620,8379	2,17383146	2,17450929	-1,1783537581838939	7	0,0806547925	0,00256234128
2	0	0	1	0	2626,7389	2,11482191	2,11544013	-1,3687981375389606	7	0,0731527954	0,00289561041
2	0	0	1	0	2632,6398	2,05581212	2,05644608	-1,5116392298261747	7	0,0646015406	0,00310860458
2	0	0	0	0	2638,5407	1,99680305	1,99742687	-1,4804891084355328	7	0,0557573065	0,00295716873
2	0	0	1	0	2644,4417	1,93779337	1,93846476	-1,5769075229764019	7	0,0467716008	0,00305677974
2	0	0	0	0	2650,3427	1,87878394	1,87950289	-1,7493197294297075	7	0,0369551852	0,00328785158
2	0	0	1	0	2656,2437	1,81977439	1,8202287	-1,9367822847432522	7	0,0260528158	0,0035253868
2	0	0	1	0	2662,1445	1,76076508	1,76152992	-2,0892813807284442	7	0,0141734574	0,00368033163
2	0	0	0	0	2668,0455	1,7017554	1,70240283	-2,2061877327936646	7	0,00148257543	0,00375582022
2	0	0	1	0	2673,9465	1,64274573	1,64338267	-1,9385605482039629	7	-0,0114353132	0,00318579678
2	0	0	0	0	2679,8475	1,5837363	1,58437181	-1,7954438877878211	7	-0,0220690779	0,00284465076
2	0	0	0	0	2685,7483	1,52472687	1,52535617	-1,3476476629299162	7	-0,0321426466	0,00205564266
2	1	0	1	1	2691,4797	1,53252816	1,5328902	-0,96847615239245146	7	-0,0387274325	0,00148456765
2	1	0	0	1	2697,3807	1,59153759	1,5922668	-0,78832859056139456	7	-0,0437629595	0,00125522946
2	1	0	1	1	2703,2817	1,65054715	1,65098357	-0,70583719787774605	7	-0,0481068119	0,00116532564
2	1	0	0	1	2709,1827	1,70955658	1,71030641	-0,60270726473794995	7	-0,0519005172	0,00103081414
2	1	0	0	1	2715,1235	1,7689662	1,76962519	-0,49339462837411571	7	-0,055089809	0,000873123587
2	1	0	1	1	2721,0245	1,82797575	1,82843554	-0,37670170695141491	7	-0,0575794466	0,000688774802
2	1	0	0	1	2726,9255	1,88698542	1,88769615	-0,39736480279653107	7	-0,0597560294	0,000750104024
2	1	0	1	1	2732,8265	1,94599485	1,94670725	-0,30288958742662733	7	-0,0618478432	0,000589637377
2	1	0	1	1	2738,7273	2,00500464	2,00566936	-0,21863539668696941	7	-0,063383393	0,000438510324
2	1	0	0	1	2744,6283	2,06401372	2,06463575	-0,1257682636345705	7	-0,0643948689	0,000259665656
2	1	0	1	1	2750,5693	2,12342358	2,12399864	-0,029151415844723859	7	-0,0648628101	6,19175698E-005
2	1	0	0	1	2756,5603	2,18333292	2,1838851	0,099922983990743514	7	-0,0646832064	0,000218220317
2	1	0	1	1	2762,4813	2,24254274	2,24325514	0,33128815765182138	7	-0,0634754747	0,000743163866
2	1	0	1	1	2768,3821	2,3015523	2,3021636	0,61661361171691546	7	-0,0606963485	0,00141954538
2	1	0	0	1	2774,2831	2,36056185	2,3609786	0,98780473169905216	7	-0,0559596531	0,00233218586
2	1	0	1	1	2780,2241	2,41997099	2,42056465	1,900722699584783	7	-0,0457044989	0,00460082199
2	1	0	0	1	2786,1251	2,47898078	2,47953534	2,4653306603431843	7	-0,0329396166	0,00611287449
2	1	0	1	1	2792,0261	2,53799105	2,53852916	2,7880377361998435	7	-0,0171051417	0,00707751513
2	1	0	1	1	2797,9269	2,59699965	2,59761572	2,2939224538427805	7	-0,00212874636	0,00595872896
2	1	0	0	1	2803,8279	2,65600944	2,65658641	1,9223762049719254	7	0,0103538726	0,00510695856
2	1	0	1	1	2809,7289	2,71501899	2,71546841	1,7130826129405606	7	0,0210006535	0,00465182168
2	1	0	1	1	2815,6298	2,77402711	2,77465677	1,5978867446955008	7	0,030758094	0,00443358719
2	1	0	0	0	2821,4705	2,83203793	2,83267927	1,5280837188992179	8	0,000886719674	0,00432857126
2	1	0	1	0	2827,3715	2,89104724	2,89161015	1,41699101913858	8	0,00954991765	0,0040973858
2	1	0	0	0	2833,2725	2,95005703	2,95042562	1,3020284221404133	8	0,0175773948	0,00384153798
2	1	0	0	0	2839,1734	3,00906658	3,00964642	1,1771857910884086	8	0,0248998441	0,00354291289
2	1	0	1	0	2845,0743	3,0680759	3,06879091	1,0364135672096904	8	0,031437099	0,00318053644
2	1	0	0	0	2850,9753	3,12708521	3,12760544	0,9008291147097367	8	0,0371484347	0,00281743798
2	1	0	1	0	2856,8763	3,18609452	3,18650079	0,81225779335255411	8	0,0421985239	0,00258825999
2	1	0	1	0	2862,7772	3,24510407	3,24568129	0,74751984637509222	8	0,0467878468	0,00242621126
2	1	0	0	0	2868,6781	3,30411363	3,3046124	0,70262043316055142	8	0,0510626882	0,00232188823
2	1	0	1	0	2874,5791	3,36312318	3,36374354	0,67021797418042445	8	0,0551089123	0,00225444138
2	1	0	0	0	2880,4801	3,42213273	3,42268777	0,6559532099161984	8	0,0590116084	0,00224512303
2	1	0	1	0	2886,3811	3,48114252	3,48177886	0,68277401152860186	8	0,0629359633	0,00237726816
2	0	0	1	0	2892,1623	3,46103954	3,46150732	0,45680946884331866	8	0,0663764328	0,00158124929
2	0	0	0	0	2898,0633	3,40202928	3,40255833	0,37403015792369933	8	0,0687640384	0,0012726594
2	0	0	0	0	2903,9642	3,34302092	3,34357023	0,32811338148476256	8	0,0708316937	0,00109707017
2	0	0	1	0	2909,8651	3,28401065	3,28449607	0,29921060396979238	8	0,0726710632	0,000982756028
2	0	0	0	0	2915,7661	3,22500062	3,22535563	0,27642232279672819	8	0,0743682012	0,000891560281
2	0	0	1	0	2921,6671	3,16599178	3,16653609	0,25264315907325763	8	0,0759270042	0,000800003705
2	0	0	0	0	2927,5681	3,10698223	3,1073339	0,22971992774142304	8	0,0773474127	0,000713816495
2	0	0	0	0	2933,4690	3,04797149	3,0483799	0,20648640206203338	8	0,0786323845	0,000629448972
2	0	0	1	0	2939,3699	2,98896337	2,98936081	0,18389707562272163	8	0,0797811076	0,000549734687
2	0	0	0	0	2945,2709	2,92995334	2,93067956	0,16354465562229414	8	0,0808028355	0,000479296985
2	0	0	1	0	2951,1719	2,87094378	2,87157035	0,14377400715387002	8	0,0817074701	0,000412857189
2	0	0	1	0	2957,0727	2,81193519	2,81253362	0,12469069527609088	8	0,0824960172	0,000350696762
2	0	0	0	0	2962,9737	2,75292492	2,75348997	0,11038063854600022	8	0,083184585	0,000303931971
2	0	0	1	0	2968,8747	2,69391537	2,69449687	0,10044518464969299	8	0,0838044956	0,000270649238
2	0	0	0	0	2974,7757	2,63490605	2,6353786	0,088805756419552461	8	0,0843623057	0,000234036794
2	0	0	1	0	2980,6767	2,57589626	2,57649279	0,068254523082739827	8	0,0848313272	0,000175857291
2	0	0	1	0	2986,6175	2,51648688	2,51712513	0,024002430331030944	8	0,0851152167	6,04171219E-005
2	0	0	0	0	2992,5985	2,4566772	2,45709825	-0,062904895257411942	8	0,0850343555	0,000154563502
2	0	0	1	0	2998,5395	2,39726758	2,39769959	-0,25597354031547414	8	0,0841525868	0,00061374763
2	0	0	0	0	3004,4405	2,33825803	2,33895159	-0,56276274251717152	8	0,0817681104	0,00131627487
2	0	0	0	0	3010,3414	2,27924919	2,28001666	-0,8938001650360192	8	0,0774673	0,00203787931
2	0	0	1	0	3016,2823	2,21983886	2,22052813	-1,2188077138529891	8	0,0711933076	0,00270639686
2	0	0	0	0	3022,1833	2,16082954	2,16153932	-1,5451379594979427	8	0,0630432069	0,00333987642
2	0	0	1	0	3028,0843	2,10181975	2,10236812	-1,8364469022662515	8	0,0530345626	0,00386088737
2	0	0	0	0	3033,9853	2,0428102	2,04347706	-0,85386106896179827	8	0,0452646017	0,00174484553
2	0	0	0	0	3039,8861	1,98380089	1,98431051	-0,7198103891892576	8	0,0406637527	0,00142832729
2	0	0	1	0	3045,7871	1,92479146	1,92534375	-0,90360729327356454	8	0,0357663892	0,00173975469
2	0	0	0	0	3051,6881	1,8657819	1,8664397	-0,95475537467885901	8	0,0302851871	0,00178199331
2	0	0	1	0	3057,5891	1,80677247	1,80729055	-0,8813687161438999	8	0,0243610051	0,00159288931
2	0	0	1	0	3063,4900	1,74776196	1,7484746	-0,89086338435819635	8	0,0191800017	0,00155765202
2	0	0	0	0	3069,3909	1,68875325	1,68937087	-1,0337587906806611	8	0,0135197015	0,00174640201
2	0	0	1	0	3075,2919	1,62974381	1,63027513	-1,0930421012971117	8	0,00741079682	0,00178195932
2	0	0	0	0	3081,1929	1,57073426	1,57117486	-1,293778913302555	8	7,97746106E-005	0,00203275285
2	0	0	1	0	3087,0939	1,51172483	1,51226211	-1,2752229179497122	8	-0,0079801064	0,00192847126
2	1	0	1	1	3092,8251	1,5455302	1,54617596	-1,2626595557839803	8	-0,0154313203	0,00195229379
2	1	0	0	1	3098,7261	1,60453963	1,60532069	-1,0620952892910554	8	-0,0221121311	0,00170500355
2	1	0	1	1	3104,6271	1,66354907	1,66408682	-0,90492283732250688	8	-0,0278134104	0,00150587014
2	1	0	1	1	3110,5280	1,7225585	1,72320867	-0,56662690218430758	8	-0,032651525	0,000976416399
2	1	0	0	1	3116,4689	1,78196836	1,78260362	-0,47724053229170726	8	-0,0357631519	0,000850730692
2	1	0	1	1	3122,3699	1,84097791	1,8416903	-0,39988778317692211	8	-0,0383595712	0,000736469461
2	1	0	0	1	3128,2709	1,89998734	1,90051413	-0,32290130553560134	8	-0,0404915623	0,00061367848
2	1	0	1	1	3134,1719	1,95899689	1,95956087	-0,25332560842097939	8	-0,0421773195	0,000496406923
2	1	0	1	1	3140,0727	2,01800632	2,0186522	-0,17984340264013453	8	-0,0434646867	0,000363041268
2	1	0	0	1	3145,9737	2,07701612	2,07756948	-0,11589463005118315	8	-0,0443355814	0,000240779147
2	1	0	1	1	3151,9147	2,1364255	2,13695478	-0,04759087949922247	8	-0,04481785	0,000101699559
2	1	0	0	1	3157,9357	2,19663501	2,19720459	0,10916853920315117	8	-0,0448268317	0,000239865622
2	1	0	1	1	3163,8367	2,2556448	2,2564249	0,4618818913069056	8	-0,0431156531	0,00104220177
2	1	0	1	1	3169,7375	2,31465435	2,31516862	0,80681439889250048	8	-0,0393674411	0,00186791143
2	1	0	0	1	3175,6685	2,37396359	2,37462091	1,1865279571049712	8	-0,033452373	0,00281755417
2	1	0	1	1	3181,5695	2,43297362	2,43352938	1,611163858462263	8	-0,0251798891	0,00392081449
2	1	0	0	1	3187,4705	2,49198294	2,49255848	1,7776381574847094	8	-0,0149112111	0,00443086727
2	1	0	0	1	3193,3713	2,55099225	2,55143571	1,5232090273941062	8	-0,0053117522	0,00388636999
2	1	0	1	1	3199,2723	2,61000204	2,61059833	1,5044544191548147	8	0,00367626594	0,00392752606
2	1	0	0	1	3205,1733	2,66901135	2,66966295	1,4722080051347034	8	0,0124490354	0,00393029908
2	1	0	1	1	3211,0743	2,72802091	2,72854018	1,439549984617372	8	0,0210555699	0,00392787019
2	1	0	1	1	3216,9752	2,78702974	2,78763103	1,3866133034713074	8	0,0294020567	0,00386536634
2	1	0	1	1	3220,8241	2,82558775	2,82589054	1,3466201722621918	8	0,0346634127	0,00380540127