File: Experimentelles/Ausgewaehlte_Daten/LiS/CV/LiS_Klein_Vollprogramm_02_CV_C01.mpt
EC-Lab ASCII FILE
Nb header lines : 77

Cyclic Voltammetry

Run on channel : 1 (SN 6985)
Grouped channel(s) : 1
User :
CE vs. WE compliance from -10 V to 10 V
Electrode connection : standard
Ewe ctrl range : min = 0,00 V, max = 5,00 V
Acquisition started on : 08/28/2015 15:57:10
Saved on :
	File : LiS_Klein_Vollprogramm_02_CV_C01.mpr
	Directory : C:\Gielisch\NeueZelle\LiS-Test\150828\
	Host : 192.168.0.2
Device : VMP3 (SN 0324)
Address : 192.168.0.1
EC-Lab for windows v10.33 (software)
Internet server v10.33 (firmware)
Command interpretor v10.32 (firmware)
Electrode material :
Initial state :
Electrolyte :
Comments :
Mass of active material : 0,001 mg
 at x = 0,000
Molecular weight of active material (at x = 0) : 0,001 g/mol
Atomic weight of intercalated ion : 0,001 g/mol
Acquisition started at : xo = 0,000
Number of e- transfered per intercalated ion : 1
for DX = 1, DQ = 26,801 mA.h
Battery capacity : 0,000 A.h
Electrode surface area : 0,001 cm²
Characteristic mass : 0,001 g
Ei (V)              0,000
vs.                 Eoc
dE/dt               10,000
dE/dt unit          mV/s
E1 (V)              2,800
vs.                 Ref
Step percent        50
N                   10
E range min (V)     0,000
E range max (V)     5,000
I Range             Auto
Bandwidth           5
E2 (V)              1,500
vs.                 Ref
nc cycles           0
Reverse Scan        1
Ef (V)              0,000
vs.                 Eoc

Modify on : 08/28/2015 15:59
E1 (V)              3,000
E2 (V)              1,000

Modify on : 08/28/2015 16:01
E1 (V)              3,500

Modify on : 08/28/2015 16:07
E2 (V)              0,800

Modify on : 08/28/2015 16:35
E1 (V)              3,800

Number of loops : 7
Loop 0 from point number 0 to 2602
Loop 1 from point number 2603 to 7602
Loop 2 from point number 7603 to 13002
Loop 3 from point number 13003 to 18402
Loop 4 from point number 18403 to 23802
Loop 5 from point number 23803 to 29801
Loop 6 from point number 29802 to 35799

mode	ox/red	error	control changes	counter inc.	time/s	control/V	Ewe/V	<I>/mA	cycle number	(Q-Qo)/C	P/W
2	1	0	1	0	0,0508	2,73943591	2,74002028	-0,0013689417392015458	1	0	3,75092804E-006
2	0	0	1	0	6,3670	2,7974937	2,79784536	0,0007775553436254615	1	3,2298547E-005	2,17547972E-006
2	0	0	0	0	12,8680	2,7324841	2,73251677	-0,0057464638645157299	1	5,30049601E-006	1,57023096E-005
2	0	0	1	0	19,3690	2,66747427	2,66752195	-0,0079737780227636186	1	-3,97045114E-005	2,12702271E-005
2	0	0	0	0	25,9100	2,60206461	2,60234475	-0,01151924584431712	1	-0,000100415957	2,99770491E-005
2	0	0	0	0	32,4108	2,53705502	2,53711414	-0,015499193176057978	1	-0,00018792889	3,93232222E-005
2	0	0	1	0	38,9118	2,47204542	2,4722352	-0,021695170851200179	1	-0,00030698991	5,36355656E-005
2	0	0	0	0	45,4128	2,40703583	2,40710711	-0,035568095006359213	1	-0,00048635478	8,56162151E-005
2	0	0	1	0	51,9138	2,34202623	2,34217024	-0,076057152676016653	1	-0,000825396331	0,000178138798
2	0	0	0	0	58,4548	2,27661633	2,27691722	-0,1829754923539313	1	-0,00162868772	0,000416620052
2	0	0	1	0	64,9558	2,21160674	2,21174908	-0,35737487791037139	1	-0,00335685676	0,000790423539
2	0	0	1	0	71,4567	2,14659667	2,14684796	-0,61170391814927782	1	-0,00641949335	0,00131323526
2	0	0	0	0	77,9876	2,08128738	2,08132315	-1,1406417867099811	1	-0,0119877895	0,00237404415
2	0	0	1	0	84,4886	2,01627779	2,0163064	-1,8420941126015437	1	-0,0216466207	0,00371422619
2	0	0	0	0	90,9896	1,95126808	1,95134282	-2,5774571514791872	1	-0,0359942801	0,00502950232
2	0	0	1	0	97,4906	1,8862586	1,88647771	-3,3215020602499974	1	-0,055186931	0,00626593968
2	0	0	0	0	103,9916	1,82124877	1,82128251	-4,0281009127696486	1	-0,0791341662	0,00733630965
2	0	0	0	0	110,4925	1,75623894	1,75626516	-4,6921744513582125	1	-0,107560687	0,00824070256
2	0	0	1	0	116,9934	1,69122946	1,69122207	-5,2465472088919699	1	-0,139906764	0,00887307618
2	0	0	0	0	123,4944	1,62621987	1,62635219	-5,7457725173897101	1	-0,175796136	0,0093446495
2	0	0	1	0	129,9954	1,56121027	1,56117511	-6,1367554471448691	1	-0,214500889	0,00958054978
2	1	0	0	1	136,2670	1,50150144	1,5015713	-6,4154010823479629	1	-0,254051536	0,00963318255
2	1	0	0	1	142,7678	1,56651092	1,56659698	-5,4988026028429965	1	-0,292685837	0,00861440785
2	1	0	1	1	149,2688	1,63152051	1,63175642	-4,6477203336026963	1	-0,325651705	0,00758394739
2	1	0	0	1	155,7698	1,69653022	1,69671547	-3,8805356340275987	1	-0,353330284	0,00658416469
2	1	0	1	1	162,2708	1,76153994	1,76157641	-3,194047553671737	1	-0,376329035	0,00562655879
2	1	0	0	1	168,7718	1,82654965	1,82674479	-2,5443796774855264	1	-0,394935668	0,00464793248
2	1	0	1	1	175,2728	1,89155924	1,89164579	-1,9553458094596934	1	-0,409516484	0,00369882165
2	1	0	1	1	181,7736	1,95656884	1,95674729	-1,4448433804015366	1	-0,420533925	0,00282719336
2	1	0	0	1	188,2746	2,02157855	2,02160358	-0,93993924364999155	1	-0,428259641	0,00190018455
2	1	0	1	1	194,8156	2,08698797	2,08705282	-0,48213857453730214	1	-0,43287605	0,00100624864
2	1	0	0	1	201,3166	2,15199804	2,15210533	-0,076756001148303885	1	-0,4346582	0,000165186997
2	1	0	1	1	207,8976	2,21780777	2,21781707	0,2863508266293353	1	-0,433945388	0,000635073753
2	1	0	0	1	214,3986	2,28281736	2,2831285	0,61618689902954496	1	-0,430991054	0,00140683388
2	1	0	0	1	220,8995	2,34782696	2,34796715	0,90900003800263142	1	-0,42601344	0,00213430217
2	1	0	1	1	227,4304	2,41313648	2,41323328	1,1727285033298856	1	-0,419198543	0,00283006742
2	1	0	0	1	233,9314	2,47814631	2,47826338	1,4331030135077611	1	-0,410737813	0,00355160679
2	1	0	1	1	240,4324	2,54315567	2,5431776	1,7606887764952749	1	-0,400414675	0,00447774446
2	1	0	0	1	246,9334	2,6081655	2,60830593	2,1775252203698515	1	-0,387655824	0,00567965209
2	1	0	1	1	253,4344	2,67317533	2,67316246	2,6262467103424	1	-0,37203753	0,00702038407
2	1	0	0	1	259,9354	2,73818517	2,73817086	3,0318910343567181	1	-0,353608757	0,00830183551
2	1	0	0	0	266,4260	2,80209446	2,80258417	3,1189561858773306	2	0,0192175135	0,00874113757
2	1	0	1	0	272,9270	2,86710405	2,86754346	3,0624293845008915	2	0,0393122956	0,00878164917
2	1	0	0	0	279,4280	2,93211341	2,93268037	2,941784672163152	2	0,0588787347	0,00862731412
2	1	0	1	0	285,9290	2,99712348	2,99763942	2,6963394455335744	2	0,0773034617	0,0080826534
2	1	0	0	0	292,4300	3,06213307	3,06239319	2,2750845714299856	2	0,093551062	0,00696720369
2	1	0	0	0	298,9309	3,12714195	3,12771225	1,7316746310913942	2	0,10660477	0,00541618001
2	1	0	1	0	305,4318	3,19215202	3,19240451	1,3030260697835034	2	0,116336748	0,00415978627
2	1	0	0	0	311,9328	3,25716138	3,25769782	1,043381318863891	2	0,123908773	0,00339902099
2	1	0	1	0	318,4338	3,32217145	3,32258081	0,85939885275783642	2	0,130063385	0,00285542221
2	1	0	0	0	324,9348	3,38718104	3,38749528	0,72749708958521792	2	0,135199502	0,00246439292
2	1	0	1	0	331,4358	3,4521904	3,4526372	0,6389740639952617	2	0,139620572	0,00220614555
2	0	0	0	0	337,6672	3,48549557	3,48591423	0,55743576579347654	2	0,143422246	0,00194317324
2	0	0	1	0	344,2082	3,42008615	3,42056298	0,45062937697878394	2	0,146683261	0,00154140615
2	0	0	0	0	350,7092	3,3550756	3,35552764	0,3919773584944375	2	0,14940536	0,00131529081
2	0	0	0	0	357,2100	3,29006648	3,29050255	0,34969745969606605	2	0,151808098	0,00115068036
2	0	0	1	0	363,7110	3,22505713	3,22545481	0,31539193516666189	2	0,153964967	0,00101728248
2	0	0	0	0	370,2120	3,16004729	3,16038871	0,28595759447112102	2	0,155915812	0,000903737149
2	0	0	1	0	376,7130	3,0950377	3,09543419	0,25976290888394438	2	0,157685339	0,000804078998
2	0	0	0	0	383,2140	3,03002834	3,03046179	0,23711878737365798	2	0,159296095	0,000718579453
2	0	0	1	0	389,7150	2,96501851	2,96539593	0,21844421684052074	2	0,160772964	0,000647773617
2	0	0	1	0	396,2158	2,90000868	2,90053964	0,20213531806237216	2	0,162137032	0,000586301496
2	0	0	0	0	402,7168	2,83499932	2,83561182	0,18683328658894237	2	0,163399547	0,000529786688
2	0	0	1	0	409,2178	2,76998949	2,77058148	0,17073659107295968	2	0,164561376	0,000473039632
2	0	0	0	0	415,7188	2,7049799	2,70543981	0,15281810090635718	2	0,165611237	0,000413440168
2	0	0	1	0	422,2198	2,6399703	2,64036965	0,13466136336878509	2	0,166543856	0,000355555763
2	0	0	0	0	428,7208	2,57496047	2,57552218	0,11440244696482482	2	0,167355463	0,000294646044
2	0	0	0	0	435,2216	2,50995088	2,51031351	0,079090161516365504	2	0,16799435	0,000198541107
2	0	0	1	0	441,8026	2,44414139	2,44471312	-0,00028463739057353178	2	0,168295279	6,95856784E-007
2	0	0	0	0	448,3836	2,37833142	2,37866712	-0,21812551382377254	2	0,167680964	0,000518848014
2	0	0	1	0	454,8846	2,31332207	2,31383729	-0,60142832352883379	2	0,165079251	0,00139160734
2	0	0	0	0	461,4256	2,24791217	2,24839687	-1,0584967310230002	2	0,159663156	0,0023799208
2	0	0	1	0	467,9266	2,18290234	2,18332267	-1,5243287514205334	2	0,151268855	0,00332810148
2	0	0	0	0	474,4276	2,1178925	2,11828828	-2,0119080519775085	2	0,139783472	0,00426180102
2	0	0	0	0	480,9284	2,05288315	2,05337787	-2,5071611691404314	2	0,125088915	0,0051481491
2	0	0	1	0	487,4294	1,98787355	1,98817837	-2,953461215727849	2	0,107283123	0,00587200793
2	0	0	0	0	493,9304	1,92286372	1,92326844	-3,3229516893625402	2	0,0868109688	0,00639092829
2	0	0	1	0	500,4314	1,85785413	1,85829616	-3,5785287673826643	2	0,0643169135	0,00664996635
2	0	0	0	0	506,9324	1,79284453	1,79328358	-3,7653637108979546	2	0,0404184721	0,0067523648
2	0	0	1	0	513,4334	1,72783506	1,72827566	-3,9992714502193357	2	0,0151954964	0,00691184355
2	0	0	1	0	519,9342	1,66282523	1,66324103	-4,2257448004351731	2	-0,0114874821	0,0070284321
2	0	0	0	0	526,4352	1,59781563	1,59819746	-4,4607758726234701	2	-0,0397359096	0,00712920073
2	0	0	1	0	532,9362	1,53280616	1,53325188	-4,6832076531869549	2	-0,0694811493	0,0071805371
2	0	0	0	0	539,4372	1,46779633	1,46811903	-4,8788682437605357	2	-0,100572661	0,00716275908
2	0	0	1	0	545,9382	1,40278673	1,40324914	-5,0744152422304512	2	-0,132928178	0,00712066889
2	0	0	1	0	552,4391	1,3377775	1,33804536	-5,2536753275803251	2	-0,166527972	0,00702965586
2	0	0	0	0	558,9400	1,27276754	1,27336693	-5,3734389405559712	2	-0,201120272	0,00684235943
2	0	0	1	0	565,4410	1,20775771	1,20827436	-5,4017510154732806	2	-0,236192375	0,00652679708
2	0	0	0	0	571,9420	1,14274824	1,14329302	-5,3637228464638758	2	-0,27120775	0,006132307
2	0	0	1	0	578,4430	1,0777384	1,07806253	-5,2464877046920646	2	-0,305783033	0,00565604167
2	0	0	0	0	584,9440	1,01272905	1,01309907	-4,9707350846793811	2	-0,339082122	0,00503584696
2	1	0	1	1	591,2754	1,05053449	1,05112982	-4,077218959728896	2	-0,367918223	0,00428568665
2	1	0	0	1	597,7764	1,1155442	1,11600852	-3,3117558757464083	2	-0,391783297	0,00369594782
2	1	0	1	1	604,2774	1,18055379	1,18106127	-2,7503885532970714	2	-0,411362737	0,00324837747
2	1	0	0	1	610,7784	1,24556351	1,24600673	-2,3428147286176822	2	-0,427857488	0,00291916286
2	1	0	0	1	617,2792	1,31057298	1,31094778	-2,0177027671425414	2	-0,44199118	0,00264510303
2	1	0	1	1	623,7802	1,3755827	1,3760227	-1,7482311242708518	2	-0,454204261	0,00240560574
2	1	0	0	1	630,2812	1,44059229	1,44120443	-1,5201212289156746	2	-0,464802653	0,00219080551
2	1	0	1	1	636,7822	1,50560188	1,50615442	-1,3202682372044592	2	-0,47402364	0,00198852783
2	1	0	0	1	643,2832	1,57061172	1,57105076	-1,1350936619219922	2	-0,481996924	0,00178328971
2	1	0	1	1	649,7842	1,63562119	1,63600528	-0,95511774125474419	2	-0,488788754	0,00156257767
2	1	0	1	1	656,2850	1,70063078	1,70097768	-0,76633210494010662	2	-0,494391888	0,00130351377
2	1	0	0	1	662,7860	1,76564062	1,76621294	-0,55908309613112819	2	-0,498703092	0,000987459789
2	1	0	1	1	669,3270	1,83105028	1,83140337	-0,35846413458111213	2	-0,501698017	0,000656492426
2	1	0	0	1	675,8280	1,89605975	1,89646041	-0,14824297689591238	2	-0,503349841	0,000281136949
2	1	0	1	1	682,4490	1,96226966	1,96272039	0,043593021907360698	2	-0,503662646	8,55609105E-005
2	1	0	0	1	688,9900	2,02767944	2,0281024	0,21616150987231021	2	-0,502826214	0,000438397663
2	1	0	1	1	695,4910	2,09268904	2,09333324	0,42076392471790138	2	-0,500770569	0,00088079914
2	1	0	1	1	701,9918	2,15769863	2,15817213	0,64828170017727782	2	-0,497304261	0,00139910355
2	1	0	0	1	708,4928	2,22270846	2,22325134	0,90302905592101542	2	-0,492274642	0,00200766046
2	1	0	1	1	715,0238	2,28801799	2,28833508	1,1666024915046146	2	-0,485501289	0,00266957749
2	1	0	0	1	721,5248	2,35302782	2,35338736	1,3938878861566426	2	-0,477164388	0,00328035816
2	1	0	1	1	728,0258	2,41803741	2,41838217	1,6800304391869875	2	-0,467238158	0,00406295573
2	1	0	0	1	734,5268	2,48304701	2,4833231	2,0727135467308528	2	-0,455073595	0,00514721731
2	1	0	0	1	741,0276	2,5480566	2,5484736	2,4982023791030627	2	-0,440212697	0,00636660261
2	1	0	1	1	747,5286	2,61306596	2,61332583	2,8889311792122003	2	-0,422682732	0,00754971849
2	1	0	0	1	754,0296	2,67807603	2,67848969	3,2836300035317907	2	-0,40263623	0,00879516918
2	1	0	0	0	760,5346	2,74278545	2,74323463	3,7344634759205542	3	0,000584664929	0,0102445092
2	1	0	1	0	767,0356	2,80779529	2,80816221	3,9859934460233786	3	0,0254058912	0,0111933164
2	1	0	1	0	773,5364	2,8728044	2,87329888	4,3349742711713229	3	0,0524546243	0,0124556767
2	1	0	0	0	780,0374	2,93781424	2,93836093	4,6233701948766317	3	0,0816184804	0,0135851307
2	1	0	1	0	786,5384	3,00282407	3,00325751	4,8585828338508038	3	0,112469062	0,0145915756
2	1	0	0	0	793,0394	3,06783366	3,06837702	5,0191192323410829	3	0,144609898	0,0154005503
2	1	0	1	0	799,5404	3,13284373	3,13334465	5,113171456588631	3	0,177548215	0,016021328
2	1	0	0	0	806,0414	3,19785285	3,19822335	5,1452441005795181	3	0,210943043	0,0164556392
2	1	0	0	0	812,5422	3,26286221	3,26345801	5,030480841503824	3	0,244071409	0,0164167639
2	1	0	1	0	819,0432	3,32787204	3,32838178	4,8218603101041709	3	0,276152343	0,0160489921
2	1	0	0	0	825,5442	3,39288211	3,39340305	4,5848675458519706	3	0,306781679	0,0155583033
2	1	0	1	0	832,0452	3,4578917	3,45827746	4,2502664873997203	3	0,335438579	0,0146986004
2	0	0	0	0	838,3064	3,47949481	3,48005104	3,6515669039002176	3	0,360574573	0,0127076395
2	0	0	1	0	844,8074	3,41448522	3,4151051	2,8095141414691014	3	0,38149187	0,00959478598
2	0	0	0	0	851,3084	3,34947538	3,34979868	2,1161320907650138	3	0,397460043	0,00708861649
2	0	0	1	0	857,8094	3,28446555	3,28482199	1,5331403873860835	3	0,409263968	0,00503609329
2	0	0	0	0	864,3104	3,2194562	3,21996999	1,0325693132148874	3	0,417530656	0,00332484231
2	0	0	1	0	870,8114	3,15444636	3,15497088	0,72627994942444301	3	0,423131406	0,00229139207
2	0	0	1	0	877,3122	3,08943725	3,08996344	0,57237036781454445	3	0,427296579	0,00176860346
2	0	0	0	0	883,8532	3,02402711	3,02454495	0,48315736934266803	3	0,430724651	0,00146133115
2	0	0	1	0	890,3542	2,95901775	2,95941257	0,42320000463061946	3	0,433657527	0,00125242339
2	0	0	0	0	896,8552	2,89400792	2,89438677	0,37849568903308128	3	0,43625614	0,00109551288
2	0	0	1	0	903,3562	2,82899833	2,82954812	0,33914703158316762	3	0,438585758	0,00095963286
2	0	0	0	0	909,8572	2,76398873	2,76446438	0,30101364523310202	3	0,44066304	0,000832141493
2	0	0	0	0	916,3580	2,69897985	2,69952822	0,26587319582526691	3	0,442502797	0,000717732182
2	0	0	1	0	922,8590	2,63396931	2,63435054	0,22822308471357379	3	0,444109261	0,000601219595
2	0	0	0	0	929,3600	2,56895971	2,56950283	0,17723515805684864	3	0,445435971	0,000455406233
2	0	0	1	0	935,8610	2,50395012	2,50434804	0,10146516892645118	3	0,446354806	0,000254104089
2	0	0	0	0	942,4820	2,43774033	2,43814135	-0,046613903888673702	3	0,446605623	0,000113651287
2	0	0	1	0	949,0230	2,37233067	2,3727057	-0,36448159468946554	3	0,445362419	0,000864807575
2	0	0	0	0	955,5240	2,30732107	2,30768442	-0,82335859095608794	3	0,441542476	0,00190005184
2	0	0	0	0	962,0548	2,24201131	2,24241376	-1,3159559719540432	3	0,434551865	0,0029509177
2	0	0	1	0	968,5558	2,17700124	2,17752147	-1,8062207632594726	3	0,424405128	0,00393308466
2	0	0	0	0	975,0568	2,11199188	2,11254478	-2,3011635163867936	3	0,411047876	0,00486131106
2	0	0	1	0	981,5578	2,04698229	2,04737639	-2,7896340056150102	3	0,39448148	0,00571143068
2	0	0	0	0	988,0588	1,98197269	1,98235977	-3,2284328821632506	3	0,374880075	0,00639991555
2	0	0	1	0	994,5598	1,91696286	1,91755211	-3,5336981321926541	3	0,35278672	0,0067760502
2	0	0	1	0	1001,0606	1,85195327	1,85249496	-3,5162042671883424	3	0,329649836	0,00651375065
2	0	0	0	0	1007,5616	1,78694367	1,7874248	-3,4984446907485139	3	0,30692181	0,00625320664
2	0	0	1	0	1014,0626	1,7219342	1,72247469	-3,5661979599131398	3	0,284010947	0,00614268566
2	0	0	0	0	1020,5636	1,65692437	1,65727079	-3,6936828681716102	3	0,260413736	0,00612143287
2	0	0	1	0	1027,0646	1,59191477	1,59235179	-3,8301344778802714	3	0,235958546	0,00609892141
2	0	0	0	0	1033,5656	1,5269053	1,5273664	-3,9647161833665862	3	0,210614085	0,0060555744
2	0	0	0	0	1040,0664	1,46189547	1,46237612	-4,1423563372205728	3	0,184243634	0,00605768291
2	0	0	1	0	1046,5674	1,39688587	1,39723897	-4,2711228419233222	3	0,15686658	0,00596777909
2	0	0	0	0	1053,0684	1,33187628	1,33220434	-4,3396963438502214	3	0,128835961	0,0057813623
2	0	0	1	0	1059,5694	1,26686668	1,26741922	-4,3312117181442458	3	0,100596838	0,00548946112
2	0	0	0	0	1066,0704	1,20185685	1,20227301	-4,2379445019695437	3	0,0727194399	0,00509516615
2	0	0	1	0	1072,5714	1,13684738	1,13728297	-4,1082726612135258	3	0,0455939807	0,00467226841
2	0	0	1	0	1079,0722	1,07183754	1,07221258	-3,999949497757129	3	0,0192458984	0,00428879634
2	0	0	0	0	1085,5732	1,00682795	1,00715554	-3,8897627752136256	3	-0,00644991081	0,0039175963
2	0	0	1	0	1092,0742	0,941818416	0,942290246	-3,6982134376411008	3	-0,0311293881	0,00348479045
2	0	0	0	0	1098,5752	0,876808822	0,877197623	-3,4198777532135738	3	-0,0542684309	0,00299990852
2	0	0	1	0	1105,0762	0,811799109	0,812194109	-3,1616035225214886	3	-0,0756295323	0,00256783585
2	1	0	0	1	1111,4076	0,851605117	0,851886809	-2,3067302452745331	3	-0,0930311903	0,00196507317
2	1	0	1	1	1117,9086	0,916614652	0,917006195	-1,7132360949008589	3	-0,105830237	0,00157104817
2	1	0	0	1	1124,4096	0,981624365	0,982036352	-1,374070195688141	3	-0,11575298	0,00134938688
2	1	0	1	1	1130,9106	1,04663396	1,04708886	-1,1630554066763957	3	-0,12395525	0,00121782231
2	1	0	1	1	1137,4115	1,11164296	1,11201167	-1,0185733738590094	3	-0,131019235	0,00113266543
2	1	0	0	1	1143,9124	1,17665327	1,17709589	-0,90620855145432525	3	-0,137247786	0,00106669439
2	1	0	1	1	1150,4134	1,24166274	1,24197018	-0,80525775916046528	3	-0,142797187	0,0010001061
2	1	0	0	1	1156,9144	1,30667245	1,3070271	-0,72241220685343066	3	-0,147756949	0,000944212312
2	1	0	1	1	1163,4154	1,37168217	1,37207079	-0,6424121677323616	3	-0,152189434	0,000881434942
2	1	0	0	1	1169,9164	1,43669164	1,43706083	-0,56630670713881504	3	-0,156116888	0,000813817198
2	1	0	1	1	1176,4574	1,50210142	1,50247884	-0,49124347577216333	3	-0,159573033	0,000738082919
2	1	0	1	1	1182,9582	1,56711113	1,56753111	-0,41271586757567392	3	-0,162513047	0,000646944973
2	1	0	0	1	1189,4592	1,63212073	1,63249457	-0,32225682845132294	3	-0,164909318	0,000526082527
2	1	0	1	1	1195,9602	1,69713032	1,69750261	-0,2108899638815609	3	-0,16665335	0,000357986253
2	1	0	0	1	1202,4612	1,76214004	1,762622	-0,074409203327916339	3	-0,167591706	0,000131155291
2	1	0	1	1	1209,0822	1,82834983	1,82885945	0,079743797261337293	3	-0,167570442	0,000145840197
2	1	0	0	1	1215,6232	1,89375961	1,89423728	0,23293318978890198	3	-0,166551992	0,000441230746
2	1	0	0	1	1222,1241	1,95876884	1,95930195	0,39097891820783738	3	-0,164516419	0,000766045763
2	1	0	1	1	1228,6250	2,02377892	2,02429771	0,52585769782739878	3	-0,161519706	0,00106449251
2	1	0	0	1	1235,1260	2,08878851	2,08933234	0,6268527373257609	3	-0,157749906	0,00130970369
2	1	0	1	1	1241,6270	2,1537981	2,15414429	0,71397217473498381	3	-0,153404877	0,00153799914
2	1	0	0	1	1248,1280	2,2188077	2,21931291	0,84736727592017754	3	-0,148356348	0,00188057311
2	1	0	1	1	1254,6590	2,2841177	2,28444552	1,0241436769288992	3	-0,142264813	0,00233960035
2	1	0	0	1	1261,1600	2,34912777	2,3495698	1,2420893816842656	3	-0,134922698	0,00291837566
2	1	0	0	1	1267,6608	2,41413689	2,41471529	1,4945340226921776	3	-0,126039684	0,00360887405
2	1	0	1	1	1274,1618	2,47914648	2,47942924	1,7997466946641616	3	-0,11537955	0,00446234457
2	1	0	0	1	1280,6628	2,54415584	2,54466462	2,1772263646125936	3	-0,102512434	0,00554031087
2	1	0	1	1	1287,1638	2,60916591	2,60972571	2,6745330978322883	3	-0,0867883414	0,00697979797
2	1	0	0	1	1293,6648	2,6741755	2,67460465	3,2343607688391744	3	-0,0675952807	0,0086506363
2	1	0	1	1	1300,1658	2,73918486	2,73974633	3,7535213196939878	3	-0,0448474698	0,0102836965
2	1	0	0	0	1306,6290	2,80369449	2,8041172	4,1931847289756378	4	0,0246287417	0,0117581813
2	1	0	1	0	1313,1300	2,86870432	2,86931658	4,5312730476811962	4	0,0530535914	0,0130016571
2	1	0	0	0	1319,6310	2,93371391	2,9341774	4,6597971954831526	4	0,0830803439	0,0136726713
2	1	0	1	0	1326,1320	2,99872327	2,99923897	4,7128270963827744	4	0,113569811	0,0141348951
2	1	0	0	0	1332,6330	3,06373334	3,06430888	4,7387107941839302	4	0,1443028	0,0145208733
2	1	0	0	0	1339,1338	3,12874222	3,12908936	4,7938828054267046	4	0,175296113	0,0150004877
2	1	0	1	0	1345,6348	3,19375205	3,19410634	4,7954864976582739	4	0,206488371	0,0153172938
2	1	0	0	0	1352,1358	3,25876188	3,25931978	4,7527011207960045	4	0,237592056	0,0154905729
2	1	0	1	0	1358,6368	3,32377195	3,32425642	4,6445685647152006	4	0,268161416	0,0154397367
2	1	0	0	0	1365,1378	3,38878131	3,38921523	4,5100389327164051	4	0,297936559	0,0152854929
2	1	0	1	0	1371,6388	3,4537909	3,45412493	4,3223515748977946	4	0,326648206	0,0149299419
2	0	0	0	0	1377,9100	3,48349547	3,4840517	4,0023132452258355	4	0,353090882	0,0139442664
2	0	0	1	0	1384,4110	3,41848564	3,41897702	3,3133958931322451	4	0,376824319	0,0113284243
2	0	0	0	0	1390,9120	3,35347581	3,35380006	2,7235272554335738	4	0,396387845	0,00913416594
2	0	0	1	0	1397,4130	3,28846645	3,28885841	2,2049240704487936	4	0,412404239	0,00725168316
2	0	0	1	0	1403,9139	3,22345567	3,2239387	1,7876090724915434	4	0,425332636	0,0057631419
2	0	0	0	0	1410,4148	3,15844727	3,15898967	1,4370375297687622	4	0,435784459	0,0045395866
2	0	0	1	0	1416,9158	3,09343743	3,09405756	1,117569667183691	4	0,444057405	0,00345782493
2	0	0	0	0	1423,4168	3,02842784	3,02880001	0,85416921987025421	4	0,450424969	0,00258710771
2	0	0	1	0	1429,9178	2,96341801	2,96383667	0,66271747089922522	4	0,455314696	0,00196418632
2	0	0	0	0	1436,4188	2,89840889	2,89885974	0,52835750159014253	4	0,459159195	0,00153163425
2	0	0	0	0	1442,9597	2,83299899	2,83337998	0,42809368524412416	4	0,462269962	0,00121295208
2	0	0	1	0	1449,4606	2,76798964	2,76847005	0,35446648830892794	4	0,464796454	0,000981329824
2	0	0	0	0	1455,9616	2,70297956	2,70352411	0,30377212273715795	4	0,466927111	0,000821255264
2	0	0	1	0	1462,4626	2,63796997	2,63833785	0,25257727058811286	4	0,468738794	0,000666384178
2	0	0	0	0	1468,9636	2,57296038	2,57341027	0,17893702374702246	4	0,47015667	0,000460478361
2	0	0	1	0	1475,4646	2,50795078	2,5084691	0,077857603543196378	4	0,470994651	0,000195303393
2	0	0	0	0	1482,0856	2,44174075	2,4422183	-0,07609809684153257	4	0,471060991	0,00018584817
2	0	0	0	0	1488,6265	2,37633061	2,37685347	-0,39981387058720051	4	0,469610393	0,000950298971
2	0	0	1	0	1495,1274	2,3113215	2,31166291	-0,87602856865635558	4	0,465511352	0,00202508271
2	0	0	0	0	1501,6684	2,2459116	2,24638796	-1,3958258936526634	4	0,458074749	0,00313556637
2	0	0	1	0	1508,1694	2,18090224	2,1813395	-1,8962327931766224	4	0,447362512	0,00413632765
2	0	0	0	0	1514,6704	2,11589241	2,11641192	-2,3869988104259578	4	0,433427453	0,00505187269
2	0	0	1	0	1521,1714	2,05088282	2,05130172	-2,8768030057350982	4	0,416311413	0,00590119092
2	0	0	1	0	1527,6723	1,98587275	1,98619092	-3,3218256155931699	4	0,396104991	0,00659777969
2	0	0	0	0	1534,1732	1,92086351	1,92122328	-3,6407422798651046	4	0,373381138	0,00699467864
2	0	0	1	0	1540,6742	1,85585392	1,85642922	-3,8131323975545254	4	0,349103481	0,00707881059
2	0	0	0	0	1547,1752	1,79084444	1,79139018	-3,6028214682031533	4	0,324663907	0,00645405892
2	0	0	1	0	1553,6762	1,72583461	1,72646224	-3,3554017505160026	4	0,302176863	0,00579297449
2	0	0	0	0	1560,1772	1,66082478	1,66112471	-3,4044375866651603	4	0,280333132	0,00565519556
2	0	0	0	0	1566,6781	1,59581554	1,59652174	-3,5620435334040506	4	0,257707655	0,00568688009
2	0	0	1	0	1573,1790	1,53080571	1,53138936	-3,7674223962757126	4	0,233883873	0,00576939061
2	0	0	0	0	1579,6800	1,46579611	1,4661721	-3,9492367351496538	4	0,208754331	0,00579026062
2	0	0	1	0	1586,1810	1,40078652	1,40106165	-4,0054230176740154	4	0,18278046	0,00561184483
2	0	0	0	0	1592,6820	1,33577681	1,336272	-4,029139614215609	4	0,156623811	0,00538402656
2	0	0	1	0	1599,1830	1,27076709	1,27125525	-3,9822949469089651	4	0,130541623	0,00506251352
2	0	0	1	0	1605,6839	1,20575666	1,20611227	-3,898853861348137	4	0,104905576	0,00470245536
2	0	0	0	0	1612,1848	1,1407479	1,14099419	-3,8034861943235968	4	0,0798958912	0,00433975551
2	0	0	1	0	1618,6858	1,07573819	1,07603514	-3,7502828334216787	4	0,0553134568	0,00403543608
2	0	0	0	0	1625,1868	1,0107286	1,01116991	-3,6602243488585344	4	0,0312424097	0,00370110874
2	0	0	1	0	1631,6878	0,945719004	0,946139753	-3,5221304832785178	4	0,00783799589	0,0033324277
2	0	0	0	0	1638,1888	0,88070941	0,881229699	-3,3509731116118272	4	-0,0145848049	0,00295297708
2	0	0	0	0	1644,6897	0,815700114	0,81612879	-3,1679521666878118	4	-0,0358381793	0,00258545694
2	1	0	0	1	1651,0112	0,847604394	0,848050773	-2,2312333302365398	4	-0,0532242022	0,00189219916
2	1	0	1	1	1657,5122	0,912614107	0,913054287	-1,5648659888517037	4	-0,0652915388	0,00142880762
2	1	0	0	1	1664,0132	0,977623701	0,97794193	-1,2180386611984808	4	-0,0742045417	0,00119117112
2	1	0	0	1	1670,5140	1,0426333	1,04302561	-1,0163484440633504	4	-0,0814354345	0,00106007745
2	1	0	1	1	1677,0150	1,10764301	1,10796225	-0,86968081444502016	4	-0,0875421315	0,000963573519
2	1	0	0	1	1683,5160	1,17265248	1,17293918	-0,74936389764426086	4	-0,0927898586	0,000878958264
2	1	0	1	1	1690,0170	1,23766243	1,23804951	-0,64581824225132058	4	-0,0973174199	0,000799554982
2	1	0	0	1	1696,5180	1,30267179	1,30320454	-0,55344585536254522	4	-0,101211675	0,000721253164
2	1	0	1	1	1703,0590	1,36808157	1,36864471	-0,47103259988404922	4	-0,104556046	0,000644676271
2	1	0	1	1	1709,5598	1,43309116	1,43379509	-0,39643686747661344	4	-0,107368909	0,000568409218
2	1	0	0	1	1716,0608	1,49810088	1,4986248	-0,32644176352079181	4	-0,10971418	0,000489213737
2	1	0	1	1	1722,5618	1,56311047	1,56368613	-0,25711113111012483	4	-0,111608893	0,0004020411
2	1	0	0	1	1729,0628	1,62812006	1,62848473	-0,18366969299192259	4	-0,11304494	0,000299103296
2	1	0	1	1	1735,5638	1,69312978	1,69366205	-0,093176584130290957	4	-0,113955155	0,000157809642
2	1	0	0	1	1742,1848	1,75933957	1,75975716	0,024928350883311802	4	-0,114193894	4,38678435E-005
2	1	0	0	1	1748,7257	1,82474875	1,82515609	0,15793271325404794	4	-0,113594323	0,000288251846
2	1	0	1	1	1755,2266	1,88975894	1,89032984	0,2954160842906537	4	-0,11212822	0,000558433821
2	1	0	0	1	1761,7276	1,95476866	1,9551729	0,43929285100764678	4	-0,109726056	0,000858893502
2	1	0	1	1	1768,2286	2,01977825	2,02019429	0,55185665328193779	4	-0,1064872	0,00111485762
2	1	0	0	1	1774,7296	2,08478785	2,08532691	0,63726358771048192	4	-0,102603056	0,0013289029
2	1	0	1	1	1781,2306	2,14979744	2,15018368	0,7170339084609792	4	-0,0982051492	0,00154175458
2	1	0	0	1	1787,7316	2,21480799	2,21534872	0,82689991545611366	4	-0,0932054669	0,00183187169
2	1	0	0	1	1794,2324	2,27981663	2,28035998	0,97477135117407347	4	-0,0873685107	0,0022228295
2	1	0	1	1	1800,7734	2,34522653	2,34559941	1,1709041296055994	4	-0,0803743154	0,00274647214
2	1	0	0	1	1807,2744	2,41023636	2,41072345	1,4142940003010925	4	-0,071999684	0,0034094716
2	1	0	1	1	1813,7754	2,47524595	2,47563744	1,7273265879463366	4	-0,0618341416	0,00427623419
2	1	0	0	1	1820,2764	2,54025555	2,54069495	2,1189203819742986	4	-0,0493678637	0,00538353017
2	1	0	1	1	1826,7774	2,60526514	2,60572028	2,5977732613903478	4	-0,0340995975	0,0067690704
2	1	0	1	1	1833,2782	2,6702745	2,67084408	3,1886586188166176	4	-0,0153335519	0,00851641037
2	1	0	0	1	1839,7792	2,73528433	2,73597693	3,8281491718910419	4	0,00748381624	0,0104737282
2	1	0	0	0	1846,2208	2,79899383	2,79938507	4,436757559577641	5	0,0236252695	0,0124201933
2	1	0	1	0	1852,7218	2,86400342	2,86433101	4,9910565758193005	5	0,0543405786	0,0142960381
2	1	0	0	0	1859,2228	2,92901373	2,92953944	5,3204055706274003	5	0,0879972056	0,015586338
2	1	0	0	0	1865,7236	2,99402285	2,99457836	5,4335018854450253	5	0,123104177	0,0162710473
2	1	0	1	0	1872,2246	3,0590322	3,05959511	5,2476954432549325	5	0,157925978	0,0160558242
2	1	0	0	0	1878,7256	3,1240418	3,12447858	5,0314932912588122	5	0,191364542	0,0157207921
2	1	0	1	0	1885,2266	3,18905163	3,18957996	4,8297754686187917	5	0,22338815	0,0154049555
2	1	0	0	0	1891,7276	3,2540617	3,25460172	4,6895855621055347	5	0,254314125	0,0152627332
2	1	0	1	0	1898,2286	3,31907082	3,31943107	4,5196689238592282	5	0,284263253	0,0150027294
2	1	0	1	0	1904,7294	3,38408017	3,38449216	4,3189075975506202	5	0,313009739	0,014617309
2	1	0	0	0	1911,2304	3,44909048	3,44958544	4,0300431113552186	5	0,340135723	0,0139019778
2	0	0	0	0	1917,4718	3,4884963	3,48896599	3,5904987404744058	5	0,364249676	0,0125271278
2	0	0	1	0	1923,9728	3,42348647	3,42414093	2,8025361832093267	5	0,384879798	0,00959627889
2	0	0	1	0	1930,4736	3,35847878	3,3588798	2,2330676699439635	5	0,401157439	0,00750060612
2	0	0	0	0	1936,9746	3,29346704	3,29395533	1,7798802375241536	5	0,414149046	0,00586284604
2	0	0	1	0	1943,4756	3,22845745	3,22888923	1,3645281868952317	5	0,42435798	0,00440591015
2	0	0	0	0	1949,9766	3,1634481	3,16393971	0,99061540666001946	5	0,431977242	0,00313424738
2	0	0	1	0	1956,4776	3,09843826	3,09890938	0,71347694961284966	5	0,437438458	0,0022110003
2	0	0	0	0	1962,9786	3,03342843	3,0337944	0,54596810891396474	5	0,441485077	0,00165635499
2	0	0	1	0	1969,5196	2,96801853	2,9683485	0,44595821998808026	5	0,444699079	0,00132375944
2	0	0	1	0	1976,0204	2,90300918	2,90342665	0,3804033827381552	5	0,44737196	0,00110447337
2	0	0	0	0	1982,5213	2,83799958	2,83841419	0,32614419026369421	5	0,449661791	0,000925732311
2	0	0	1	0	1989,0223	2,77299047	2,77357554	0,2819990889272761	5	0,451628417	0,000782145769
2	0	0	0	0	1995,5233	2,70798016	2,70846987	0,24901314517828022	5	0,453348696	0,0006744446
2	0	0	1	0	2002,0243	2,64297056	2,64336824	0,21212355154394035	5	0,4548527	0,000560720684
2	0	0	0	0	2008,5253	2,57796073	2,57841301	0,14887747165047114	5	0,456045657	0,00038386762
2	0	0	0	0	2015,0261	2,51295161	2,5132854	0,058981322502303539	5	0,456716955	0,000148236897
2	0	0	1	0	2021,6471	2,44674158	2,44723487	-0,074321991074140058	5	0,456725538	0,00018188337
2	0	0	0	0	2028,1881	2,38133192	2,38182592	-0,37872294226178483	5	0,455355912	0,000902052096
2	0	0	1	0	2034,6891	2,31632233	2,31659937	-0,84603540571751526	5	0,451430768	0,00195992505
2	0	0	0	0	2041,2301	2,25091243	2,25142217	-1,3605911683429138	5	0,444202542	0,003063265
2	0	0	1	0	2047,7311	2,18590283	2,18641877	-1,8537563838892515	5	0,433740884	0,00405308791
2	0	0	0	0	2054,2321	2,120893	2,12127757	-2,3322734671686048	5	0,420116752	0,00494739925
2	0	0	0	0	2060,7329	2,05588365	2,05628705	-2,8018628336765232	5	0,403430134	0,00576143432
2	0	0	1	0	2067,2339	1,99087381	1,99109221	-3,2323404859613446	5	0,383758545	0,00643588789
2	0	0	0	0	2073,7349	1,92586434	1,92634678	-3,5314246681001574	5	0,361682504	0,00680274842
2	0	0	1	0	2080,2359	1,86085474	1,86138785	-3,6890881894914995	5	0,338169992	0,00686682388
2	0	0	0	0	2086,7369	1,79584491	1,79615736	-3,7336869217731456	5	0,313838989	0,00670628902
2	0	0	0	0	2093,2378	1,73083591	1,73120308	-3,2013821410454406	5	0,29131487	0,00554224243
2	0	0	1	0	2099,7387	1,66582561	1,66632855	-3,1065107426709562	5	0,271089613	0,00517646736
2	0	0	0	0	2106,2397	1,60081601	1,60144532	-3,2740171353022374	5	0,250394166	0,00524315936
2	0	0	1	0	2112,7407	1,53580654	1,53623676	-3,494285957680816	5	0,228395373	0,00536805065
2	0	0	0	0	2119,2417	1,47079682	1,47115767	-3,702220046409863	5	0,204985201	0,0054465495
2	0	0	1	0	2125,7427	1,40578711	1,40616751	-3,8316743004101357	5	0,180435568	0,00538797583
2	0	0	0	0	2132,2437	1,34077764	1,34114611	-3,888323600888256	5	0,155270413	0,00521480991
2	0	0	0	0	2138,7445	1,27576792	1,2763164	-3,841641296943024	5	0,130109012	0,00490314979
2	0	0	1	0	2145,2455	1,21075821	1,21123719	-3,7644470052586739	5	0,105343208	0,00455963844
2	0	0	0	0	2151,7465	1,14574862	1,14595294	-3,7108296288384538	5	0,0810621604	0,00425243611
2	0	0	1	0	2158,2475	1,08073902	1,08112764	-3,6834176044773062	5	0,0570093468	0,00398224453
2	0	0	0	0	2164,7485	1,01572931	1,01615095	-3,6655521790186573	5	0,0331023373	0,00372475432
2	0	0	0	0	2171,2494	0,950720549	0,951130569	-3,5890002766236115	5	0,00948763639	0,00341360783
2	0	0	1	0	2177,7503	0,885710239	0,886197388	-3,4815262710606592	5	-0,0134979235	0,00308531942
2	0	0	0	0	2184,2513	0,820700407	0,821229577	-3,3110104677853798	5	-0,0356452316	0,00271909963
2	1	0	1	1	2190,5727	0,842603743	0,842958391	-2,4304730163680192	5	-0,0543162525	0,00204878766
2	1	0	0	1	2197,0737	0,907613337	0,908122241	-1,6876578913242746	5	-0,0674405098	0,00153259968
2	1	0	1	1	2203,5747	0,972622991	0,973076642	-1,297859439695321	5	-0,0770166889	0,00126291672
2	1	0	0	1	2210,0757	1,03763258	1,03814709	-1,084101430657837	5	-0,0847106501	0,00112545677
2	1	0	1	1	2216,5767	1,1026423	1,10301685	-0,91936438558278195	5	-0,0911959484	0,00101407443
2	1	0	0	1	2223,0777	1,16765189	1,16796231	-0,7944646139663689	5	-0,0967364237	0,000927904737
2	1	0	0	1	2229,5785	1,2326616	1,23328233	-0,6906445809398569	5	-0,101558626	0,000851759745
2	1	0	1	1	2236,0795	1,2976712	1,29803181	-0,60060220736044262	5	-0,105750427	0,000779600756
2	1	0	0	1	2242,5805	1,36268091	1,36311984	-0,50983961368048544	5	-0,109354533	0,000694972521
2	1	0	1	1	2249,1215	1,42809033	1,42851555	-0,42057008599793555	5	-0,112393022	0,000600790896
2	1	0	0	1	2255,6225	1,49310017	1,4935056	-0,33628461268489088	5	-0,114851154	0,00050224294
2	1	0	1	1	2262,1235	1,55810976	1,55845118	-0,25342690565243942	5	-0,116764054	0,000394953473
2	1	0	1	1	2268,6243	1,62311924	1,62359273	-0,1693065630237537	5	-0,118140467	0,000274884893
2	1	0	0	1	2275,1253	1,68812907	1,68858731	-0,072058410866668646	5	-0,118932158	0,000121676916
2	1	0	1	1	2281,7463	1,75433886	1,75499439	0,046656585031154438	5	-0,119025581	8,18820481E-005
2	1	0	0	1	2288,2873	1,81974852	1,82010937	0,18290869845077341	5	-0,118279569	0,000332913827
2	1	0	1	1	2294,7883	1,88475811	1,88522851	0,32951456594660301	5	-0,116619892	0,00062121026
2	1	0	0	1	2301,2893	1,94976783	1,95043254	0,4779765539009264	5	-0,113981865	0,000932260999
2	1	0	0	1	2307,7902	2,01477671	2,01515436	0,5959225805714592	5	-0,110470347	0,00120087597
2	1	0	1	1	2314,2911	2,07978725	2,08030128	0,68335867190250714	5	-0,106296912	0,00142159197
2	1	0	0	1	2320,7921	2,14479685	2,14501977	0,75291690161383155	5	-0,101627514	0,00161502161
2	1	0	1	1	2327,2931	2,20980644	2,21036649	0,83972789761092774	5	-0,0964645594	0,00185610645
2	1	0	0	1	2333,7941	2,2748158	2,27534771	0,96419563144445773	5	-0,0906197801	0,00219388027
2	1	0	1	1	2340,3251	2,3401258	2,34064054	1,1304773493773475	5	-0,0838047713	0,0026460411
2	1	0	0	1	2346,8261	2,40513539	2,40551949	1,3519814050308032	5	-0,0757683888	0,00325221755
2	1	0	0	1	2353,3269	2,47014499	2,47059441	1,6421271686752582	5	-0,066077143	0,00405703019
2	1	0	1	1	2359,8279	2,53515482	2,53556657	2,0246920530442787	5	-0,0542088039	0,00513374154
2	1	0	0	1	2366,3289	2,60016465	2,60061026	2,5004215750981373	5	-0,0395315178	0,00650262181
2	1	0	1	1	2372,8299	2,66517377	2,6656003	3,0336421526692448	5	-0,0215716679	0,00808647741
2	1	0	0	1	2379,3309	2,7301836	2,73069286	3,6511982591063654	5	0,000102677077	0,00997030083
2	1	0	0	0	2385,8145	2,79459333	2,79493475	4,2973809352627405	6	0,0208862033	0,0120108994
2	1	0	0	0	2392,3153	2,85960245	2,86013818	4,8830246366145434	6	0,0507721491	0,0139661254
2	1	0	1	0	2398,8163	2,92461252	2,92514205	5,3707485910918893	6	0,084177196	0,015710203
2	1	0	0	0	2405,3173	2,98962235	2,99015021	5,7118970773837818	6	0,120325804	0,0170794297
2	1	0	1	0	2411,8183	3,05463219	3,05508256	5,7068265030781331	6	0,157619119	0,0174348261
2	1	0	0	0	2418,3193	3,1196413	3,1201036	5,4590576533917811	6	0,19397442	0,0170328263
2	1	0	1	0	2424,8203	3,18465114	3,18512034	5,1457356335940218	6	0,228499442	0,0163897872
2	1	0	1	0	2431,3211	3,24966025	3,25013709	4,8066968364598387	6	0,260793775	0,015622424
2	1	0	0	0	2437,8221	3,31467032	3,31514525	4,5224022379628013	6	0,291105628	0,0149924206
2	1	0	1	0	2444,3231	3,37967968	3,38007736	4,272116577735673	6	0,319688171	0,0144400848
2	1	0	0	0	2450,8241	3,44468951	3,44512987	3,9834775516280275	6	0,346560121	0,0137235979
2	1	0	1	0	2457,3251	3,50969911	3,51011133	3,6317320024525677	6	0,371320128	0,0127477832
2	1	0	0	0	2463,8261	3,5747087	3,57534623	3,2445615436192058	6	0,393714428	0,0116004311
2	1	0	0	0	2470,3269	3,63971758	3,64021158	2,8601226326592874	6	0,413558125	0,0104114516
2	1	0	1	0	2476,8279	3,70472765	3,70521951	2,2271734845858832	6	0,430361867	0,00825216621
2	1	0	0	0	2483,3289	3,76973748	3,77008462	1,4259392452184834	6	0,441644132	0,00537591148
2	0	0	1	0	2489,7103	3,76643705	3,7667706	1,062082645379835	6	0,449890345	0,00400062185
2	0	0	0	0	2496,2113	3,7014277	3,70189595	0,71484229686083366	6	0,455573767	0,00264627184
2	0	0	1	0	2502,7523	3,6360178	3,6364603	0,48183489970310765	6	0,459440827	0,00175217353
2	0	0	0	0	2509,2533	3,57100844	3,57163048	0,31516170418924826	6	0,462005675	0,00112564117
2	0	0	0	0	2515,7542	3,5059979	3,50641727	0,20558816794670374	6	0,46365577	0,000720877899
2	0	0	1	0	2522,2551	3,44098878	3,44142747	0,20656234619242221	6	0,464937121	0,000710869324
2	0	0	0	0	2528,7561	3,37597942	3,37649131	0,20255892016683488	6	0,466303229	0,000683938444
2	0	0	1	0	2535,2571	3,31096983	3,31147814	0,17824552037442797	6	0,467521876	0,000590256124
2	0	0	0	0	2541,7581	3,24596	3,24665737	0,20567905057773485	6	0,468746215	0,000667769404
2	0	0	1	0	2548,2591	3,18095016	3,1813066	0,23062621895223946	6	0,470190883	0,000733692723
2	0	0	1	0	2554,7600	3,11594081	3,11632061	0,22025317691798029	6	0,471661836	0,000686379499
2	0	0	0	0	2561,2609	3,05093122	3,05148673	0,20549555974839962	6	0,473043412	0,000627066998
2	0	0	1	0	2567,7619	2,98592186	2,98647857	0,19265150213269155	6	0,474334449	0,000575349608
2	0	0	0	0	2574,2629	2,92091179	2,92138171	0,18054396655686534	6	0,475545883	0,000527437835
2	0	0	1	0	2580,7639	2,85590219	2,85636497	0,1668226089225049	6	0,476674885	0,000476506248
2	0	0	0	0	2587,2649	2,79089236	2,7914505	0,14724333772297805	6	0,477696449	0,000411022484
2	0	0	0	0	2593,7657	2,72588372	2,72623348	0,12457574819840061	6	0,478577942	0,00033962258
2	0	0	1	0	2600,2667	2,66087317	2,66129637	0,10263419294453869	6	0,479314119	0,000273140002
2	0	0	0	0	2606,7677	2,59586358	2,59632397	0,076771252288448499	6	0,479900539	0,00019932304
2	0	0	1	0	2613,3087	2,53045392	2,53071928	0,02700842077912824	6	0,480256617	6,83507315E-005
2	0	0	0	0	2619,8897	2,46464419	2,46502066	-0,058264366558028634	6	0,480178326	0,000143622863
2	0	0	1	0	2626,4307	2,39923453	2,39966965	-0,28611028370344006	6	0,479176134	0,000686570187
2	0	0	0	0	2632,9317	2,33422494	2,334764	-0,72575556203999002	6	0,475973368	0,00169446797
2	0	0	0	0	2639,4626	2,26891422	2,2694521	-1,2538161535773611	6	0,46950826	0,00284547568
2	0	0	1	0	2645,9635	2,20390582	2,20426226	-1,746863891956977	6	0,459722996	0,0038505462
2	0	0	0	0	2652,4645	2,13889575	2,13925457	-2,2019698628121005	6	0,446874112	0,00471057417
2	0	0	1	0	2658,9655	2,07388639	2,07436705	-2,6450631248730298	6	0,431106955	0,005486832
2	0	0	0	0	2665,4665	2,0088768	2,00929666	-3,0491461160558266	6	0,412555903	0,00612663897
2	0	0	1	0	2671,9675	1,94386697	1,94444466	-3,3256446200388294	6	0,391715378	0,00646653213
2	0	0	1	0	2678,4684	1,87885678	1,87952876	-3,4009210073106432	6	0,369731039	0,00639212877
2	0	0	0	0	2684,9693	1,81384766	1,81422818	-3,1293155214301011	6	0,348258883	0,00567729259
2	0	0	1	0	2691,4703	1,74883819	1,74922895	-2,8081808241980947	6	0,32915628	0,00491215102
2	0	0	0	0	2697,9713	1,68382823	1,68428338	-2,8431019603654112	6	0,310897052	0,0047885892
2	0	0	1	0	2704,4723	1,61881876	1,61935127	-3,0052130001562675	6	0,291941136	0,00486649526
2	0	0	0	0	2710,9733	1,55380917	1,55435669	-3,2581756308122944	6	0,271587968	0,00506436732
2	0	0	0	0	2717,4741	1,48879933	1,48913944	-3,5109547873338086	6	0,24955976	0,00522830104
2	0	0	1	0	2723,9751	1,42378986	1,42431855	-3,7197589714217971	6	0,226035073	0,00529812183
2	0	0	0	0	2730,4761	1,35878026	1,35915029	-3,8909650737488947	6	0,201199889	0,00528840628
2	0	0	1	0	2736,9771	1,29377067	1,29429817	-3,9223183680463622	6	0,175719842	0,0050766496
2	0	0	0	0	2743,4781	1,22876096	1,22917902	-3,8499438917195315	6	0,150472686	0,00473227026
2	0	0	1	0	2749,9791	1,16375124	1,1641531	-3,8332844884307347	6	0,12552388	0,00446252991
2	0	0	1	0	2756,4800	1,09874058	1,09918857	-3,8554383841128301	6	0,100552745	0,00423785392
2	0	0	0	0	2762,9809	1,03373218	1,03414166	-3,9003409583259552	6	0,0753369033	0,00403350499
2	0	0	1	0	2769,4819	0,968722343	0,969106972	-3,8971778259232934	6	0,0499336086	0,00377678219
2	0	0	0	0	2775,9829	0,903712749	0,904192567	-3,8156441841964435	6	0,0248336028	0,00345007703
2	0	0	1	0	2782,4839	0,838703096	0,839086652	-3,7139279660251174	6	0,000344079745	0,00311630731
2	1	0	0	1	2788,8053	0,824600935	0,824954212	-3,1853397957704742	6	-0,0221947879	0,00262775947
2	1	0	1	1	2795,3063	0,889610648	0,890078068	-2,2997934677534646	6	-0,0398091711	0,0020469958
2	1	0	0	1	2801,8073	0,954620302	0,955188453	-1,8135401932177632	6	-0,0530745611	0,00173227268
2	1	0	1	1	2808,3083	1,01962996	1,02014291	-1,497104460166561	6	-0,0637489334	0,00152726052
2	1	0	1	1	2814,8092	1,08463967	1,08502626	-1,288006876326456	6	-0,0727783293	0,00139752124
2	1	0	0	1	2821,3101	1,14964926	1,15002072	-1,11680170659114	6	-0,0805781484	0,00128434505
2	1	0	1	1	2827,8111	1,21465886	1,21505988	-0,98220984485965875	6	-0,0873911008	0,00119344378
2	1	0	0	1	2834,3121	1,27966857	1,28017926	-0,8539940615495017	6	-0,0933322534	0,00109326548
2	1	0	1	1	2840,8131	1,34467816	1,34509814	-0,73735945506228442	6	-0,0984951034	0,000991820823
2	1	0	0	1	2847,3141	1,40968776	1,41007483	-0,62498580071109184	6	-0,102919787	0,000881276734
2	1	0	0	1	2853,8150	1,47469711	1,47499776	-0,50934738917476	6	-0,106607713	0,000751286279
2	1	0	1	1	2860,3559	1,54010701	1,54062092	-0,38901321800356659	6	-0,109544672	0,000599321909
2	1	0	0	1	2866,8569	1,60511684	1,60571361	-0,26359458988601414	6	-0,11166615	0,000423257414
2	1	0	1	1	2873,3579	1,67012632	1,67059672	-0,13037334784382448	6	-0,112947941	0,00021780128
2	1	0	0	1	2879,9789	1,73633635	1,73674083	0,012745910768259149	6	-0,113343321	2,21363443E-005
2	1	0	1	1	2886,5199	1,80174577	1,80223453	0,17597565686123274	6	-0,112734005	0,000317149417
2	1	0	0	1	2893,0209	1,8667556	1,86718452	0,35903549125349075	6	-0,111008048	0,000670385489
2	1	0	0	1	2899,5217	1,9317652	1,93240178	0,54794628966461722	6	-0,108041152	0,00105885242
2	1	0	1	1	2906,0227	1,99677479	1,99727154	0,71618107823585933	6	-0,103917398	0,0014304081
2	1	0	0	1	2912,5237	2,06178451	2,06223941	0,84596547470600742	6	-0,098811999	0,00174458337
2	1	0	1	1	2919,0247	2,1267941	2,12710023	0,9514258099650839	6	-0,0929572284	0,00202377816
2	1	0	0	1	2925,5557	2,19210362	2,19252706	1,0390999244043133	6	-0,0864569172	0,0022782546
2	1	0	1	1	2932,0567	2,25711322	2,25778008	1,1420108242719298	6	-0,0793853179	0,00257840939
2	1	0	0	1	2938,5577	2,32212377	2,3225131	1,2878832967826152	6	-0,0715075582	0,00299112592
2	1	0	0	1	2945,0585	2,38713288	2,3875289	1,4840180097078851	6	-0,0625257045	0,00354313594
2	1	0	1	1	2951,5595	2,45214248	2,45241618	1,7582248189935062	6	-0,0520308726	0,00431189919
2	1	0	0	1	2958,0605	2,51715183	2,51768708	2,1229427147794624	6	-0,0394589417	0,00534490542
2	1	0	1	1	2964,5615	2,5821619	2,58265948	2,5832429707602173	6	-0,024215484	0,00667163683
2	1	0	0	1	2971,0625	2,6471715	2,64752054	3,1161527377035866	6	-0,00570899388	0,00825007819
2	1	0	1	1	2977,5635	2,71218181	2,71272445	3,6907202138536589	6	0,0163915791	0,0100119067
2	1	0	0	0	2984,0111	2,77669072	2,77707767	4,362673184937897	7	0,0136440331	0,0121154822
2	1	0	1	0	2990,5121	2,84170055	2,84211659	5,1448973014398829	7	0,0445981361	0,0146223977
2	1	0	0	0	2997,0131	2,90670967	2,90727162	5,7456715852022029	7	0,0801154077	0,0167042278
2	1	0	1	0	3003,5141	2,9717195	2,97207904	6,0960661504003328	7	0,1188104	0,0181179903
2	1	0	1	0	3010,0150	3,03672934	3,03723836	6,1384163976155648	7	0,1587843	0,0186438337
2	1	0	0	0	3016,5159	3,10173869	3,10233116	5,8443581881346342	7	0,197880059	0,018131135
2	1	0	1	0	3023,0169	3,16674805	3,16731668	5,30016999001856	7	0,234200016	0,0167873167
2	1	0	0	0	3029,5179	3,23175788	3,23242712	4,7866596618184544	7	0,266818255	0,0154725285
2	1	0	1	0	3036,0189	3,29676771	3,29707408	4,4956408402434394	7	0,296919286	0,0148224607
2	1	0	0	0	3042,5199	3,36177707	3,36220241	4,2554937579013555	7	0,325392991	0,0143078314
2	1	0	1	0	3049,0209	3,42678785	3,42721581	3,9480114556898266	7	0,352139026	0,0135306874
2	1	0	1	0	3055,5217	3,49179649	3,49245906	3,557191507131975	7	0,376593828	0,0124233458
2	1	0	0	0	3062,0227	3,55680585	3,55740881	3,1086741277465178	7	0,39831844	0,0110588251
2	1	0	1	0	3068,5237	3,62181592	3,62215853	2,5678619952113523	7	0,416912526	0,0093012033
2	1	0	0	0	3075,0247	3,68682551	3,68735838	1,5183755760943462	7	0,430106968	0,00559879513
2	1	0	1	0	3081,5257	3,75183487	3,75237036	1,3449319806639827	7	0,439192593	0,0050466829
2	0	0	1	0	3087,8969	3,78444004	3,78487682	1,2012712763691358	7	0,447669476	0,00454666372
2	0	0	0	0	3094,3979	3,71943021	3,7198596	0,78325252572971405	7	0,453998834	0,00291358936
2	0	0	1	0	3100,8989	3,65442085	3,65504336	0,50029021943056896	7	0,458122045	0,00182858249
2	0	0	1	0	3107,4398	3,58901024	3,58957124	0,28476924354199219	7	0,460653573	0,00102219952
2	0	0	0	0	3113,9407	3,52400112	3,52455974	0,12741353650818787	7	0,461955011	0,000449076615
2	0	0	1	0	3120,4417	3,45899177	3,45939136	0,084688922381718208	7	0,462544918	0,000292972138
2	0	0	0	0	3126,9427	3,39398217	3,39454389	0,10491375268126491	7	0,463206261	0,000356134347
2	0	0	1	0	3133,4437	3,3289721	3,32940698	0,051756186695355533	7	0,463702738	0,000172317406
2	0	0	0	0	3139,9847	3,26356268	3,26411366	0,053599959299727386	7	0,464012057	0,000174956353
2	0	0	0	0	3146,5256	3,1981535	3,19874525	0,10488497335549597	7	0,464514047	0,000335500314
2	0	0	1	0	3153,0265	3,13314366	3,13343334	0,15465423490645226	7	0,465379357	0,000484598742
2	0	0	0	0	3159,5275	3,06813359	3,06869817	0,16146194912424262	7	0,466417819	0,000495477987
2	0	0	1	0	3166,0285	3,003124	3,00343132	0,15674842694015402	7	0,467452019	0,000470783125
2	0	0	0	0	3172,5295	2,93811464	2,93863249	0,14900437388914157	7	0,468444705	0,000437869108
2	0	0	1	0	3179,0305	2,87310481	2,87345982	0,13806866173184062	7	0,46937713	0,000396734744
2	0	0	1	0	3185,5314	2,80809522	2,80836296	0,12370183791107747	7	0,470228106	0,000347399648
2	0	0	0	0	3192,0323	2,74308562	2,74366689	0,10583214922290685	7	0,470972717	0,00029036816
2	0	0	1	0	3198,5333	2,67807603	2,67852497	0,086742436927226381	7	0,47159645	0,000232341787
2	0	0	0	0	3205,0343	2,6130662	2,61355281	0,065003135051854285	7	0,472090423	0,000169889128
2	0	0	1	0	3211,5753	2,54765677	2,54808617	0,025703751499316141	7	0,472403318	6,54953765E-005
2	0	0	0	0	3218,1563	2,48184681	2,48220491	-0,044675236774815328	7	0,47235319	0,000110893096
2	0	0	1	0	3224,6973	2,41643715	2,41688061	-0,21626609198197011	7	0,471609056	0,000522689312
2	0	0	1	0	3231,1981	2,35142779	2,35184193	-0,619081797651984	7	0,469002724	0,00145598256
2	0	0	0	0	3237,7391	2,28601766	2,28632545	-1,1545230027426162	7	0,463223934	0,00263961544
2	0	0	1	0	3244,2401	2,2210083	2,22152257	-1,6792920637461907	7	0,453983217	0,00373058533
2	0	0	0	0	3250,7411	2,15599847	2,15640759	-2,156584105833815	7	0,441483945	0,00465047453
2	0	0	1	0	3257,2421	2,09098864	2,09157777	-2,5942448866036259	7	0,426012903	0,00542606506
2	0	0	0	0	3263,7431	2,02597928	2,02653432	-2,9965213639316774	7	0,407807052	0,00607255334
2	0	0	1	0	3270,2441	1,96096969	1,96137476	-3,2905434334940506	7	0,387263149	0,00645398861
2	0	0	1	0	3276,7449	1,89595985	1,8963536	-3,3584348123382598	7	0,365489751	0,00636878004
2	0	0	0	0	3283,2459	1,83095026	1,83140337	-3,1189912977042272	7	0,344415963	0,00571213104
2	0	0	1	0	3289,7469	1,76594067	1,76639557	-2,7332110454638707	7	0,325316966	0,00482793199
2	0	0	0	0	3296,2479	1,70093095	1,70137417	-2,5863311632915859	7	0,308189303	0,00440031709
2	0	0	1	0	3302,7489	1,63592124	1,63641071	-2,6972580243040058	7	0,291147858	0,00441382173
2	0	0	1	0	3309,2498	1,57091153	1,57146943	-2,9442587136411725	7	0,272863388	0,00462681241
2	0	0	0	0	3315,7507	1,50590205	1,50646174	-3,2761526466519725	7	0,252659559	0,0049353987
2	0	0	1	0	3322,2517	1,44089234	1,44135571	-3,6210587565545606	7	0,230219617	0,00521923369
2	0	0	0	0	3328,7527	1,37588286	1,37628114	-3,8246778707813434	7	0,205962807	0,00526383193
2	0	0	1	0	3335,2537	1,31087303	1,31133103	-3,9792939683905357	7	0,180501059	0,00521817151
2	0	0	0	0	3341,7547	1,24586356	1,24634981	-3,9855325740796627	7	0,154564008	0,00496736774
2	0	0	0	0	3348,2556	1,18085444	1,18121362	-4,0211229512397286	7	0,128537834	0,0047498052
2	0	0	1	0	3354,7565	1,11584425	1,11628914	-4,052640992734176	7	0,10238599	0,00452391896
2	0	0	0	0	3361,2575	1,05083454	1,05123234	-4,1080125597891878	7	0,0758128986	0,00431847572
2	0	0	1	0	3367,7585	0,985825002	0,986188769	-4,1634678134211853	7	0,0489180535	0,00410596514
2	0	0	0	0	3374,2595	0,920815289	0,921149671	-4,1617194320316672	7	0,0218119808	0,00383356656
2	0	0	1	0	3380,7605	0,855805635	0,85617727	-4,0911631120575757	7	-0,0050379131	0,00350276078
2	1	0	0	1	3387,0919	0,807598472	0,807970464	-3,8219104232611475	7	-0,0305189416	0,00308799068
2	1	0	1	1	3393,5929	0,872608185	0,87308079	-2,8424598439424214	7	-0,0519637205	0,00248169713
2	1	0	1	1	3400,0937	0,937617838	0,938106537	-2,2210543456452854	7	-0,0682759359	0,0020835856
2	1	0	0	1	3406,5947	1,00262737	1,00290954	-1,8116746762836371	7	-0,0813150257	0,00181694585
2	1	0	1	1	3413,0957	1,06763721	1,06806004	-1,5481982787174253	7	-0,0921945274	0,0016535687
2	1	0	0	1	3419,5967	1,13264656	1,13299227	-1,3376532810981586	7	-0,101548821	0,00151555077
2	1	0	1	1	3426,0977	1,19765627	1,19805384	-1,1684132508105662	7	-0,109688535	0,00139982195
2	1	0	0	1	3432,5987	1,26266599	1,26331568	-1,0216169159997398	7	-0,116790734	0,00129062461
2	1	0	0	1	3439,0995	1,32767558	1,32807875	-0,89180985175900672	7	-0,123005144	0,00118439377
2	1	0	1	1	3445,6005	1,39268517	1,39328253	-0,76472597727896922	7	-0,128386751	0,00106547936
2	1	0	0	1	3452,1015	1,45769489	1,45815253	-0,633592862842816	7	-0,132930666	0,000923875021
2	1	0	1	1	3458,6425	1,52310443	1,52352583	-0,49587466505666547	7	-0,136623904	0,000755477871
2	1	0	0	1	3465,1435	1,58811426	1,58861399	-0,35106469890861459	7	-0,13937813	0,000557706284
2	1	0	1	1	3471,6445	1,65312386	1,65350163	-0,19798013016029482	7	-0,14116317	0,000327360467
2	1	0	1	1	3478,1853	1,71853352	1,71903968	-0,041523288663787098	7	-0,141945466	7,13801783E-005
2	1	0	0	1	3484,8063	1,78474343	1,78515697	0,13604679538143994	7	-0,141644835	0,000242864888
2	1	0	1	1	3491,3073	1,8497529	1,8501693	0,33856189947713267	7	-0,140116513	0,000626396853
2	1	0	0	1	3497,8083	1,91476285	1,9152844	0,56092895898554042	7	-0,137190148	0,00107433845
2	1	0	1	1	3504,3093	1,97977233	1,98031449	0,77057228175302054	7	-0,132847428	0,00152597541
2	1	0	0	1	3510,8103	2,04478192	2,04520679	0,94802696119856128	7	-0,127238035	0,00193891115
2	1	0	1	1	3517,3413	2,11009169	2,11064243	1,080044865194295	7	-0,120587595	0,00227958849
2	1	0	1	1	3523,8421	2,17510152	2,17558789	1,1807542637818358	7	-0,113230877	0,00256883469
2	1	0	0	1	3530,3431	2,24011087	2,24059153	1,2791832943481456	7	-0,105230525	0,0028661273
2	1	0	1	1	3536,8441	2,30512047	2,30545688	1,3846452553515078	7	-0,0965896994	0,00319223991
2	1	0	0	1	3543,3451	2,3701303	2,37047815	1,5387661669541277	7	-0,0871141255	0,00364761148
2	1	0	1	1	3549,8461	2,43513989	2,43574452	1,7667630527306528	7	-0,0764139146	0,00430338364
2	1	0	0	1	3556,3471	2,50014949	2,50067663	2,0901292051982026	7	-0,0639359131	0,00522673735
2	1	0	0	1	3562,8480	2,5651598	2,56557465	2,5348233817404307	7	-0,048958838	0,00650327839
2	1	0	1	1	3569,3489	2,63016891	2,63050079	3,0848461339871206	7	-0,0307311062	0,00811468996
2	1	0	0	1	3575,8499	2,69517851	2,6956203	3,6856617872361702	7	-0,00873028114	0,00993514434
2	1	0	1	1	3580,6543	2,74323654	2,74367213	4,1392330842859603	7	0,0100695025	0,0113566983