File: Experimentelles/Ausgewaehlte_Daten/LiS/CV/LiS_NMR_08_CV_C01.mpt
EC-Lab ASCII FILE
Nb header lines : 68

Cyclic Voltammetry

Run on channel : 1 (SN 6985)
Grouped channel(s) : 1
User :
CE vs. WE compliance from -10 V to 10 V
Electrode connection : standard
Ewe ctrl range : min = 0,00 V, max = 5,00 V
Acquisition started on : 09.17.2015 16:13:32
Saved on :
	File : LiS_NMR_08_CV_C01.mpr
	Directory : C:\Gielisch\NeueZelle\LiS-Test\150917\
	Host : 192.168.0.2
Device : VMP3 (SN 0324)
Address : 192.168.0.1
EC-Lab for windows v10.33 (software)
Internet server v10.33 (firmware)
Command interpretor v10.32 (firmware)
Electrode material :
Initial state :
Electrolyte :
Comments :
Mass of active material : 0,001 mg
 at x = 0,000
Molecular weight of active material (at x = 0) : 0,001 g/mol
Atomic weight of intercalated ion : 0,001 g/mol
Acquisition started at : xo = 0,000
Number of e- transfered per intercalated ion : 1
for DX = 1, DQ = 26,801 mA.h
Battery capacity : 0,000 A.h
Electrode surface area : 0,001 cm²
Characteristic mass : 0,001 g
Ei (V)              0,000
vs.                 Eoc
dE/dt               10,000
dE/dt unit          mV/s
E1 (V)              3,000
vs.                 Ref
Step percent        50
N                   10
E range min (V)     0,000
E range max (V)     5,000
I Range             Auto
Bandwidth           5
E2 (V)              1,200
vs.                 Ref
nc cycles           0
Reverse Scan        1
Ef (V)              0,000
vs.                 Eoc

Modify on : 09.18.2015 10:29
E1 (V)              3,500
E2 (V)              1,500

Number of loops : 7
Loop 0 from point number 0 to 4000
Loop 1 from point number 4001 to 8000
Loop 2 from point number 8001 to 12000
Loop 3 from point number 12001 to 15999
Loop 4 from point number 16000 to 19999
Loop 5 from point number 20000 to 23999
Loop 6 from point number 24000 to 27999

mode	ox/red	error	control changes	counter inc.	time/s	control/V	Ewe/V	<I>/mA	cycle number	(Q-Qo)/C	P/W
2	1	0	0	0	108500,4911	1,7038064	1,70446479	-0,00067978585138916966	1	0	1,15867101E-006
2	1	0	0	0	108505,7869	1,75676441	1,75741613	0,020335670097092778	1	4,84192606E-005	3,57382341E-005
2	1	0	0	0	108511,0877	1,80977285	1,81039453	0,039720595214964435	1	0,000208515688	7,1909948E-005
2	1	0	0	0	108516,3885	1,86278105	1,86364937	0,060802443004730368	1	0,000473163847	0,000113314432
2	1	0	1	0	108521,6895	1,91578996	1,91657436	0,08856206126856137	1	0,00086621003	0,00016973578
2	1	0	1	0	108527,0303	1,96919858	1,96997607	0,12483573201354005	1	0,00143235247	0,000245923409
2	1	0	1	0	108532,3310	2,02220702	2,02301717	0,17058851875157766	1	0,00221036328	0,000345103501
2	1	0	0	0	108537,6320	2,07521582	2,07614684	0,2293001837780071	1	0,00326296571	0,000476060843
2	1	0	0	0	108542,9328	2,12822413	2,12876463	0,31538293024318074	1	0,00469052093	0,000671376009
2	1	0	0	0	108548,2336	2,18123245	2,18195248	0,41861140521036314	1	0,00663884077	0,000913390191
2	1	0	0	0	108553,5344	2,23424149	2,23506927	0,52626274746877222	1	0,00914368778	0,00117623375
2	1	0	1	0	108558,8354	2,28724957	2,28779364	0,63565022491470694	1	0,0122251026	0,00145423657
2	1	0	1	0	108564,1362	2,34025836	2,34107995	0,7555448704709527	1	0,0159142464	0,001768791
2	1	0	1	0	108569,4370	2,39326692	2,39412522	0,88548578915219878	1	0,0202610772	0,00211996376
2	1	0	0	0	108574,7780	2,44667578	2,44745159	1,0310728575117266	1	0,0253695268	0,00252350094
2	1	0	0	0	108580,0788	2,49968457	2,50040293	1,201365922198244	1	0,0312722325	0,00300389878
2	1	0	0	0	108585,3796	2,55269289	2,55335903	1,3965490107183154	1	0,0381412581	0,00356589095
2	1	0	0	0	108590,6804	2,60570121	2,60622621	1,6269987159304976	1	0,046135053	0,00424032658
2	1	0	1	0	108595,9814	2,65871	2,65946341	1,9047553335075024	1	0,0554807484	0,00506562693
2	1	0	1	0	108601,2822	2,71171856	2,71244645	2,1972717844225578	1	0,0663632825	0,00595998205
2	1	0	1	0	108606,5830	2,76472712	2,76522875	2,4732113441935546	1	0,0787443891	0,00683899503
2	1	0	1	0	108611,8839	2,81773448	2,818398	2,7473050770351789	1	0,0925804973	0,00774299912
2	1	0	0	0	108617,1848	2,87074399	2,87152457	3,0018390458490816	1	0,107826389	0,00861985423
2	1	0	0	0	108622,4856	2,92375278	2,92433357	3,2265432813653094	1	0,124337241	0,00943548884
2	1	0	0	0	108627,7864	2,9767611	2,97734785	3,4201766484313933	1	0,141943559	0,0101830559
2	1	0	1	0	108633,0874	3,0297699	3,03029943	3,5732770280705568	1	0,160497278	0,0108280992
2	1	0	1	0	108638,3882	3,08277798	3,08340287	3,7099322395192474	1	0,179828465	0,0114392154
2	1	0	1	0	108643,6890	3,13578677	3,13657284	3,8083371895330982	1	0,199771106	0,0119451266
2	1	0	1	0	108648,9899	3,18879509	3,18941736	3,8661151154663533	1	0,22012414	0,012330655
2	1	0	0	0	108654,2908	3,24180388	3,24253893	3,8914119010722458	1	0,240705848	0,0126180546
2	1	0	0	0	108659,5916	3,2948122	3,29555726	3,8650886631674304	1	0,261286527	0,0127376206
2	1	0	0	0	108664,8924	3,34782076	3,34856749	3,8013873254811302	1	0,281633615	0,0127292024
2	1	0	1	0	108670,1934	3,40082979	3,4018085	3,6718341531576896	1	0,301466495	0,012490877
2	1	0	1	0	108675,4942	3,45383811	3,4546001	3,4919075883096979	1	0,320464432	0,0120631447
2	0	0	0	0	108680,6656	3,49444437	3,49523687	3,2684505979219834	1	0,338047683	0,0114240088
2	0	0	0	0	108685,9664	3,44143605	3,44200039	2,8049117735138509	1	0,354053974	0,00965450704
2	0	0	0	0	108691,2672	3,38842726	3,38920426	2,4734675249567674	1	0,367995828	0,00838308688
2	0	0	1	0	108696,5682	3,3354187	3,33602548	2,2212881699756259	1	0,380409777	0,00741027389
2	0	0	1	0	108701,8690	3,28241014	3,28293109	2,0223844625331786	1	0,391636848	0,00663934881
2	0	0	1	0	108707,1698	3,22940183	3,2300415	1,8557649078192355	1	0,40190196	0,00599419745
2	0	0	1	0	108712,4707	3,17639303	3,17720079	1,7136603451805642	1	0,411353797	0,00544464309
2	0	0	0	0	108717,7716	3,12338471	3,1240263	1,5869853813891162	1	0,420096874	0,00495778397
2	0	0	0	0	108723,0724	3,07037663	3,07110596	1,4728415691190477	1	0,428203166	0,0045232526
2	0	0	0	0	108728,3732	3,01736736	3,01804256	1,359722402360708	1	0,435702831	0,00410370016
2	0	0	1	0	108733,6742	2,96435905	2,96498418	1,2480131653999962	1	0,442604989	0,00370033924
2	0	0	1	0	108738,9750	2,91135025	2,91205454	1,1362408209178128	1	0,448928595	0,00330879516
2	0	0	1	0	108744,2758	2,85834193	2,85898256	1,0274536543422248	1	0,454678595	0,00293747219
2	0	0	1	0	108749,5766	2,80533385	2,80608559	0,92020335380640717	1	0,459851682	0,00258216937
2	0	0	0	0	108754,8776	2,75232482	2,75297213	0,8164361522153527	1	0,464453906	0,00224762596
2	0	0	0	0	108760,1784	2,6993165	2,69995785	0,7110213664946761	1	0,468494475	0,00191972777
2	0	0	0	0	108765,4792	2,64630771	2,64703751	0,60245960502436941	1	0,471976101	0,00159473321
2	0	0	1	0	108770,8202	2,59289908	2,59348416	0,49015652160677357	1	0,474898875	0,00127121317
2	0	0	1	0	108776,1210	2,53989053	2,54053211	0,3753288165769648	1	0,47719574	0,000953534909
2	0	0	1	0	108781,4218	2,48688197	2,48765182	0,25107928379266163	1	0,478860378	0,000624597829
2	0	0	1	0	108786,7227	2,43387365	2,43444657	0,10475690810550109	1	0,479812026	0,000255025108
2	0	0	0	0	108792,1436	2,37966466	2,38022017	-0,073454463017966874	1	0,479903519	0,000174837798
2	0	0	0	0	108797,4844	2,32625651	2,32699203	-0,24400518344784051	1	0,479045421	0,000567798095
2	0	0	0	0	108802,7853	2,27324724	2,27399969	-0,39490969536898304	1	0,47734338	0,000898024533
2	0	0	1	0	108808,0862	2,22023892	2,22101259	-0,53529357227185946	1	0,474879563	0,0011888938
2	0	0	1	0	108813,3870	2,16723061	2,16798949	-0,6385796178408256	1	0,471764356	0,00138443394
2	0	0	1	0	108818,6878	2,11422181	2,11486387	-0,70686741863135078	1	0,468201697	0,00149492838
2	0	0	0	0	108823,9888	2,06121349	2,06199694	-0,73662280739733338	1	0,464332879	0,00151891401
2	0	0	0	0	108829,2896	2,00820494	2,00892019	-0,77619480928061056	1	0,460334808	0,00155931339
2	0	0	0	0	108834,5904	1,95519614	1,95577252	-0,8100410032051593	1	0,456184983	0,00158425595
2	0	0	0	0	108839,8912	1,90218794	1,90305674	-0,84418169202075789	1	0,451815724	0,00160652562
2	0	0	1	0	108845,1922	1,84917915	1,84991789	-0,8956072053147785	1	0,44715783	0,00165679981
2	0	0	1	0	108850,4930	1,79617059	1,79661882	-0,96230641793873062	1	0,442169845	0,0017288978
2	0	0	1	0	108855,8338	1,74276221	1,74343085	-0,94876711415471245	1	0,437074035	0,0016541098
2	0	0	0	0	108861,1348	1,68975353	1,69043887	-0,96640464263381888	1	0,43194142	0,00163364795
2	0	0	0	0	108866,4356	1,63674486	1,63745153	-0,98095381494473126	1	0,426755279	0,00160626427
2	0	0	0	0	108871,7364	1,58373642	1,58451295	-0,9463068023324119	1	0,421639144	0,0014994354
2	0	0	0	0	108877,0372	1,53072786	1,53136086	-0,95667078856516774	1	0,416583776	0,00146500824
2	1	0	0	1	108882,1688	1,52052617	1,52128279	-0,90838829800487629	1	0,411735654	0,00138191553
2	1	0	0	1	108887,4696	1,57353473	1,57418573	-0,76099879984502566	1	0,407383591	0,00119795348
2	1	0	0	1	108892,7704	1,62654328	1,62710595	-0,60712408784914842	1	0,40377897	0,000987855252
2	1	0	1	1	108898,0714	1,67955172	1,6802628	-0,50690628560605069	1	0,400828898	0,000851735764
2	1	0	0	0	108903,3196	1,73146009	1,73218095	-0,4135539970464137	2	-0,00120613433	0,000716350332
2	1	0	0	0	108908,6204	1,78446889	1,78516853	-0,33804855768189587	2	-0,0031987913	0,000603473629
2	1	0	0	0	108913,9212	1,83747721	1,83818245	-0,25923377582458397	2	-0,00477210246	0,000476518966
2	1	0	0	0	108919,2221	1,89048493	1,89126253	-0,19184454783381354	2	-0,00597246038	0,000362828403
2	1	0	1	0	108924,5230	1,94349444	1,94415748	-0,12065876897907336	2	-0,00678615272	0,000234579653
2	1	0	1	0	108929,8238	1,996503	1,99711382	-0,058285826618817869	2	-0,00725327199	0,000116403433
2	1	0	1	0	108935,1647	2,04991174	2,05067229	-0,0049236607678397325	2	-0,00742129749	1,00968145E-005
2	1	0	0	0	108940,5456	2,10372019	2,10440302	0,053708856873628922	2	-0,00729209511	0,000113025082
2	1	0	0	0	108945,8764	2,15702891	2,15776443	0,12713905744668485	2	-0,00681097712	0,00027433614
2	1	0	0	0	108951,1772	2,21003771	2,21068525	0,22368730007912509	2	-0,00589314289	0,000494502194
2	1	0	1	0	108956,4781	2,26304603	2,26382852	0,38273988250228544	2	-0,00422858074	0,000866457471
2	1	0	1	0	108961,7789	2,31605458	2,3168385	0,53861834364081139	2	-0,00180361711	0,00124789169
2	1	0	1	0	108967,0797	2,3690629	2,36973643	0,73485749552922957	2	0,00155078492	0,00174141861
2	1	0	1	0	108972,3806	2,42207146	2,42262125	0,95099776486333504	2	0,00601121876	0,00230390741
2	1	0	0	0	108977,7215	2,47548008	2,47620583	1,1551859149778317	2	0,011693039	0,00286047813
2	1	0	0	0	108983,0223	2,52848887	2,52911329	1,3639035369786914	2	0,0183794871	0,00344946655
2	1	0	0	0	108988,3231	2,58149743	2,58223891	1,5801625897486851	2	0,0261905827	0,0040803575
2	1	0	1	0	108993,6241	2,63450599	2,63511491	1,8838812656424509	2	0,0352207758	0,00496424362
2	1	0	1	0	108998,9249	2,68751454	2,68812013	2,0215799325594048	2	0,0456032529	0,00543424953
2	1	0	1	0	109004,2257	2,7405231	2,7412591	2,104343359944984	2	0,056582462	0,00576855056
2	1	0	1	0	109009,5266	2,79353118	2,79428649	2,0624676517243613	2	0,0676645115	0,00576312561
2	1	0	0	0	109014,8275	2,84654021	2,84725618	1,9528724509808803	2	0,0782915205	0,00556032825
2	1	0	0	0	109020,1283	2,89954853	2,90032816	1,932459025471312	2	0,0885777995	0,00560476538
2	1	0	0	0	109025,4291	2,95255709	2,95314646	1,9305216211963677	2	0,0988172963	0,00570111303
2	1	0	1	0	109030,7301	3,00556564	3,00612926	1,9189302432868445	2	0,109023437	0,00576855242
2	1	0	1	0	109036,0309	3,0585742	3,05934405	1,9099264503629171	2	0,119163513	0,00584312202
2	1	0	1	0	109041,3317	3,11158299	3,11209512	1,891531553533344	2	0,129236102	0,00588662596
2	1	0	0	0	109046,6327	3,16459155	3,16530514	1,9260882894656035	2	0,139291063	0,00609665737
2	1	0	0	0	109051,9335	3,21759963	3,21839976	1,9585241349759011	2	0,15046981	0,00630331365
2	1	0	0	0	109057,2343	3,27060843	3,27124929	1,9672749456432221	2	0,160782799	0,00643544691
2	1	0	0	0	109062,5351	3,32361722	3,32424545	1,9146766080348493	2	0,171074048	0,00636485498
2	1	0	1	0	109067,8361	3,37662554	3,37734914	1,8839898476445853	2	0,181093603	0,00636289129
2	1	0	1	0	109073,1369	3,42963409	3,43018031	1,8399269751928582	2	0,191556334	0,00631128112
2	1	0	1	0	109078,4377	3,48264313	3,48339963	1,788818851389271	2	0,201397881	0,00623117108
2	0	0	0	0	109083,6291	3,46544027	3,46612144	1,5865825215975402	2	0,210411683	0,00549928751
2	0	0	0	0	109088,9299	3,41243172	3,41303682	1,3704409216826576	2	0,218121454	0,00467736553
2	0	0	1	0	109094,2309	3,35942292	3,36025357	1,2269686459115234	2	0,224946097	0,00412292592
2	0	0	1	0	109099,5317	3,30641437	3,30723906	1,0940574689043974	2	0,231120437	0,00361830951
2	0	0	1	0	109104,8325	3,25340557	3,25400686	1,0269664884717499	2	0,236717939	0,00334175606
2	0	0	0	0	109110,1335	3,20039725	3,20101929	0,96605540191134054	2	0,241802827	0,00309236208
2	0	0	0	0	109115,4343	3,14738846	3,14810753	0,8174150950378784	2	0,246336684	0,00257331063
2	0	0	0	0	109120,7351	3,0943799	3,09506249	0,72644428205158464	2	0,250412077	0,00224839034
2	0	0	0	0	109126,0359	3,04137158	3,04208827	0,66156125537775296	2	0,254081786	0,00201252778
2	0	0	1	0	109131,3369	2,98836327	2,98906088	0,59297482331317581	2	0,257385492	0,00177243783
2	0	0	1	0	109136,6377	2,93535447	2,93596196	0,53877556731027763	2	0,260356396	0,00158182462
2	0	0	1	0	109141,9785	2,88194561	2,88262725	0,47341594024112979	2	0,263049573	0,00136468164
2	0	0	0	0	109147,2795	2,82893705	2,82969284	0,44356547199465798	2	0,265505552	0,00125515403
2	0	0	0	0	109152,5803	2,7759285	2,77645612	0,35564837849664064	2	0,267639637	0,000987442094
2	0	0	0	0	109157,8811	2,72292018	2,72353125	0,28998276070449914	2	0,269323379	0,000789777085
2	0	0	0	0	109163,1820	2,66991091	2,67065001	0,2232255383494599	2	0,270686805	0,000596157275
2	0	0	1	0	109168,4829	2,61690283	2,61748934	0,15656950981873696	2	0,271690845	0,000409819011
2	0	0	1	0	109173,7837	2,56389475	2,56468916	0,098708631212099494	2	0,272363484	0,000253156963
2	0	0	1	0	109179,1245	2,51048589	2,51122069	0,032490235524838541	2	0,272723973	8,15901512E-005
2	0	0	0	0	109184,5055	2,45667744	2,45719957	-0,039868336515846285	2	0,272714108	9,7964461E-005
2	0	0	0	0	109189,8463	2,40326834	2,40402055	-0,15207552889154963	2	0,272215247	0,000365592685
2	0	0	0	0	109195,1471	2,35026002	2,35095716	-0,30350514425447539	2	0,271016032	0,00071352761
2	0	0	1	0	109200,4481	2,2972517	2,29790282	-0,44619744008890374	2	0,269021124	0,0010253184
2	0	0	1	0	109205,7489	2,24424291	2,2450316	-0,58253045345622298	2	0,266292721	0,00130779925
2	0	0	1	0	109211,0497	2,19123459	2,19200397	-0,65670223775561715	2	0,262964785	0,00143949396
2	0	0	1	0	109216,3505	2,13822579	2,13898969	-0,67611033310768858	2	0,259440958	0,00144619308
2	0	0	0	0	109221,6515	2,08521724	2,08605123	-0,66774547320825178	2	0,255898029	0,00139295124
2	0	0	0	0	109226,9523	2,03220868	2,03290343	-0,61676656641065536	2	0,252509862	0,00125382689
2	0	0	0	0	109232,2531	1,97920024	1,97993374	-0,56678295894353517	2	0,249360606	0,00112219271
2	0	0	1	0	109237,5541	1,92619181	1,92700911	-0,58349104308420326	2	0,246309161	0,0011243925
2	0	0	1	0	109242,8549	1,87318289	1,87381208	-0,64405603913797555	2	0,243071467	0,00120684004
2	0	0	1	0	109248,1557	1,82017457	1,82080233	-0,73374935819043866	2	0,239427283	0,0013360125
2	0	0	1	0	109253,4565	1,7671659	1,76789498	-0,76304711987851443	2	0,235535175	0,00134898722
2	0	0	0	0	109258,7575	1,71415722	1,7148453	-0,80283081448740006	2	0,231289893	0,00137673062
2	0	0	0	0	109264,0583	1,66114879	1,66192484	-0,88235036007783488	2	0,226847962	0,00146639999
2	0	0	0	0	109269,3591	1,60814035	1,60884809	-0,92141714498953139	2	0,222146735	0,00148242025
2	0	0	1	0	109274,7001	1,55473185	1,55527258	-0,93594394113731379	2	0,217235431	0,00145564799
2	0	0	1	0	109280,0009	1,50172305	1,50228071	-0,97945296957536602	2	0,212200463	0,0014714133
2	1	0	0	1	109285,1323	1,54953086	1,55019784	-0,82158845511299955	2	0,207679108	0,0012736246
2	1	0	0	1	109290,4331	1,60253942	1,60313642	-0,7458199609623008	2	0,203530341	0,00119565113
2	1	0	1	1	109295,7341	1,65554774	1,65631092	-0,62608631258762061	2	0,199978352	0,00103699358
2	1	0	0	0	109300,9303	1,7070564	1,70784593	-0,5592328447986592	3	-8,76824633E-005	0,000955083524
2	1	0	0	0	109306,2311	1,76006508	1,76097584	-0,46870217817248691	3	-0,00276418449	0,000825373223
2	1	0	0	0	109311,5319	1,81307352	1,81369603	-0,39759071988778016	3	-0,00503118755	0,000721108692
2	1	0	0	0	109316,8328	1,86608136	1,86675012	-0,31654983981931718	3	-0,00691512274	0,000590919459
2	1	0	1	0	109322,1337	1,91909063	1,91973341	-0,25353461086611872	3	-0,00844224822	0,000486718869
2	1	0	1	0	109327,4345	1,97209907	1,97290766	-0,18737195735728496	3	-0,00961675402	0,00036966757
2	1	0	1	0	109332,7353	2,02510762	2,0258286	-0,1213264292519951	3	-0,0104327705	0,000245786563
2	1	0	0	0	109338,0363	2,07811618	2,07885146	-0,057111339824688525	3	-0,0109047405	0,000118725991
2	1	0	0	0	109343,4171	2,13192463	2,1325562	0,0067933718091808358	3	-0,0110393474	1,44872474E-005
2	1	0	0	0	109348,7579	2,18533325	2,18598461	0,070717091008124506	3	-0,0108336713	0,00015458648
2	1	0	1	0	109354,0889	2,23864198	2,23945785	0,149079099401004	3	-0,0102588739	0,000333856355
2	1	0	1	0	109359,3897	2,29165053	2,29233384	0,27116421092715482	3	-0,00918095373	0,000621598912
2	1	0	1	0	109364,6905	2,34465909	2,34538364	0,5079059410426279	3	-0,00715091126	0,00119123433
2	1	0	0	0	109369,9915	2,39766812	2,39844775	0,78584580809433651	3	-0,00373098999	0,00188481016
2	1	0	0	0	109375,3073	2,45082617	2,45157886	0,99932267765204403	3	0,00103661907	0,00244991831
2	1	0	0	0	109380,6230	2,50398493	2,50472927	1,1950851298040739	3	0,00685171224	0,00299336482
2	1	0	0	0	109385,9238	2,55699325	2,55775237	1,3444020528760224	3	0,0136183547	0,0034386476
2	1	0	1	0	109391,2248	2,6100018	2,61062384	1,4398916140198565	3	0,0210346896	0,00375901535
2	1	0	1	0	109396,5256	2,6630106	2,66370916	1,4788889142650064	3	0,0288153887	0,00393933011
2	1	0	1	0	109401,8264	2,71601915	2,71678138	1,4418673473927664	3	0,0365721397	0,00391723821
2	1	0	1	0	109407,1273	2,76902795	2,76957774	1,4304095526028698	3	0,0441870391	0,00396163063
2	1	0	0	0	109412,4282	2,82203603	2,82267618	1,3746403069407762	3	0,0516298302	0,00388016435
2	1	0	0	0	109417,7290	2,87504482	2,87593532	1,2908207328507277	3	0,0587219633	0,00371231697
2	1	0	0	0	109423,0298	2,92805314	2,92852187	1,1928003237203413	3	0,0653385073	0,00349314185
2	1	0	1	0	109428,3308	2,98106194	2,98175859	1,0756014880758862	3	0,0713501796	0,00320718391
2	1	0	1	0	109433,6316	3,03407025	3,03479958	0,93331951206480794	3	0,0766741484	0,00283243763
2	1	0	1	0	109438,9324	3,08707881	3,08763146	0,80898663801727014	3	0,0812807828	0,00249785255
2	1	0	1	0	109444,2333	3,14008737	3,14066219	0,70601152607454502	3	0,0852886736	0,00221734378
2	1	0	0	0	109449,5342	3,19309592	3,1936996	0,63353210742826406	3	0,0888243914	0,00202331133
2	1	0	0	0	109454,8350	3,24610472	3,24673557	0,59269857192756864	3	0,0920620561	0,00192433549
2	1	0	0	0	109460,1358	3,2991128	3,29981637	0,56391038504188448	3	0,0951241255	0,00186080066
2	1	0	1	0	109465,4368	3,35212135	3,35281277	0,54201950194935302	3	0,0980552137	0,00181728986
2	1	0	1	0	109470,7376	3,40513015	3,40590286	0,52163503739844333	3	0,100877009	0,00177663832
2	1	0	1	0	109476,0384	3,4581387	3,45883656	0,5064074983475392	3	0,103598855	0,00175158074
2	0	0	0	0	109481,2198	3,49004364	3,49063945	0,43071670430125587	3	0,1061619	0,00150347676
2	0	0	0	0	109486,5207	3,4370358	3,43775964	0,25726414486610682	3	0,107918993	0,000884412322
2	0	0	1	0	109491,8216	3,38402653	3,38481164	0,16489804925879859	3	0,109017618	0,000558148837
2	0	0	1	0	109497,1224	3,33101821	3,3317883	0,11027426315747474	3	0,109733224	0,00036741051
2	0	0	1	0	109502,4232	3,27800965	3,27870703	0,077983436666221094	3	0,110223413	0,000255684834
2	0	0	0	0	109507,7242	3,22500086	3,2257688	0,05916983173746176	3	0,110580504	0,000190868202
2	0	0	0	0	109513,0650	3,17159224	3,17235422	0,047187912394292429	3	0,110863321	0,000149696774
2	0	0	0	0	109518,3658	3,11858416	3,11919284	0,03504096345838023	3	0,111079782	0,000109299523
2	0	0	0	0	109523,6667	3,0655756	3,06633043	0,023427759904507155	3	0,111233689	7,18372539E-005
2	0	0	1	0	109528,9676	3,01256704	3,01330662	0,011729957114396339	3	0,111326016	3,53459582E-005
2	0	0	1	0	109534,3084	2,95915866	2,95965981	-0,00032993077483870118	3	0,111355826	9,76482852E-007
2	0	0	1	0	109539,6492	2,90575004	2,90650845	-0,011261358357260803	3	0,11132355	3,27312337E-005
2	0	0	0	0	109544,9502	2,85274148	2,85333776	-0,021312672015348365	3	0,111235775	6,08122537E-005
2	0	0	0	0	109550,2510	2,79973292	2,80032802	-0,029868158942985056	3	0,111097984	8,36406398E-005
2	0	0	0	0	109555,5518	2,74672413	2,74745202	-0,035817595849813587	3	0,110921949	9,8407123E-005
2	0	0	1	0	109560,8528	2,69371533	2,69440651	-0,041548463494378464	3	0,110716708	0,000111948451
2	0	0	1	0	109566,1536	2,64070702	2,64133	-0,051818897792448083	3	0,110471711	0,000136870804
2	0	0	1	0	109571,4544	2,58769822	2,58816433	-0,072848147005531878	3	0,110147111	0,000188542981
2	0	0	1	0	109576,7952	2,53428984	2,53494096	-0,11341952420321155	3	0,109658077	0,000287511793
2	0	0	0	0	109582,0962	2,48128128	2,48199368	-0,16561368023286787	3	0,108917162	0,000411052111
2	0	0	0	0	109587,3970	2,42827272	2,4289124	-0,2141689927903576	3	0,107908741	0,000520197733
2	0	0	0	0	109592,6978	2,37526393	2,37597418	-0,27025455184694646	3	0,106631994	0,000642117811
2	0	0	1	0	109597,9988	2,32225537	2,32282591	-0,35386891552004941	3	0,104981147	0,000821975875
2	0	0	1	0	109603,2996	2,26924682	2,26999903	-0,41799205086297466	3	0,102916852	0,000948841567
2	0	0	1	0	109608,6004	2,2162385	2,21693587	-0,44538079719576371	3	0,100610279	0,000987380627
2	0	0	1	0	109613,9013	2,16322923	2,16388965	-0,41678820325900557	3	0,0982998684	0,000901883701
2	0	0	0	0	109619,2022	2,11022139	2,11086726	-0,36726987955195066	3	0,0961701646	0,00077525794
2	0	0	0	0	109624,5030	2,05721283	2,05807161	-0,37118834591712122	3	0,0941747501	0,000763932185
2	0	0	0	0	109629,8038	2,00420427	2,00487041	-0,39884147286001139	3	0,0921311155	0,000799625472
2	0	0	1	0	109635,1048	1,95119548	1,95190084	-0,42187692459534176	3	0,0899225175	0,000823461916
2	0	0	1	0	109640,4056	1,89818704	1,89895797	-0,45663993115778822	3	0,087556757	0,000867140014
2	0	0	1	0	109645,7064	1,84517872	1,84585476	-0,50927085650188	3	0,0849273279	0,000940040045
2	0	0	1	0	109651,0072	1,79216993	1,79285824	-0,55152981880086349	3	0,082100749	0,000988814747
2	0	0	0	0	109656,3082	1,73916149	1,7399689	-0,62473510571375539	3	0,0789550543	0,00108701969
2	0	0	0	0	109661,6090	1,68615294	1,68691468	-0,6855673677529408	3	0,0755473003	0,00115649367
2	0	0	0	0	109666,9098	1,63314438	1,63363767	-0,75502938749614131	3	0,0718019828	0,00123344443
2	0	0	1	0	109672,2108	1,58013582	1,58079267	-0,81837502949769101	3	0,0676415935	0,00129368121
2	0	0	1	0	109677,5116	1,52712739	1,52775204	-0,83074219993970291	3	0,063291043	0,0012691681
2	1	0	0	1	109682,6830	1,52452695	1,52523029	-0,82281921086488909	3	0,0589110814	0,00125498883
2	1	0	0	1	109687,9838	1,57753527	1,57833779	-0,74404468718501709	3	0,0548725724	0,00117435388
2	1	0	0	1	109693,2847	1,63054359	1,6311779	-0,60947816551403469	3	0,0513174422	0,000994167291
2	1	0	1	1	109698,5856	1,68355238	1,68433034	-0,5624682124428144	3	0,0481956154	0,000947382301
2	1	0	0	0	109703,8380	1,73586094	1,73659623	-0,46150982014283027	4	-0,00145024259	0,000801456219
2	1	0	0	0	109709,1388	1,7888695	1,78944099	-0,39181428406111386	4	-0,00376538909	0,000701128563
2	1	0	0	0	109714,4397	1,84187794	1,84257114	-0,32975174008709728	4	-0,00567377266	0,000607591064
2	1	0	1	0	109719,7406	1,89488661	1,89563882	-0,2631107550804256	4	-0,00723222038	0,000498762936
2	1	0	1	0	109725,0414	1,94789505	1,94859529	-0,20224460200579264	4	-0,00846152194	0,000394092873
2	1	0	1	0	109730,3422	2,00090384	2,00164032	-0,13986892744691758	4	-0,00936383754	0,000279967295
2	1	0	0	0	109735,6432	2,05391216	2,05462337	-0,079570598339799795	4	-0,00994511601	0,00016348761
2	1	0	0	0	109740,9840	2,10732079	2,10798931	-0,019222030217793798	4	-0,0102082388	4,05198334E-005
2	1	0	0	0	109746,3648	2,16112947	2,16188145	0,041443008821699117	4	-0,01014823	8,95948688E-005
2	1	0	1	0	109751,6958	2,21443796	2,21511364	0,10478656409584318	4	-0,00976107176	0,000232114151
2	1	0	1	0	109756,9966	2,26744676	2,26815939	0,18229256140895834	4	-0,0090085296	0,000413468573
2	1	0	1	0	109762,2974	2,32045531	2,32116008	0,30734182069836934	4	-0,00775092794	0,000713389541
2	1	0	1	0	109767,5983	2,37346363	2,37415576	0,54054081330145299	4	-0,00554286875	0,00128332805
2	1	0	0	0	109772,8992	2,42647243	2,42721486	0,80549242237099251	4	-0,00191917445	0,00195510313
2	1	0	0	0	109778,2000	2,47948074	2,48031378	0,99127643858944922	4	0,0028358663	0,0024586767
2	1	0	0	0	109783,5408	2,53288937	2,53363085	1,154986846088259	4	0,00859524589	0,00292631029
2	1	0	1	0	109788,8418	2,58589816	2,58648467	1,2588555579660134	4	0,015014139	0,00325601059
2	1	0	1	0	109794,1426	2,63890648	2,63945889	1,3015939854085374	4	0,0218360238	0,00343550392
2	1	0	1	0	109799,4434	2,69191527	2,69246864	1,2617568733791469	4	0,0286541805	0,00339724077
2	1	0	1	0	109804,7442	2,74492407	2,7456615	1,1710906911034442	4	0,0351289138	0,00321541866
2	1	0	0	0	109810,0451	2,79793191	2,79851007	1,005299928563608	4	0,0409280211	0,00281334203
2	1	0	0	0	109815,3459	2,8509407	2,85157323	0,80877395760681024	4	0,045732528	0,0023062781
2	1	0	0	0	109820,6467	2,9039495	2,90460539	0,60371523633323546	4	0,0494680442	0,00175355456
2	1	0	1	0	109825,9877	2,95735788	2,95799398	0,45548184781714694	4	0,0522642955	0,00134731259
2	1	0	1	0	109831,2885	3,01036668	3,01099896	0,37514435386078035	4	0,0544509217	0,00112955924
2	1	0	1	0	109836,5893	3,063375	3,06408453	0,31589421716139238	4	0,0562751479	0,000967926579
2	1	0	0	0	109841,8903	3,11638427	3,11700106	0,2783487153742369	4	0,0578419492	0,000867613242
2	1	0	0	0	109847,1911	3,16939211	3,1701932	0,26616167373679245	4	0,0592774339	0,000843783899
2	1	0	0	0	109852,4919	3,22240019	3,22310925	0,26898635347822621	4	0,0606912225	0,000866972376
2	1	0	0	0	109857,7927	3,2754097	3,27597594	0,27934995210833082	4	0,0621444918	0,000915143697
2	1	0	1	0	109863,0937	3,32841754	3,3291955	0,2887131972238439	4	0,0636524111	0,000961182697
2	1	0	1	0	109868,3945	3,3814261	3,38209796	0,29324353062030342	4	0,0651995689	0,000991778332
2	1	0	1	0	109873,6953	3,43443513	3,43511271	0,29744243804641587	4	0,0667571649	0,00102174829
2	1	0	1	0	109878,9961	3,48744297	3,48811722	0,31899666009341754	4	0,068386279	0,00111269776
2	0	0	0	0	109884,2075	3,46043873	3,4612298	0,18061410458068394	4	0,0697447658	0,000625146902
2	0	0	0	0	109889,5083	3,40742993	3,40812635	0,084899962069121754	4	0,0704226047	0,000289349788
2	0	0	0	0	109894,8491	3,35402179	3,35462642	0,029959847512482483	4	0,0707148388	0,000100504098
2	0	0	1	0	109900,1901	3,30061316	3,30122042	-0,00059557835030082598	4	0,0707845315	1,96613541E-006
2	0	0	1	0	109905,5309	3,24720478	3,24782753	-0,01716357334172025	4	0,0707311481	5,57443273E-005
2	0	0	1	0	109910,8317	3,19419599	3,19489336	-0,020377789302815475	4	0,0706245229	6,51048613E-005
2	0	0	1	0	109916,1325	3,14118862	3,14186668	-0,018207851429447309	4	0,0705232099	5,72066419E-005
2	0	0	0	0	109921,4335	3,08817911	3,08883405	-0,020165750293354211	4	0,0704219863	6,22886582E-005
2	0	0	0	0	109926,7343	3,03517079	3,03568625	-0,023998086547686314	4	0,0703047141	7,28506639E-005
2	0	0	0	0	109932,0351	2,982162	2,9828949	-0,028953102693237363	4	0,0701641515	8,63640598E-005
2	0	0	1	0	109937,3361	2,92915392	2,92966247	-0,03437392343766976	4	0,0699957088	0,00010070399
2	0	0	1	0	109942,6369	2,87614489	2,87683535	-0,039652825691047552	4	0,0697983056	0,000114074654
2	0	0	1	0	109947,9377	2,82313657	2,82381225	-0,044353661515438733	4	0,0695745274	0,000125246414
2	0	0	1	0	109953,2386	2,77012801	2,77082419	-0,048409698861991757	4	0,069327414	0,000134134767
2	0	0	0	0	109958,5395	2,71711922	2,71777034	-0,052025348413735603	4	0,0690606982	0,000141392942
2	0	0	0	0	109963,8403	2,66411114	2,66472054	-0,056735030685861946	4	0,0687728897	0,000151183005
2	0	0	0	0	109969,1411	2,6111021	2,61176443	-0,066175735434862438	4	0,0684494376	0,000172835425
2	0	0	1	0	109974,4421	2,55809379	2,5589509	-0,08666853433371369	4	0,0680510551	0,00022178053
2	0	0	1	0	109979,7829	2,50468493	2,50536633	-0,12582945670173674	4	0,0674899518	0,000315248879
2	0	0	1	0	109985,0837	2,45167637	2,4523344	-0,16842158257754435	4	0,0667085797	0,00041302605
2	0	0	1	0	109990,3846	2,39866757	2,39946651	-0,20130272347976752	4	0,0657176524	0,000483019132
2	0	0	0	0	109995,6855	2,34565949	2,34630156	-0,23603491288506163	4	0,0645791814	0,000553809106
2	0	0	0	0	110000,9863	2,2926507	2,2933228	-0,28049495619618314	4	0,0632369667	0,000643265492
2	0	0	0	0	110006,2871	2,23964214	2,2405715	-0,30855613626125722	4	0,0616963059	0,000691342109
2	0	0	1	0	110011,5881	2,18663359	2,18728542	-0,34200832185645715	4	0,0600054227	0,00074806984
2	0	0	1	0	110016,8889	2,13362503	2,13440061	-0,35573093644861056	4	0,058193136	0,000759272312
2	0	0	1	0	110022,1897	2,08061647	2,0813911	-0,36343626867703629	4	0,0563059263	0,000756453024
2	0	0	1	0	110027,4905	2,02760863	2,02829266	-0,36836720466001613	4	0,0543555021	0,000747156504
2	0	0	0	0	110032,7915	1,97459924	1,97522914	-0,40412882618882093	4	0,0523243695	0,000798247056
2	0	0	0	0	110038,0923	1,92159081	1,92238855	-0,44339750776136813	4	0,0501128547	0,000852382276
2	0	0	0	0	110043,3931	1,86858261	1,86921835	-0,46709759257458042	4	0,0477073081	0,000873107405
2	0	0	1	0	110048,6941	1,81557381	1,81629789	-0,5193592329268153	4	0,0450859815	0,000943311083
2	0	0	1	0	110053,9949	1,76256549	1,76333284	-0,56817028975044973	4	0,0422311462	0,00100187329
2	0	0	1	0	110059,2957	1,70955658	1,71030521	-0,63548827785308634	4	0,0391167104	0,00108687894
2	0	0	1	0	110064,5965	1,65654814	1,65734899	-0,66595955551774822	4	0,0357060134	0,00110372738
2	0	0	0	0	110069,8975	1,60353959	1,60411215	-0,73968996687067085	4	0,0319794565	0,00118654571
2	0	0	0	0	110075,1983	1,55053103	1,55111575	-0,78648080318063411	4	0,0279561114	0,00121992279
2	1	0	1	1	110080,4097	1,50152302	1,50222278	-0,8070727899946473	4	0,0237764604	0,00121240318
2	1	0	1	1	110085,7105	1,55453169	1,55524588	-0,70036029450043392	4	0,0197690967	0,00108923251
2	1	0	0	1	110091,0115	1,60754025	1,60817528	-0,62659226792553651	4	0,0162126403	0,00100767019
2	1	0	0	1	110096,3123	1,66054881	1,66135883	-0,54484219462783565	4	0,0130616548	0,000905178371
2	1	0	0	0	110101,5529	1,71235704	1,71320117	-0,4855852996309593	5	-0,00027456705	0,000831905287
2	1	0	0	0	110106,8537	1,76536572	1,76599252	-0,42718153074383379	5	-0,00267072651	0,0007543994
2	1	0	1	0	110112,1547	1,81837416	1,81913149	-0,35034447749731712	5	-0,00471531926	0,000637322664
2	1	0	1	0	110117,4555	1,87138307	1,87216341	-0,27713328330881005	5	-0,00639129896	0,000518838817
2	1	0	1	0	110122,7563	1,92439127	1,92500389	-0,2114518062659969	5	-0,00768238679	0,000407045562
2	1	0	1	0	110128,0571	1,97739983	1,97817409	-0,15431186632701683	5	-0,00866301451	0,000305255729
2	1	0	0	0	110133,3581	2,03040862	2,03124166	-0,094573185003051738	5	-0,00932667684	0,000192100997
2	1	0	0	0	110138,6989	2,08381724	2,08475447	-0,033838269477537875	5	-0,0096694082	7,05444836E-005
2	1	0	0	0	110144,0797	2,13762546	2,13847733	0,025508114291975802	5	-0,00969159137	5,45485236E-005
2	1	0	1	0	110149,3807	2,19063425	2,19123316	0,085328982090923046	5	-0,0093985917	0,000186975696
2	1	0	1	0	110154,7115	2,24394298	2,24470162	0,15183143176276438	5	-0,00877107214	0,000340816274
2	1	0	1	0	110160,0123	2,29695153	2,29767585	0,24202854013829443	5	-0,00773487147	0,000556103128
2	1	0	0	0	110165,3133	2,34995985	2,35068107	0,39437721786951309	5	-0,0061005773	0,00092705508
2	1	0	0	0	110170,6141	2,40296865	2,40368629	0,64205249060911923	5	-0,00335566117	0,00154329278
2	1	0	0	0	110175,9149	2,45597696	2,45663357	0,89168416446557594	5	0,000733500696	0,00219054124
2	1	0	0	0	110181,2457	2,50928569	2,50995517	1,065814271707227	5	0,00594701013	0,0026751461
2	1	0	1	0	110186,5467	2,56229424	2,56304526	1,1889632748508862	5	0,0119582368	0,00304736663
2	1	0	1	0	110191,8475	2,61530304	2,61578727	1,2578895476957221	5	0,0184705164	0,0032903715
2	1	0	1	0	110197,1483	2,66831136	2,66895795	1,225220311019152	5	0,02509588	0,00327006145
2	1	0	0	0	110202,4493	2,72132015	2,7220037	1,1306944260794331	5	0,0313690305	0,00307775452
2	1	0	0	0	110207,7501	2,77432823	2,77497268	0,95259060351937382	5	0,0369237512	0,00264341291
2	1	0	0	0	110213,0509	2,82733727	2,82819629	0,74227807001659584	5	0,0414060727	0,00209930819
2	1	0	0	0	110218,3517	2,88034558	2,88120604	0,53757180728846701	5	0,0447906777	0,0015488551
2	1	0	1	0	110223,6926	2,93375397	2,93435812	0,38935074524057222	5	0,0472301655	0,0011424945
2	1	0	1	0	110228,9934	2,98676276	2,98739886	0,3122002452404953	5	0,0490719974	0,000932666648
2	1	0	1	0	110234,2942	3,03977132	3,04041767	0,26351642705224288	5	0,0505896248	0,000801199989
2	1	0	0	0	110239,5952	3,09277964	3,09341407	0,23542189987859219	5	0,0519048758	0,000728257408
2	1	0	0	0	110244,8960	3,14578795	3,14655733	0,225471077486872	5	0,0531189851	0,000709457672
2	1	0	0	0	110250,1968	3,19879675	3,19939733	0,229610095145528	5	0,0543218143	0,000734613917
2	1	0	0	0	110255,4976	3,25180554	3,25240278	0,24051053125273379	5	0,0555687025	0,000782237097
2	1	0	1	0	110260,7986	3,30481386	3,30543947	0,25319224402860208	5	0,056878332	0,000836911611
2	1	0	1	0	110266,0994	3,35782266	3,35840869	0,25656944509871642	5	0,0582389235	0,000861665059
2	1	0	1	0	110271,4002	3,41083145	3,41141844	0,2613613072230887	5	0,0595918261	0,000891612784
2	1	0	1	0	110276,7011	3,46383905	3,46463776	0,27945738414708243	5	0,0610224493	0,000968218606
2	0	0	0	0	110281,8724	3,48444247	3,48516798	0,2266812260711064	5	0,0624644198	0,000790022139
2	0	0	0	0	110287,1732	3,43143439	3,43207812	0,10422904339308614	5	0,0633001626	0,000357722223
2	0	0	0	0	110292,5140	3,37802553	3,37885451	0,03808387731529641	5	0,0636634082	0,00012867988
2	0	0	1	0	110297,8550	3,32461715	3,32533717	0,00067237322171556954	5	0,0637563989	2,23586767E-006
2	0	0	1	0	110303,1958	3,27120852	3,27180147	-0,019787951085837418	5	0,0636994168	6,47422494E-005
2	0	0	1	0	110308,4966	3,21819997	3,21897888	-0,029816826628693434	5	0,0635616258	9,59797326E-005
2	0	0	0	0	110313,7976	3,16519094	3,16583991	-0,027590421183655843	5	0,0634056181	8,73468598E-005
2	0	0	0	0	110319,0984	3,11218286	3,11270571	-0,026213097282582032	5	0,0632642359	8,15936583E-005
2	0	0	0	0	110324,3992	3,05917406	3,05994081	-0,028117302473186083	5	0,0631203279	8,6037282E-005
2	0	0	0	0	110329,7000	3,00616574	3,00688243	-0,03131328171757239	5	0,0629623309	9,4155359E-005
2	0	0	1	0	110335,0010	2,95315742	2,95370317	-0,035693773111604486	5	0,0627840906	0,000105428808
2	0	0	1	0	110340,3018	2,90014863	2,90079141	-0,040088728022830739	5	0,0625821501	0,00011628904
2	0	0	1	0	110345,6026	2,84714031	2,8478756	-0,043963486652096595	5	0,0623584725	0,000125202539
2	0	0	0	0	110350,9036	2,79413152	2,79478502	-0,047198585575204678	5	0,0621158741	0,000131909896
2	0	0	0	0	110356,2044	2,7411232	2,7418561	-0,050171116599813549	5	0,061857149	0,000137561976
2	0	0	0	0	110361,5052	2,68811464	2,68872619	-0,053713364052344173	5	0,0615817979	0,000144420526
2	0	0	0	0	110366,8060	2,63510585	2,63576961	-0,059529943624510579	5	0,0612827279	0,000156907219
2	0	0	1	0	110372,1070	2,58209777	2,58273792	-0,071852748739291034	5	0,0609377511	0,000185576821
2	0	0	1	0	110377,4078	2,52908874	2,52969694	-0,096817990523520909	5	0,0604982115	0,000244920171
2	0	0	1	0	110382,7486	2,47568011	2,47648668	-0,13366851134708624	5	0,0598828569	0,000331028277
2	0	0	0	0	110388,0496	2,42267203	2,42327642	-0,16311738065754387	5	0,0590895228	0,000395278505
2	0	0	0	0	110393,3504	2,369663	2,37031579	-0,1945362777828601	5	0,0581555143	0,000461112417
2	0	0	0	0	110398,6512	2,31665468	2,31732821	-0,21938701829424723	5	0,0570395477	0,000508391706
2	0	0	0	0	110403,9520	2,26364613	2,26425624	-0,26186656817379872	5	0,0557450242	0,000592933036
2	0	0	1	0	110409,2530	2,21063757	2,21123743	-0,29883584794070963	5	0,0542447567	0,000660796999
2	0	0	1	0	110414,5538	2,15762901	2,15849972	-0,33118237006581542	5	0,0525741018	0,000714857073
2	0	0	1	0	110419,8546	2,10462022	2,10524487	-0,35784142529936646	5	0,0507234111	0,000753343804
2	0	0	0	0	110425,1556	2,05161166	2,05252051	-0,36293943826164467	5	0,0488749743	0,000744940655
2	0	0	0	0	110430,4564	1,99860334	1,99939513	-0,36897144594264384	5	0,0469841957	0,000737719703
2	0	0	0	0	110435,7572	1,94559479	1,94633603	-0,40214106302570342	5	0,044936657	0,000782701652
2	0	0	0	0	110441,0580	1,89258623	1,89337981	-0,4468393705923255	5	0,0426381715	0,000846036652
2	0	0	1	0	110446,3590	1,83957803	1,84027672	-0,48201172171091053	5	0,0401128381	0,000887034927
2	0	0	1	0	110451,6598	1,78656912	1,78720009	-0,5644440752350617	5	0,0373682119	0,0010087745
2	0	0	1	0	110456,9606	1,73356056	1,73436868	-0,59834102913736768	5	0,0343454592	0,00103774399
2	0	0	0	0	110462,2616	1,68055224	1,68113601	-0,66726183953384474	5	0,0309900716	0,0011217579
2	0	0	0	0	110467,5624	1,62754333	1,62824225	-0,70820610176909325	5	0,0273863617	0,00115313113
2	0	0	0	0	110472,8632	1,57453501	1,57527244	-0,74822109668618688	5	0,0235364586	0,00117865205
2	0	0	0	0	110478,1640	1,52152634	1,52223182	-0,78725830217203098	5	0,0194723345	0,00119838968
2	1	0	1	1	110483,3754	1,53052783	1,53132951	-0,7176931456973152	5	0,0154561242	0,00109902467
2	1	0	0	1	110488,6764	1,58353639	1,58439255	-0,61847095957232589	5	0,011827467	0,000979900826
2	1	0	0	1	110493,9772	1,63654494	1,63711286	-0,54213123803061024	5	0,00864894409	0,000887530041
2	1	0	0	1	110499,2780	1,68955338	1,69038093	-0,50064110086747962	5	0,00591672119	0,000846274197
2	1	0	0	0	110504,4666	1,74066174	1,74140811	-0,42251323653315878	6	-0,00149278331	0,000735768001
2	1	0	1	0	110509,7676	1,79367018	1,79446673	-0,35080063739722611	6	-0,00351142674	0,000629500079
2	1	0	1	0	110515,0684	1,84667873	1,84732044	-0,29257500388970016	6	-0,00518436963	0,000540479785
2	1	0	1	0	110520,3692	1,89968729	1,90038812	-0,22419634913266861	6	-0,00653916551	0,000426060084
2	1	0	1	0	110525,6700	1,95269585	1,95339787	-0,16807627434738758	6	-0,00761887664	0,000328319846
2	1	0	0	0	110530,9710	2,00570464	2,00650549	-0,10878650595744598	6	-0,0083610015	0,000218280722
2	1	0	0	0	110536,2718	2,05871296	2,05968022	-0,050621936813479482	6	-0,00878289621	0,000104265004
2	1	0	0	0	110541,6526	2,11252165	2,11321092	0,0078199775911074445	6	-0,00889765006	1,65252623E-005
2	1	0	1	0	110546,9836	2,16583037	2,16667533	0,066521829899607194	6	-0,0086997645	0,000144131205
2	1	0	1	0	110552,3244	2,219239	2,22006822	0,12816498075025517	6	-0,00818131212	0,000284534995
2	1	0	1	0	110557,6252	2,27224755	2,27296638	0,19801484948645242	6	-0,00732295075	0,000450081105
2	1	0	1	0	110562,9261	2,32525635	2,3258822	0,30130081696292166	6	-0,00602641376	0,000700790202
2	1	0	0	0	110568,2270	2,37826467	2,37892365	0,50889801399575149	6	-0,00389304198	0,00121062947
2	1	0	0	0	110573,5278	2,43127322	2,43181753	0,75963551013006093	6	-0,000529834535	0,00184729497
2	1	0	0	0	110578,8286	2,48428154	2,48499632	0,97223224049365158	6	0,00411529467	0,00241599348
2	1	0	1	0	110584,1696	2,5376904	2,53843403	1,1265101532141442	6	0,00973587763	0,00285957172
2	1	0	1	0	110589,4704	2,59069872	2,59119391	1,2094324806498158	6	0,0159445759	0,00313387415
2	1	0	1	0	110594,7712	2,64370751	2,64440846	1,2248733218897331	6	0,0224435218	0,00323906541
2	1	0	1	0	110600,0721	2,69671512	2,69733334	1,1530984530804931	6	0,0287827104	0,00311029097
2	1	0	0	0	110605,3730	2,74972463	2,75042367	0,99779898107604109	6	0,0345226973	0,00274436991
2	1	0	0	0	110610,6738	2,80273271	2,80363369	0,78027289036523315	6	0,0392437615	0,00218759943
2	1	0	0	0	110615,9746	2,8557415	2,85635829	0,5731906290683447	6	0,0428319089	0,00163723784
2	1	0	1	0	110621,3156	2,90915036	2,90997839	0,40376114072622829	6	0,0454111919	0,00117493619
2	1	0	1	0	110626,6164	2,96215892	2,96281028	0,30980193218285069	6	0,0472758785	0,000917884347
2	1	0	1	0	110631,9172	3,01516747	3,01569057	0,25659257828913606	6	0,04876801	0,000773803797
2	1	0	0	0	110637,2182	3,06817579	3,06894064	0,2248053089198143	6	0,0500359759	0,000689914159
2	1	0	0	0	110642,5190	3,12118459	3,12187505	0,20945035773156874	6	0,0511821695	0,000653877854
2	1	0	0	0	110647,8197	3,17419267	3,17477751	0,20976752408400822	6	0,0522904694	0,000665965199
2	1	0	0	0	110653,1205	3,22720146	3,22793412	0,21821068851622406	6	0,0534255691	0,000704369741
2	1	0	1	0	110658,4215	3,28021002	3,28099298	0,22980342443204637	6	0,0546136945	0,000753983448
2	1	0	1	0	110663,7223	3,33321857	3,33398056	0,23845977577622611	6	0,0558567829	0,000795020256
2	1	0	1	0	110669,0231	3,38622689	3,38709712	0,23671574176599597	6	0,057110887	0,000801779213
2	1	0	0	0	110674,3241	3,4392364	3,43985319	0,2519057475637041	6	0,0584051311	0,000866518763
2	1	0	0	0	110679,6249	3,49224377	3,4930675	0,27355524076631443	6	0,0597946681	0,000955546915
2	0	0	0	0	110684,7561	3,45643854	3,45706797	0,13844536393190987	6	0,0608624443	0,000478615024
2	0	0	0	0	110690,0569	3,40342975	3,40429473	0,057307922893582886	6	0,0613587163	0,00019509306
2	0	0	1	0	110695,3979	3,35002136	3,35074592	0,011333093360816448	6	0,061529547	3,79743178E-005
2	0	0	1	0	110700,7787	3,29621267	3,29686308	-0,014286909278275242	6	0,0615137853	4,71019848E-005
2	0	0	1	0	110706,0795	3,24320388	3,24380422	-0,028918745229020634	6	0,0613949038	9,3806746E-005
2	0	0	0	0	110711,3805	3,19019508	3,19089723	-0,032550311311044358	6	0,0612252243	0,000103864695
2	0	0	0	0	110716,6813	3,137187	3,13773155	-0,029631957515246266	6	0,0610605702	9,29771268E-005
2	0	0	0	0	110721,9821	3,08417845	3,08479285	-0,030046304524013811	6	0,0609032996	9,26866269E-005
2	0	0	0	0	110727,2829	3,03116989	3,03180528	-0,032225910509522547	6	0,0607381165	9,77026866E-005
2	0	0	1	0	110732,5839	2,97816157	2,97881818	-0,035443057185384038	6	0,0605583526	0,000105578423
2	0	0	1	0	110737,8847	2,92515278	2,92573261	-0,039331630661359309	6	0,0603593476	0,000115073832
2	0	0	1	0	110743,1855	2,87214446	2,87273169	-0,042878878294248858	6	0,0601408333	0,000123179518
2	0	0	0	0	110748,4865	2,81913567	2,81984687	-0,04577277142002617	6	0,0599048324	0,000129072199
2	0	0	0	0	110753,7873	2,76612711	2,76683712	-0,048405484555082643	6	0,0596544258	0,000133930094
2	0	0	0	0	110759,0881	2,71311855	2,71378732	-0,051314508844236608	6	0,059390042	0,000139256663
2	0	0	0	0	110764,3890	2,66010928	2,6608839	-0,055448936720125184	6	0,0591075905	0,000147543178
2	0	0	1	0	110769,6899	2,60710144	2,60752296	-0,062902555904454925	6	0,0587956943	0,000164019861
2	0	0	1	0	110774,9907	2,55409288	2,55488276	-0,078092672094633626	6	0,0584270135	0,000199517628
2	0	0	1	0	110780,3315	2,50068426	2,50143671	-0,10547329238788382	6	0,0579422973	0,00026383478
2	0	0	0	0	110785,6325	2,4476757	2,44829321	-0,13286295966072848	6	0,0573071539	0,000325287489
2	0	0	0	0	110790,9333	2,39466715	2,39559984	-0,16255943608228838	6	0,0565266423	0,000389427354
2	0	0	0	0	110796,2341	2,34165883	2,3421669	-0,20777973787928138	6	0,0555693731	0,000486654812
2	0	0	0	0	110801,5349	2,28865004	2,28927755	-0,26048528206430976	6	0,0542891733	0,000596323109
2	0	0	1	0	110806,8359	2,23564172	2,23652172	-0,27645802339194048	6	0,052847445	0,000618304359
2	0	0	1	0	110812,1367	2,18263292	2,18320894	-0,31368000212091117	6	0,0512819327	0,000684828963
2	0	0	1	0	110817,4375	2,12962461	2,13038635	-0,3265986778876857	6	0,0495743938	0,000695781375
2	0	0	1	0	110822,7384	2,07661653	2,07745337	-0,33322677538230259	6	0,0478201024	0,000692263071
2	0	0	0	0	110828,0393	2,02360725	2,02429581	-0,3444520604831225	6	0,0459853783	0,000697272888
2	0	0	0	0	110833,3401	1,97059894	1,97125494	-0,37428116105082675	6	0,0440536328	0,000737803581
2	0	0	0	0	110838,6410	1,91758943	1,91833329	-0,42503137364157696	6	0,0419497304	0,000815351843
2	0	0	1	0	110843,9419	1,8645817	1,86523545	-0,46840898527039168	6	0,0396148488	0,000873693032
2	0	0	1	0	110849,2427	1,81157303	1,81236362	-0,51078518266203507	6	0,0370092168	0,000925728469
2	0	0	1	0	110854,5435	1,75856471	1,75936747	-0,55671239430429773	6	0,0341540948	0,000979461707
2	0	0	0	0	110859,8445	1,70555592	1,70625079	-0,64153910807713549	6	0,0310228616	0,00109462661
2	0	0	0	0	110865,1453	1,65254772	1,65321422	-0,73981122748443264	6	0,0276085418	0,00122306647
2	0	0	0	0	110870,4461	1,59953892	1,60008001	-0,72727320274268339	6	0,0238608476	0,00116369536
2	0	0	0	0	110875,7469	1,54653037	1,54723537	-0,73904236019760819	6	0,0199472141	0,0011434725
2	1	0	1	1	110880,9583	1,5055238	1,50632179	-0,78392943967548595	6	0,0159451421	0,00118084997
2	1	0	0	1	110886,2593	1,55853248	1,55918443	-0,67205083528878707	6	0,0121354572	0,00104785117
2	1	0	0	1	110891,5601	1,61154079	1,6120069	-0,60048853095482624	6	0,00886788871	0,000967991655
2	1	0	0	1	110896,8609	1,66454923	1,66502118	-0,48995188727147366	6	0,00601857388	0,000815780251
2	1	0	0	0	110902,0737	1,71655798	1,71734023	-0,43696069268992634	7	-0,000390355039	0,000750410196
2	1	0	1	0	110907,3747	1,76956642	1,7701093	-0,38367308241625862	7	-0,00253985822	0,000679143297
2	1	0	1	0	110912,6755	1,82257462	1,82318592	-0,30461310326224922	7	-0,00434065145	0,000555366336
2	1	0	1	0	110917,9763	1,87558353	1,87622225	-0,24158923969500634	7	-0,00582612725	0,000453275105
2	1	0	1	0	110923,2771	1,92859197	1,92911184	-0,18036578842266416	7	-0,00695447717	0,000347945781
2	1	0	0	0	110928,5781	1,98160064	1,98232651	-0,12434935897450616	7	-0,00776363257	0,000246501033
2	1	0	0	0	110933,8789	2,03460908	2,03538966	-0,066578090354731584	7	-0,00826770067	0,000135512353
2	1	0	0	0	110939,2197	2,0880177	2,08882713	-0,0093307157598987725	7	-0,00846972782	1,94902514E-005
2	1	0	1	0	110944,6007	2,14182615	2,1425271	0,04827268904126791	7	-0,00836496707	0,000103425547
2	1	0	1	0	110949,9415	2,19523501	2,19591141	0,10720931993866278	7	-0,00795052387	0,000235422165
2	1	0	1	0	110955,2423	2,24824381	2,24906349	0,17177711077103462	7	-0,00721581141	0,000386337633
2	1	0	1	0	110960,5432	2,3012526	2,30207705	0,24799901793027645	7	-0,00610963721	0,000570912845
2	1	0	0	0	110965,8441	2,35426092	2,35504723	0,4347458100981161	7	-0,00441433862	0,00102384691
2	1	0	0	0	110971,1449	2,40726948	2,40814614	0,63960902875771891	7	-0,00161932642	0,00154027203
2	1	0	0	0	110976,4457	2,46027756	2,46103978	0,88439593505528794	7	0,00246944209	0,00217653369
2	1	0	1	0	110981,7867	2,51368618	2,51429915	1,057573161881276	7	0,00766505068	0,0026590554
2	1	0	1	0	110987,0875	2,56669521	2,56754947	1,1662055571322085	7	0,0135856085	0,00299429055
2	1	0	1	0	110992,3883	2,61970329	2,6202786	1,208543554086388	7	0,019917585	0,00316672074
2	1	0	0	0	110997,6893	2,67271256	2,67342687	1,1613646413803949	7	0,026239315	0,00310482341
2	1	0	0	0	111002,9901	2,72572064	2,72652078	1,0345028946521176	7	0,0320934653	0,00282059354
2	1	0	0	0	111008,2909	2,77872896	2,77936983	0,83124330281107994	7	0,0370636173	0,00231033261
2	1	0	0	0	111013,5917	2,83173776	2,83244205	0,6327769296864672	7	0,0409293659	0,00179230398
2	1	0	1	0	111018,9327	2,88514638	2,88582587	0,44674315089704742	7	0,0437863879	0,00128922297
2	1	0	1	0	111024,2335	2,93815446	2,93882251	0,32596061478748518	7	0,0458033495	0,000957940414
2	1	0	1	0	111029,5343	2,99116325	2,99198341	0,26168713687608714	7	0,0473443568	0,000782963587
2	1	0	0	0	111034,8353	3,04417276	3,04495358	0,22369225480817389	7	0,0486219935	0,000681132544
2	1	0	0	0	111040,1361	3,09718084	3,09773993	0,20362522815250595	7	0,0497485772	0,000630778028
2	1	0	0	0	111045,4369	3,15018892	3,15091014	0,19836657280447456	7	0,0508091785	0,00062503526
2	1	0	0	0	111050,7377	3,20319748	3,20398664	0,20320841814908784	7	0,0518724583	0,000651077076
2	1	0	1	0	111056,0387	3,25620604	3,25685835	0,21321464157490589	7	0,0529774018	0,000694409886
2	1	0	1	0	111061,3395	3,30921435	3,30988598	0,22242719362731478	7	0,054134924	0,000736208633
2	1	0	1	0	111066,6403	3,36222339	3,36300302	0,22075080147220304	7	0,055323761	0,00074238563
2	1	0	1	0	111071,9411	3,41523147	3,41593242	0,23346016263458758	7	0,0565261059	0,000797484128
2	1	0	0	0	111077,2420	3,46824026	3,46891952	0,24999343807360752	7	0,0578051805	0,000867207127
2	0	0	0	0	111082,3732	3,48044229	3,48109603	0,18578295520058451	7	0,0590524226	0,000646728324
2	0	0	0	0	111087,6740	3,42743468	3,42811346	0,080648094378681613	7	0,059723258	0,000276470819
2	0	0	1	0	111093,0150	3,37402511	3,37475586	0,024079888263562221	7	0,059987735	8,12637445E-005
2	0	0	1	0	111098,3558	3,32061648	3,32126045	-0,0074676952671898496	7	0,0600236133	2,48021606E-005
2	0	0	1	0	111103,6967	3,26720738	3,26784945	-0,024868267557142	7	0,0599330254	8,12657527E-005
2	0	0	0	0	111108,9976	3,2141993	3,21476412	-0,034308654014711168	7	0,0597712249	0,000110294233
2	0	0	0	0	111114,2984	3,16119051	3,16182137	-0,033123407236955616	7	0,059588749	0,000104730294
2	0	0	0	0	111119,5992	3,10818243	3,10881615	-0,031406496069394054	7	0,0594195947	9,76370211E-005
2	0	0	1	0	111124,9002	3,05517411	3,05601573	-0,032785833175121734	7	0,0592491888	0,000100194025
2	0	0	1	0	111130,2010	3,00216508	3,00294805	-0,03518116383175168	7	0,0590688512	0,00010564721
2	0	0	1	0	111135,5018	2,949157	2,94972467	-0,03852722784331833	7	0,0588731766	0,000113644717
2	0	0	1	0	111140,8026	2,8961482	2,89687061	-0,04195701988	7	0,0586591214	0,000121544057
2	0	0	0	0	111146,1036	2,84313965	2,84371424	-0,044867271760099526	7	0,0584281571	0,000127589694
2	0	0	0	0	111151,4044	2,79013062	2,79066443	-0,04715209758271344	7	0,0581829734	0,000131585679
2	0	0	0	0	111156,7052	2,73712254	2,73783302	-0,049761207455216947	7	0,0579254702	0,000136237883
2	0	0	1	0	111162,0062	2,68411398	2,68483663	-0,052894938814764211	7	0,0576536432	0,000142014265
2	0	0	1	0	111167,3070	2,63110542	2,63173747	-0,057513815997581875	7	0,0573618039	0,000151361266
2	0	0	1	0	111172,6078	2,57809687	2,5787766	-0,067177926836949453	7	0,057033021	0,000173236869
2	0	0	1	0	111177,9086	2,52508831	2,52576733	-0,085403075329613555	7	0,0566334464	0,000215708293
2	0	0	0	0	111183,2496	2,47167993	2,47237015	-0,11401884818311536	7	0,0561015606	0,000281896791
2	0	0	0	0	111188,5504	2,41867113	2,41950297	-0,13862177222553206	7	0,0554385036	0,000335395802
2	0	0	0	0	111193,8512	2,36566234	2,36630607	-0,17982044924671491	7	0,0545832366	0,000425510225
2	0	0	1	0	111199,1522	2,31265378	2,313519	-0,21469865185518832	7	0,0535378642	0,000496709428
2	0	0	1	0	111204,4530	2,25964522	2,26030898	-0,2619163920688945	7	0,0522684306	0,000592011958
2	0	0	1	0	111209,7538	2,20663691	2,20731258	-0,29100886697846605	7	0,0508115366	0,000642347557
2	0	0	1	0	111215,0546	2,15362835	2,15441442	-0,31354483651618195	7	0,0491855741	0,000675505493
2	0	0	0	0	111220,3556	2,10061955	2,10126185	-0,31401486039437907	7	0,0475018956	0,000659827434
2	0	0	0	0	111225,6564	2,04761147	2,04851961	-0,33447084130926208	7	0,0458041169	0,00068517006
2	0	0	0	0	111230,9572	1,99460256	1,99538529	-0,36314229850001568	7	0,0439396128	0,000724608777
2	0	0	1	0	111236,2582	1,94159424	1,94226396	-0,40366876918684723	7	0,0419482142	0,00078403129
2	0	0	1	0	111241,5590	1,88858557	1,8894279	-0,43457580047349344	7	0,039703954	0,000821099617
2	0	0	1	0	111246,8598	1,83557725	1,83619118	-0,48717554217135194	7	0,0372598916	0,00089454744
2	0	0	1	0	111252,1606	1,78256857	1,7831769	-0,53517006158276461	7	0,0345596299	0,000954302901
2	0	0	0	0	111257,4616	1,72956002	1,73024285	-0,60998099828484301	7	0,0315744206	0,00105541525
2	0	0	0	0	111262,7624	1,67655134	1,67699254	-0,69306254676646822	7	0,0282656066	0,00116226077
2	0	0	0	0	111268,0632	1,6235429	1,62417459	-0,68751071738423872	7	0,0246322714	0,00111663749
2	0	0	1	0	111273,3642	1,57053447	1,57134748	-0,75623145051023501	7	0,0208083428	0,00118830241
2	0	0	1	0	111278,6650	1,51752579	1,51834679	-0,74367674798878093	7	0,0167761091	0,00112915924
2	1	0	0	1	111283,8764	1,53452849	1,53516543	-0,71832696562287885	7	0,0128528727	0,00110275077
2	1	0	0	1	111289,1772	1,58753705	1,58837569	-0,63020823350934669	7	0,00937303156	0,00100100739
2	1	0	0	1	111294,4780	1,64054549	1,64115822	-0,51919829631569248	7	0,00640024338	0,000852086581
2	1	0	0	1	111299,7788	1,69355404	1,69422162	-0,44456417693032435	7	0,00383811234	0,000753190252
2	1	0	0	1	111301,1618	1,707407	1,70847464	-0,42406779069166899	7	0,00322724134	0,000724509067