File: Experimentelles/Ausgewaehlte_Daten/LiS/CV/LiS_Klein_Vollprogramm_08_CV_C01.mpt
EC-Lab ASCII FILE
Nb header lines : 77

Cyclic Voltammetry

Run on channel : 1 (SN 6985)
Grouped channel(s) : 1
User :
CE vs. WE compliance from -10 V to 10 V
Electrode connection : standard
Ewe ctrl range : min = 0,00 V, max = 5,00 V
Acquisition started on : 08/28/2015 15:57:10
Saved on :
	File : LiS_Klein_Vollprogramm_08_CV_C01.mpr
	Directory : C:\Gielisch\NeueZelle\LiS-Test\150828\
	Host : 192.168.0.2
Device : VMP3 (SN 0324)
Address : 192.168.0.1
EC-Lab for windows v10.33 (software)
Internet server v10.33 (firmware)
Command interpretor v10.32 (firmware)
Electrode material :
Initial state :
Electrolyte :
Comments :
Mass of active material : 0,001 mg
 at x = 0,000
Molecular weight of active material (at x = 0) : 0,001 g/mol
Atomic weight of intercalated ion : 0,001 g/mol
Acquisition started at : xo = 0,000
Number of e- transfered per intercalated ion : 1
for DX = 1, DQ = 26,801 mA.h
Battery capacity : 0,000 A.h
Electrode surface area : 0,001 cm²
Characteristic mass : 0,001 g
Ei (V)              0,000
vs.                 Eoc
dE/dt               10,000
dE/dt unit          mV/s
E1 (V)              2,800
vs.                 Ref
Step percent        50
N                   10
E range min (V)     0,000
E range max (V)     5,000
I Range             Auto
Bandwidth           5
E2 (V)              1,500
vs.                 Ref
nc cycles           0
Reverse Scan        1
Ef (V)              0,000
vs.                 Eoc

Modify on : 08/28/2015 16:00
E1 (V)              3,000
E2 (V)              1,000

Modify on : 08/28/2015 16:01
E1 (V)              3,500

Modify on : 08/28/2015 16:34
E2 (V)              0,800

Modify on : 08/28/2015 16:35
E1 (V)              3,800

Number of loops : 7
Loop 0 from point number 0 to 6000
Loop 1 from point number 6001 to 12000
Loop 2 from point number 12001 to 18000
Loop 3 from point number 18001 to 24000
Loop 4 from point number 24001 to 30001
Loop 5 from point number 30002 to 36002
Loop 6 from point number 36003 to 42003

mode	ox/red	error	control changes	counter inc.	time/s	control/V	Ewe/V	<I>/mA	cycle number	(Q-Qo)/C	P/W
2	1	0	0	0	499162,8954	1,71838415	1,71929204	1,6739178363422979E-006	1	0	2,87795365E-009
2	1	0	1	0	499170,8915	1,7983458	1,79884207	0,016412668052213766	1	6,59557845E-005	2,95237969E-005
2	1	0	1	0	499178,8926	1,87835729	1,87897587	0,03257637501142416	1	0,000261272973	6,12102231E-005
2	1	0	1	0	499186,8938	1,95836949	1,95895374	0,05596847111290304	1	0,000603877997	0,000109639645
2	1	0	1	0	499194,8950	2,03838134	2,03902054	0,090781659155187098	1	0,00119021581	0,000185105673
2	1	0	1	0	499202,9262	2,11869311	2,11920786	0,12876598266194339	1	0,00206926931	0,00027288188
2	1	0	1	0	499210,9274	2,19870472	2,19949317	0,17047431818381686	1	0,00326245395	0,000374957104
2	1	0	1	0	499218,9286	2,2787168	2,27927518	0,22216325201507558	1	0,00482262904	0,000506371201
2	1	0	1	0	499226,9298	2,35872889	2,3593154	0,28848817496111725	1	0,00685156882	0,000680634577
2	1	0	1	0	499234,9310	2,43874073	2,43935132	0,40782518733154214	1	0,0095708305	0,000994828879
2	1	0	1	0	499242,9322	2,51875257	2,51934719	0,55131297931075053	1	0,0133932335	0,00138894876
2	1	0	1	0	499250,9334	2,59876442	2,59919572	0,74221267323524032	1	0,0185606144	0,00192915602
2	1	0	1	0	499258,9346	2,67877626	2,6794188	0,96272674878992602	1	0,0253391992	0,00257954816
2	1	0	1	0	499266,9758	2,75918794	2,75977087	1,1946928487331978	1	0,0339986384	0,00329707842
2	1	0	1	0	499274,9770	2,83920002	2,83978891	1,4164567529051802	1	0,0444893166	0,00402243808
2	1	0	1	0	499282,9782	2,91921186	2,91965103	1,5977441444993162	1	0,056560792	0,00466485554
2	1	0	1	0	499290,9793	2,99922371	2,99992728	1,7420627389240336	1	0,0699009597	0,00522606168
2	1	0	1	0	499298,9805	3,07923555	3,07979393	1,9753055155828784	1	0,0846969709	0,0060835341
2	1	0	1	0	499306,9817	3,15924764	3,1599052	2,0990305733350355	1	0,101204455	0,00663273782
2	1	0	1	0	499314,9829	3,23925924	3,24002624	2,1014382221079798	1	0,118007824	0,00680871494
2	1	0	1	0	499322,9841	3,31927133	3,31982541	2,0509453269618694	1	0,134628862	0,0068087806
2	1	0	0	0	499330,9852	3,39928246	3,4001236	1,9855311293202256	1	0,150779054	0,00675105117
2	1	0	0	0	499338,9864	3,47929525	3,47999954	1,9187490049308237	1	0,166408688	0,00667724572
2	1	0	0	0	499346,9875	3,5593071	3,56003594	1,8443811240571754	1	0,181442097	0,00656606304
2	1	0	0	0	499354,9887	3,63931847	3,64000487	1,7745183869092534	1	0,195928469	0,0064592557
2	1	0	0	0	499362,9899	3,71933055	3,72021866	1,6968992578763107	1	0,209822118	0,00631283643
2	1	0	0	0	499370,9911	3,79934287	3,80006766	1,6269130314941478	1	0,223114133	0,00618237955
2	0	0	0	0	499378,8127	3,72243118	3,72317719	1,3311393637624285	1	0,234565243	0,00495606754
2	0	0	0	0	499386,8139	3,64241886	3,64316368	1,1323424591510331	1	0,244387478	0,00412530871
2	0	0	0	0	499394,8151	3,56240749	3,56310534	0,98173304647204774	1	0,252822101	0,00349801825
2	0	0	0	0	499402,8163	3,48239565	3,48306465	0,85768627803081946	1	0,260170698	0,00298737665
2	0	0	0	0	499410,8175	3,40238357	3,40324783	0,74449497019802675	1	0,266561508	0,00253370078
2	0	0	0	0	499418,8187	3,32237148	3,32302451	0,64464019439011725	1	0,272101432	0,00214215508
2	0	0	0	0	499426,8198	3,2423594	3,24305558	0,56125818613777587	1	0,276917994	0,00182019151
2	0	0	0	0	499434,8610	3,16194773	3,16265011	0,48769457969401843	1	0,281125873	0,00154240732
2	0	0	0	0	499442,8622	3,08193612	3,08252096	0,42065275101750157	1	0,28475523	0,00129667087
2	0	0	0	0	499450,8634	3,00192404	3,00255609	0,36106920832147213	1	0,287877917	0,00108413061
2	0	0	0	0	499458,8646	2,92191243	2,92246199	0,30794908792745267	1	0,290549934	0,000899969484
2	0	0	0	0	499466,8658	2,84190035	2,84241319	0,25900935388549318	1	0,292817354	0,000736211601
2	0	0	0	0	499474,8670	2,76188874	2,76260018	0,21124113478731843	1	0,294698238	0,000583574816
2	0	0	0	0	499482,8682	2,68187666	2,68247509	0,16321554631684688	1	0,296196818	0,00043782164
2	0	0	0	0	499490,8694	2,60186481	2,60240364	0,11223411739424605	1	0,29730019	0,000292078475
2	0	0	0	0	499498,8706	2,52185297	2,52231884	0,059259688878364083	1	0,297986746	0,000149471831
2	0	0	0	0	499506,9118	2,44144106	2,44200683	0,0053706918120884282	1	0,298245668	1,31152665E-005
2	0	0	0	0	499514,9930	2,36062908	2,36126685	-0,045017405094026298	1	0,298081845	0,000106298103
2	0	0	0	0	499522,9942	2,280617	2,28122592	-0,097938060997509875	1	0,29751569	0,000223418843
2	0	0	0	0	499531,0354	2,20020437	2,20082831	-0,16542570155609504	1	0,296470076	0,000364073581
2	0	0	1	0	499539,0365	2,120193	2,12073517	-0,26825215625542499	1	0,294769585	0,000568891759
2	0	0	1	0	499547,0376	2,04018164	2,04091859	-0,40843655507047494	1	0,292072207	0,000833585742
2	0	0	1	0	499555,0388	1,96016955	1,96070433	-0,52733455343101453	1	0,288298994	0,0010339471
2	0	0	1	0	499563,0399	1,88015783	1,88079345	-0,59665013090879526	1	0,283766419	0,00112217572
2	0	0	1	0	499571,0411	1,80014563	1,80064619	-0,61494774536955085	1	0,278878361	0,00110730331
2	0	0	1	0	499579,0423	1,7201339	1,72069073	-0,58858436028715328	1	0,27403456	0,00101277162
2	0	0	1	0	499587,0435	1,64012194	1,64069486	-0,53726433162334611	1	0,2695252	0,000881486805
2	0	0	1	0	499595,0447	1,56011021	1,56063676	-0,48933467089577498	1	0,265415341	0,000763673685
2	0	0	1	0	499603,0459	1,48009837	1,48075688	-0,45253437750593626	1	0,261651218	0,000670093403
2	0	0	1	0	499611,0471	1,4000864	1,40071654	-0,41099632772858643	1	0,258210659	0,000575689366
2	0	0	1	0	499619,0483	1,32007468	1,32055151	-0,4041002153384521	1	0,254940987	0,000533635146
2	0	0	1	0	499627,0495	1,24006271	1,24073839	-0,40022997730585709	1	0,251723975	0,000496580673
2	0	0	1	0	499635,0507	1,16005075	1,16063118	-0,41890128322499187	1	0,248462886	0,000486189878
2	0	0	1	0	499643,0519	1,08003902	1,08056426	-0,42996932904202899	1	0,245067418	0,000464609504
2	0	0	1	0	499651,0531	1,00002694	1,00049722	-0,44039210677146848	1	0,241586193	0,000440611067
2	0	0	1	0	499659,0543	0,920015275	0,920501471	-0,45258642057026323	1	0,237995625	0,000416606461
2	0	0	1	0	499667,0555	0,840003371	0,840541422	-0,47522421926258842	1	0,234273046	0,000399445649
2	1	0	1	1	499674,9071	0,838603139	0,839115679	-0,45508889709082912	1	0,230531007	0,000381872233
2	1	0	1	1	499682,9083	0,918614984	0,919120312	-0,4036869849595881	1	0,22711125	0,000371036906
2	1	0	1	1	499690,9095	0,998626947	0,999133885	-0,36000951345043661	1	0,224054322	0,000359697704
2	1	0	1	1	499698,9106	1,07863879	1,07929897	-0,3157124881874105	1	0,221351355	0,000340748171
2	1	0	1	1	499706,9118	1,15865064	1,15927243	-0,27364635422687606	1	0,218995214	0,000317230675
2	1	0	1	1	499714,9130	1,2386626	1,23931277	-0,2324212997875903	1	0,216971248	0,000288042676
2	1	0	1	1	499722,9142	1,31867445	1,31916606	-0,19087664658824445	1	0,215275079	0,000251797988
2	1	0	1	1	499730,9154	1,39868617	1,39922404	-0,14747656590339386	1	0,213920817	0,00020635275
2	1	0	1	1	499738,9166	1,47869813	1,47936249	-0,10408659012022082	1	0,212915763	0,000153981804
2	1	0	1	1	499746,9178	1,55870986	1,559376	-0,063855680188648294	1	0,212248072	9,95750161E-005
2	1	0	1	1	499754,9590	1,63912177	1,63958979	-0,030335990380046976	1	0,211874276	4,97385809E-005
2	1	0	1	1	499762,8828	1,71838415	1,71889114	-0,0034715986112132806	1	0,2117441	5,96730024E-006
2	1	0	1	0	499770,9695	1,79864633	1,79921663	0,020297027917193859	2	6,81859674E-005	3,65187516E-005
2	1	0	1	0	499778,9706	1,87865758	1,87922966	0,044732408960247661	2	0,000326935726	8,40624707E-005
2	1	0	1	0	499786,9718	1,9586693	1,95923436	0,072614087404130227	2	0,000793769723	0,000142268022
2	1	0	1	0	499795,0030	2,0389812	2,03957319	0,10984103488563602	2	0,0015162878	0,00022402883
2	1	0	1	0	499803,0042	2,11899304	2,11959124	0,15339056893976032	2	0,00257906783	0,000325125293
2	1	0	1	0	499811,0054	2,19900489	2,19968486	0,19697574964138154	2	0,00397967314	0,000433284586
2	1	0	1	0	499819,0066	2,27901673	2,27965379	0,24891742787979075	2	0,00576022593	0,000567445531
2	1	0	1	0	499827,0078	2,35902858	2,35968518	0,30487490369490458	2	0,00797250308	0,000719408796
2	1	0	1	0	499835,0089	2,4390409	2,43960094	0,36494643744769562	2	0,0106485588	0,000890323659
2	1	0	1	0	499843,0101	2,51905227	2,51975679	0,41820413846934733	2	0,0137921581	0,00105377275
2	1	0	1	0	499851,0113	2,59906459	2,59951663	0,47775625775533427	2	0,0173598528	0,0012419353
2	1	0	1	0	499859,0125	2,67907643	2,67968607	0,5735081489439415	2	0,0215373486	0,00153682183
2	1	0	1	0	499867,0137	2,75908852	2,75979781	0,69905550771013747	2	0,0266157836	0,00192925183
2	1	0	1	0	499875,0149	2,83909988	2,83979797	0,85428932792061824	2	0,0328257345	0,00242600916
2	1	0	1	0	499883,0561	2,9195118	2,91991401	1,0332181129466314	2	0,0404143631	0,00301690795
2	1	0	1	0	499891,0573	2,99952364	2,99998951	1,2499077409782035	2	0,049505163	0,00374971004
2	1	0	1	0	499899,0585	3,07953572	3,08022642	1,3437497487498619	2	0,0600735508	0,00413905364
2	1	0	1	0	499907,0597	3,15954733	3,16019082	1,3378112656926931	2	0,070815675	0,00422773883
2	1	0	1	0	499915,0609	3,23955917	3,24017334	1,2955012510496253	2	0,0813603327	0,00419764873
2	1	0	0	0	499923,0620	3,31957006	3,32013226	1,2327839357356094	2	0,0914938524	0,00409300579
2	1	0	1	0	499931,0633	3,39958405	3,40021563	1,161744608788081	2	0,101060309	0,00395018235
2	1	0	0	0	499939,0643	3,47959447	3,48019576	1,095542775358437	2	0,110084057	0,0038127033
2	1	0	0	0	499947,0655	3,55960679	3,56029844	1,0310026234774786	2	0,118591219	0,00367067708
2	1	0	0	0	499955,0667	3,63961887	3,6402452	0,9370374239429431	2	0,12645103	0,003411046
2	1	0	0	0	499963,0678	3,71963048	3,72039676	0,87881609452545818	2	0,133691296	0,00326954457
2	1	0	0	0	499971,0590	3,79954267	3,79993725	0,86212915856213274	2	0,140619591	0,00327603659
2	0	0	1	0	499978,9608	3,7214303	3,7221694	0,63570296648574451	2	0,146436229	0,00236619404
2	0	0	0	0	499987,0018	3,64102054	3,64177585	0,49039854386991168	2	0,150919661	0,00178592151
2	0	0	0	0	499995,0031	3,56100607	3,56175494	0,39034007607843078	2	0,154416606	0,00139029569
2	0	0	0	0	500003,0042	3,48099518	3,48160386	0,31585764043308819	2	0,157228917	0,00109969114
2	0	0	0	0	500011,0054	3,4009831	3,40180445	0,26163095322058627	2	0,159522623	0,000890017312
2	0	0	0	0	500019,0066	3,32097149	3,32175922	0,21442765428650733	2	0,161413863	0,000712277018
2	0	0	0	0	500027,0078	3,24095941	3,24168825	0,17664340078072022	2	0,162972778	0,000572622812
2	0	0	0	0	500035,0090	3,1609478	3,1616652	0,14349120736329179	2	0,164249882	0,000453671149
2	0	0	0	0	500043,0102	3,08093572	3,08150458	0,1141822368975889	2	0,165278882	0,000351853087
2	0	0	0	0	500051,0114	3,00092435	3,00148702	0,087412917977890419	2	0,166082963	0,000262368732
2	0	0	0	0	500059,0126	2,92091203	2,92139769	0,062729604128332454	2	0,166681603	0,000183258118
2	0	0	0	0	500067,0538	2,84050035	2,8410542	0,039385466560444947	2	0,167091027	0,000111896246
2	0	0	0	0	500075,0550	2,76048827	2,76091146	0,017448182896865894	2	0,167317182	4,81728894E-005
2	0	0	0	0	500083,0962	2,68007636	2,68058157	-0,0031788080183712262	2	0,167373419	8,52105404E-006
2	0	0	0	0	500091,1374	2,59966445	2,6002605	-0,025169680757379907	2	0,167261511	6,54477262E-005
2	0	0	0	0	500099,1385	2,51965261	2,52027416	-0,050302614345802189	2	0,166961312	0,000126776373
2	0	0	0	0	500107,1397	2,43964076	2,44022918	-0,07880844056813152	2	0,166447565	0,000192310661
2	0	0	0	0	500115,1809	2,35922885	2,35994792	-0,11412505588183608	2	0,165677845	0,000269329175
2	0	0	0	0	500123,1821	2,279217	2,27971625	-0,16419057815370096	2	0,164573848	0,000374307943
2	0	0	0	0	500131,1833	2,19920516	2,19992113	-0,21948669050578218	2	0,163033679	0,000482853415
2	0	0	0	0	500139,1845	2,11919308	2,11972475	-0,28774607202245277	2	0,161016718	0,000609942479
2	0	0	0	0	500147,1857	2,03918123	2,03982711	-0,36606481316050707	2	0,158406183	0,000746708945
2	0	0	0	0	500155,1869	1,95916951	1,95959532	-0,43903078621737632	2	0,155159131	0,000860322674
2	0	0	1	0	500163,1880	1,87915838	1,87978256	-0,47953832645550554	2	0,151448861	0,00090142776
2	0	0	1	0	500171,1891	1,79914546	1,79955006	-0,48896126897521965	2	0,1475261	0,000879910251
2	0	0	1	0	500179,1903	1,71913373	1,71976817	-0,47891114238236819	2	0,143629745	0,000823616108
2	0	0	1	0	500187,1915	1,63912189	1,63946962	-0,46964251008575706	2	0,139836252	0,000769964652
2	0	0	1	0	500195,1927	1,55911005	1,55962527	-0,44970659318346138	2	0,136196256	0,000701373792
2	0	0	1	0	500203,1939	1,4790982	1,4795897	-0,44260748054971802	2	0,13265191	0,000654877455
2	0	0	1	0	500211,1951	1,39908636	1,39979875	-0,43558914869746522	2	0,129120708	0,000609737122
2	0	0	1	0	500219,1963	1,31907451	1,3197273	-0,45175723938479706	2	0,125549093	0,000596196391
2	0	0	1	0	500227,1975	1,23906267	1,23966026	-0,47791698637108064	2	0,121791296	0,000592454686
2	0	0	1	0	500235,1986	1,15905058	1,15961552	-0,49820921894301498	2	0,117932148	0,000577731116
2	0	0	1	0	500243,1998	1,07903886	1,07967329	-0,51277673058211334	2	0,113897733	0,00055363134
2	0	0	1	0	500251,2010	0,999027014	0,999347746	-0,5223702140566391	2	0,10975492	0,00052202947
2	0	0	1	0	500259,2022	0,91901511	0,919583738	-0,52126972204832	2	0,105576418	0,000479351147
2	0	0	1	0	500267,2034	0,839003146	0,839481056	-0,53209663023827994	2	0,101353198	0,000446685037
2	1	0	1	1	500275,0550	0,839603305	0,840300739	-0,50272046650448934	2	0,0972143412	0,000422436366
2	1	0	1	1	500283,0562	0,919615209	0,920336604	-0,44354029399930541	2	0,0934531316	0,000408206368
2	1	0	1	1	500291,0574	0,999627113	1,00006509	-0,39886943561334221	2	0,0900808647	0,000398895383
2	1	0	1	1	500299,0586	1,07963884	1,08024788	-0,3573894847046439	2	0,0870577618	0,000386069238
2	1	0	1	1	500307,0598	1,15965068	1,16007435	-0,32078262225344909	2	0,0843484178	0,000372131704
2	1	0	1	1	500315,0610	1,23966265	1,24027944	-0,28217557800451898	2	0,0819370225	0,000349976559
2	1	0	1	1	500323,0622	1,31967461	1,32019055	-0,24395758462034499	2	0,0798319951	0,000322070497
2	1	0	1	1	500331,0634	1,39968646	1,40036464	-0,2060881322594761	2	0,0780313686	0,00028859853
2	1	0	1	1	500339,0646	1,4796983	1,48034692	-0,16682105147521443	2	0,0765392184	0,000246953015
2	1	0	1	1	500347,0658	1,55971014	1,56032932	-0,12524541027637248	2	0,0753718019	0,000195424087
2	1	0	1	1	500355,0670	1,63972199	1,64022696	-0,083981185565114918	2	0,0745336562	0,000137748211
2	1	0	0	1	500362,9790	1,71888423	1,71905148	-0,045039776712656019	2	0,0740295202	7,74256914E-005
2	1	0	1	0	500370,9755	1,79794562	1,79840052	-0,013878052133670019	3	-0,000227940065	2,49582954E-005
2	1	0	1	0	500379,0567	1,87875748	1,87940335	0,012928824065494672	3	-0,000229126934	2,42984752E-005
2	1	0	1	0	500387,0579	1,95876944	1,95913613	0,037480515790068838	3	-2,65753279E-005	7,34294299E-005
2	1	0	1	0	500395,0591	2,0387814	2,03931475	0,061854531195153498	3	0,000370660156	0,000126140862
2	1	0	1	0	500403,0603	2,11879301	2,11935496	0,08798728502976649	3	0,00096840912	0,000186476289
2	1	0	1	0	500411,0915	2,19910502	2,19979167	0,12009135214612155	3	0,00179994339	0,000264175964
2	1	0	1	0	500419,0927	2,27911687	2,27967167	0,16054204294320384	3	0,00291706389	0,000365983142
2	1	0	1	0	500427,0939	2,35912895	2,35973406	0,21038490516582115	3	0,00439854199	0,000496452441
2	1	0	1	0	500435,0951	2,43914056	2,43977022	0,271115967314004	3	0,00631938828	0,000661460683
2	1	0	1	0	500443,0963	2,5191524	2,51990819	0,33575599606113914	3	0,00873271935	0,000846074312
2	1	0	1	0	500451,0975	2,59916449	2,59977055	0,40687485894671795	3	0,0116899675	0,00105778128
2	1	0	1	0	500459,0987	2,67917633	2,67981982	0,48849581002636275	3	0,0152700571	0,00130908075
2	1	0	1	0	500467,0999	2,75918841	2,75989604	0,58855162485053466	3	0,0195668414	0,00162434136
2	1	0	1	0	500475,1011	2,83919978	2,83990908	0,70290347837186573	3	0,0247310717	0,00199618191
2	1	0	1	0	500483,1023	2,91921186	2,91978478	0,82691642683416333	3	0,0308430437	0,00241441792
2	1	0	1	0	500491,1435	2,99962401	3,00029278	1,0035760094997918	3	0,038174659	0,00301102176
2	1	0	1	0	500499,1446	3,07963562	3,08013225	1,1072361836278973	3	0,0466581434	0,00341043388
2	1	0	1	0	500507,1458	3,15964723	3,16029763	1,1268996074795661	3	0,0556319803	0,00356133818
2	1	0	1	0	500515,1470	3,23965931	3,24036431	1,1148227410460026	3	0,0646249354	0,00361243193
2	1	0	1	0	500523,1482	3,31967163	3,32038331	1,051943201046539	3	0,07329835	0,00349285454
2	1	0	0	0	500531,1492	3,39968204	3,40044904	0,98825815432899059	3	0,0814482644	0,00336052151
2	1	0	0	0	500539,1505	3,47969556	3,48038387	0,91745589838342579	3	0,0891142711	0,00319309882
2	1	0	0	0	500547,1516	3,55970669	3,56037903	0,83530028274767437	3	0,0961741954	0,00297398563
2	1	0	0	0	500555,1528	3,63971877	3,64043665	0,75599312216595482	3	0,102517292	0,00275214505
2	1	0	0	0	500563,1540	3,71973038	3,72052598	0,69448987684314816	3	0,108300813	0,00258386764
2	1	0	0	0	500571,1402	3,79959273	3,80016375	0,66337185839398784	3	0,113669731	0,00252092164
2	0	0	1	0	500579,0770	3,72103095	3,72171593	0,46530576522426246	3	0,118080832	0,00173173589
2	0	0	0	0	500587,0781	3,64101958	3,64155531	0,34401984042225478	3	0,121288784	0,00125276728
2	0	0	0	0	500595,0793	3,56100655	3,56171513	0,25906217935180464	3	0,123676941	0,000922705687
2	0	0	0	0	500603,0804	3,4809947	3,48171544	0,2000219932653824	3	0,125506803	0,00069641968
2	0	0	0	0	500611,0816	3,40098333	3,40184832	0,15440974089628102	3	0,126913533	0,000525278505
2	0	0	0	0	500619,0828	3,32097149	3,32166123	0,11816437250968904	3	0,127995178	0,000392502028
2	0	0	0	0	500627,0840	3,24095941	3,24162984	0,089342525470311078	3	0,128822371	0,000289615389
2	0	0	0	0	500635,0851	3,1609478	3,16153622	0,063798287141793587	3	0,129432723	0,00020170059
2	0	0	0	0	500643,1263	3,08053613	3,08097029	0,040797756182858854	3	0,129853576	0,000125696679
2	0	0	0	0	500651,1275	3,00052404	3,00114369	0,019256515741020662	3	0,130093172	5,77915707E-005
2	0	0	0	0	500659,1687	2,92011237	2,92068911	-0,00095888039396850931	3	0,130165607	2,80059157E-006
2	0	0	0	0	500667,2099	2,83970022	2,8402791	-0,019461836592569718	3	0,130082041	5,52770471E-005
2	0	0	0	0	500675,2111	2,75968814	2,76020336	-0,035574206370964755	3	0,12985976	9,81920457E-005
2	0	0	0	0	500683,2123	2,67967629	2,68026972	-0,049419759315678656	3	0,129518032	0,000132458284
2	0	0	0	0	500691,2135	2,59966469	2,6000154	-0,062135761715815923	3	0,129071578	0,000161553937
2	0	0	0	0	500699,2147	2,51965261	2,52022004	-0,078473405679687744	3	0,128511742	0,000197770249
2	0	0	0	0	500707,2459	2,43934083	2,43995285	-0,10249931887826858	3	0,12778987	0,000250093493
2	0	0	0	0	500715,2471	2,35932899	2,35986352	-0,13363966813173533	3	0,126849562	0,000315371377
2	0	0	0	0	500723,2483	2,2793169	2,27981424	-0,16968251309460934	3	0,125636369	0,000386844622
2	0	0	0	0	500731,2495	2,19930482	2,19991636	-0,21136793376946794	3	0,124108031	0,000464991783
2	0	0	0	0	500739,2507	2,11929321	2,11984968	-0,23773711843899149	3	0,122302026	0,000503966934
2	0	0	0	0	500747,2519	2,03928137	2,03996086	-0,2740434028760097	3	0,120264024	0,000559037842
2	0	0	0	0	500755,2531	1,95926952	1,95968401	-0,30633739323390509	3	0,117965922	0,000600324478
2	0	0	0	0	500763,2543	1,87925768	1,87985349	-0,3309523405258745	3	0,115415089	0,000622141932
2	0	0	1	0	500771,2552	1,7992456	1,79978204	-0,35183154246596704	3	0,112670518	0,000633220072
2	0	0	1	0	500779,2564	1,71923375	1,7198441	-0,35552928179364262	3	0,109833926	0,000611454947
2	0	0	1	0	500787,2576	1,63922203	1,63967454	-0,37207241480547635	3	0,106899798	0,000610077695
2	0	0	1	0	500795,2588	1,55921006	1,55965209	-0,37363906111567149	3	0,103941225	0,000582746929
2	0	0	1	0	500803,2600	1,47919822	1,47979903	-0,38400676991376506	3	0,100954212	0,000568252872
2	0	0	1	0	500811,2612	1,39918637	1,39964283	-0,38762538407551437	3	0,0978713036	0,000542537076
2	0	0	1	0	500819,2624	1,31917441	1,31971848	-0,41092753900145997	3	0,0946636498	0,00054230867
2	0	0	1	0	500827,2636	1,23916245	1,23972273	-0,43646354021297638	3	0,0912626535	0,000541093759
2	0	0	1	0	500835,2648	1,1591506	1,15969574	-0,44921512336089722	3	0,0876883194	0,000520952861
2	0	0	1	0	500843,2660	1,07913888	1,07979357	-0,47369406855215245	3	0,0839872882	0,000511491788
2	0	0	1	0	500851,2672	0,99912703	0,999588251	-0,49053357927886496	3	0,0801178738	0,000490331615
2	0	0	1	0	500859,2684	0,919115126	0,91970402	-0,50031452391434605	3	0,0761385933	0,00046014128
2	0	0	1	0	500867,2696	0,839103281	0,839601278	-0,52137906463058048	3	0,0720761418	0,000437750539
2	1	0	1	1	500875,1312	0,839603305	0,840149343	-0,48721190141858182	3	0,068086192	0,000409330765
2	1	0	1	1	500883,1324	0,919615209	0,920332134	-0,43480429356849613	3	0,0644236133	0,000400164368
2	1	0	1	1	500891,1336	0,999627054	1,00015867	-0,39222154607651968	3	0,0611252151	0,000392283779
2	1	0	1	1	500899,1348	1,07963884	1,08025682	-0,35695801175165978	3	0,0581298731	0,000385606312
2	1	0	1	1	500907,1359	1,15965068	1,16022146	-0,32437515848627066	3	0,0554057807	0,000376347016
2	1	0	1	1	500915,1371	1,23966277	1,24023497	-0,28945302269938278	3	0,052951999	0,000358989753
2	1	0	1	1	500923,1383	1,31967461	1,32010603	-0,25768825718788557	3	0,0507653207	0,000340175815
2	1	0	1	1	500931,1395	1,39968657	1,40028882	-0,22493747687311805	3	0,0488366485	0,000314977427
2	1	0	1	1	500939,1407	1,47969818	1,48027575	-0,19161557842528797	3	0,0471690074	0,000283643894
2	1	0	1	1	500947,1419	1,55971026	1,56038725	-0,15880014278270749	3	0,0457658395	0,000247789721
2	1	0	1	1	500955,1431	1,63972211	1,6402539	-0,12479179102444915	3	0,044631049	0,000204690223
2	1	0	0	1	500963,0711	1,71908426	1,72025442	-0,09116209463940727	3	0,0437748022	0,000156822003
2	1	0	1	0	500971,0677	1,79914546	1,79965711	-0,057975804372864422	4	-0,000586008595	0,00010433657
2	1	0	1	0	500979,0689	1,87915742	1,87958598	-0,026600909177904752	4	-0,000922377687	4,99986963E-005
2	1	0	1	0	500987,1101	1,95956945	1,96013439	0,0024267525856244931	4	-0,00101829704	4,75676097E-006
2	1	0	1	0	500995,1513	2,03998137	2,04069591	0,031089950391712666	4	-0,000883997243	6,34451353E-005
2	1	0	1	0	501003,1525	2,11999321	2,1204865	0,062151300143107328	4	-0,000513496285	0,000131790992
2	1	0	1	0	501011,1537	2,20000505	2,20067859	0,099473077717614707	4	0,000128674263	0,000218908273
2	1	0	1	0	501019,1849	2,28031707	2,28084803	0,1455342313792135	4	0,0011071685	0,000331941468
2	1	0	1	0	501027,1861	2,36032891	2,36089706	0,19892855047213792	4	0,00248358399	0,000469649822
2	1	0	1	0	501035,1873	2,44034076	2,44095969	0,25491475603646797	4	0,00429661199	0,000622236636
2	1	0	1	0	501043,1884	2,5203526	2,52098227	0,31044131296652378	4	0,00655795168	0,000782617019
2	1	0	1	0	501051,1896	2,60036469	2,60097337	0,37016888269811507	4	0,00927461125	0,000962799415
2	1	0	1	0	501059,1908	2,68037629	2,68103623	0,4363466105251561	4	0,0125011764	0,00116986106
2	1	0	1	0	501067,1920	2,76038861	2,76104045	0,51375573204347488	4	0,0162832234	0,00141850032
2	1	0	1	0	501075,1932	2,84039998	2,84108543	0,60360788636738278	4	0,0207398944	0,00171490153
2	1	0	1	0	501083,1944	2,92041183	2,92112136	0,7151942491806871	4	0,02597652	0,00208916911
2	1	0	1	0	501091,1956	3,00042391	3,00100112	0,86229054298664026	4	0,0322602019	0,00258773495
2	1	0	1	0	501099,1968	3,08043575	3,0811038	0,97992075745154586	4	0,0396494158	0,00301923766
2	1	0	1	0	501107,2280	3,16074777	3,16132689	1,0109045889090886	4	0,0477042384	0,00319579989
2	1	0	1	0	501115,2292	3,24075937	3,24140716	0,98160777580957338	4	0,0557042733	0,00318179047
2	1	0	0	0	501123,2303	3,32077074	3,32135749	0,91517659324599168	4	0,0633326843	0,00303962873
2	1	0	0	0	501131,2315	3,40078378	3,40153742	0,83678877306115674	4	0,0703500137	0,00284636836
2	1	0	0	0	501139,2326	3,48079515	3,48144817	0,6883614058454313	4	0,076465711	0,00239649462
2	1	0	0	0	501147,2338	3,56080675	3,56149268	0,58751154621994138	4	0,0815099254	0,00209241803
2	1	0	0	0	501155,2350	3,64081907	3,6416533	0,5381941725672377	4	0,0859904289	0,00195991667
2	1	0	0	0	501163,2362	3,72083092	3,72151995	0,50989860103087123	4	0,0901636407	0,0018975978
2	0	0	0	0	501171,1527	3,79999352	3,80054522	0,52311854866834739	4	0,0942285433	0,00198813574
2	0	0	0	0	501179,1489	3,72003055	3,72078919	0,3664421650270553	4	0,0977181643	0,00136345404
2	0	0	0	0	501187,1501	3,64001846	3,6406951	0,27095778948730586	4	0,100242302	0,000986474683
2	0	0	0	0	501195,1513	3,5600071	3,56081533	0,20091523154190432	4	0,102113053	0,000715422037
2	0	0	0	0	501203,1525	3,47999477	3,48069477	0,14989184845169357	4	0,103505157	0,000521727779
2	0	0	0	0	501211,1537	3,39998317	3,40077066	0,1109742942480052	4	0,104545854	0,00037739813
2	0	0	1	0	501219,1547	3,3199718	3,32068539	0,080336465763299341	4	0,105307922	0,000266772142
2	0	0	1	0	501227,1560	3,239959	3,24059153	0,054920790586672429	4	0,105845973	0,000177975846
2	0	0	1	0	501235,1971	3,15954733	3,16020441	0,033294607523001453	4	0,10619773	0,000105217769
2	0	0	1	0	501243,1983	3,07953572	3,08002567	0,014365485442491528	4	0,106386967	4,42460623E-005
2	0	0	1	0	501251,2395	2,99912357	2,99961138	-0,0034741320069533178	4	0,106429942	1,04210458E-005
2	0	0	1	0	501259,2807	2,9187119	2,91909409	-0,02073697598340657	4	0,106332406	6,05331843E-005
2	0	0	1	0	501267,2819	2,83870006	2,83936119	-0,038621246530156806	4	0,106095023	0,000109659668
2	0	0	1	0	501275,2831	2,75868821	2,75914717	-0,057407364206112736	4	0,105710186	0,000158395371
2	0	0	1	0	501283,2843	2,67867613	2,67924047	-0,075805239275924646	4	0,105177253	0,00020310047
2	0	0	1	0	501291,2855	2,59866452	2,59914684	-0,092339469283748365	4	0,104501642	0,000240003836
2	0	0	1	0	501299,3267	2,51825237	2,51895046	-0,10239206328643197	4	0,103712991	0,000257920532
2	0	0	1	0	501307,3278	2,43824053	2,43887019	-0,11498687687088038	4	0,102844208	0,000280438078
2	0	0	1	0	501315,3290	2,35822868	2,35886121	-0,13304817581687523	4	0,101855323	0,000313842174
2	0	0	1	0	501323,3302	2,2782166	2,27866054	-0,15409785046897094	4	0,100706853	0,000351136696
2	0	0	1	0	501331,3314	2,19820499	2,19884706	-0,17379587050527645	4	0,0993914902	0,000382150552
2	0	0	1	0	501339,3326	2,11819291	2,11882043	-0,19751715197882992	4	0,0978918895	0,00041850339
2	0	0	1	0	501347,3338	2,0381813	2,03884697	-0,21002553948374291	4	0,0962527022	0,000428209925
2	0	0	1	0	501355,3350	1,9581691	1,95875323	-0,22473962146236605	4	0,0945167243	0,000440209464
2	0	0	1	0	501363,3362	1,87815738	1,87885535	-0,24576031226941142	4	0,0926464424	0,000461748074
2	0	0	1	0	501371,3374	1,79814541	1,79863238	-0,2639785077146919	4	0,0906012207	0,000474800298
2	0	0	1	0	501379,3386	1,71813357	1,71862328	-0,27913170438948986	4	0,0884234011	0,00047972225
2	0	0	1	0	501387,3398	1,63812184	1,63855171	-0,29574196502565632	4	0,0861066952	0,000484588498
2	0	0	0	0	501395,3409	1,55810893	1,55866647	-0,30338551603834938	4	0,0837104842	0,000472876825
2	0	0	0	0	501403,3420	1,47809803	1,47861826	-0,33104118346063904	4	0,0811644644	0,000489483529
2	0	0	0	0	501411,3432	1,39808619	1,39859581	-0,33736276305797651	4	0,0785226226	0,000471834152
2	0	0	0	0	501419,3444	1,31807423	1,3185333	-0,37410475192937478	4	0,0756581202	0,000493269588
2	0	0	0	0	501427,3456	1,23806238	1,23882258	-0,41088840993190611	4	0,0725780204	0,000509017846
2	0	0	0	0	501435,3468	1,15805054	1,15862632	-0,43459888002663936	4	0,0692301914	0,000503537711
2	0	0	0	0	501443,3479	1,07803869	1,07869732	-0,4480158153369529	4	0,0657152012	0,00048327347
2	0	0	0	0	501451,3491	0,998026848	0,998443305	-0,45873476999503283	4	0,0620828606	0,000458020659
2	0	0	0	0	501459,3503	0,918015003	0,918763936	-0,48123971227970899	4	0,0583172664	0,000442145683
2	0	0	0	0	501467,3515	0,838003159	0,83862561	-0,50015802205438221	4	0,0544323735	0,000419445336
2	1	0	0	1	501475,2031	0,84060353	0,841138363	-0,46282117234334752	4	0,0506142341	0,000389296649
2	1	0	0	1	501483,2043	0,920615256	0,921054006	-0,41734781730229984	4	0,0471260101	0,000384399871
2	1	0	0	1	501491,2055	1,00062716	1,00114334	-0,37220071880491187	4	0,043965444	0,000372626266
2	1	0	0	1	501499,2067	1,08063912	1,08118784	-0,33722589137378336	4	0,0411113948	0,000364604522
2	1	0	0	1	501507,2079	1,16065097	1,16128612	-0,31001442122375968	4	0,038531784	0,00036001543
2	1	0	0	1	501515,2091	1,24066281	1,24111271	-0,2790907245405272	4	0,036184974	0,000346383051
2	1	0	0	1	501523,2103	1,32067466	1,32125998	-0,24874313900039712	4	0,0340764225	0,000328654365
2	1	0	0	1	501531,2115	1,4006865	1,40126014	-0,21717421268974845	4	0,0322055034	0,000304317567
2	1	0	0	1	501539,2127	1,48069847	1,48127806	-0,18686444270941306	4	0,0305883493	0,000276798208
2	1	0	0	1	501547,2139	1,56071043	1,56133616	-0,15578220905391094	4	0,0292169396	0,000243228395
2	1	0	0	1	501555,2151	1,64072216	1,64133644	-0,1246055403931241	4	0,028095657	0,000204519616
2	1	0	0	1	501563,1633	1,72028446	1,72089601	-0,091642870008945446	4	0,027237799	0,000157707851
2	1	0	1	0	501571,1599	1,79974568	1,80030751	-0,059587375735172582	5	-0,000596071419	0,000107275599
2	1	0	1	0	501579,1610	1,87975764	1,88045931	-0,028758621416745123	5	-0,00094782724	5,40794172E-005
2	1	0	1	0	501587,2022	1,96016955	1,96069133	-6,8863753282657664E-005	5	-0,00106236571	1,35020571E-007
2	1	0	1	0	501595,2434	2,04058123	2,04107451	0,027907603428941386	5	-0,000950644026	5,69614967E-005
2	1	0	1	0	501603,2446	2,12059355	2,12113714	0,057930392989266726	5	-0,00060974434	0,000122878308
2	1	0	1	0	501611,2458	2,20060515	2,20134664	0,092492980158161101	5	-1,08514278E-005	0,000203609117
2	1	0	1	0	501619,2770	2,28091717	2,2814672	0,13420186871317707	5	0,000894298544	0,000306177157
2	1	0	1	0	501627,2782	2,36092901	2,361619	0,18101424982565018	5	0,00215331488	0,000427486695
2	1	0	1	0	501635,2794	2,44094086	2,44150352	0,22993473384391194	5	0,00379791693	0,000561386463
2	1	0	1	0	501643,2806	2,5209527	2,52153015	0,27911785817533462	5	0,00583717274	0,000703804079
2	1	0	1	0	501651,2818	2,60096478	2,60160637	0,33196746906334118	5	0,00827707816	0,00086364866
2	1	0	1	0	501659,2830	2,68097639	2,6815753	0,38961386832373824	5	0,0111506693	0,00104477897
2	1	0	1	0	501667,2842	2,76098847	2,76154876	0,4573151856936848	5	0,0145380106	0,00126289821
2	1	0	1	0	501675,2854	2,84100008	2,84157515	0,52745179976852083	5	0,0184587687	0,00149879395
2	1	0	1	0	501683,2866	2,92101216	2,92160249	0,62247306101576781	5	0,0230594017	0,00181861885
2	1	0	1	0	501691,2878	3,00102401	3,00144243	0,75775054938818803	5	0,0285542477	0,00227434468
2	1	0	1	0	501699,2890	3,08103609	3,08162975	0,89088468681329933	5	0,0351496413	0,00274537667
2	1	0	1	0	501707,2901	3,1610477	3,16161633	0,95180320808732685	5	0,0425780974	0,00300923665
2	1	0	0	0	501715,2912	3,24105883	3,24165225	0,88664895331522547	5	0,0499818511	0,00287420768
2	1	0	1	0	501723,2925	3,3210721	3,32176447	0,75811736304757376	5	0,056568291	0,00251828739
2	1	0	0	0	501731,2935	3,40108299	3,40176392	0,57393974477074528	5	0,0619181246	0,00195240753
2	1	0	0	0	501739,2947	3,48109555	3,48184872	0,50206814237212781	5	0,0661355481	0,0017481253
2	1	0	0	0	501747,2959	3,56110716	3,56179118	0,4813221340516112	5	0,0700573102	0,00171436893
2	1	0	0	0	501755,2971	3,64111876	3,64179134	0,46199749092811616	5	0,0738099888	0,00168249849
2	1	0	0	0	501763,2983	3,72113109	3,72194314	0,45392905575810618	5	0,0774612948	0,00168949808
2	0	0	0	0	501771,1849	3,79999352	3,800385	0,46472547145990227	5	0,0810624957	0,00176613568
2	0	0	0	0	501779,1411	3,72043037	3,7212255	0,3228106584951913	5	0,084151797	0,00120125129
2	0	0	0	0	501787,1423	3,64041924	3,64130139	0,23336132629601504	5	0,0863589495	0,00084973895
2	0	0	0	0	501795,1435	3,56040716	3,56113625	0,17239387633486358	5	0,0879661366	0,000613918062
2	0	0	0	0	501803,1447	3,48039484	3,48095345	0,12662959367865234	5	0,089153938	0,000440791715
2	0	0	0	0	501811,1459	3,400383	3,40109134	0,092191135872981888	5	0,0900241733	0,000313550467
2	0	0	1	0	501819,1470	3,32037139	3,32111835	0,063945993951077901	5	0,0906435624	0,000212372208
2	0	0	1	0	501827,1882	3,23995924	3,2406857	0,04061524566480599	5	0,0910612047	0,000131621244
2	0	0	1	0	501835,1894	3,15994668	3,16059041	0,021569456452426112	5	0,0913073272	6,81722158E-005
2	0	0	1	0	501843,2104	3,07973552	3,08027697	0,0048844670494033146	5	0,0914117992	1,50455116E-005
2	0	0	1	0	501851,2716	2,99912357	2,99960208	-0,010635458067689064	5	0,0913878605	3,19021419E-005
2	0	0	1	0	501859,2728	2,91911221	2,91960669	-0,026141854943016797	5	0,0912406743	7,63239368E-005
2	0	0	1	0	501867,2740	2,83909965	2,83968639	-0,042628767594038662	5	0,0909664482	0,000121052333
2	0	0	1	0	501875,2752	2,75908828	2,75972652	-0,06066518569261559	5	0,0905546695	0,000167419319
2	0	0	1	0	501883,2764	2,67907619	2,67973042	-0,081632025927928038	5	0,0899886787	0,000218751826
2	0	0	1	0	501891,3176	2,59866428	2,59903526	-0,10740240628796528	5	0,089229621	0,000279142638
2	0	0	1	0	501899,3188	2,51865244	2,51936483	-0,12520069327136918	5	0,0882876366	0,000315426238
2	0	0	1	0	501907,3200	2,43864059	2,43922234	-0,12905928577055026	5	0,0872650966	0,000314804289
2	0	0	1	0	501915,3212	2,35862875	2,35937786	-0,13214040975327613	5	0,0862248167	0,000311769167
2	0	0	1	0	501923,3224	2,27861691	2,27915025	-0,14367186626488237	5	0,0851248354	0,000327449758
2	0	0	1	0	501931,3236	2,19860482	2,19924378	-0,16057209303188323	5	0,0839224681	0,000353137177
2	0	0	1	0	501939,3248	2,11859298	2,11917686	-0,17608443670043306	5	0,0825822577	0,000373154064
2	0	0	1	0	501947,3260	2,03858113	2,039114	-0,19354766045041184	5	0,0811163336	0,000394665753
2	0	0	1	0	501955,3272	1,95856941	1,95913184	-0,20210882831640365	5	0,0795473009	0,000395957846
2	0	0	1	0	501963,3284	1,87855744	1,87931859	-0,21560355358652973	5	0,0778765008	0,000405187777
2	0	0	1	0	501971,3296	1,7985456	1,7992295	-0,23316339848355926	5	0,0760909691	0,000419514457
2	0	0	1	0	501979,3307	1,71853375	1,71916234	-0,24561874854758182	5	0,0741817951	0,000422258512
2	0	0	1	0	501987,3319	1,63852203	1,63902402	-0,25886097671119725	5	0,072146371	0,000424279366
2	0	0	0	0	501995,3330	1,55850947	1,5591532	-0,27546852841769949	5	0,0699959248	0,000429497624
2	0	0	0	0	502003,3341	1,47849798	1,47899258	-0,28888125110556826	5	0,0677423403	0,000427253224
2	0	0	0	0	502011,3353	1,39848638	1,39899683	-0,30683212720408723	5	0,0653508604	0,000429257168
2	0	0	0	0	502019,3365	1,31847429	1,3190366	-0,33122672975339104	5	0,0627890527	0,000436900184
2	0	0	0	0	502027,3377	1,23846245	1,23908556	-0,35507573580575258	5	0,0600560494	0,000439969212
2	0	0	0	0	502035,3389	1,15845048	1,15903187	-0,37619246021603827	5	0,0571212508	0,000436019036
2	0	0	0	0	502043,3401	1,07843864	1,07904041	-0,39839717428441101	5	0,0540157147	0,000429886655
2	0	0	0	0	502051,3413	0,998426855	0,999049246	-0,41392398066818682	5	0,0507688522	0,000413530448
2	0	0	0	0	502059,3425	0,91841501	0,9190045	-0,44347061547969523	5	0,0472275168	0,000407551503
2	0	0	0	0	502067,3437	0,838403165	0,83882165	-0,46402751523311104	5	0,0436263718	0,000389236317
2	1	0	0	1	502075,2353	0,840603471	0,841169536	-0,42888780027902483	5	0,0400620811	0,000360767357
2	1	0	0	1	502083,2365	0,920615256	0,921285629	-0,3854267491993664	5	0,0368093066	0,000355088123
2	1	0	0	1	502091,2377	1,00062716	1,00109422	-0,34734703986734061	5	0,0338896625	0,000347727124
2	1	0	0	1	502099,2389	1,080639	1,0812192	-0,31464198435208422	5	0,0312459562	0,000340196944
2	1	0	0	1	502107,2401	1,16065097	1,16131747	-0,28789687915533158	5	0,0288281497	0,000334339682
2	1	0	0	1	502115,2412	1,24066281	1,24131763	-0,25888696023159418	5	0,0266375542	0,000321360945
2	1	0	0	1	502123,2424	1,32067466	1,32108605	-0,23101550175083741	5	0,0246774945	0,000305191352
2	1	0	0	1	502131,2436	1,40068662	1,40129578	-0,20369755745762586	5	0,0229364261	0,000285440532
2	1	0	0	1	502139,2448	1,48069859	1,48126912	-0,17516581433031741	5	0,0214083139	0,000259467721
2	1	0	0	1	502147,2460	1,56071031	1,56137633	-0,14671536871335222	5	0,0201179702	0,000229077908
2	1	0	0	1	502155,2472	1,64072192	1,6413008	-0,11764289302475418	5	0,0190595016	0,00019308737
2	1	0	0	1	502163,2284	1,72053397	1,72094381	-0,086507387257491891	5	0,0182460733	0,000148874358
2	1	0	1	0	502171,1562	1,79934561	1,7998085	-0,056671040391343962	6	-0,000554971513	0,000101997022
2	1	0	1	0	502179,1574	1,87935758	1,879987	-0,02743420812853159	6	-0,000890053576	5,1575953E-005
2	1	0	1	0	502187,1986	1,95976961	1,96034813	-1,3930282624094182E-005	6	-0,000998991542	2,73082037E-008
2	1	0	1	0	502195,2398	2,0401814	2,04073143	0,026580105207999082	6	-0,000892040378	5,4242857E-005
2	1	0	1	0	502203,2410	2,12019324	2,12060237	0,054424514614594963	6	-0,000569586875	0,000115412753
2	1	0	1	0	502211,2422	2,20020533	2,20083022	0,086137140031767539	6	-1,03548082E-005	0,000189573228
2	1	0	1	0	502219,2734	2,2805171	2,28109312	0,12349882099294651	6	0,000827955431	0,000281712302
2	1	0	1	0	502227,2746	2,36052895	2,36105323	0,16558179131674512	6	0,00198259577	0,000390947418
2	1	0	1	0	502235,2758	2,44054127	2,44110227	0,20779333149806867	6	0,00347790471	0,000507244782
2	1	0	1	0	502243,2770	2,52055287	2,5210402	0,2517941337837688	6	0,00531381927	0,000634783122
2	1	0	1	0	502251,2781	2,60056448	2,60124516	0,29873884562403322	6	0,00751763955	0,000777092995
2	1	0	1	0	502259,2793	2,68057632	2,68127203	0,35072241751133683	6	0,0101177469	0,00094038219
2	1	0	1	0	502267,2805	2,76058865	2,76133943	0,41233949107981171	6	0,0131622329	0,00113860925
2	1	0	1	0	502275,2817	2,84060001	2,84127259	0,48236263536469613	6	0,0167392921	0,00137052371
2	1	0	1	0	502283,2829	2,92061234	2,9212594	0,5654986591802729	6	0,0209070202	0,00165196822
2	1	0	1	0	502291,2841	3,0006237	3,00124192	0,67334329702511744	6	0,0259132404	0,00202086614
2	1	0	1	0	502299,2853	3,08063602	3,08125591	0,79583003080551155	6	0,0318331048	0,00245215604
2	1	0	0	0	502307,2864	3,16064692	3,1611793	0,84112587352138317	6	0,0384602956	0,0026589497
2	1	0	0	0	502315,2876	3,24065995	3,24140763	0,76556875555424858	6	0,0450176261	0,00248152041
2	1	0	0	0	502323,2887	3,32067108	3,3211844	0,6044493361755689	6	0,0505086221	0,0020074877
2	1	0	0	0	502331,2899	3,40068316	3,40136766	0,47575641195807571	6	0,0547494404	0,00161822245
2	1	0	0	0	502339,2911	3,48069549	3,48146558	0,44502394818872749	6	0,058413811	0,00154933555
2	1	0	0	0	502347,2923	3,56070709	3,5613544	0,44320211649217798	6	0,0619573891	0,0015783998
2	1	0	0	0	502355,2935	3,6407187	3,64143038	0,43372293196065306	6	0,0654668435	0,00157937186
2	1	0	0	0	502363,2947	3,72073126	3,72146654	0,42609914668180384	6	0,0688974783	0,0015857137
2	0	0	0	0	502371,2213	3,79999352	3,80094624	0,43040789205294419	6	0,0722721219	0,00163595728
2	0	0	0	0	502379,1774	3,72043085	3,72132826	0,2988045818206912	6	0,0751186237	0,00111194991
2	0	0	0	0	502387,1786	3,64041877	3,64117217	0,21407563363513216	6	0,0771431997	0,000779486261
2	0	0	0	0	502395,1798	3,5604074	3,5611589	0,15599098392865462	6	0,0786060095	0,000555508654
2	0	0	0	0	502403,1810	3,48039508	3,48100233	0,1157710562046207	6	0,0796801075	0,000402999314
2	0	0	0	0	502411,1822	3,40038347	3,40105104	0,083223802822260058	6	0,0804691613	0,000283048401
2	0	0	0	0	502419,1834	3,32037115	3,32118082	0,057591917427519014	6	0,0810311437	0,000191273168
2	0	0	0	0	502427,2246	3,23995948	3,24067664	0,035792909450483962	6	0,081401132	0,000115993244
2	0	0	1	0	502435,2257	3,1599474	3,16064024	0,017792105283978342	6	0,0816129968	5,6234443E-005
2	0	0	1	0	502443,2669	3,07953501	3,0801053	0,0019937574128782618	6	0,0816913769	6,1409828E-006
2	0	0	1	0	502451,3080	2,99912405	2,99978971	-0,012342710579346326	6	0,0816491395	3,70255366E-005
2	0	0	1	0	502459,3092	2,91911197	2,91958427	-0,026519477807192714	6	0,0814937279	7,74258515E-005
2	0	0	1	0	502467,3104	2,83910012	2,83960199	-0,041342356293980422	6	0,0812227577	0,000117395837
2	0	0	1	0	502475,3116	2,75908828	2,75956607	-0,057901171915647923	6	0,0808288008	0,00015978211
2	0	0	1	0	502483,3128	2,67907643	2,67968154	-0,079880139488657024	6	0,0802823752	0,000214053332
2	0	0	1	0	502491,3540	2,59866428	2,59920025	-0,10725657019281331	6	0,079528816	0,000278781314
2	0	0	1	0	502499,3552	2,51865244	2,51943636	-0,1287541062640063	6	0,0785716549	0,000324387773
2	0	0	1	0	502507,3564	2,43864059	2,43951178	-0,13741129828203102	6	0,0775042698	0,000335216493
2	0	0	1	0	502515,3575	2,35862875	2,35930228	-0,13428669088279221	6	0,0764120743	0,000316822901
2	0	0	1	0	502523,3587	2,27861667	2,27920365	-0,13791770243120726	6	0,0753213242	0,000314342527
2	0	0	1	0	502531,3599	2,19860506	2,1992259	-0,14670267275154682	6	0,074187845	0,000322632317
2	0	0	1	0	502539,3611	2,11859322	2,1192925	-0,1545514188086017	6	0,072977975	0,000327539659
2	0	0	1	0	502547,3623	2,03858137	2,03909659	-0,16271066508704234	6	0,0716900378	0,000331782765
2	0	0	1	0	502555,3635	1,95856941	1,95918083	-0,18637368543486854	6	0,0702842996	0,000365139742
2	0	0	1	0	502563,3647	1,87855721	1,87916279	-0,18886909768398618	6	0,0688139051	0,00035491577
2	0	0	1	0	502571,3659	1,79854572	1,79920268	-0,19984606139500061	6	0,0672564954	0,000359563564
2	0	0	1	0	502579,3671	1,71853375	1,71918917	-0,21415150979603581	6	0,0655971542	0,000368166948
2	0	0	1	0	502587,3683	1,63852191	1,63891709	-0,23198491503933171	6	0,063816756	0,00038020403
2	0	0	0	0	502595,3694	1,55851078	1,55924761	-0,24324898972047482	6	0,061866872	0,000379285397
2	0	0	0	0	502603,3706	1,47849834	1,47894835	-0,27498817305485536	6	0,0597798862	0,000406693318
2	0	0	0	0	502611,3717	1,39848626	1,39902353	-0,29452580372216378	6	0,0574583448	0,000412048539
2	0	0	0	0	502619,3729	1,31847441	1,31897891	-0,31136833845326618	6	0,0550119132	0,000410688284
2	0	0	0	0	502627,3741	1,23846245	1,2391746	-0,32914310414343405	6	0,0524468794	0,000407865766
2	0	0	0	0	502635,3753	1,1584506	1,15895617	-0,35793801065947405	6	0,0496840514	0,000414834474
2	0	0	0	0	502643,3765	1,07843864	1,07904935	-0,37724148016422099	6	0,0467825197	0,00040706218
2	0	0	0	0	502651,3776	0,998426914	0,998977959	-0,39936916619816467	6	0,0437190086	0,000398960983
2	0	0	0	0	502659,3788	0,91841507	0,918973327	-0,41244958920610752	6	0,0404228941	0,000379030185
2	0	0	0	0	502667,3800	0,838403165	0,839026511	-0,44070331924768525	6	0,0370199792	0,000369761779
2	1	0	1	1	502675,2718	0,84060353	0,841067135	-0,40231063479073683	6	0,0336343572	0,000338370242
2	1	0	1	1	502683,2730	0,920615315	0,921183169	-0,35712976450168198	6	0,0305796769	0,000328981929
2	1	0	1	1	502691,2742	1,00062716	1,00119674	-0,33699571803487885	6	0,027835317	0,000337399018
2	1	0	1	1	502699,2754	1,08063912	1,08117902	-0,2975313901142336	6	0,0253162589	0,000321684696
2	1	0	1	1	502707,2766	1,16065085	1,16128623	-0,26965322652486323	6	0,023048358	0,000313144585
2	1	0	1	1	502715,2778	1,24066281	1,24140239	-0,24288291459971578	6	0,0209971406	0,000301515422
2	1	0	1	1	502723,2790	1,32067478	1,32113504	-0,21750261175825837	6	0,0191558711	0,000287350325
2	1	0	1	1	502731,2802	1,4006865	1,40121555	-0,19088770961389258	6	0,0175236464	0,000267474825
2	1	0	1	1	502739,2814	1,48069847	1,4813894	-0,16639333470137706	6	0,0160833597	0,00024649332
2	1	0	1	1	502747,2826	1,56071031	1,56135845	-0,13815081202321827	6	0,0148703065	0,000215702938
2	1	0	1	1	502755,2838	1,64072216	1,64120698	-0,10980843418036512	6	0,0138753159	0,000180218369
2	1	0	0	1	502763,2849	1,72073364	1,72153676	-0,082078343928589261	6	0,0131117338	0,000141300887
2	1	0	1	0	502771,1488	1,79924548	1,79979527	-0,052934665560584794	7	-0,000512191094	9,52715636E-005
2	1	0	1	0	502779,1500	1,87925768	1,87974644	-0,025311247324915075	7	-0,000824406976	4,75787274E-005
2	1	0	1	0	502787,1911	1,95966947	1,96006751	0,00077995527977621491	7	-0,000921831641	1,52876498E-006
2	1	0	1	0	502795,2323	2,0400815	2,04066014	0,026018338773779514	7	-0,000813750667	5,30945872E-005
2	1	0	1	0	502803,2335	2,12009335	2,12072706	0,052046047773696813	7	-0,000502646726	0,000110375462
2	1	0	1	0	502811,2347	2,20010495	2,20065165	0,081235265066085696	7	2,77200397E-005	0,000178770526
2	1	0	1	0	502819,2659	2,2804172	2,28100824	0,11475999177330333	7	0,000812260609	0,000261768495
2	1	0	1	0	502827,2671	2,36042929	2,36110687	0,15307478208301539	7	0,00188169361	0,000361425919
2	1	0	1	0	502835,2683	2,44044089	2,44099116	0,19254767627420867	7	0,00326253567	0,000470007188
2	1	0	1	0	502843,2695	2,52045274	2,52110696	0,23298993534236179	7	0,00496383384	0,00058739254
2	1	0	1	0	502851,2707	2,60046482	2,60104489	0,27281037338630298	7	0,00698806765	0,000709592015
2	1	0	1	0	502859,2719	2,68047619	2,68110323	0,31618952240656563	7	0,00933525898	0,000847736723
2	1	0	1	0	502867,2731	2,76048851	2,76113439	0,36389215059441946	7	0,0120634697	0,00100475515
2	1	0	1	0	502875,2743	2,84050012	2,84113026	0,41990921501484781	7	0,0151952747	0,00119301677
2	1	0	1	0	502883,2755	2,92051196	2,92100573	0,49483718412617158	7	0,0188737419	0,0014454223
2	1	0	0	0	502891,2766	3,00052309	3,0011692	0,56363786013220365	7	0,0231871512	0,0016915726
2	1	0	0	0	502899,2778	3,08053589	3,08127832	0,65510355571434701	7	0,028107997	0,00201855646
2	1	0	0	0	502907,2789	3,16054749	3,16125154	0,73885673470400243	7	0,0337722898	0,00233571208
2	1	0	0	0	502915,2800	3,24055934	3,24113536	0,72455254452370355	7	0,0396119803	0,00234837295
2	1	0	0	0	502923,2812	3,32057142	3,3211937	0,58507799826286374	7	0,0449333936	0,0019431574
2	1	0	0	0	502931,2824	3,40058303	3,40128279	0,44985054047020602	7	0,0489576943	0,00153006893
2	1	0	0	0	502939,2836	3,48059487	3,48122072	0,42084517750751373	7	0,0523807779	0,00146505493
2	1	0	0	0	502947,2848	3,56060719	3,56146145	0,41798754912559002	7	0,0557234026	0,00148864649
2	1	0	0	0	502955,2860	3,6406188	3,64130163	0,41902051521119078	7	0,0590863004	0,00152578007
2	1	0	0	0	502963,2872	3,72063088	3,72130609	0,41245317804041082	7	0,0624131486	0,00153486454
2	0	0	0	0	502971,2238	3,79999352	3,80102634	0,41338312625885011	7	0,0656849518	0,00157128018
2	0	0	0	0	502979,1800	3,72043085	3,72113228	0,28133351341994038	7	0,0683746934	0,00104687922
2	0	0	0	0	502987,1812	3,64041877	3,64101624	0,20290683547932086	7	0,0702845231	0,000738787057
2	0	0	0	0	502995,1824	3,56040692	3,56113172	0,14903482680933488	7	0,0716818571	0,000530732621
2	0	0	0	0	503003,1836	3,48039508	3,48105574	0,1086289741581799	7	0,0727067962	0,000378143508
2	0	0	0	0	503011,1848	3,40038323	3,40097094	0,079348465677833485	7	0,0734557435	0,000269861834
2	0	0	0	0	503019,1860	3,32037115	3,32103777	0,054988143753468832	7	0,0739906281	0,000182617703
2	0	0	0	0	503027,2272	3,23995948	3,24063182	0,0340158834242848	7	0,0743449479	0,000110232955
2	0	0	1	0	503035,2283	3,15994787	3,16053915	0,016918200844173421	7	0,074546501	5,34706378E-005
2	0	0	0	0	503043,2696	3,07953477	3,07995749	0,0019350212984941344	7	0,0746208802	5,95978327E-006
2	0	0	1	0	503051,3105	2,99912429	2,99962974	-0,011722253916467502	7	0,0745809823	3,51624221E-005
2	0	0	1	0	503059,3117	2,91911197	2,91957951	-0,024877310657217878	7	0,0744339749	7,26312865E-005
2	0	0	1	0	503067,3129	2,83910012	2,83966899	-0,038854683826986925	7	0,0741805434	0,00011033444
2	0	0	1	0	503075,3141	2,75908828	2,75965071	-0,054365361454311814	7	0,0738091692	0,000150029402
2	0	0	1	0	503083,3153	2,67907643	2,67961931	-0,073946847925306483	7	0,0732977465	0,000198149399
2	0	0	1	0	503091,3165	2,59906411	2,59952116	-0,096012478884032742	7	0,0726207867	0,000249586476
2	0	0	1	0	503099,3577	2,51865268	2,51931119	-0,11812866272197597	7	0,0717576519	0,000297602848
2	0	0	1	0	503107,3589	2,43864083	2,43916845	-0,13310020887810192	7	0,0707483962	0,00032465384
2	0	0	1	0	503115,3601	2,35862875	2,35922647	-0,13428574340003774	7	0,0696671158	0,000316810474
2	0	0	1	0	503123,3613	2,27861691	2,27913713	-0,13039148140147128	7	0,068600066	0,000297180057
2	0	0	1	0	503131,3625	2,19860482	2,19916821	-0,13145461481892373	7	0,067560643	0,000289090822
2	0	0	1	0	503139,3637	2,11859298	2,11914134	-0,14118583070941826	7	0,0664728209	0,000299192732
2	0	0	1	0	503147,3649	2,03858113	2,03926563	-0,15304516386930701	7	0,0652978942	0,000312099757
2	0	0	1	0	503155,3661	1,95856941	1,95910072	-0,16651092697348835	7	0,0640212446	0,000326211681
2	0	0	1	0	503163,3673	1,87855756	1,87920296	-0,17487128836067843	7	0,0626612753	0,000328618655
2	0	0	1	0	503171,3685	1,7985456	1,79908681	-0,19483358590623024	7	0,0612049215	0,000350522547
2	0	0	1	0	503179,3697	1,71853375	1,71892619	-0,20449792517832454	7	0,0596054383	0,00035151685
2	0	0	1	0	503187,3708	1,63852179	1,63897502	-0,21505547846080986	7	0,0579331815	0,000352470553
2	0	0	1	0	503195,3720	1,55851007	1,55907285	-0,22584878475852842	7	0,0561744124	0,000352114701
2	0	0	0	0	503203,3731	1,47849858	1,47908676	-0,24466153381248646	7	0,0542854145	0,000361875631
2	0	0	0	0	503211,3742	1,39848626	1,39909911	-0,26419200617129146	7	0,0522553064	0,000369630812
2	0	0	0	0	503219,3754	1,31847441	1,3191036	-0,28261918326218848	7	0,0500752181	0,000372803974
2	0	0	0	0	503227,3766	1,23846257	1,23904538	-0,30803939624240877	7	0,0477141067	0,000381674792
2	0	0	0	0	503235,3778	1,1584506	1,15890265	-0,32583765175056634	7	0,0451890305	0,000377614109
2	0	0	0	0	503243,3790	1,07843864	1,07900929	-0,34714263122252429	7	0,0424983911	0,00037457014
2	0	0	0	0	503251,3802	0,998426914	0,998933494	-0,36727862953449811	7	0,0396524407	0,000366886932
2	0	0	0	0	503259,3814	0,91841501	0,919044554	-0,37605089335530016	7	0,036684949	0,000345607521
2	0	0	0	0	503267,3826	0,838403165	0,838861763	-0,38658292988245523	7	0,0336286388	0,000324289635
2	1	0	1	1	503275,2744	0,84060359	0,841089427	-0,37036387111854816	7	0,0305696912	0,000311509124
2	1	0	1	1	503283,2756	0,920615315	0,921156406	-0,33321782791366042	7	0,0277533215	0,000306945731
2	1	0	1	1	503291,2768	1,00062716	1,00125468	-0,30555135939546931	7	0,0251984857	0,000305934722
2	1	0	1	1	503299,2780	1,08063912	1,08131266	-0,27903622882096579	7	0,022851022	0,000301725406
2	1	0	1	1	503307,2792	1,16065097	1,16136193	-0,25346314110275437	7	0,0207209531	0,000294362457
2	1	0	1	1	503315,2804	1,24066281	1,24117053	-0,22868245608966454	7	0,0187892746	0,000283833913
2	1	0	1	1	503323,2815	1,32067478	1,32120216	-0,20569873025158026	7	0,017051857	0,000271769619
2	1	0	1	1	503331,2827	1,4006865	1,40138924	-0,1804189622333272	7	0,0155069456	0,000252837199
2	1	0	1	1	503339,2839	1,48069847	1,48130488	-0,15522973434309994	7	0,0141650187	0,000229942569
2	1	0	1	1	503347,2851	1,56071031	1,56123364	-0,13004322762221942	7	0,0130232377	0,000203027856
2	1	0	1	1	503355,2863	1,64072192	1,64120257	-0,10389651389171709	7	0,0120869391	0,000170515224
2	1	0	0	1	503363,2874	1,72073412	1,72141278	-0,076645349911361293	7	0,0113637904	0,000131938286
2	1	0	0	1	503363,4511	1,72238481	1,72282076	-0,076023372218889446	7	0,0113512892	0,000130974644